phase,event,onset,offset,trial_number,game,image,outcome,choice,correct,rt,letter,match,response,option,true_value,true_position,recalled_position,
encoding,fixation,20.02644925005734,20.547458041924983,1,1,Object_Land_Pattern_Large,8,,,,,,,,,,,
encoding,image,20.547677125083283,21.573261708021164,1,1,Object_Land_Pattern_Large,8,,,,,,,,,,,
encoding,value,21.5733834579587,27.591062207939103,1,1,Object_Land_Pattern_Large,8,,,,,,,,,,,
encoding,attention,27.59118445799686,30.609649042133242,1,1,Object_Land_Pattern_Large,8,+8,1,0.9605983749497682,,,,,,,,
encoding,fixation,30.609817249933258,31.616838000016287,2,1,Animal_Sea_Solid_Small,2,,,,,,,,,,,
encoding,image,31.61694954195991,32.628433167003095,2,1,Animal_Sea_Solid_Small,2,,,,,,,,,,,
encoding,value,32.62854791712016,38.64141520811245,2,1,Animal_Sea_Solid_Small,2,,,,,,,,,,,
encoding,attention,38.64155595796183,41.65869191708043,2,1,Animal_Sea_Solid_Small,2,+2,1,0.6563083750661463,,,,,,,,
encoding,fixation,41.658837999915704,42.915377917001024,3,1,Animal_Land_Pattern_Small,-8,,,,,,,,,,,
encoding,image,42.915499333059415,43.92676145792939,3,1,Animal_Land_Pattern_Small,-8,,,,,,,,,,,
encoding,value,43.92689966713078,49.93949937494472,3,1,Animal_Land_Pattern_Small,-8,,,,,,,,,,,
encoding,attention,49.93962466693483,52.95763941691257,3,1,Animal_Land_Pattern_Small,-8,-8,1,1.0912216668948531,,,,,,,,
encoding,fixation,52.95780420792289,54.4623324170243,4,1,Object_Sea_Solid_Large,-1,,,,,,,,,,,
encoding,image,54.46244075009599,55.473910541972145,4,1,Object_Sea_Solid_Large,-1,,,,,,,,,,,
encoding,value,55.474012332968414,61.48679937492125,4,1,Object_Sea_Solid_Large,-1,,,,,,,,,,,
encoding,attention,61.486900750081986,64.55698699993081,4,1,Object_Sea_Solid_Large,-1,-1,1,0.7396275410428643,,,,,,,,
encoding,fixation,64.55714641697705,66.06277587497607,5,1,Animal_Land_Solid_Small,2,,,,,,,,,,,
encoding,image,66.06290133297443,67.07388179190457,5,1,Animal_Land_Solid_Small,2,,,,,,,,,,,
encoding,value,67.07399970805272,73.08483750000596,5,1,Animal_Land_Solid_Small,2,,,,,,,,,,,
encoding,attention,73.08495154208504,76.10302195791155,5,1,Animal_Land_Solid_Small,2,+2,1,1.2404977090191096,,,,,,,,
encoding,fixation,76.10316870803945,77.1090042500291,6,1,Object_Sea_Pattern_Large,-3,,,,,,,,,,,
encoding,image,77.10916795791127,78.1202436669264,6,1,Object_Sea_Pattern_Large,-3,,,,,,,,,,,
encoding,value,78.12037066696212,84.13143554213457,6,1,Object_Sea_Pattern_Large,-3,,,,,,,,,,,
encoding,attention,84.13156879204325,87.14830379211344,6,1,Object_Sea_Pattern_Large,-3,-3,1,0.9890599579084665,,,,,,,,
n-back,,,,1,1,,,,1,None,X,False,None,,,,,
n-back,,,,2,1,,,,0,None,Z,True,None,,,,,
n-back,,,,3,1,,,,0,0.8953383748885244,Z,False,1,,,,,
n-back,,,,4,1,,,,1,None,N,False,None,,,,,
n-back,,,,5,1,,,,1,None,C,False,None,,,,,
n-back,,,,6,1,,,,1,0.945167750120163,N,True,1,,,,,
n-back,,,,7,1,,,,0,1.170717207947746,Z,False,1,,,,,
n-back,,,,8,1,,,,1,0.9668022498954087,N,True,1,,,,,
n-back,,,,9,1,,,,1,None,X,False,None,,,,,
n-back,,,,10,1,,,,1,None,V,False,None,,,,,
n-back,,,,11,1,,,,1,0.5488600418902934,X,True,1,,,,,
n-back,,,,12,1,,,,0,None,V,True,None,,,,,
n-back,,,,13,1,,,,1,None,Z,False,None,,,,,
n-back,,,,14,1,,,,1,None,X,False,None,,,,,
n-back,,,,15,1,,,,0,0.45218287501484156,X,False,1,,,,,
n-back,,,,16,1,,,,1,None,N,False,None,,,,,
n-back,,,,17,1,,,,1,None,Z,False,None,,,,,
n-back,,,,18,1,,,,1,0.6886239580344409,N,True,1,,,,,
n-back,,,,19,1,,,,1,None,X,False,None,,,,,
n-back,,,,20,1,,,,0,None,N,True,None,,,,,
n-back,,,,21,1,,,,1,None,V,False,None,,,,,
n-back,,,,22,1,,,,1,None,Z,False,None,,,,,
n-back,,,,23,1,,,,1,None,X,False,None,,,,,
n-back,,,,24,1,,,,1,0.8338198331184685,Z,True,1,,,,,
n-back,,,,25,1,,,,0,None,X,True,None,,,,,
n-back,,,,26,1,,,,1,None,V,False,None,,,,,
n-back,,,,27,1,,,,1,None,B,False,None,,,,,
n-back,,,,28,1,,,,1,None,Z,False,None,,,,,
n-back,,,,29,1,,,,0,0.6219642090145499,Z,False,1,,,,,
n-back,,,,30,1,,,,1,0.8443459998816252,Z,True,1,,,,,
choice,fixation,191.85844095796347,193.11627041711472,1,1,,,,,,,,,Animal,,,,
choice,option,193.12736737495288,194.3710007921327,1,1,,,,,,,,,Animal,,,,
choice,choice,194.37112362496555,208.50660408311523,1,1,,,2,1,13.124133249977604,,,,Animal,,,,
choice,fixation,208.50674533308484,209.26163445808925,2,1,,,,,,,,,Small,,,,
choice,option,209.27052441705018,210.29917579190806,2,1,,,,,,,,,Small,,,,
choice,choice,210.2993227080442,227.67319141700864,2,1,,,2,1,16.362729375017807,,,,Small,,,,
choice,fixation,227.67332033300772,228.17843387508765,3,1,,,,,,,,,Large,,,,
choice,option,228.18777687498368,229.21523420792073,3,1,,,,,,,,,Large,,,,
choice,choice,229.21537004201673,231.3359827080276,3,1,,,1,1,1.1109989578835666,,,,Large,,,,
choice,fixation,231.3361063329503,231.8411642080173,4,1,,,,,,,,,Object,,,,
choice,option,231.8506509999279,232.8770522500854,4,1,,,,,,,,,Object,,,,
choice,choice,232.87720400001854,245.38687816704623,4,1,,,1,1,11.498573541874066,,,,Object,,,,
choice,fixation,245.38699320796877,246.39205699996091,5,1,,,,,,,,,Sea,,,,
choice,option,246.40061637503095,247.42814050009474,5,1,,,,,,,,,Sea,,,,
choice,choice,247.42827683291398,254.45741012506187,5,1,,,2,1,6.019751667045057,,,,Sea,,,,
choice,fixation,254.45756445801817,255.46291487501003,6,1,,,,,,,,,Pattern,,,,
choice,option,255.472958792001,256.5011808751151,6,1,,,,,,,,,Pattern,,,,
choice,choice,256.5013546249829,275.67309433291666,6,1,,,1,0,18.16091166716069,,,,Pattern,,,,
choice,fixation,275.6732246670872,276.1781786249485,7,1,,,,,,,,,Solid,,,,
choice,option,276.18745916709304,277.2163556669839,7,1,,,,,,,,,Solid,,,,
choice,choice,277.21646833303384,292.64276258298196,7,1,,,1,1,14.414961708011106,,,,Solid,,,,
choice,fixation,292.64291441696696,293.89911499992013,8,1,,,,,,,,,Land,,,,
choice,option,293.9084845830221,294.93643666710705,8,1,,,,,,,,,Land,,,,
choice,choice,294.93654699996114,309.4200984579511,8,1,,,1,1,13.47247991594486,,,,Land,,,,
memory,free_recall,376.27428700006567,423.690282125026,0,1,,,,,,,,,,,,,
memory,value_recall,474.44817166705616,483.57076891697943,1,1,Animal_Sea_Solid_Small,,,,9.11850641691126,,,,,2,,,
memory,value_recall,484.61801641690545,495.30660900007933,2,1,Object_Sea_Solid_Large,,,,10.685154916951433,,,,,-1,,,
memory,value_recall,496.3542126249522,499.5864429580979,3,1,Animal_Land_Solid_Small,,,,3.229642749996856,,,,,2,,,
memory,value_recall,501.38323412509635,505.1663633750286,4,1,Object_Sea_Pattern_Large,,,,3.7789475419558585,,,,,-3,,,
memory,value_recall,506.2129362919368,508.9226319170557,5,1,Animal_Land_Pattern_Small,,,,2.7064682501368225,,,,,-8,,,
memory,value_recall,510.2186779170297,513.7066754999105,6,1,Object_Land_Pattern_Large,,,,3.4839823748916388,,,,,8,,,
memory,spatial_recall,534.6932557919063,538.6050319999922,6,1,Object_Land_Pattern_Large,,,1,3.907044416991994,,,,,,"[-329, 190]","[-329, 190]",
memory,spatial_recall,540.164177125087,544.4092537919059,6,1,Object_Sea_Pattern_Large,,,1,4.240858833072707,,,,,,"[0, -380]","[0, -380]",
memory,spatial_recall,546.4713124169502,548.9759484999813,6,1,Animal_Land_Solid_Small,,,1,2.5006214170716703,,,,,,"[0, 380]","[0, 380]",
memory,spatial_recall,551.0405530419666,557.0560830829199,6,1,Object_Sea_Solid_Large,,,1,6.011322666890919,,,,,,"[329, -190]","[329, -190]",
memory,spatial_recall,558.3640491669066,560.5745122919325,6,1,Animal_Land_Pattern_Small,,,1,2.206370250089094,,,,,,"[329, 189]","[329, 189]",
memory,spatial_recall,561.6393725001253,563.2690148330294,6,1,Animal_Sea_Solid_Small,,,1,1.6253824578598142,,,,,,"[-329, -190]","[-329, -190]",
encoding,fixation,16.350354499882087,16.859277749899775,7,2,Object_Land_Pattern_Large,7,,,,,,,,,,,
encoding,image,16.85940199997276,17.872290625004098,7,2,Object_Land_Pattern_Large,7,,,,,,,,,,,
encoding,value,17.872404957888648,23.88620137493126,7,2,Object_Land_Pattern_Large,7,,,,,,,,,,,
encoding,attention,23.886336457915604,26.90440245787613,7,2,Object_Land_Pattern_Large,7,+7,1,1.0238722078502178,,,,,,,,
encoding,fixation,26.904566624900326,28.15976370801218,8,2,Object_Land_Solid_Large,-7,,,,,,,,,,,
encoding,image,28.159935291856527,29.170192332938313,8,2,Object_Land_Solid_Large,-7,,,,,,,,,,,
encoding,value,29.170329042011872,35.18123770784587,8,2,Object_Land_Solid_Large,-7,,,,,,,,,,,
encoding,attention,35.18136658286676,38.19824616704136,8,2,Object_Land_Solid_Large,-7,-7,1,0.7906287910882384,,,,,,,,
encoding,fixation,38.19841199996881,39.70363279199228,9,2,Object_Sea_Solid_Small,-1,,,,,,,,,,,
encoding,image,39.70381570793688,40.71412179199979,9,2,Object_Sea_Solid_Small,-1,,,,,,,,,,,
encoding,value,40.71422691689804,46.72546754195355,9,2,Object_Sea_Solid_Small,-1,,,,,,,,,,,
encoding,attention,46.72558429185301,49.74223070801236,9,2,Object_Sea_Solid_Small,-1,-1,1,0.8605393329635262,,,,,,,,
encoding,fixation,49.74241358297877,50.49738258286379,10,2,Animal_Sea_Pattern_Small,-2,,,,,,,,,,,
encoding,image,50.497481666971,51.508717791875824,10,2,Animal_Sea_Pattern_Small,-2,,,,,,,,,,,
encoding,value,51.50883708288893,57.520347124896944,10,2,Animal_Sea_Pattern_Small,-2,,,,,,,,,,,
encoding,attention,57.52046012482606,60.540173874935135,10,2,Animal_Sea_Pattern_Small,-2,-2,1,0.6874605000484735,,,,,,,,
encoding,fixation,60.5403254579287,61.54540616692975,11,2,Animal_Land_Pattern_Large,6,,,,,,,,,,,
encoding,image,61.54553808295168,62.55688358284533,11,2,Animal_Land_Pattern_Large,6,,,,,,,,,,,
encoding,value,62.55700849997811,68.5690916669555,11,2,Animal_Land_Pattern_Large,6,,,,,,,,,,,
encoding,attention,68.56922020786442,71.58697741688229,11,2,Animal_Land_Pattern_Large,6,+6,1,1.9544488340616226,,,,,,,,
encoding,fixation,71.58714325004257,72.59217641688883,12,2,Animal_Sea_Solid_Small,9,,,,,,,,,,,
encoding,image,72.5922948748339,73.60314258304425,12,2,Animal_Sea_Solid_Small,9,,,,,,,,,,,
encoding,value,73.60329262493178,79.61542004183866,12,2,Animal_Sea_Solid_Small,9,,,,,,,,,,,
encoding,attention,79.6155478330329,82.63266662484966,12,2,Animal_Sea_Solid_Small,9,+9,1,1.4978381670080125,,,,,,,,
n-back,,,,31,2,,,,1,None,C,False,None,,,,,
n-back,,,,32,2,,,,0,None,N,True,None,,,,,
n-back,,,,33,2,,,,1,None,Z,False,None,,,,,
n-back,,,,34,2,,,,1,0.6953567918390036,N,True,1,,,,,
n-back,,,,35,2,,,,1,1.299486915813759,Z,True,1,,,,,
n-back,,,,36,2,,,,1,None,X,False,None,,,,,
n-back,,,,37,2,,,,1,None,N,False,None,,,,,
n-back,,,,38,2,,,,1,None,C,False,None,,,,,
n-back,,,,39,2,,,,1,1.0467647081241012,N,True,1,,,,,
n-back,,,,40,2,,,,1,1.1378683750517666,C,True,1,,,,,
n-back,,,,41,2,,,,1,None,B,False,None,,,,,
n-back,,,,42,2,,,,0,None,C,True,None,,,,,
n-back,,,,43,2,,,,1,0.682185250101611,B,True,1,,,,,
n-back,,,,44,2,,,,1,None,X,False,None,,,,,
n-back,,,,45,2,,,,1,None,V,False,None,,,,,
n-back,,,,46,2,,,,1,None,C,False,None,,,,,
n-back,,,,47,2,,,,1,None,Z,False,None,,,,,
n-back,,,,48,2,,,,1,None,V,False,None,,,,,
n-back,,,,49,2,,,,0,0.7854583750013262,V,False,1,,,,,
n-back,,,,50,2,,,,1,None,X,False,None,,,,,
n-back,,,,51,2,,,,1,0.7778872079215944,V,True,1,,,,,
n-back,,,,52,2,,,,0,1.0027709170244634,V,False,1,,,,,
n-back,,,,53,2,,,,1,None,B,False,None,,,,,
n-back,,,,54,2,,,,1,None,Z,False,None,,,,,
n-back,,,,55,2,,,,1,None,X,False,None,,,,,
n-back,,,,56,2,,,,1,None,C,False,None,,,,,
n-back,,,,57,2,,,,1,0.6295148748904467,X,True,1,,,,,
n-back,,,,58,2,,,,0,None,C,True,None,,,,,
n-back,,,,59,2,,,,1,None,N,False,None,,,,,
n-back,,,,60,2,,,,1,None,X,False,None,,,,,
choice,fixation,161.95041245804168,162.7038856248837,9,2,,,,,,,,,Pattern,,,,
choice,option,162.7129513749387,163.74007966695353,9,2,,,,,,,,,Pattern,,,,
choice,choice,163.74019270786084,166.98832758283243,9,2,,,1,1,2.238561083097011,,,,Pattern,,,,
choice,fixation,166.98845587484539,168.2434405828826,10,2,,,,,,,,,Animal,,,,
choice,option,168.25274916691706,169.28011158294976,10,2,,,,,,,,,Animal,,,,
choice,choice,169.2802265000064,174.32380633288994,10,2,,,1,1,4.033769958885387,,,,Animal,,,,
choice,fixation,174.32403087499551,175.07892462494783,11,2,,,,,,,,,Object,,,,
choice,option,175.0882959580049,176.11564216692932,11,2,,,,,,,,,Object,,,,
choice,choice,176.1157603750471,184.25862437486649,11,2,,,1,0,7.132986375130713,,,,Object,,,,
choice,fixation,184.25875916704535,185.01375304185785,12,2,,,,,,,,,Large,,,,
choice,option,185.02282733283937,186.0499319168739,12,2,,,,,,,,,Large,,,,
choice,choice,186.05004179198295,192.79544424987398,12,2,,,1,1,5.735667374916375,,,,Large,,,,
choice,fixation,192.7955613748636,194.30307108303532,13,2,,,,,,,,,Sea,,,,
choice,option,194.31190937501378,195.3389530000277,13,2,,,,,,,,,Sea,,,,
choice,choice,195.33908066689037,202.3144122918602,13,2,,,2,0,5.965134374797344,,,,Sea,,,,
choice,fixation,202.31458141701296,202.8197514580097,14,2,,,,,,,,,Land,,,,
choice,option,202.82842674991116,203.85608362499624,14,2,,,,,,,,,Land,,,,
choice,choice,203.85619399999268,210.15537224989384,14,2,,,1,1,5.2894963750150055,,,,Land,,,,
choice,fixation,210.15552783291787,210.91046612500213,15,2,,,,,,,,,Solid,,,,
choice,option,210.91993058286607,211.94642466702498,15,2,,,,,,,,,Solid,,,,
choice,choice,211.94652649993077,226.55877366685309,15,2,,,1,1,13.600179834058508,,,,Solid,,,,
choice,fixation,226.55891874991357,227.31390095804818,16,2,,,,,,,,,Small,,,,
choice,option,227.32323329197243,228.35236833291128,16,2,,,,,,,,,Small,,,,
choice,choice,228.35250274999999,231.23552516684867,16,2,,,2,0,1.8721474171616137,,,,Small,,,,
memory,free_recall,249.7192465418484,275.9738008750137,6,2,,,,,,,,,,,,,
memory,value_recall,285.4984454170335,297.6225240419153,7,2,Animal_Sea_Pattern_Small,,,,12.119478625012562,,,,,-2,,,
memory,value_recall,298.9216510418337,302.3189970420208,8,2,Object_Land_Solid_Large,,,,3.3933349170256406,,,,,-7,,,
memory,value_recall,304.1160528748296,310.53429495799355,9,2,Object_Sea_Solid_Small,,,,6.414279750082642,,,,,-1,,,
memory,value_recall,312.079582083039,315.319639749825,10,2,Object_Land_Pattern_Large,,,,3.2338829168584198,,,,,7,,,
memory,value_recall,316.36552087496966,323.83857395802625,11,2,Animal_Land_Pattern_Large,,,,7.469849708024412,,,,,6,,,
memory,value_recall,324.8861826248467,330.12602866697125,12,2,Animal_Sea_Solid_Small,,,,5.23636274994351,,,,,9,,,
memory,spatial_recall,344.8781239578966,347.94673270802014,12,2,Object_Land_Pattern_Large,,,1,3.0643682500813156,,,,,,"[-329, 190]","[-329, 190]",
memory,spatial_recall,349.2619313749019,355.75955779198557,12,2,Object_Sea_Solid_Small,,,1,6.4909808749798685,,,,,,"[0, 380]","[0, 380]",
memory,spatial_recall,357.31868449994363,358.8803154169582,12,2,Animal_Land_Pattern_Large,,,1,1.5575887910090387,,,,,,"[0, -380]","[0, -380]",
memory,spatial_recall,360.94336949987337,362.4394842078909,12,2,Animal_Sea_Solid_Small,,,1,1.4921507081016898,,,,,,"[-329, -190]","[-329, -190]",
memory,spatial_recall,364.24289479199797,365.6642782080453,12,2,Object_Land_Solid_Large,,,1,1.4173706660512835,,,,,,"[329, -190]","[329, -190]",
memory,spatial_recall,367.4772185829934,371.2091415829491,12,2,Animal_Sea_Pattern_Small,,,1,3.727882791077718,,,,,,"[329, 189]","[329, 189]",
encoding,fixation,9.072893334086984,10.578784542158246,13,3,Animal_Land_Solid_Large,-6,,,,,,,,,,,
encoding,image,10.578903334215283,11.590929666999727,13,3,Animal_Land_Solid_Large,-6,,,,,,,,,,,
encoding,value,11.591040375176817,17.60613916721195,13,3,Animal_Land_Solid_Large,-6,,,,,,,,,,,
encoding,attention,17.606304209213704,20.625111459055915,13,3,Animal_Land_Solid_Large,-6,-6,1,0.795283499872312,,,,,,,,
encoding,fixation,20.62527016713284,22.130185584072024,14,3,Animal_Sea_Solid_Large,-6,,,,,,,,,,,
encoding,image,22.130304584046826,23.141456459183246,14,3,Animal_Sea_Solid_Large,-6,,,,,,,,,,,
encoding,value,23.141585584031418,29.157216125167906,14,3,Animal_Sea_Solid_Large,-6,,,,,,,,,,,
encoding,attention,29.157331750029698,32.175122667104006,14,3,Animal_Sea_Solid_Large,-6,-6,1,1.0773161670658737,,,,,,,,
encoding,fixation,32.17531816707924,32.68022979213856,15,3,Object_Land_Pattern_Small,2,,,,,,,,,,,
encoding,image,32.680342042120174,33.6913672091905,15,3,Object_Land_Pattern_Small,2,,,,,,,,,,,
encoding,value,33.691574334166944,39.70613404200412,15,3,Object_Land_Pattern_Small,2,,,,,,,,,,,
encoding,attention,39.70624129218049,42.725442584138364,15,3,Object_Land_Pattern_Small,2,+2,1,0.8642601668834686,,,,,,,,
encoding,fixation,42.72561050020158,43.23060879204422,16,3,Animal_Sea_Pattern_Large,7,,,,,,,,,,,
encoding,image,43.23071633419022,44.24064404214732,16,3,Animal_Sea_Pattern_Large,7,,,,,,,,,,,
encoding,value,44.24076150008477,50.25143091706559,16,3,Animal_Sea_Pattern_Large,7,,,,,,,,,,,
encoding,attention,50.25155733409338,53.267819750122726,16,3,Animal_Sea_Pattern_Large,7,+7,1,1.0000747500453144,,,,,,,,
encoding,fixation,53.267974875168875,54.77381858415902,17,3,Object_Land_Solid_Small,3,,,,,,,,,,,
encoding,image,54.77394258417189,55.78547295904718,17,3,Object_Land_Solid_Small,3,,,,,,,,,,,
encoding,value,55.78558050002903,61.797144959215075,17,3,Object_Land_Solid_Small,3,,,,,,,,,,,
encoding,attention,61.79727575019933,64.81502866721712,17,3,Object_Land_Solid_Small,3,+3,1,0.8939691670238972,,,,,,,,
encoding,fixation,64.81520250020549,65.82060637511313,18,3,Object_Sea_Pattern_Small,-6,,,,,,,,,,,
encoding,image,65.82073000003584,66.83326979214326,18,3,Object_Sea_Pattern_Small,-6,,,,,,,,,,,
encoding,value,66.83339137514122,72.8446774170734,18,3,Object_Sea_Pattern_Small,-6,,,,,,,,,,,
encoding,attention,72.84485658421181,75.86266904207878,18,3,Object_Sea_Pattern_Small,-6,-6,1,1.0385506669990718,,,,,,,,
n-back,,,,61,3,,,,0,None,C,True,None,,,,,
n-back,,,,62,3,,,,1,None,Z,False,None,,,,,
n-back,,,,63,3,,,,1,0.3868938749656081,C,True,1,,,,,
n-back,,,,64,3,,,,1,None,V,False,None,,,,,
n-back,,,,65,3,,,,1,1.0981449580285698,C,True,1,,,,,
n-back,,,,66,3,,,,0,0.7725101250689477,C,False,1,,,,,
n-back,,,,67,3,,,,1,0.6660462501458824,C,True,1,,,,,
n-back,,,,68,3,,,,1,None,B,False,None,,,,,
n-back,,,,69,3,,,,1,None,V,False,None,,,,,
n-back,,,,70,3,,,,1,None,X,False,None,,,,,
n-back,,,,71,3,,,,1,0.641645000083372,V,True,1,,,,,
n-back,,,,72,3,,,,1,0.8070846670307219,X,True,1,,,,,
n-back,,,,73,3,,,,1,None,N,False,None,,,,,
n-back,,,,74,3,,,,1,1.1361009581014514,X,True,1,,,,,
n-back,,,,75,3,,,,1,None,V,False,None,,,,,
n-back,,,,76,3,,,,1,None,N,False,None,,,,,
n-back,,,,77,3,,,,1,None,B,False,None,,,,,
n-back,,,,78,3,,,,1,None,Z,False,None,,,,,
n-back,,,,79,3,,,,1,0.9510909579694271,B,True,1,,,,,
n-back,,,,80,3,,,,1,None,N,False,None,,,,,
n-back,,,,81,3,,,,1,None,C,False,None,,,,,
n-back,,,,82,3,,,,0,0.641549332998693,C,False,1,,,,,
n-back,,,,83,3,,,,1,0.8282750421203673,C,True,1,,,,,
n-back,,,,84,3,,,,1,None,N,False,None,,,,,
n-back,,,,85,3,,,,1,None,V,False,None,,,,,
n-back,,,,86,3,,,,0,None,N,True,None,,,,,
n-back,,,,87,3,,,,1,None,Z,False,None,,,,,
n-back,,,,88,3,,,,1,None,X,False,None,,,,,
n-back,,,,89,3,,,,0,0.7272887919098139,X,False,1,,,,,
n-back,,,,90,3,,,,1,None,B,False,None,,,,,
choice,fixation,151.01226433413103,152.26628650003113,17,3,,,,,,,,,Animal,,,,
choice,option,152.27557450020686,153.30487129208632,17,3,,,,,,,,,Animal,,,,
choice,choice,153.30499687511474,160.86045733420178,17,3,,,2,1,6.545694708824158,,,,Animal,,,,
choice,fixation,160.8606013751123,161.86563704209402,18,3,,,,,,,,,Large,,,,
choice,option,161.8743138341233,162.90136895910837,18,3,,,,,,,,,Large,,,,
choice,choice,162.90149225015193,171.22072037518956,18,3,,,2,1,7.308635916095227,,,,Large,,,,
choice,fixation,171.22088329214603,172.2260165840853,19,3,,,,,,,,,Land,,,,
choice,option,172.2348992091138,173.2623704590369,19,3,,,,,,,,,Land,,,,
choice,choice,173.26249708421528,184.17390087503009,19,3,,,1,0,9.900320040993392,,,,Land,,,,
choice,fixation,184.1740418751724,185.67910245922394,20,3,,,,,,,,,Small,,,,
choice,option,185.68825458409265,186.71589512517676,20,3,,,,,,,,,Small,,,,
choice,choice,186.7160235841293,190.51725462521426,20,3,,,1,0,2.789628833066672,,,,Small,,,,
choice,fixation,190.51738325017504,191.02342229220085,21,3,,,,,,,,,Sea,,,,
choice,option,191.0315817920491,192.0579948341474,21,3,,,,,,,,,Sea,,,,
choice,choice,192.05815925006755,197.29462929209694,21,3,,,1,0,4.2266749169211835,,,,Sea,,,,
choice,fixation,197.2947516250424,198.79964866722003,22,3,,,,,,,,,Object,,,,
choice,option,198.8094043340534,199.83666454209015,22,3,,,,,,,,,Object,,,,
choice,choice,199.83677720907144,204.36586370901205,22,3,,,1,0,3.519008707953617,,,,Object,,,,
choice,fixation,204.3660333340522,205.372587709222,23,3,,,,,,,,,Solid,,,,
choice,option,205.38190008420497,206.40843800012954,23,3,,,,,,,,,Solid,,,,
choice,choice,206.40857120906003,211.1003841671627,23,3,,,2,1,3.6820382501464337,,,,Solid,,,,
choice,fixation,211.10051200003363,212.35592495906167,24,3,,,,,,,,,Pattern,,,,
choice,option,212.36498895916156,213.39128941716626,24,3,,,,,,,,,Pattern,,,,
choice,choice,213.391397834057,216.63651333400048,24,3,,,1,1,2.235402249963954,,,,Pattern,,,,
memory,free_recall,234.4889135840349,246.89586770907044,12,3,,,,,,,,,,,,,
memory,value_recall,252.91421375004575,259.5278702501673,13,3,Object_Sea_Pattern_Small,,,,6.609508957946673,,,,,-6,,,
memory,value_recall,261.074043125147,274.2567045839969,14,3,Object_Land_Solid_Small,,,,13.178517042193562,,,,,3,,,
memory,value_recall,275.5568628751207,279.07930016703904,15,3,Animal_Sea_Pattern_Large,,,,3.5183966669719666,,,,,7,,,
memory,value_recall,280.8750262921676,283.65573104214855,16,3,Animal_Sea_Solid_Large,,,,2.776668209116906,,,,,-6,,,
memory,value_recall,285.2013504591305,287.3827597920317,17,3,Object_Land_Pattern_Small,,,,2.1771862087771297,,,,,2,,,
memory,value_recall,289.43018150003627,291.93474837508984,18,3,Animal_Land_Solid_Large,,,,2.500474917003885,,,,,-6,,,
memory,spatial_recall,298.10897750011645,300.34874916705303,18,3,Animal_Sea_Solid_Large,,,1,2.2366130829323083,,,,,,"[329, -190]","[329, -190]",
memory,spatial_recall,301.41633541719057,303.4840665841475,18,3,Object_Land_Pattern_Small,,,1,2.0625218329951167,,,,,,"[329, 189]","[329, 189]",
memory,spatial_recall,305.04746887506917,307.0991382920183,18,3,Animal_Land_Solid_Large,,,1,2.047734250081703,,,,,,"[0, 380]","[0, 380]",
memory,spatial_recall,309.16026870906353,310.5298055000603,18,3,Animal_Sea_Pattern_Large,,,1,1.3653952919412404,,,,,,"[0, -380]","[0, -380]",
memory,spatial_recall,312.5873069171794,314.24902950017713,18,3,Object_Land_Solid_Small,,,1,1.6576918340288103,,,,,,"[-329, -190]","[-329, -190]",
memory,spatial_recall,315.81279341713525,317.6998982501682,18,3,Object_Sea_Pattern_Small,,,1,1.883223291952163,,,,,,"[-329, 190]","[-329, 190]",
encoding,fixation,8.107759250095114,8.863541750004515,19,4,Object_Sea_Pattern_Large,-4,,,,,,,,,,,
encoding,image,8.863650209037587,9.875596249941736,19,4,Object_Sea_Pattern_Large,-4,,,,,,,,,,,
encoding,value,9.875722124939784,15.889190792106092,19,4,Object_Sea_Pattern_Large,-4,,,,,,,,,,,
encoding,attention,15.889299750095233,18.90736679197289,19,4,Object_Sea_Pattern_Large,-4,-4,1,1.3002027079928666,,,,,,,,
encoding,fixation,18.90753058413975,19.66306525003165,20,4,Object_Sea_Solid_Large,9,,,,,,,,,,,
encoding,image,19.66318420902826,20.674744167132303,20,4,Object_Sea_Solid_Large,9,,,,,,,,,,,
encoding,value,20.67486675013788,26.687423709081486,20,4,Object_Sea_Solid_Large,9,,,,,,,,,,,
encoding,attention,26.687547417124733,29.705569125013426,20,4,Object_Sea_Solid_Large,9,+9,1,0.9903916660696268,,,,,,,,
encoding,fixation,29.705718209035695,30.710679209092632,21,4,Animal_Sea_Solid_Small,-3,,,,,,,,,,,
encoding,image,30.710786791983992,31.721812084084377,21,4,Animal_Sea_Solid_Small,-3,,,,,,,,,,,
encoding,value,31.722026417031884,37.73420162498951,21,4,Animal_Sea_Solid_Small,-3,,,,,,,,,,,
encoding,attention,37.734329791972414,40.7510154589545,21,4,Animal_Sea_Solid_Small,-3,-3,1,2.0416400409303606,,,,,,,,
encoding,fixation,40.75118124997243,42.256155292037874,22,4,Object_Land_Pattern_Large,-3,,,,,,,,,,,
encoding,image,42.25626675016247,43.2696211670991,22,4,Object_Land_Pattern_Large,-3,,,,,,,,,,,
encoding,value,43.26972904196009,49.281798416981474,22,4,Object_Land_Pattern_Large,-3,,,,,,,,,,,
encoding,attention,49.281945375027135,52.30090641696006,22,4,Object_Land_Pattern_Large,-3,-3,1,0.7154072080738842,,,,,,,,
encoding,fixation,52.30105462507345,53.806141334120184,23,4,Animal_Land_Solid_Small,-9,,,,,,,,,,,
encoding,image,53.80625104205683,54.817084584152326,23,4,Animal_Land_Solid_Small,-9,,,,,,,,,,,
encoding,value,54.817206625128165,60.828265625052154,23,4,Animal_Land_Solid_Small,-9,,,,,,,,,,,
encoding,attention,60.82836808403954,63.84568575001322,23,4,Animal_Land_Solid_Small,-9,-9,1,0.6823325830046088,,,,,,,,
encoding,fixation,63.84584587509744,65.35090874996968,24,4,Animal_Land_Pattern_Small,9,,,,,,,,,,,
encoding,image,65.3510137500707,66.36207962501794,24,4,Animal_Land_Pattern_Small,9,,,,,,,,,,,
encoding,value,66.36223037494346,72.3738715001382,24,4,Animal_Land_Pattern_Small,9,,,,,,,,,,,
encoding,attention,72.37398479203694,75.39247950003482,24,4,Animal_Land_Pattern_Small,9,+9,1,2.032644416904077,,,,,,,,
n-back,,,,91,4,,,,1,None,X,False,None,,,,,
n-back,,,,92,4,,,,0,None,N,True,None,,,,,
n-back,,,,93,4,,,,1,0.4764916249550879,X,True,1,,,,,
n-back,,,,94,4,,,,1,None,Z,False,None,,,,,
n-back,,,,95,4,,,,1,None,B,False,None,,,,,
n-back,,,,96,4,,,,1,None,N,False,None,,,,,
n-back,,,,97,4,,,,1,None,C,False,None,,,,,
n-back,,,,98,4,,,,1,0.3844837499782443,N,True,1,,,,,
n-back,,,,99,4,,,,1,0.7804122078232467,C,True,1,,,,,
n-back,,,,100,4,,,,1,None,V,False,None,,,,,
n-back,,,,101,4,,,,1,None,Z,False,None,,,,,
n-back,,,,102,4,,,,1,None,X,False,None,,,,,
n-back,,,,103,4,,,,1,None,C,False,None,,,,,
n-back,,,,104,4,,,,0,0.5678498330526054,C,False,1,,,,,
n-back,,,,105,4,,,,0,0.8496222919784486,X,False,1,,,,,
n-back,,,,106,4,,,,1,None,N,False,None,,,,,
n-back,,,,107,4,,,,1,None,B,False,None,,,,,
n-back,,,,108,4,,,,1,None,V,False,None,,,,,
n-back,,,,109,4,,,,1,0.600492832949385,B,True,1,,,,,
n-back,,,,110,4,,,,1,0.6695425000507385,V,True,1,,,,,
n-back,,,,111,4,,,,1,1.3559887500014156,B,True,1,,,,,
n-back,,,,112,4,,,,1,1.049600207945332,V,True,1,,,,,
n-back,,,,113,4,,,,0,1.3795816251076758,V,False,1,,,,,
n-back,,,,114,4,,,,1,None,Z,False,None,,,,,
n-back,,,,115,4,,,,1,None,X,False,None,,,,,
n-back,,,,116,4,,,,0,0.817162707913667,X,False,1,,,,,
n-back,,,,117,4,,,,1,0.6107213750947267,X,True,1,,,,,
n-back,,,,118,4,,,,1,None,B,False,None,,,,,
n-back,,,,119,4,,,,0,None,X,True,None,,,,,
n-back,,,,120,4,,,,0,0.5000194997992367,X,False,1,,,,,
choice,fixation,153.97216950007714,154.47588249994442,25,4,,,,,,,,,Sea,,,,
choice,option,154.4841268749442,155.51130841695704,25,4,,,,,,,,,Sea,,,,
choice,choice,155.51148324995302,164.8325671670027,25,4,,,2,0,8.310899875126779,,,,Sea,,,,
choice,fixation,164.83274316694587,166.33769191708416,26,4,,,,,,,,,Solid,,,,
choice,option,166.34675541706383,167.37371804215945,26,4,,,,,,,,,Solid,,,,
choice,choice,167.37381462496705,174.79316262505017,26,4,,,2,1,6.408277708105743,,,,Solid,,,,
choice,fixation,174.7932826669421,175.29810116696171,27,4,,,,,,,,,Land,,,,
choice,option,175.30659908405505,176.33328145905398,27,4,,,,,,,,,Land,,,,
choice,choice,176.33342108409852,187.87722333404236,27,4,,,1,0,10.529806750128046,,,,Land,,,,
choice,fixation,187.87735095899552,188.63267037505284,28,4,,,,,,,,,Pattern,,,,
choice,option,188.64200695906766,189.67109300009906,28,4,,,,,,,,,Pattern,,,,
choice,choice,189.67121316702105,198.90767433401197,28,4,,,1,1,8.225823082961142,,,,Pattern,,,,
choice,fixation,198.90779479197226,200.16324266698211,29,4,,,,,,,,,Small,,,,
choice,option,200.17274470906705,201.19926012516953,29,4,,,,,,,,,Small,,,,
choice,choice,201.19944912497886,205.82474912516773,29,4,,,2,1,3.615686791948974,,,,Small,,,,
choice,fixation,205.82487641694024,206.5801469590515,30,4,,,,,,,,,Animal,,,,
choice,option,206.5895911671687,207.616597375134,30,4,,,,,,,,,Animal,,,,
choice,choice,207.61671700002626,211.0807070841547,30,4,,,2,1,2.454181208042428,,,,Animal,,,,
choice,fixation,211.08085162495263,212.3370922920294,31,4,,,,,,,,,Large,,,,
choice,option,212.34573950013146,213.372398708947,31,4,,,,,,,,,Large,,,,
choice,choice,213.37253354210407,226.01038437499665,31,4,,,2,0,11.626942625036463,,,,Large,,,,
choice,fixation,226.01053154212423,226.51556529197842,32,4,,,,,,,,,Object,,,,
choice,option,226.52533125015907,227.5531780840829,32,4,,,,,,,,,Object,,,,
choice,choice,227.55333258397877,243.40126783400774,32,4,,,2,0,14.836981457890943,,,,Object,,,,
memory,free_recall,250.4671479591634,265.914322250057,18,4,,,,,,,,,,,,,
memory,value_recall,268.4107624590397,272.24330054200254,19,4,Animal_Sea_Solid_Small,,,,3.828252833103761,,,,,-3,,,
memory,value_recall,273.78841658402234,277.45048975013196,20,4,Animal_Land_Solid_Small,,,,3.6579549580346793,,,,,-9,,,
memory,value_recall,278.49628366716206,281.4265243750997,21,4,Object_Land_Pattern_Large,,,,2.925580499926582,,,,,-3,,,
memory,value_recall,283.47302241716534,287.85190087510273,22,4,Object_Sea_Solid_Large,,,,4.374653375009075,,,,,9,,,
memory,value_recall,289.64884100016207,293.1393107920885,23,4,Object_Sea_Pattern_Large,,,,3.4864705419167876,,,,,-4,,,
memory,value_recall,294.93662849999964,298.57037624996156,24,4,Animal_Land_Pattern_Small,,,,3.629679291974753,,,,,9,,,
memory,spatial_recall,303.23048825003207,305.5431621251628,24,4,Animal_Land_Pattern_Small,,,1,2.3063191671390086,,,,,,"[329, 189]","[329, 189]",
memory,spatial_recall,307.3525641669985,308.5098379170522,24,4,Animal_Sea_Solid_Small,,,1,1.153141750022769,,,,,,"[-329, -190]","[-329, -190]",
memory,spatial_recall,309.80438529211096,310.8102150419727,24,4,Object_Sea_Pattern_Large,,,1,1.0015704170800745,,,,,,"[0, -380]","[0, -380]",
memory,spatial_recall,312.8696990420576,314.8434996670112,24,4,Object_Land_Pattern_Large,,,1,1.96965704113245,,,,,,"[-329, 190]","[-329, 190]",
memory,spatial_recall,316.64837549999356,318.3096006249543,24,4,Animal_Land_Solid_Small,,,1,1.6571129579097033,,,,,,"[0, 380]","[0, 380]",
memory,spatial_recall,320.36637737508863,321.3410281671677,24,4,Object_Sea_Solid_Large,,,1,0.9705471249762923,,,,,,"[329, -190]","[329, -190]",
encoding,fixation,5.50133579201065,6.006806584075093,25,5,Animal_Sea_Pattern_Small,1,,,,,,,,,,,
encoding,image,6.006921666907147,7.0185290419030935,25,5,Animal_Sea_Pattern_Small,1,,,,,,,,,,,
encoding,value,7.018647874938324,13.032572041964158,25,5,Animal_Sea_Pattern_Small,1,,,,,,,,,,,
encoding,attention,13.032694292021915,16.050416833953932,25,5,Animal_Sea_Pattern_Small,1,+1,1,0.9048666669987142,,,,,,,,
encoding,fixation,16.050581749994308,16.807691833935678,26,5,Animal_Land_Pattern_Large,7,,,,,,,,,,,
encoding,image,16.80781854200177,17.818964750040323,26,5,Animal_Land_Pattern_Large,7,,,,,,,,,,,
encoding,value,17.81907133408822,23.830915583996102,26,5,Animal_Land_Pattern_Large,7,,,,,,,,,,,
encoding,attention,23.831036125076935,26.848759999964386,26,5,Animal_Land_Pattern_Large,7,+7,1,0.8025108748115599,,,,,,,,
encoding,fixation,26.848919125040993,28.104189208941534,27,5,Object_Land_Pattern_Large,-7,,,,,,,,,,,
encoding,image,28.104345167055726,29.115936917020008,27,5,Object_Land_Pattern_Large,-7,,,,,,,,,,,
encoding,value,29.116056374972686,35.12928624986671,27,5,Object_Land_Pattern_Large,-7,,,,,,,,,,,
encoding,attention,35.12939874990843,38.14727216702886,27,5,Object_Land_Pattern_Large,-7,-7,1,0.99939891602844,,,,,,,,
encoding,fixation,38.14742337493226,39.152673333883286,28,5,Object_Land_Solid_Large,4,,,,,,,,,,,
encoding,image,39.15278104203753,40.16299470886588,28,5,Object_Land_Solid_Large,4,,,,,,,,,,,
encoding,value,40.163105208892375,46.174046833999455,28,5,Object_Land_Solid_Large,4,,,,,,,,,,,
encoding,attention,46.17415862507187,49.190589959034696,28,5,Object_Land_Solid_Large,4,+4,1,0.7009710420388728,,,,,,,,
encoding,fixation,49.19076129188761,50.44615012500435,29,5,Object_Sea_Solid_Small,4,,,,,,,,,,,
encoding,image,50.44625929207541,51.457765500061214,29,5,Object_Sea_Solid_Small,4,,,,,,,,,,,
encoding,value,51.45788445905782,57.468359417049214,29,5,Object_Sea_Solid_Small,4,,,,,,,,,,,
encoding,attention,57.468499375041574,60.484397833934054,29,5,Object_Sea_Solid_Small,4,+4,1,0.845911290962249,,,,,,,,
encoding,fixation,60.48454899992794,61.489564375020564,30,5,Animal_Sea_Solid_Small,-7,,,,,,,,,,,
encoding,image,61.48966637486592,62.5005772090517,30,5,Animal_Sea_Solid_Small,-7,,,,,,,,,,,
encoding,value,62.50069950008765,68.51222487492487,30,5,Animal_Sea_Solid_Small,-7,,,,,,,,,,,
encoding,attention,68.51236091693863,71.53099670889787,30,5,Animal_Sea_Solid_Small,-7,-7,1,1.112940707942471,,,,,,,,
n-back,,,,121,5,,,,1,None,X,False,None,,,,,
n-back,,,,122,5,,,,1,None,N,False,None,,,,,
n-back,,,,123,5,,,,1,0.6294106249697506,X,True,1,,,,,
n-back,,,,124,5,,,,0,0.7587624590378255,X,False,1,,,,,
n-back,,,,125,5,,,,1,None,V,False,None,,,,,
n-back,,,,126,5,,,,1,0.5692653330042958,X,True,1,,,,,
n-back,,,,127,5,,,,1,0.7495623750146478,V,True,1,,,,,
n-back,,,,128,5,,,,0,0.8004411670845002,V,False,1,,,,,
n-back,,,,129,5,,,,1,None,N,False,None,,,,,
n-back,,,,130,5,,,,1,None,C,False,None,,,,,
n-back,,,,131,5,,,,1,None,B,False,None,,,,,
n-back,,,,132,5,,,,1,None,V,False,None,,,,,
n-back,,,,133,5,,,,1,None,N,False,None,,,,,
n-back,,,,134,5,,,,1,0.7218345000874251,V,True,1,,,,,
n-back,,,,135,5,,,,1,None,X,False,None,,,,,
n-back,,,,136,5,,,,1,None,N,False,None,,,,,
n-back,,,,137,5,,,,1,None,B,False,None,,,,,
n-back,,,,138,5,,,,1,None,V,False,None,,,,,
n-back,,,,139,5,,,,1,0.8314050422050059,B,True,1,,,,,
n-back,,,,140,5,,,,1,None,X,False,None,,,,,
n-back,,,,141,5,,,,0,None,B,True,None,,,,,
n-back,,,,142,5,,,,1,None,V,False,None,,,,,
n-back,,,,143,5,,,,1,None,X,False,None,,,,,
n-back,,,,144,5,,,,0,None,V,True,None,,,,,
n-back,,,,145,5,,,,1,None,Z,False,None,,,,,
n-back,,,,146,5,,,,0,0.6621024589985609,Z,False,1,,,,,
n-back,,,,147,5,,,,1,None,X,False,None,,,,,
n-back,,,,148,5,,,,1,0.6259606250096112,Z,True,1,,,,,
n-back,,,,149,5,,,,1,0.9415535831358284,X,True,1,,,,,
n-back,,,,150,5,,,,0,None,Z,True,None,,,,,
choice,fixation,146.0504499168601,147.05686754197814,33,5,,,,,,,,,Pattern,,,,
choice,option,147.06586816697381,148.094192791963,33,5,,,,,,,,,Pattern,,,,
choice,choice,148.09430166706443,153.74191587488167,33,5,,,1,1,4.635152000002563,,,,Pattern,,,,
choice,fixation,153.7420387500897,155.247361500049,34,5,,,,,,,,,Animal,,,,
choice,option,155.25693737505935,156.28448766702786,34,5,,,,,,,,,Animal,,,,
choice,choice,156.28461012500338,162.64506149990484,34,5,,,1,1,5.348868540953845,,,,Animal,,,,
choice,fixation,162.64519570907578,163.90087691694498,35,5,,,,,,,,,Small,,,,
choice,option,163.90986154205166,164.93680187501013,35,5,,,,,,,,,Small,,,,
choice,choice,164.93692308408208,177.0058120000176,35,5,,,2,1,11.057337084086612,,,,Small,,,,
choice,fixation,177.00598716689274,178.0112091670744,36,5,,,,,,,,,Sea,,,,
choice,option,178.0200414590072,179.04706633393653,36,5,,,,,,,,,Sea,,,,
choice,choice,179.04719175002538,183.71685554203577,36,5,,,1,0,3.6594973751343787,,,,Sea,,,,
choice,fixation,183.71698087500408,185.22193254204467,37,5,,,,,,,,,Solid,,,,
choice,option,185.23128191707656,186.2576574590057,37,5,,,,,,,,,Solid,,,,
choice,choice,186.25777566689067,196.81308070896193,37,5,,,1,1,9.544286333024502,,,,Solid,,,,
choice,fixation,196.81321579194628,198.06862629204988,38,5,,,,,,,,,Object,,,,
choice,option,198.07793479203247,199.10522604198195,38,5,,,,,,,,,Object,,,,
choice,choice,199.1053427918814,209.42992462497205,38,5,,,1,1,9.31425595912151,,,,Object,,,,
choice,fixation,209.43004562496208,210.4351173338946,39,5,,,,,,,,,Large,,,,
choice,option,210.44421758386306,211.4703828750644,39,5,,,,,,,,,Large,,,,
choice,choice,211.47055812506005,216.741014291998,39,5,,,1,1,4.258673999924213,,,,Large,,,,
choice,fixation,216.7411922919564,217.99618691694923,40,5,,,,,,,,,Land,,,,
choice,option,218.00502916704863,219.03215024992824,40,5,,,,,,,,,Land,,,,
choice,choice,219.03227024991065,220.72573266690597,40,5,,,2,0,0.680463416967541,,,,Land,,,,
memory,free_recall,234.99030766705982,253.46225633402355,24,5,,,,,,,,,,,,,
memory,value_recall,257.16022412502207,263.9584859588649,25,5,Animal_Land_Pattern_Large,,,,6.794189499923959,,,,,7,,,
memory,value_recall,265.0043558338657,277.59122504200786,26,5,Animal_Sea_Solid_Small,,,,12.583665583049878,,,,,-7,,,
memory,value_recall,279.14092716691084,284.6731158338953,27,5,Animal_Sea_Pattern_Small,,,,5.5281083330046386,,,,,1,,,
memory,value_recall,286.468065291876,290.73396137496457,28,5,Object_Land_Pattern_Large,,,,4.260393999982625,,,,,-7,,,
memory,value_recall,292.03236208390445,295.67765979189426,29,5,Object_Land_Solid_Large,,,,3.6412065410986543,,,,,4,,,
memory,value_recall,297.2243847090285,299.34945562505163,30,5,Object_Sea_Solid_Small,,,,2.120803334051743,,,,,4,,,
memory,spatial_recall,301.6909205419943,303.89827870903537,30,5,Object_Land_Solid_Large,,,1,2.204128208104521,,,,,,"[329, -190]","[329, -190]",
memory,spatial_recall,305.20798299997114,307.25210558390245,30,5,Animal_Land_Pattern_Large,,,1,2.039996833074838,,,,,,"[0, -380]","[0, -380]",
memory,spatial_recall,308.564217624953,309.55184237495996,30,5,Animal_Sea_Pattern_Small,,,1,0.9837818329688162,,,,,,"[329, 189]","[329, 189]",
memory,spatial_recall,310.6108470840845,312.1810212500859,30,5,Animal_Sea_Solid_Small,,,1,1.5674292081966996,,,,,,"[-329, -190]","[-329, -190]",
memory,spatial_recall,313.74008070887066,314.8647478749044,30,5,Object_Land_Pattern_Large,,,1,1.1205612500198185,,,,,,"[-329, 190]","[-329, 190]",
memory,spatial_recall,316.91699787508696,318.34768391703255,30,5,Object_Sea_Solid_Small,,,1,1.4242486250586808,,,,,,"[0, 380]","[0, 380]",
encoding,fixation,4.041368374833837,5.547192333033308,31,6,Animal_Sea_Pattern_Large,-3,,,,,,,,,,,
encoding,image,5.547389082843438,6.559671874856576,31,6,Animal_Sea_Pattern_Large,-3,,,,,,,,,,,
encoding,value,6.559825500007719,12.572772374842316,31,6,Animal_Sea_Pattern_Large,-3,,,,,,,,,,,
encoding,attention,12.572894749930128,15.591285957954824,31,6,Animal_Sea_Pattern_Large,-3,-3,1,0.9581754170358181,,,,,,,,
encoding,fixation,15.59144562506117,16.59693883289583,32,6,Object_Land_Solid_Small,-4,,,,,,,,,,,
encoding,image,16.59705870784819,17.609509374946356,32,6,Object_Land_Solid_Small,-4,,,,,,,,,,,
encoding,value,17.609617332927883,23.62136579095386,32,6,Object_Land_Solid_Small,-4,,,,,,,,,,,
encoding,attention,23.62147666583769,26.64204275002703,32,6,Object_Land_Solid_Small,-4,-4,1,0.7075081670191139,,,,,,,,
encoding,fixation,26.642185957869515,27.14767170790583,33,6,Animal_Sea_Solid_Large,6,,,,,,,,,,,
encoding,image,27.14778224984184,28.15907041588798,33,6,Animal_Sea_Solid_Large,6,,,,,,,,,,,
encoding,value,28.15917812497355,34.17152987490408,33,6,Animal_Sea_Solid_Large,6,,,,,,,,,,,
encoding,attention,34.17165599996224,37.19134720787406,33,6,Animal_Sea_Solid_Large,6,+6,1,0.6698175419587642,,,,,,,,
encoding,fixation,37.19150062487461,38.69698741589673,34,6,Object_Sea_Pattern_Small,-4,,,,,,,,,,,
encoding,image,38.69715483300388,39.708192290971056,34,6,Object_Sea_Pattern_Small,-4,,,,,,,,,,,
encoding,value,39.70829908293672,45.72012412501499,34,6,Object_Sea_Pattern_Small,-4,,,,,,,,,,,
encoding,attention,45.72023620805703,48.737297791056335,34,6,Object_Sea_Pattern_Small,-4,-4,1,0.8867561668157578,,,,,,,,
encoding,fixation,48.737498624948785,50.24262308306061,35,6,Object_Land_Pattern_Small,9,,,,,,,,,,,
encoding,image,50.24274362483993,51.253971207886934,35,6,Object_Land_Pattern_Small,9,,,,,,,,,,,
encoding,value,51.25407624989748,57.26607420784421,35,6,Object_Land_Pattern_Small,9,,,,,,,,,,,
encoding,attention,57.26625104085542,60.286501332884654,35,6,Object_Land_Pattern_Small,9,+9,1,1.0007220830302685,,,,,,,,
encoding,fixation,60.2866717078723,61.791667707962915,36,6,Animal_Land_Solid_Large,-4,,,,,,,,,,,
encoding,image,61.79177875001915,62.80355258285999,36,6,Animal_Land_Solid_Large,-4,,,,,,,,,,,
encoding,value,62.80368241597898,68.81493374984711,36,6,Animal_Land_Solid_Large,-4,,,,,,,,,,,
encoding,attention,68.81505133304745,71.83262237487361,36,6,Animal_Land_Solid_Large,-4,-4,1,0.9646726660430431,,,,,,,,
n-back,,,,151,6,,,,0,None,X,True,None,,,,,
n-back,,,,152,6,,,,0,None,V,True,None,,,,,
n-back,,,,153,6,,,,1,None,Z,False,None,,,,,
n-back,,,,154,6,,,,1,None,X,False,None,,,,,
n-back,,,,155,6,,,,1,1.1110414168797433,Z,True,1,,,,,
n-back,,,,156,6,,,,1,None,N,False,None,,,,,
n-back,,,,157,6,,,,1,1.305563084082678,Z,True,1,,,,,
n-back,,,,158,6,,,,1,None,B,False,None,,,,,
n-back,,,,159,6,,,,1,0.7105801249854267,Z,True,1,,,,,
n-back,,,,160,6,,,,1,1.3680200830567628,B,True,1,,,,,
n-back,,,,161,6,,,,1,None,C,False,None,,,,,
n-back,,,,162,6,,,,1,None,N,False,None,,,,,
n-back,,,,163,6,,,,1,None,Z,False,None,,,,,
n-back,,,,164,6,,,,1,1.3557489579543471,N,True,1,,,,,
n-back,,,,165,6,,,,1,None,V,False,None,,,,,
n-back,,,,166,6,,,,0,1.0921466250438243,Z,False,1,,,,,
n-back,,,,167,6,,,,1,None,C,False,None,,,,,
n-back,,,,168,6,,,,1,None,X,False,None,,,,,
n-back,,,,169,6,,,,1,None,Z,False,None,,,,,
n-back,,,,170,6,,,,0,0.8446780419908464,Z,False,1,,,,,
n-back,,,,171,6,,,,1,0.572141874814406,Z,True,1,,,,,
n-back,,,,172,6,,,,1,0.6126822500955313,Z,True,1,,,,,
n-back,,,,173,6,,,,1,None,V,False,None,,,,,
n-back,,,,174,6,,,,1,None,C,False,None,,,,,
n-back,,,,175,6,,,,1,None,Z,False,None,,,,,
n-back,,,,176,6,,,,1,None,V,False,None,,,,,
n-back,,,,177,6,,,,1,None,N,False,None,,,,,
n-back,,,,178,6,,,,1,None,B,False,None,,,,,
n-back,,,,179,6,,,,1,1.2034622500650585,N,True,1,,,,,
n-back,,,,180,6,,,,0,0.9006389589048922,N,False,1,,,,,
choice,fixation,148.31321987486444,148.8193889160175,41,6,,,,,,,,,Large,,,,
choice,option,148.82822533301078,149.85705633298494,41,6,,,,,,,,,Large,,,,
choice,choice,149.85725220805034,164.3115106660407,41,6,,,1,0,13.443162499926984,,,,Large,,,,
choice,fixation,164.31164249987341,165.06675216602162,42,6,,,,,,,,,Land,,,,
choice,option,165.07554641598836,166.1035971660167,42,6,,,,,,,,,Land,,,,
choice,choice,166.1037011248991,173.6066842500586,42,6,,,1,1,6.493093915982172,,,,Land,,,,
choice,fixation,173.60680679092184,175.11190316593274,43,6,,,,,,,,,Solid,,,,
choice,option,175.12159787490964,176.14853624999523,43,6,,,,,,,,,Solid,,,,
choice,choice,176.14865816594101,190.6881464580074,43,6,,,1,0,13.526903874939308,,,,Solid,,,,
choice,fixation,190.68827445805073,191.1933722079266,44,6,,,,,,,,,Small,,,,
choice,option,191.20182404085062,192.22812641598284,44,6,,,,,,,,,Small,,,,
choice,choice,192.22829349990934,219.11410266603343,44,6,,,1,1,25.87230516690761,,,,Small,,,,
choice,fixation,219.11428283294663,220.11993879103102,45,6,,,,,,,,,Sea,,,,
choice,option,220.12887299992144,221.15521400002763,45,6,,,,,,,,,Sea,,,,
choice,choice,221.15532774990425,236.95064770802855,45,6,,,1,0,14.783575458917767,,,,Sea,,,,
choice,fixation,236.9508679579012,238.45600724988617,46,6,,,,,,,,,Animal,,,,
choice,option,238.4654072499834,239.49205795791931,46,6,,,,,,,,,Animal,,,,
choice,choice,239.49218595796265,243.42359029105864,46,6,,,2,1,2.9215352081228048,,,,Animal,,,,
choice,fixation,243.42371487501077,244.42856549983844,47,6,,,,,,,,,Pattern,,,,
choice,option,244.4376144160051,245.4640490829479,47,6,,,,,,,,,Pattern,,,,
choice,choice,245.46416233293712,256.77691858285107,47,6,,,2,0,10.300624124938622,,,,Pattern,,,,
choice,fixation,256.7770504159853,257.5320330830291,48,6,,,,,,,,,Object,,,,
choice,option,257.54201929084957,258.5712071659509,48,6,,,,,,,,,Object,,,,
choice,choice,258.5713352910243,272.0612552908715,48,6,,,2,0,12.475790333002806,,,,Object,,,,
memory,free_recall,278.9281810410321,293.42498116591014,30,6,,,,,,,,,,,,,
memory,value_recall,295.9468233329244,300.6736590410583,31,6,Object_Land_Pattern_Small,,,,4.719919207971543,,,,,9,,,
memory,value_recall,302.2208997500129,306.1188236658927,32,6,Animal_Land_Solid_Large,,,,3.893625000026077,,,,,-4,,,
memory,value_recall,307.41472779097967,314.8565331250429,33,6,Object_Sea_Pattern_Small,,,,7.43711895798333,,,,,-4,,,
memory,value_recall,316.90460779098794,319.8400747908745,34,6,Animal_Sea_Solid_Large,,,,2.931042707990855,,,,,6,,,
memory,value_recall,321.6372766250279,325.15983300004154,35,6,Animal_Sea_Pattern_Large,,,,3.518473375122994,,,,,-3,,,
memory,value_recall,326.70660629100166,334.2476921658963,36,6,Object_Land_Solid_Small,,,,7.5366864579264075,,,,,-4,,,
memory,spatial_recall,336.991297832923,338.97645887499675,36,6,Object_Land_Pattern_Small,,,1,1.9808994999621063,,,,,,"[329, 189]","[329, 189]",
memory,spatial_recall,340.5368930408731,342.7101555829868,36,6,Object_Land_Solid_Small,,,1,2.1689918749034405,,,,,,"[-329, -190]","[-329, -190]",
memory,spatial_recall,343.76289933291264,347.5641699999105,36,6,Animal_Sea_Pattern_Large,,,1,3.794951541814953,,,,,,"[0, -380]","[0, -380]",
memory,spatial_recall,348.6271712500602,354.26047337497585,36,6,Object_Sea_Pattern_Small,,,1,5.630235458957031,,,,,,"[-329, 190]","[-329, 190]",
memory,spatial_recall,355.56736287497915,358.04358299984597,36,6,Animal_Sea_Solid_Large,,,1,2.4721343328710645,,,,,,"[329, -190]","[329, -190]",
memory,spatial_recall,359.10234187496826,360.30724270804785,36,6,Animal_Land_Solid_Large,,,1,1.2007470829412341,,,,,,"[0, 380]","[0, 380]",
encoding,fixation,3.9682463330682367,4.723552457988262,37,7,Animal_Land_Solid_Large,-8,,,,,,,,,,,
encoding,image,4.723680082941428,5.736367583042011,37,7,Animal_Land_Solid_Large,-8,,,,,,,,,,,
encoding,value,5.73652970790863,11.750534875085577,37,7,Animal_Land_Solid_Large,-8,,,,,,,,,,,
encoding,attention,11.750660750083625,14.768689832882956,37,7,Animal_Land_Solid_Large,-8,-8,1,0.7976044998504221,,,,,,,,
encoding,fixation,14.768856208072975,15.774217416997999,38,7,Object_Sea_Pattern_Large,1,,,,,,,,,,,
encoding,image,15.77434445801191,16.78597699990496,38,7,Object_Sea_Pattern_Large,1,,,,,,,,,,,
encoding,value,16.786093417089432,22.798736749915406,38,7,Object_Sea_Pattern_Large,1,,,,,,,,,,,
encoding,attention,22.79886074992828,25.816151916980743,38,7,Object_Sea_Pattern_Large,1,+1,1,0.6483321250416338,,,,,,,,
encoding,fixation,25.81631562509574,26.821508791996166,39,7,Object_Land_Solid_Small,2,,,,,,,,,,,
encoding,image,26.82168895797804,27.832893416984007,39,7,Object_Land_Solid_Small,2,,,,,,,,,,,
encoding,value,27.83299749996513,33.84432420809753,39,7,Object_Land_Solid_Small,2,,,,,,,,,,,
encoding,attention,33.844440083019435,36.86141599994153,39,7,Object_Land_Solid_Small,2,+2,1,0.9602239581290632,,,,,,,,
encoding,fixation,36.86156175006181,38.366981874918565,40,7,Animal_Sea_Solid_Large,5,,,,,,,,,,,
encoding,image,38.367096208035946,39.37825075001456,40,7,Animal_Sea_Solid_Large,5,,,,,,,,,,,
encoding,value,39.378372666891664,45.39223616709933,40,7,Animal_Sea_Solid_Large,5,,,,,,,,,,,
encoding,attention,45.392370000015944,48.41005241707899,40,7,Animal_Sea_Solid_Large,5,+5,1,0.8116457499563694,,,,,,,,
encoding,fixation,48.41020749998279,49.41545204189606,41,7,Object_Sea_Pattern_Small,-8,,,,,,,,,,,
encoding,image,49.415560707915574,50.42645745794289,41,7,Object_Sea_Pattern_Small,-8,,,,,,,,,,,
encoding,value,50.42657558294013,56.43767925002612,41,7,Object_Sea_Pattern_Small,-8,,,,,,,,,,,
encoding,attention,56.437798416940495,59.45692270807922,41,7,Object_Sea_Pattern_Small,-8,-8,1,1.336499665863812,,,,,,,,
encoding,fixation,59.45708545809612,60.71258187503554,42,7,Animal_Land_Pattern_Small,2,,,,,,,,,,,
encoding,image,60.71269025001675,61.72360087488778,42,7,Animal_Land_Pattern_Small,2,,,,,,,,,,,
encoding,value,61.72372683300637,67.73512866697274,42,7,Animal_Land_Pattern_Small,2,,,,,,,,,,,
encoding,attention,67.7352357080672,70.75374262500554,42,7,Animal_Land_Pattern_Small,2,+2,1,1.134278625017032,,,,,,,,
n-back,,,,181,7,,,,0,None,X,True,None,,,,,
n-back,,,,182,7,,,,1,None,Z,False,None,,,,,
n-back,,,,183,7,,,,1,0.8433860829100013,X,True,1,,,,,
n-back,,,,184,7,,,,1,None,N,False,None,,,,,
n-back,,,,185,7,,,,0,1.1542439588811249,Z,False,1,,,,,
n-back,,,,186,7,,,,1,None,B,False,None,,,,,
n-back,,,,187,7,,,,1,None,N,False,None,,,,,
n-back,,,,188,7,,,,1,1.016655000159517,B,True,1,,,,,
n-back,,,,189,7,,,,1,0.6901775000151247,N,True,1,,,,,
n-back,,,,190,7,,,,1,0.5267834169790149,B,True,1,,,,,
n-back,,,,191,7,,,,1,0.6228050000499934,N,True,1,,,,,
n-back,,,,192,7,,,,1,0.5544482502155006,B,True,1,,,,,
n-back,,,,193,7,,,,1,None,V,False,None,,,,,
n-back,,,,194,7,,,,1,None,X,False,None,,,,,
n-back,,,,195,7,,,,1,None,N,False,None,,,,,
n-back,,,,196,7,,,,1,None,Z,False,None,,,,,
n-back,,,,197,7,,,,1,None,B,False,None,,,,,
n-back,,,,198,7,,,,1,None,V,False,None,,,,,
n-back,,,,199,7,,,,1,None,Z,False,None,,,,,
n-back,,,,200,7,,,,1,0.45837016706354916,V,True,1,,,,,
n-back,,,,201,7,,,,1,1.052948750089854,Z,True,1,,,,,
n-back,,,,202,7,,,,1,0.6117151249200106,V,True,1,,,,,
n-back,,,,203,7,,,,0,0.5711866251658648,V,False,1,,,,,
n-back,,,,204,7,,,,1,None,X,False,None,,,,,
n-back,,,,205,7,,,,1,None,C,False,None,,,,,
n-back,,,,206,7,,,,1,None,B,False,None,,,,,
n-back,,,,207,7,,,,1,None,Z,False,None,,,,,
n-back,,,,208,7,,,,1,None,C,False,None,,,,,
n-back,,,,209,7,,,,1,None,B,False,None,,,,,
n-back,,,,210,7,,,,0,0.7245269999839365,Z,False,1,,,,,
choice,fixation,145.40215833298862,146.65556883299723,49,7,,,,,,,,,Small,,,,
choice,option,146.66395095805638,147.69424920808524,49,7,,,,,,,,,Small,,,,
choice,choice,147.69442866696045,160.08872433309443,49,7,,,2,1,11.382161292014644,,,,Small,,,,
choice,fixation,160.08885916695,161.09352516708896,50,7,,,,,,,,,Pattern,,,,
choice,option,161.10290249995887,162.13239804189652,50,7,,,,,,,,,Pattern,,,,
choice,choice,162.13254270795733,176.03856804198585,50,7,,,1,0,12.895168792223558,,,,Pattern,,,,
choice,fixation,176.03872141707689,177.29371912498027,51,7,,,,,,,,,Sea,,,,
choice,option,177.30215216707438,178.3290454170201,51,7,,,,,,,,,Sea,,,,
choice,choice,178.32916912506334,183.3897522080224,51,7,,,1,0,4.0510471251327544,,,,Sea,,,,
choice,fixation,183.38987149996683,184.3947493750602,52,7,,,,,,,,,Animal,,,,
choice,option,184.40388850006275,185.43127395794727,52,7,,,,,,,,,Animal,,,,
choice,choice,185.43137974990532,196.44932666700333,52,7,,,2,1,10.007566415937617,,,,Animal,,,,
choice,fixation,196.44946508295834,197.45471695787273,53,7,,,,,,,,,Land,,,,
choice,option,197.46335312491283,198.49095570808277,53,7,,,,,,,,,Land,,,,
choice,choice,198.49110583309084,215.4877174999565,53,7,,,2,1,15.985862874891609,,,,Land,,,,
choice,fixation,215.48784624994732,215.9941638330929,54,7,,,,,,,,,Solid,,,,
choice,option,216.00355808297172,217.0305937079247,54,7,,,,,,,,,Solid,,,,
choice,choice,217.03070504195057,237.3047100000549,54,7,,,2,1,19.262777084019035,,,,Solid,,,,
choice,fixation,237.3048402920831,238.80972095788456,55,7,,,,,,,,,Object,,,,
choice,option,238.81920341704972,239.84614029200748,55,7,,,,,,,,,Object,,,,
choice,choice,239.8462810420897,248.91061908309348,55,7,,,2,1,8.053591957781464,,,,Object,,,,
choice,fixation,248.9107565418817,250.16673258296214,56,7,,,,,,,,,Large,,,,
choice,option,250.17565833288245,251.20309837488458,56,7,,,,,,,,,Large,,,,
choice,choice,251.20319975004531,263.43352087493986,56,7,,,2,1,11.218154500005767,,,,Large,,,,
memory,free_recall,269.3926112500485,292.3121266250964,36,7,,,,,,,,,,,,,
memory,value_recall,294.8879004169721,297.5204177920241,37,7,Animal_Land_Solid_Large,,,,2.6283995828125626,,,,,-8,,,
memory,value_recall,299.4027701250743,301.8651097919792,38,7,Object_Sea_Pattern_Small,,,,2.4562181669753045,,,,,-8,,,
memory,value_recall,303.4117478330154,307.8735718750395,39,7,Animal_Land_Pattern_Small,,,,4.457502125063911,,,,,2,,,
memory,value_recall,309.9198873329442,311.9523937080521,40,7,Object_Land_Solid_Small,,,,2.0264229588210583,,,,,2,,,
memory,value_recall,314.001269249944,315.62699287501164,41,7,Object_Sea_Pattern_Large,,,,1.6215456249192357,,,,,1,,,
memory,value_recall,317.4215158750303,321.64998304191977,42,7,Animal_Sea_Solid_Large,,,,4.223933625034988,,,,,5,,,
memory,spatial_recall,324.01645170804113,325.95343979191966,42,7,Animal_Land_Pattern_Small,,,1,1.9327455840539187,,,,,,"[329, 189]","[329, 189]",
memory,spatial_recall,328.0202309170272,330.44982612505555,42,7,Object_Sea_Pattern_Small,,,1,2.4237933750264347,,,,,,"[-329, 190]","[-329, 190]",
memory,spatial_recall,331.50847608293407,332.51656350004487,42,7,Animal_Sea_Solid_Large,,,1,1.005743958055973,,,,,,"[329, -190]","[329, -190]",
memory,spatial_recall,334.06797879189253,335.7498634168878,42,7,Object_Land_Solid_Small,,,1,1.677755458978936,,,,,,"[-329, -190]","[-329, -190]",
memory,spatial_recall,337.55869283294305,339.2834332920611,42,7,Animal_Land_Solid_Large,,,1,1.7207464999519289,,,,,,"[0, 380]","[0, 380]",
memory,spatial_recall,341.08957712491974,341.9338902500458,42,7,Object_Sea_Pattern_Large,,,1,0.839965125080198,,,,,,"[0, -380]","[0, -380]",
