phase,event,trial_number,eyetracker_onset,eyetracker_offset,fix_start,fix_end,fix_duration_full,fix_duration_bounded,fix_x,fix_y,roi_x,roi_y,roi_content,onset,offset,game,image,outcome,choice,correct,rt,letter,match,response,option,true_value,true_position,recalled_position,Unnamed: 18
encoding,fixation,1,10325562,10326083,10326045.0,10326193.0,149.0,38.0,1806.0,1182.0,1591.0,891.0,Object_Land_Pattern_Large,20.02644925005734,20.547458041924983,1.0,Object_Land_Pattern_Large,8.0,,,,,,,,,,,
encoding,image,1,10326083,10327109,10326236.0,10326267.0,32.0,32.0,1925.5,1262.1,1920.0,700.0,Animal_Land_Solid_Small,20.547677125083283,21.573261708021164,1.0,Object_Land_Pattern_Large,8.0,,,,,,,,,,,
encoding,image,1,10326083,10327109,10326295.0,10326485.0,191.0,191.0,1625.5,1230.6,1591.0,891.0,Object_Land_Pattern_Large,20.547677125083283,21.573261708021164,1.0,Object_Land_Pattern_Large,8.0,,,,,,,,,,,
encoding,image,1,10326083,10327109,10326492.0,10327263.0,772.0,617.0,1612.9,1221.9,1591.0,891.0,Object_Land_Pattern_Large,20.547677125083283,21.573261708021164,1.0,Object_Land_Pattern_Large,8.0,,,,,,,,,,,
encoding,value,1,10327109,10333127,10327278.0,10327431.0,154.0,154.0,1600.7,1192.0,1591.0,891.0,Object_Land_Pattern_Large,21.5733834579587,27.591062207939103,1.0,Object_Land_Pattern_Large,8.0,,,,,,,,,,,
encoding,value,1,10327109,10333127,10327448.0,10327688.0,241.0,241.0,1591.0,1132.4,1591.0,891.0,Object_Land_Pattern_Large,21.5733834579587,27.591062207939103,1.0,Object_Land_Pattern_Large,8.0,,,,,,,,,,,
encoding,value,1,10327109,10333127,10327701.0,10327997.0,297.0,297.0,1589.0,1199.3,1591.0,891.0,Object_Land_Pattern_Large,21.5733834579587,27.591062207939103,1.0,Object_Land_Pattern_Large,8.0,,,,,,,,,,,
encoding,value,1,10327109,10333127,10328012.0,10328601.0,590.0,590.0,1598.5,1129.7,1591.0,891.0,Object_Land_Pattern_Large,21.5733834579587,27.591062207939103,1.0,Object_Land_Pattern_Large,8.0,,,,,,,,,,,
encoding,value,1,10327109,10333127,10328608.0,10329034.0,427.0,427.0,1606.4,1125.2,1591.0,891.0,Object_Land_Pattern_Large,21.5733834579587,27.591062207939103,1.0,Object_Land_Pattern_Large,8.0,,,,,,,,,,,
encoding,value,1,10327109,10333127,10329048.0,10329343.0,296.0,296.0,1575.0,1177.9,1591.0,891.0,Object_Land_Pattern_Large,21.5733834579587,27.591062207939103,1.0,Object_Land_Pattern_Large,8.0,,,,,,,,,,,
encoding,value,1,10327109,10333127,10329351.0,10330240.0,890.0,890.0,1585.2,1190.1,1591.0,891.0,Object_Land_Pattern_Large,21.5733834579587,27.591062207939103,1.0,Object_Land_Pattern_Large,8.0,,,,,,,,,,,
encoding,value,1,10327109,10333127,10330257.0,10330932.0,676.0,676.0,1572.2,1114.0,1591.0,891.0,Object_Land_Pattern_Large,21.5733834579587,27.591062207939103,1.0,Object_Land_Pattern_Large,8.0,,,,,,,,,,,
encoding,value,1,10327109,10333127,10330939.0,10331341.0,403.0,403.0,1548.4,1150.7,1591.0,891.0,Object_Land_Pattern_Large,21.5733834579587,27.591062207939103,1.0,Object_Land_Pattern_Large,8.0,,,,,,,,,,,
encoding,value,1,10327109,10333127,10331351.0,10331422.0,72.0,72.0,1568.2,1126.3,1591.0,891.0,Object_Land_Pattern_Large,21.5733834579587,27.591062207939103,1.0,Object_Land_Pattern_Large,8.0,,,,,,,,,,,
encoding,value,1,10327109,10333127,10331598.0,10331630.0,33.0,33.0,1555.2,1200.8,1591.0,891.0,Object_Land_Pattern_Large,21.5733834579587,27.591062207939103,1.0,Object_Land_Pattern_Large,8.0,,,,,,,,,,,
encoding,value,1,10327109,10333127,10331650.0,10331981.0,332.0,332.0,1569.8,1105.1,1591.0,891.0,Object_Land_Pattern_Large,21.5733834579587,27.591062207939103,1.0,Object_Land_Pattern_Large,8.0,,,,,,,,,,,
encoding,value,1,10327109,10333127,10332006.0,10332208.0,203.0,203.0,1841.2,1075.3,1591.0,1269.0,Animal_Sea_Solid_Small,21.5733834579587,27.591062207939103,1.0,Object_Land_Pattern_Large,8.0,,,,,,,,,,,
encoding,value,1,10327109,10333127,10332229.0,10332470.0,242.0,242.0,1603.4,1107.6,1591.0,891.0,Object_Land_Pattern_Large,21.5733834579587,27.591062207939103,1.0,Object_Land_Pattern_Large,8.0,,,,,,,,,,,
encoding,value,1,10327109,10333127,10332518.0,10332733.0,216.0,216.0,2199.1,974.5,2249.0,1269.0,Object_Sea_Solid_Large,21.5733834579587,27.591062207939103,1.0,Object_Land_Pattern_Large,8.0,,,,,,,,,,,
encoding,value,1,10327109,10333127,10332794.0,10332958.0,165.0,165.0,2686.0,486.4000000000001,,,none,21.5733834579587,27.591062207939103,1.0,Object_Land_Pattern_Large,8.0,,,,,,,,,,,
encoding,value,1,10327109,10333127,10333110.0,10333434.0,325.0,17.0,1603.8,1117.8,1591.0,891.0,Object_Land_Pattern_Large,21.5733834579587,27.591062207939103,1.0,Object_Land_Pattern_Large,8.0,,,,,,,,,,,
encoding,attention,1,10333127,10336145,10333444.0,10333645.0,202.0,202.0,1561.6,1125.4,1591.0,891.0,Object_Land_Pattern_Large,27.59118445799686,30.60964904213324,1.0,Object_Land_Pattern_Large,8.0,8.0,1.0,0.9605983749497682,,,,,,,,
encoding,attention,1,10333127,10336145,10333658.0,10334686.0,1029.0,1029.0,1622.9,1128.5,1591.0,891.0,Object_Land_Pattern_Large,27.59118445799686,30.60964904213324,1.0,Object_Land_Pattern_Large,8.0,8.0,1.0,0.9605983749497682,,,,,,,,
encoding,attention,1,10333127,10336145,10334705.0,10334959.0,255.0,255.0,1595.8,1197.0,1591.0,891.0,Object_Land_Pattern_Large,27.59118445799686,30.60964904213324,1.0,Object_Land_Pattern_Large,8.0,8.0,1.0,0.9605983749497682,,,,,,,,
encoding,attention,1,10333127,10336145,10334974.0,10335032.0,59.0,59.0,1570.6,1132.0,1591.0,891.0,Object_Land_Pattern_Large,27.59118445799686,30.60964904213324,1.0,Object_Land_Pattern_Large,8.0,8.0,1.0,0.9605983749497682,,,,,,,,
encoding,attention,1,10333127,10336145,10335233.0,10335261.0,29.0,29.0,1588.2,1229.2,1591.0,891.0,Object_Land_Pattern_Large,27.59118445799686,30.60964904213324,1.0,Object_Land_Pattern_Large,8.0,8.0,1.0,0.9605983749497682,,,,,,,,
encoding,attention,1,10333127,10336145,10335281.0,10335594.0,314.0,314.0,1621.9,1138.6,1591.0,891.0,Object_Land_Pattern_Large,27.59118445799686,30.60964904213324,1.0,Object_Land_Pattern_Large,8.0,8.0,1.0,0.9605983749497682,,,,,,,,
encoding,attention,1,10333127,10336145,10335612.0,10335982.0,371.0,371.0,1595.4,1216.2,1591.0,891.0,Object_Land_Pattern_Large,27.59118445799686,30.60964904213324,1.0,Object_Land_Pattern_Large,8.0,8.0,1.0,0.9605983749497682,,,,,,,,
encoding,attention,1,10333127,10336145,10336002.0,10336082.0,81.0,81.0,1688.5,1148.4,1591.0,891.0,Object_Land_Pattern_Large,27.59118445799686,30.60964904213324,1.0,Object_Land_Pattern_Large,8.0,8.0,1.0,0.9605983749497682,,,,,,,,
encoding,fixation,2,10336146,10337153,10336332.0,10336363.0,32.0,32.0,1608.6,1175.2,1591.0,891.0,Object_Land_Pattern_Large,30.609817249933258,31.616838000016287,1.0,Animal_Sea_Solid_Small,2.0,,,,,,,,,,,
encoding,fixation,2,10336146,10337153,10336385.0,10336479.0,95.0,95.0,1626.8,1113.3,1591.0,891.0,Object_Land_Pattern_Large,30.609817249933258,31.616838000016287,1.0,Animal_Sea_Solid_Small,2.0,,,,,,,,,,,
encoding,fixation,2,10336146,10337153,10336505.0,10336919.0,415.0,415.0,1925.8,1109.8,1920.0,1080.0,fixation,30.609817249933258,31.616838000016287,1.0,Animal_Sea_Solid_Small,2.0,,,,,,,,,,,
encoding,fixation,2,10336146,10337153,10336946.0,10337320.0,375.0,207.0,2169.2,1202.8,2249.0,891.0,Animal_Land_Pattern_Small,30.609817249933258,31.616838000016287,1.0,Animal_Sea_Solid_Small,2.0,,,,,,,,,,,
encoding,image,2,10337153,10338164,10337365.0,10337475.0,111.0,111.0,1653.3,933.0,1591.0,1269.0,Animal_Sea_Solid_Small,31.61694954195991,32.628433167003095,1.0,Animal_Sea_Solid_Small,2.0,,,,,,,,,,,
encoding,image,2,10337153,10338164,10337493.0,10337684.0,192.0,192.0,1587.6,880.5,1591.0,1269.0,Animal_Sea_Solid_Small,31.61694954195991,32.628433167003095,1.0,Animal_Sea_Solid_Small,2.0,,,,,,,,,,,
encoding,image,2,10337153,10338164,10337691.0,10337784.0,94.0,94.0,1567.6,868.2,1591.0,1269.0,Animal_Sea_Solid_Small,31.61694954195991,32.628433167003095,1.0,Animal_Sea_Solid_Small,2.0,,,,,,,,,,,
encoding,image,2,10337153,10338164,10338102.0,10338221.0,120.0,62.0,1599.4,808.0999999999999,1591.0,1269.0,Animal_Sea_Solid_Small,31.61694954195991,32.628433167003095,1.0,Animal_Sea_Solid_Small,2.0,,,,,,,,,,,
encoding,value,2,10338164,10344178,10338236.0,10338630.0,395.0,395.0,1577.4,872.3,1591.0,1269.0,Animal_Sea_Solid_Small,32.62854791712016,38.64141520811245,1.0,Animal_Sea_Solid_Small,2.0,,,,,,,,,,,
encoding,value,2,10338164,10344178,10338648.0,10339012.0,365.0,365.0,1586.2,795.9000000000001,1591.0,1269.0,Animal_Sea_Solid_Small,32.62854791712016,38.64141520811245,1.0,Animal_Sea_Solid_Small,2.0,,,,,,,,,,,
encoding,value,2,10338164,10344178,10339312.0,10339353.0,42.0,42.0,1587.7,954.4000000000001,1591.0,1269.0,Animal_Sea_Solid_Small,32.62854791712016,38.64141520811245,1.0,Animal_Sea_Solid_Small,2.0,,,,,,,,,,,
encoding,value,2,10338164,10344178,10339368.0,10339579.0,212.0,212.0,1593.1,860.9000000000001,1591.0,1269.0,Animal_Sea_Solid_Small,32.62854791712016,38.64141520811245,1.0,Animal_Sea_Solid_Small,2.0,,,,,,,,,,,
encoding,value,2,10338164,10344178,10339595.0,10340187.0,593.0,593.0,1580.3,793.5,1591.0,1269.0,Animal_Sea_Solid_Small,32.62854791712016,38.64141520811245,1.0,Animal_Sea_Solid_Small,2.0,,,,,,,,,,,
encoding,value,2,10338164,10344178,10340210.0,10340608.0,399.0,399.0,1578.1,885.0,1591.0,1269.0,Animal_Sea_Solid_Small,32.62854791712016,38.64141520811245,1.0,Animal_Sea_Solid_Small,2.0,,,,,,,,,,,
encoding,value,2,10338164,10344178,10340635.0,10340883.0,249.0,249.0,1647.4,1027.0,1591.0,1269.0,Animal_Sea_Solid_Small,32.62854791712016,38.64141520811245,1.0,Animal_Sea_Solid_Small,2.0,,,,,,,,,,,
encoding,value,2,10338164,10344178,10340920.0,10341465.0,546.0,546.0,1573.7,774.5,1591.0,1269.0,Animal_Sea_Solid_Small,32.62854791712016,38.64141520811245,1.0,Animal_Sea_Solid_Small,2.0,,,,,,,,,,,
encoding,value,2,10338164,10344178,10341499.0,10342156.0,658.0,658.0,1601.5,965.8,1591.0,1269.0,Animal_Sea_Solid_Small,32.62854791712016,38.64141520811245,1.0,Animal_Sea_Solid_Small,2.0,,,,,,,,,,,
encoding,value,2,10338164,10344178,10342195.0,10342623.0,429.0,429.0,1585.2,757.8,1591.0,1269.0,Animal_Sea_Solid_Small,32.62854791712016,38.64141520811245,1.0,Animal_Sea_Solid_Small,2.0,,,,,,,,,,,
encoding,value,2,10338164,10344178,10342634.0,10343118.0,485.0,485.0,1558.5,798.0999999999999,1591.0,1269.0,Animal_Sea_Solid_Small,32.62854791712016,38.64141520811245,1.0,Animal_Sea_Solid_Small,2.0,,,,,,,,,,,
encoding,value,2,10338164,10344178,10343133.0,10343456.0,324.0,324.0,1564.2,872.5999999999999,1591.0,1269.0,Animal_Sea_Solid_Small,32.62854791712016,38.64141520811245,1.0,Animal_Sea_Solid_Small,2.0,,,,,,,,,,,
encoding,value,2,10338164,10344178,10343473.0,10343661.0,189.0,189.0,1567.2,797.7,1591.0,1269.0,Animal_Sea_Solid_Small,32.62854791712016,38.64141520811245,1.0,Animal_Sea_Solid_Small,2.0,,,,,,,,,,,
encoding,value,2,10338164,10344178,10343899.0,10343926.0,28.0,28.0,1440.4,819.7,1591.0,1269.0,Animal_Sea_Solid_Small,32.62854791712016,38.64141520811245,1.0,Animal_Sea_Solid_Small,2.0,,,,,,,,,,,
encoding,value,2,10338164,10344178,10343967.0,10344024.0,58.0,58.0,1560.3,885.0,1591.0,1269.0,Animal_Sea_Solid_Small,32.62854791712016,38.64141520811245,1.0,Animal_Sea_Solid_Small,2.0,,,,,,,,,,,
encoding,value,2,10338164,10344178,10344032.0,10344080.0,49.0,49.0,1563.8,817.2,1591.0,1269.0,Animal_Sea_Solid_Small,32.62854791712016,38.64141520811245,1.0,Animal_Sea_Solid_Small,2.0,,,,,,,,,,,
encoding,value,2,10338164,10344178,10344087.0,10344491.0,405.0,91.0,1548.8,784.0,1591.0,1269.0,Animal_Sea_Solid_Small,32.62854791712016,38.64141520811245,1.0,Animal_Sea_Solid_Small,2.0,,,,,,,,,,,
encoding,attention,2,10344178,10347195,10344499.0,10345376.0,878.0,878.0,1611.5,780.0,1591.0,1269.0,Animal_Sea_Solid_Small,38.64155595796183,41.65869191708043,1.0,Animal_Sea_Solid_Small,2.0,2.0,1.0,0.6563083750661463,,,,,,,,
encoding,attention,2,10344178,10347195,10345430.0,10346402.0,973.0,973.0,1744.1,1039.7,1591.0,1269.0,Animal_Sea_Solid_Small,38.64155595796183,41.65869191708043,1.0,Animal_Sea_Solid_Small,2.0,2.0,1.0,0.6563083750661463,,,,,,,,
encoding,attention,2,10344178,10347195,10346427.0,10346670.0,244.0,244.0,1944.0,1011.0,1920.0,1460.0,Object_Sea_Pattern_Large,38.64155595796183,41.65869191708043,1.0,Animal_Sea_Solid_Small,2.0,2.0,1.0,0.6563083750661463,,,,,,,,
encoding,attention,2,10344178,10347195,10346685.0,10346984.0,300.0,300.0,1874.1,1057.6,1920.0,1080.0,fixation,38.64155595796183,41.65869191708043,1.0,Animal_Sea_Solid_Small,2.0,2.0,1.0,0.6563083750661463,,,,,,,,
encoding,attention,2,10344178,10347195,10347020.0,10347051.0,32.0,32.0,1587.1,819.3,1591.0,1269.0,Animal_Sea_Solid_Small,38.64155595796183,41.65869191708043,1.0,Animal_Sea_Solid_Small,2.0,2.0,1.0,0.6563083750661463,,,,,,,,
encoding,fixation,3,10347195,10348452,10347335.0,10347399.0,65.0,65.0,1610.8,900.0,1591.0,1269.0,Animal_Sea_Solid_Small,41.658837999915704,42.915377917001024,1.0,Animal_Land_Pattern_Small,-8.0,,,,,,,,,,,
encoding,fixation,3,10347195,10348452,10347410.0,10347467.0,58.0,58.0,1633.3,826.2,1591.0,1269.0,Animal_Sea_Solid_Small,41.658837999915704,42.915377917001024,1.0,Animal_Land_Pattern_Small,-8.0,,,,,,,,,,,
encoding,fixation,3,10347195,10348452,10347517.0,10348095.0,579.0,579.0,1895.3,1039.2,1920.0,1080.0,fixation,41.658837999915704,42.915377917001024,1.0,Animal_Land_Pattern_Small,-8.0,,,,,,,,,,,
encoding,fixation,3,10347195,10348452,10348115.0,10348392.0,278.0,278.0,2040.7,1114.7,2249.0,891.0,Animal_Land_Pattern_Small,41.658837999915704,42.915377917001024,1.0,Animal_Land_Pattern_Small,-8.0,,,,,,,,,,,
encoding,fixation,3,10347195,10348452,10348412.0,10348660.0,249.0,40.0,1901.7,1107.1,1920.0,1080.0,fixation,41.658837999915704,42.915377917001024,1.0,Animal_Land_Pattern_Small,-8.0,,,,,,,,,,,
encoding,image,3,10348452,10349463,10348696.0,10349073.0,378.0,378.0,2203.1,1256.2,2249.0,891.0,Animal_Land_Pattern_Small,42.915499333059415,43.92676145792939,1.0,Animal_Land_Pattern_Small,-8.0,,,,,,,,,,,
encoding,image,3,10348452,10349463,10349373.0,10349684.0,312.0,90.0,2126.4,1180.7,2249.0,891.0,Animal_Land_Pattern_Small,42.915499333059415,43.92676145792939,1.0,Animal_Land_Pattern_Small,-8.0,,,,,,,,,,,
encoding,value,3,10349463,10355476,10349696.0,10350406.0,711.0,711.0,2189.5,1158.0,2249.0,891.0,Animal_Land_Pattern_Small,43.92689966713078,49.93949937494472,1.0,Animal_Land_Pattern_Small,-8.0,,,,,,,,,,,
encoding,value,3,10349463,10355476,10350431.0,10350890.0,460.0,460.0,1851.5,1187.6,1591.0,891.0,Object_Land_Pattern_Large,43.92689966713078,49.93949937494472,1.0,Animal_Land_Pattern_Small,-8.0,,,,,,,,,,,
encoding,value,3,10349463,10355476,10350929.0,10351373.0,445.0,445.0,2198.3,1162.8,2249.0,891.0,Animal_Land_Pattern_Small,43.92689966713078,49.93949937494472,1.0,Animal_Land_Pattern_Small,-8.0,,,,,,,,,,,
encoding,value,3,10349463,10355476,10351400.0,10351440.0,41.0,41.0,1867.7,1172.2,1920.0,700.0,Animal_Land_Solid_Small,43.92689966713078,49.93949937494472,1.0,Animal_Land_Pattern_Small,-8.0,,,,,,,,,,,
encoding,value,3,10349463,10355476,10351737.0,10351787.0,51.0,51.0,1721.9,1194.8,1591.0,891.0,Object_Land_Pattern_Large,43.92689966713078,49.93949937494472,1.0,Animal_Land_Pattern_Small,-8.0,,,,,,,,,,,
encoding,value,3,10349463,10355476,10351798.0,10351868.0,71.0,71.0,1735.2,1120.4,1591.0,891.0,Object_Land_Pattern_Large,43.92689966713078,49.93949937494472,1.0,Animal_Land_Pattern_Small,-8.0,,,,,,,,,,,
encoding,value,3,10349463,10355476,10351907.0,10352149.0,243.0,243.0,2169.6,1162.2,2249.0,891.0,Animal_Land_Pattern_Small,43.92689966713078,49.93949937494472,1.0,Animal_Land_Pattern_Small,-8.0,,,,,,,,,,,
encoding,value,3,10349463,10355476,10352159.0,10352613.0,455.0,455.0,2214.2,1148.5,2249.0,891.0,Animal_Land_Pattern_Small,43.92689966713078,49.93949937494472,1.0,Animal_Land_Pattern_Small,-8.0,,,,,,,,,,,
encoding,value,3,10349463,10355476,10352622.0,10353042.0,421.0,421.0,2185.4,1176.1,2249.0,891.0,Animal_Land_Pattern_Small,43.92689966713078,49.93949937494472,1.0,Animal_Land_Pattern_Small,-8.0,,,,,,,,,,,
encoding,value,3,10349463,10355476,10353050.0,10353898.0,849.0,849.0,2196.7,1147.4,2249.0,891.0,Animal_Land_Pattern_Small,43.92689966713078,49.93949937494472,1.0,Animal_Land_Pattern_Small,-8.0,,,,,,,,,,,
encoding,value,3,10349463,10355476,10353907.0,10354823.0,917.0,917.0,2181.7,1156.0,2249.0,891.0,Animal_Land_Pattern_Small,43.92689966713078,49.93949937494472,1.0,Animal_Land_Pattern_Small,-8.0,,,,,,,,,,,
encoding,value,3,10349463,10355476,10354832.0,10354921.0,90.0,90.0,2169.0,1134.6,2249.0,891.0,Animal_Land_Pattern_Small,43.92689966713078,49.93949937494472,1.0,Animal_Land_Pattern_Small,-8.0,,,,,,,,,,,
encoding,value,3,10349463,10355476,10354942.0,10355411.0,470.0,470.0,2189.3,1141.9,2249.0,891.0,Animal_Land_Pattern_Small,43.92689966713078,49.93949937494472,1.0,Animal_Land_Pattern_Small,-8.0,,,,,,,,,,,
encoding,value,3,10349463,10355476,10355418.0,10356069.0,652.0,58.0,2222.0,1171.0,2249.0,891.0,Animal_Land_Pattern_Small,43.92689966713078,49.93949937494472,1.0,Animal_Land_Pattern_Small,-8.0,,,,,,,,,,,
encoding,attention,3,10355476,10358494,10356092.0,10356851.0,760.0,760.0,2157.7,1155.6,2249.0,891.0,Animal_Land_Pattern_Small,49.93962466693483,52.95763941691257,1.0,Animal_Land_Pattern_Small,-8.0,-8.0,1.0,1.0912216668948531,,,,,,,,
encoding,attention,3,10355476,10358494,10357108.0,10357298.0,191.0,191.0,2169.5,1129.9,2249.0,891.0,Animal_Land_Pattern_Small,49.93962466693483,52.95763941691257,1.0,Animal_Land_Pattern_Small,-8.0,-8.0,1.0,1.0912216668948531,,,,,,,,
encoding,attention,3,10355476,10358494,10357340.0,10357704.0,365.0,365.0,1760.2,1077.7,1591.0,1269.0,Animal_Sea_Solid_Small,49.93962466693483,52.95763941691257,1.0,Animal_Land_Pattern_Small,-8.0,-8.0,1.0,1.0912216668948531,,,,,,,,
encoding,attention,3,10355476,10358494,10357719.0,10357931.0,213.0,213.0,1648.9,1101.5,1591.0,891.0,Object_Land_Pattern_Large,49.93962466693483,52.95763941691257,1.0,Animal_Land_Pattern_Small,-8.0,-8.0,1.0,1.0912216668948531,,,,,,,,
encoding,attention,3,10355476,10358494,10358210.0,10358276.0,67.0,67.0,1762.9,1030.8,1591.0,1269.0,Animal_Sea_Solid_Small,49.93962466693483,52.95763941691257,1.0,Animal_Land_Pattern_Small,-8.0,-8.0,1.0,1.0912216668948531,,,,,,,,
encoding,attention,3,10355476,10358494,10358286.0,10358412.0,127.0,127.0,1784.6,1017.0999999999999,1591.0,1269.0,Animal_Sea_Solid_Small,49.93962466693483,52.95763941691257,1.0,Animal_Land_Pattern_Small,-8.0,-8.0,1.0,1.0912216668948531,,,,,,,,
encoding,fixation,4,10358494,10359999,10358797.0,10359287.0,491.0,491.0,1895.0,1096.0,1920.0,1080.0,fixation,52.95780420792289,54.4623324170243,1.0,Object_Sea_Solid_Large,-1.0,,,,,,,,,,,
encoding,fixation,4,10358494,10359999,10359555.0,10359626.0,72.0,72.0,1881.1,1073.1,1920.0,1080.0,fixation,52.95780420792289,54.4623324170243,1.0,Object_Sea_Solid_Large,-1.0,,,,,,,,,,,
encoding,fixation,4,10358494,10359999,10359636.0,10359771.0,136.0,136.0,1884.9,1041.6,1920.0,1080.0,fixation,52.95780420792289,54.4623324170243,1.0,Object_Sea_Solid_Large,-1.0,,,,,,,,,,,
encoding,fixation,4,10358494,10359999,10359782.0,10360220.0,439.0,217.0,1864.8,1072.8,1920.0,1080.0,fixation,52.95780420792289,54.4623324170243,1.0,Object_Sea_Solid_Large,-1.0,,,,,,,,,,,
encoding,image,4,10359999,10361011,10360256.0,10360619.0,364.0,364.0,2161.9,880.5999999999999,2249.0,1269.0,Object_Sea_Solid_Large,54.46244075009599,55.473910541972145,1.0,Object_Sea_Solid_Large,-1.0,,,,,,,,,,,
encoding,image,4,10359999,10361011,10360856.0,10361237.0,382.0,155.0,2183.4,823.8,2249.0,1269.0,Object_Sea_Solid_Large,54.46244075009599,55.473910541972145,1.0,Object_Sea_Solid_Large,-1.0,,,,,,,,,,,
encoding,value,4,10361011,10367024,10361246.0,10361560.0,315.0,315.0,2196.0,768.8,2249.0,1269.0,Object_Sea_Solid_Large,55.474012332968414,61.48679937492125,1.0,Object_Sea_Solid_Large,-1.0,,,,,,,,,,,
encoding,value,4,10361011,10367024,10361601.0,10361983.0,383.0,383.0,1888.5,875.8,1920.0,1460.0,Object_Sea_Pattern_Large,55.474012332968414,61.48679937492125,1.0,Object_Sea_Solid_Large,-1.0,,,,,,,,,,,
encoding,value,4,10361011,10367024,10362011.0,10362279.0,269.0,269.0,1847.1,1050.4,1591.0,1269.0,Animal_Sea_Solid_Small,55.474012332968414,61.48679937492125,1.0,Object_Sea_Solid_Large,-1.0,,,,,,,,,,,
encoding,value,4,10361011,10367024,10362536.0,10363078.0,543.0,543.0,2163.7,1010.0999999999999,2249.0,1269.0,Object_Sea_Solid_Large,55.474012332968414,61.48679937492125,1.0,Object_Sea_Solid_Large,-1.0,,,,,,,,,,,
encoding,value,4,10361011,10367024,10363120.0,10363322.0,203.0,203.0,2188.0,726.8,2249.0,1269.0,Object_Sea_Solid_Large,55.474012332968414,61.48679937492125,1.0,Object_Sea_Solid_Large,-1.0,,,,,,,,,,,
encoding,value,4,10361011,10367024,10363337.0,10363922.0,586.0,586.0,2173.9,788.2,2249.0,1269.0,Object_Sea_Solid_Large,55.474012332968414,61.48679937492125,1.0,Object_Sea_Solid_Large,-1.0,,,,,,,,,,,
encoding,value,4,10361011,10367024,10363938.0,10364338.0,401.0,401.0,2170.8,864.5999999999999,2249.0,1269.0,Object_Sea_Solid_Large,55.474012332968414,61.48679937492125,1.0,Object_Sea_Solid_Large,-1.0,,,,,,,,,,,
encoding,value,4,10361011,10367024,10364354.0,10364548.0,195.0,195.0,2181.7,788.3,2249.0,1269.0,Object_Sea_Solid_Large,55.474012332968414,61.48679937492125,1.0,Object_Sea_Solid_Large,-1.0,,,,,,,,,,,
encoding,value,4,10361011,10367024,10364557.0,10365227.0,671.0,671.0,2167.3,749.0999999999999,2249.0,1269.0,Object_Sea_Solid_Large,55.474012332968414,61.48679937492125,1.0,Object_Sea_Solid_Large,-1.0,,,,,,,,,,,
encoding,value,4,10361011,10367024,10365249.0,10365457.0,209.0,209.0,2158.7,834.7,2249.0,1269.0,Object_Sea_Solid_Large,55.474012332968414,61.48679937492125,1.0,Object_Sea_Solid_Large,-1.0,,,,,,,,,,,
encoding,value,4,10361011,10367024,10365477.0,10366272.0,796.0,796.0,2170.5,749.0,2249.0,1269.0,Object_Sea_Solid_Large,55.474012332968414,61.48679937492125,1.0,Object_Sea_Solid_Large,-1.0,,,,,,,,,,,
encoding,value,4,10361011,10367024,10366521.0,10367466.0,946.0,503.0,2175.8,763.9000000000001,2249.0,1269.0,Object_Sea_Solid_Large,55.474012332968414,61.48679937492125,1.0,Object_Sea_Solid_Large,-1.0,,,,,,,,,,,
encoding,attention,4,10367024,10370094,10367478.0,10368133.0,656.0,656.0,2222.6,773.9000000000001,2249.0,1269.0,Object_Sea_Solid_Large,61.486900750081986,64.55698699993081,1.0,Object_Sea_Solid_Large,-1.0,-1.0,1.0,0.7396275410428643,,,,,,,,
encoding,attention,4,10367024,10370094,10368589.0,10368779.0,191.0,191.0,2143.5,829.4000000000001,2249.0,1269.0,Object_Sea_Solid_Large,61.486900750081986,64.55698699993081,1.0,Object_Sea_Solid_Large,-1.0,-1.0,1.0,0.7396275410428643,,,,,,,,
encoding,attention,4,10367024,10370094,10368822.0,10368889.0,68.0,68.0,1749.2,1107.3,1591.0,891.0,Object_Land_Pattern_Large,61.486900750081986,64.55698699993081,1.0,Object_Sea_Solid_Large,-1.0,-1.0,1.0,0.7396275410428643,,,,,,,,
encoding,attention,4,10367024,10370094,10368900.0,10369313.0,414.0,414.0,1758.2,1038.6,1591.0,1269.0,Animal_Sea_Solid_Small,61.486900750081986,64.55698699993081,1.0,Object_Sea_Solid_Large,-1.0,-1.0,1.0,0.7396275410428643,,,,,,,,
encoding,attention,4,10367024,10370094,10369363.0,10370048.0,686.0,686.0,2166.0,856.4000000000001,2249.0,1269.0,Object_Sea_Solid_Large,61.486900750081986,64.55698699993081,1.0,Object_Sea_Solid_Large,-1.0,-1.0,1.0,0.7396275410428643,,,,,,,,
encoding,fixation,5,10370094,10371600,10370390.0,10371535.0,1146.0,1146.0,1887.9,1078.2,1920.0,1080.0,fixation,64.55714641697705,66.06277587497607,1.0,Animal_Land_Solid_Small,2.0,,,,,,,,,,,
encoding,fixation,5,10370094,10371600,10371544.0,10371785.0,242.0,56.0,1880.6,1122.9,1920.0,1080.0,fixation,64.55714641697705,66.06277587497607,1.0,Animal_Land_Solid_Small,2.0,,,,,,,,,,,
encoding,image,5,10371600,10372611,10371831.0,10372093.0,263.0,263.0,1853.0,1356.1,1920.0,700.0,Animal_Land_Solid_Small,66.06290133297443,67.07388179190457,1.0,Animal_Land_Solid_Small,2.0,,,,,,,,,,,
encoding,image,5,10371600,10372611,10372104.0,10372485.0,382.0,382.0,1904.4,1400.7,1920.0,700.0,Animal_Land_Solid_Small,66.06290133297443,67.07388179190457,1.0,Animal_Land_Solid_Small,2.0,,,,,,,,,,,
encoding,image,5,10371600,10372611,10372522.0,10372785.0,264.0,89.0,1863.2,1202.1,1920.0,700.0,Animal_Land_Solid_Small,66.06290133297443,67.07388179190457,1.0,Animal_Land_Solid_Small,2.0,,,,,,,,,,,
encoding,value,5,10372611,10378622,10372804.0,10373236.0,433.0,433.0,1883.8,1289.8,1920.0,700.0,Animal_Land_Solid_Small,67.07399970805272,73.08483750000596,1.0,Animal_Land_Solid_Small,2.0,,,,,,,,,,,
encoding,value,5,10372611,10378622,10373510.0,10374797.0,1288.0,1288.0,1892.4,1300.3,1920.0,700.0,Animal_Land_Solid_Small,67.07399970805272,73.08483750000596,1.0,Animal_Land_Solid_Small,2.0,,,,,,,,,,,
encoding,value,5,10372611,10378622,10374811.0,10375381.0,571.0,571.0,1802.9,1215.8,1591.0,891.0,Object_Land_Pattern_Large,67.07399970805272,73.08483750000596,1.0,Animal_Land_Solid_Small,2.0,,,,,,,,,,,
encoding,value,5,10372611,10378622,10375394.0,10375987.0,594.0,594.0,1879.4,1286.0,1920.0,700.0,Animal_Land_Solid_Small,67.07399970805272,73.08483750000596,1.0,Animal_Land_Solid_Small,2.0,,,,,,,,,,,
encoding,value,5,10372611,10378622,10376007.0,10376365.0,359.0,359.0,1801.1,1155.7,1591.0,891.0,Object_Land_Pattern_Large,67.07399970805272,73.08483750000596,1.0,Animal_Land_Solid_Small,2.0,,,,,,,,,,,
encoding,value,5,10372611,10378622,10376382.0,10376598.0,217.0,217.0,1954.8,1122.5,1920.0,1080.0,fixation,67.07399970805272,73.08483750000596,1.0,Animal_Land_Solid_Small,2.0,,,,,,,,,,,
encoding,value,5,10372611,10378622,10376620.0,10376847.0,228.0,228.0,1888.6,1237.0,1920.0,700.0,Animal_Land_Solid_Small,67.07399970805272,73.08483750000596,1.0,Animal_Land_Solid_Small,2.0,,,,,,,,,,,
encoding,value,5,10372611,10378622,10376858.0,10379153.0,2296.0,1764.0,1889.6,1285.5,1920.0,700.0,Animal_Land_Solid_Small,67.07399970805272,73.08483750000596,1.0,Animal_Land_Solid_Small,2.0,,,,,,,,,,,
encoding,attention,5,10378622,10381641,10379167.0,10380115.0,949.0,949.0,1855.6,1295.3,1920.0,700.0,Animal_Land_Solid_Small,73.08495154208504,76.10302195791155,1.0,Animal_Land_Solid_Small,2.0,2.0,1.0,1.2404977090191096,,,,,,,,
encoding,attention,5,10378622,10381641,10380402.0,10380580.0,179.0,179.0,2090.5,1145.8,2249.0,891.0,Animal_Land_Pattern_Small,73.08495154208504,76.10302195791155,1.0,Animal_Land_Solid_Small,2.0,2.0,1.0,1.2404977090191096,,,,,,,,
encoding,attention,5,10378622,10381641,10380618.0,10380875.0,258.0,258.0,1874.7,1275.5,1920.0,700.0,Animal_Land_Solid_Small,73.08495154208504,76.10302195791155,1.0,Animal_Land_Solid_Small,2.0,2.0,1.0,1.2404977090191096,,,,,,,,
encoding,attention,5,10378622,10381641,10381165.0,10381212.0,48.0,48.0,1888.9,1289.8,1920.0,700.0,Animal_Land_Solid_Small,73.08495154208504,76.10302195791155,1.0,Animal_Land_Solid_Small,2.0,2.0,1.0,1.2404977090191096,,,,,,,,
encoding,attention,5,10378622,10381641,10381223.0,10381557.0,335.0,335.0,1897.5,1250.3,1920.0,700.0,Animal_Land_Solid_Small,73.08495154208504,76.10302195791155,1.0,Animal_Land_Solid_Small,2.0,2.0,1.0,1.2404977090191096,,,,,,,,
encoding,fixation,6,10381641,10382647,10381942.0,10382215.0,274.0,274.0,1885.5,1063.4,1920.0,1080.0,fixation,76.10316870803945,77.1090042500291,1.0,Object_Sea_Pattern_Large,-3.0,,,,,,,,,,,
encoding,fixation,6,10381641,10382647,10382468.0,10382769.0,302.0,179.0,1802.5,1185.9,1591.0,891.0,Object_Land_Pattern_Large,76.10316870803945,77.1090042500291,1.0,Object_Sea_Pattern_Large,-3.0,,,,,,,,,,,
encoding,image,6,10382647,10383658,10382796.0,10383042.0,247.0,247.0,1811.2,1280.5,1920.0,700.0,Animal_Land_Solid_Small,77.10916795791127,78.1202436669264,1.0,Object_Sea_Pattern_Large,-3.0,,,,,,,,,,,
encoding,image,6,10382647,10383658,10383097.0,10383441.0,345.0,345.0,1883.2,665.4000000000001,1920.0,1460.0,Object_Sea_Pattern_Large,77.10916795791127,78.1202436669264,1.0,Object_Sea_Pattern_Large,-3.0,,,,,,,,,,,
encoding,image,6,10382647,10383658,10383497.0,10384069.0,573.0,161.0,1762.0,1178.9,1591.0,891.0,Object_Land_Pattern_Large,77.10916795791127,78.1202436669264,1.0,Object_Sea_Pattern_Large,-3.0,,,,,,,,,,,
encoding,value,6,10383658,10389670,10384122.0,10384672.0,551.0,551.0,1864.5,544.0,1920.0,1460.0,Object_Sea_Pattern_Large,78.12037066696212,84.13143554213457,1.0,Object_Sea_Pattern_Large,-3.0,,,,,,,,,,,
encoding,value,6,10383658,10389670,10384992.0,10385227.0,236.0,236.0,1879.2,566.5,1920.0,1460.0,Object_Sea_Pattern_Large,78.12037066696212,84.13143554213457,1.0,Object_Sea_Pattern_Large,-3.0,,,,,,,,,,,
encoding,value,6,10383658,10389670,10385279.0,10385302.0,24.0,24.0,1795.0,1092.9,1591.0,891.0,Object_Land_Pattern_Large,78.12037066696212,84.13143554213457,1.0,Object_Sea_Pattern_Large,-3.0,,,,,,,,,,,
encoding,value,6,10383658,10389670,10385310.0,10385463.0,154.0,154.0,1807.6,1032.7,1591.0,1269.0,Animal_Sea_Solid_Small,78.12037066696212,84.13143554213457,1.0,Object_Sea_Pattern_Large,-3.0,,,,,,,,,,,
encoding,value,6,10383658,10389670,10385488.0,10386009.0,522.0,522.0,2033.3,1082.5,2249.0,891.0,Animal_Land_Pattern_Small,78.12037066696212,84.13143554213457,1.0,Object_Sea_Pattern_Large,-3.0,,,,,,,,,,,
encoding,value,6,10383658,10389670,10386022.0,10386434.0,413.0,413.0,2115.6,1101.1,2249.0,891.0,Animal_Land_Pattern_Small,78.12037066696212,84.13143554213457,1.0,Object_Sea_Pattern_Large,-3.0,,,,,,,,,,,
encoding,value,6,10383658,10389670,10386461.0,10386706.0,246.0,246.0,1885.9,1159.4,1920.0,700.0,Animal_Land_Solid_Small,78.12037066696212,84.13143554213457,1.0,Object_Sea_Pattern_Large,-3.0,,,,,,,,,,,
encoding,value,6,10383658,10389670,10386724.0,10387312.0,589.0,589.0,2026.9,1149.8,2249.0,891.0,Animal_Land_Pattern_Small,78.12037066696212,84.13143554213457,1.0,Object_Sea_Pattern_Large,-3.0,,,,,,,,,,,
encoding,value,6,10383658,10389670,10387522.0,10387734.0,213.0,213.0,1862.3,622.7,1920.0,1460.0,Object_Sea_Pattern_Large,78.12037066696212,84.13143554213457,1.0,Object_Sea_Pattern_Large,-3.0,,,,,,,,,,,
encoding,value,6,10383658,10389670,10387743.0,10388498.0,756.0,756.0,1870.4,563.8,1920.0,1460.0,Object_Sea_Pattern_Large,78.12037066696212,84.13143554213457,1.0,Object_Sea_Pattern_Large,-3.0,,,,,,,,,,,
encoding,value,6,10383658,10389670,10388567.0,10388935.0,369.0,369.0,1673.7,1134.9,1591.0,891.0,Object_Land_Pattern_Large,78.12037066696212,84.13143554213457,1.0,Object_Sea_Pattern_Large,-3.0,,,,,,,,,,,
encoding,value,6,10383658,10389670,10388988.0,10389957.0,970.0,682.0,1869.0,546.2,1920.0,1460.0,Object_Sea_Pattern_Large,78.12037066696212,84.13143554213457,1.0,Object_Sea_Pattern_Large,-3.0,,,,,,,,,,,
encoding,attention,6,10389670,10392687,10389964.0,10390280.0,317.0,317.0,1908.1,559.7,1920.0,1460.0,Object_Sea_Pattern_Large,84.13156879204325,87.14830379211344,1.0,Object_Sea_Pattern_Large,-3.0,-3.0,1.0,0.9890599579084663,,,,,,,,
encoding,attention,6,10389670,10392687,10390293.0,10390920.0,628.0,628.0,1831.2,573.5,1920.0,1460.0,Object_Sea_Pattern_Large,84.13156879204325,87.14830379211344,1.0,Object_Sea_Pattern_Large,-3.0,-3.0,1.0,0.9890599579084663,,,,,,,,
encoding,attention,6,10389670,10392687,10391223.0,10391330.0,108.0,108.0,1864.8,685.5,1920.0,1460.0,Object_Sea_Pattern_Large,84.13156879204325,87.14830379211344,1.0,Object_Sea_Pattern_Large,-3.0,-3.0,1.0,0.9890599579084663,,,,,,,,
encoding,attention,6,10389670,10392687,10391336.0,10391515.0,180.0,180.0,1875.3,655.8,1920.0,1460.0,Object_Sea_Pattern_Large,84.13156879204325,87.14830379211344,1.0,Object_Sea_Pattern_Large,-3.0,-3.0,1.0,0.9890599579084663,,,,,,,,
encoding,attention,6,10389670,10392687,10391536.0,10391854.0,319.0,319.0,1850.3,537.8,1920.0,1460.0,Object_Sea_Pattern_Large,84.13156879204325,87.14830379211344,1.0,Object_Sea_Pattern_Large,-3.0,-3.0,1.0,0.9890599579084663,,,,,,,,
encoding,attention,6,10389670,10392687,10391895.0,10391972.0,78.0,78.0,1865.2,832.4000000000001,1920.0,1460.0,Object_Sea_Pattern_Large,84.13156879204325,87.14830379211344,1.0,Object_Sea_Pattern_Large,-3.0,-3.0,1.0,0.9890599579084663,,,,,,,,
encoding,attention,6,10389670,10392687,10391981.0,10392062.0,82.0,82.0,1874.2,796.8,1920.0,1460.0,Object_Sea_Pattern_Large,84.13156879204325,87.14830379211344,1.0,Object_Sea_Pattern_Large,-3.0,-3.0,1.0,0.9890599579084663,,,,,,,,
encoding,attention,6,10389670,10392687,10392347.0,10392598.0,252.0,252.0,1838.5,604.8,1920.0,1460.0,Object_Sea_Pattern_Large,84.13156879204325,87.14830379211344,1.0,Object_Sea_Pattern_Large,-3.0,-3.0,1.0,0.9890599579084663,,,,,,,,
encoding,fixation,7,10909141,10909650,10909382.0,10909697.0,316.0,268.0,1881.7,1109.2,1920.0,1080.0,fixation,16.350354499882087,16.859277749899775,2.0,Object_Land_Pattern_Large,7.0,,,,,,,,,,,
encoding,image,7,10909650,10910663,10909745.0,10909844.0,100.0,100.0,1809.6,1334.0,1920.0,700.0,Object_Sea_Solid_Small,16.85940199997276,17.872290625004098,2.0,Object_Land_Pattern_Large,7.0,,,,,,,,,,,
encoding,image,7,10909650,10910663,10909868.0,10910653.0,786.0,786.0,1605.5,1208.6,1591.0,891.0,Object_Land_Pattern_Large,16.85940199997276,17.872290625004098,2.0,Object_Land_Pattern_Large,7.0,,,,,,,,,,,
encoding,value,7,10910663,10916677,10910665.0,10910882.0,218.0,218.0,1677.2,1226.8,1591.0,891.0,Object_Land_Pattern_Large,17.872404957888648,23.88620137493126,2.0,Object_Land_Pattern_Large,7.0,,,,,,,,,,,
encoding,value,7,10910663,10916677,10910912.0,10911409.0,498.0,498.0,1595.6,1129.0,1591.0,891.0,Object_Land_Pattern_Large,17.872404957888648,23.88620137493126,2.0,Object_Land_Pattern_Large,7.0,,,,,,,,,,,
encoding,value,7,10910663,10916677,10911420.0,10911594.0,175.0,175.0,1644.2,1155.0,1591.0,891.0,Object_Land_Pattern_Large,17.872404957888648,23.88620137493126,2.0,Object_Land_Pattern_Large,7.0,,,,,,,,,,,
encoding,value,7,10910663,10916677,10911605.0,10912076.0,472.0,472.0,1585.3,1131.0,1591.0,891.0,Object_Land_Pattern_Large,17.872404957888648,23.88620137493126,2.0,Object_Land_Pattern_Large,7.0,,,,,,,,,,,
encoding,value,7,10910663,10916677,10912085.0,10912213.0,129.0,129.0,1568.3,1187.7,1591.0,891.0,Object_Land_Pattern_Large,17.872404957888648,23.88620137493126,2.0,Object_Land_Pattern_Large,7.0,,,,,,,,,,,
encoding,value,7,10910663,10916677,10912422.0,10912633.0,212.0,212.0,1589.3,1105.9,1591.0,891.0,Object_Land_Pattern_Large,17.872404957888648,23.88620137493126,2.0,Object_Land_Pattern_Large,7.0,,,,,,,,,,,
encoding,value,7,10910663,10916677,10912647.0,10913385.0,739.0,739.0,1608.8,1175.1,1591.0,891.0,Object_Land_Pattern_Large,17.872404957888648,23.88620137493126,2.0,Object_Land_Pattern_Large,7.0,,,,,,,,,,,
encoding,value,7,10910663,10916677,10913404.0,10913563.0,160.0,160.0,1603.4,1122.5,1591.0,891.0,Object_Land_Pattern_Large,17.872404957888648,23.88620137493126,2.0,Object_Land_Pattern_Large,7.0,,,,,,,,,,,
encoding,value,7,10910663,10916677,10913582.0,10913920.0,339.0,339.0,1591.6,1197.7,1591.0,891.0,Object_Land_Pattern_Large,17.872404957888648,23.88620137493126,2.0,Object_Land_Pattern_Large,7.0,,,,,,,,,,,
encoding,value,7,10910663,10916677,10913930.0,10914578.0,649.0,649.0,1619.1,1203.3,1591.0,891.0,Object_Land_Pattern_Large,17.872404957888648,23.88620137493126,2.0,Object_Land_Pattern_Large,7.0,,,,,,,,,,,
encoding,value,7,10910663,10916677,10914827.0,10914966.0,140.0,140.0,1583.4,1123.3,1591.0,891.0,Object_Land_Pattern_Large,17.872404957888648,23.88620137493126,2.0,Object_Land_Pattern_Large,7.0,,,,,,,,,,,
encoding,value,7,10910663,10916677,10914975.0,10915121.0,147.0,147.0,1568.4,1140.3,1591.0,891.0,Object_Land_Pattern_Large,17.872404957888648,23.88620137493126,2.0,Object_Land_Pattern_Large,7.0,,,,,,,,,,,
encoding,value,7,10910663,10916677,10915153.0,10915361.0,209.0,209.0,1851.8,1165.8,1591.0,891.0,Object_Land_Pattern_Large,17.872404957888648,23.88620137493126,2.0,Object_Land_Pattern_Large,7.0,,,,,,,,,,,
encoding,value,7,10910663,10916677,10915386.0,10915629.0,244.0,244.0,1580.2,1121.9,1591.0,891.0,Object_Land_Pattern_Large,17.872404957888648,23.88620137493126,2.0,Object_Land_Pattern_Large,7.0,,,,,,,,,,,
encoding,value,7,10910663,10916677,10915637.0,10916159.0,523.0,523.0,1566.2,1116.5,1591.0,891.0,Object_Land_Pattern_Large,17.872404957888648,23.88620137493126,2.0,Object_Land_Pattern_Large,7.0,,,,,,,,,,,
encoding,value,7,10910663,10916677,10916167.0,10917196.0,1030.0,510.0,1579.2,1116.2,1591.0,891.0,Object_Land_Pattern_Large,17.872404957888648,23.88620137493126,2.0,Object_Land_Pattern_Large,7.0,,,,,,,,,,,
encoding,attention,7,10916677,10919695,10917211.0,10917983.0,773.0,773.0,1533.8,1093.0,1591.0,891.0,Object_Land_Pattern_Large,23.886336457915604,26.90440245787613,2.0,Object_Land_Pattern_Large,7.0,7.0,1.0,1.0238722078502178,,,,,,,,
encoding,attention,7,10916677,10919695,10918258.0,10918554.0,297.0,297.0,1573.1,1074.5,1591.0,1269.0,Animal_Sea_Solid_Small,23.886336457915604,26.90440245787613,2.0,Object_Land_Pattern_Large,7.0,7.0,1.0,1.0238722078502178,,,,,,,,
encoding,attention,7,10916677,10919695,10918568.0,10918817.0,250.0,250.0,1685.2,1086.4,1591.0,891.0,Object_Land_Pattern_Large,23.886336457915604,26.90440245787613,2.0,Object_Land_Pattern_Large,7.0,7.0,1.0,1.0238722078502178,,,,,,,,
encoding,attention,7,10916677,10919695,10918842.0,10919421.0,580.0,580.0,1908.9,1153.9,1920.0,700.0,Object_Sea_Solid_Small,23.886336457915604,26.90440245787613,2.0,Object_Land_Pattern_Large,7.0,7.0,1.0,1.0238722078502178,,,,,,,,
encoding,fixation,8,10919695,10920950,10919696.0,10919782.0,87.0,87.0,1576.3,1096.4,1591.0,891.0,Object_Land_Pattern_Large,26.90456662490033,28.15976370801218,2.0,Object_Land_Solid_Large,-7.0,,,,,,,,,,,
encoding,fixation,8,10919695,10920950,10919791.0,10919884.0,94.0,94.0,1529.1,1094.7,1591.0,891.0,Object_Land_Pattern_Large,26.90456662490033,28.15976370801218,2.0,Object_Land_Solid_Large,-7.0,,,,,,,,,,,
encoding,fixation,8,10919695,10920950,10919917.0,10920462.0,546.0,546.0,1883.4,1060.2,1920.0,1080.0,fixation,26.90456662490033,28.15976370801218,2.0,Object_Land_Solid_Large,-7.0,,,,,,,,,,,
encoding,fixation,8,10919695,10920950,10920474.0,10920617.0,144.0,144.0,1982.4,1058.7,1920.0,1080.0,fixation,26.90456662490033,28.15976370801218,2.0,Object_Land_Solid_Large,-7.0,,,,,,,,,,,
encoding,fixation,8,10919695,10920950,10920635.0,10921139.0,505.0,315.0,1866.9,1039.1,1920.0,1080.0,fixation,26.90456662490033,28.15976370801218,2.0,Object_Land_Solid_Large,-7.0,,,,,,,,,,,
encoding,image,8,10920951,10921961,10921172.0,10921494.0,323.0,323.0,2130.5,837.9000000000001,2249.0,1269.0,Object_Land_Solid_Large,28.159935291856527,29.170192332938313,2.0,Object_Land_Solid_Large,-7.0,,,,,,,,,,,
encoding,image,8,10920951,10921961,10921735.0,10921788.0,54.0,54.0,2045.8,968.8,2249.0,1269.0,Object_Land_Solid_Large,28.159935291856527,29.170192332938313,2.0,Object_Land_Solid_Large,-7.0,,,,,,,,,,,
encoding,image,8,10920951,10921961,10921798.0,10921828.0,31.0,31.0,2052.8,917.7,2249.0,1269.0,Object_Land_Solid_Large,28.159935291856527,29.170192332938313,2.0,Object_Land_Solid_Large,-7.0,,,,,,,,,,,
encoding,image,8,10920951,10921961,10921850.0,10922206.0,357.0,111.0,1896.0,1015.5,1920.0,1080.0,fixation,28.159935291856527,29.170192332938313,2.0,Object_Land_Solid_Large,-7.0,,,,,,,,,,,
encoding,value,8,10921961,10927972,10922248.0,10922647.0,400.0,400.0,2179.8,782.9000000000001,2249.0,1269.0,Object_Land_Solid_Large,29.170329042011872,35.18123770784587,2.0,Object_Land_Solid_Large,-7.0,,,,,,,,,,,
encoding,value,8,10921961,10927972,10922667.0,10922936.0,270.0,270.0,2171.1,900.7,2249.0,1269.0,Object_Land_Solid_Large,29.170329042011872,35.18123770784587,2.0,Object_Land_Solid_Large,-7.0,,,,,,,,,,,
encoding,value,8,10921961,10927972,10922978.0,10923388.0,411.0,411.0,1787.3,1077.7,1591.0,1269.0,Animal_Sea_Solid_Small,29.170329042011872,35.18123770784587,2.0,Object_Land_Solid_Large,-7.0,,,,,,,,,,,
encoding,value,8,10921961,10927972,10923429.0,10923791.0,363.0,363.0,2169.9,883.2,2249.0,1269.0,Object_Land_Solid_Large,29.170329042011872,35.18123770784587,2.0,Object_Land_Solid_Large,-7.0,,,,,,,,,,,
encoding,value,8,10921961,10927972,10924046.0,10924152.0,107.0,107.0,2129.9,907.3,2249.0,1269.0,Object_Land_Solid_Large,29.170329042011872,35.18123770784587,2.0,Object_Land_Solid_Large,-7.0,,,,,,,,,,,
encoding,value,8,10921961,10927972,10924160.0,10924526.0,367.0,367.0,2140.5,902.5,2249.0,1269.0,Object_Land_Solid_Large,29.170329042011872,35.18123770784587,2.0,Object_Land_Solid_Large,-7.0,,,,,,,,,,,
encoding,value,8,10921961,10927972,10924548.0,10925097.0,550.0,550.0,2184.8,771.5,2249.0,1269.0,Object_Land_Solid_Large,29.170329042011872,35.18123770784587,2.0,Object_Land_Solid_Large,-7.0,,,,,,,,,,,
encoding,value,8,10921961,10927972,10925359.0,10925499.0,141.0,141.0,2180.0,718.2,2249.0,1269.0,Object_Land_Solid_Large,29.170329042011872,35.18123770784587,2.0,Object_Land_Solid_Large,-7.0,,,,,,,,,,,
encoding,value,8,10921961,10927972,10925508.0,10925627.0,120.0,120.0,2200.4,756.0999999999999,2249.0,1269.0,Object_Land_Solid_Large,29.170329042011872,35.18123770784587,2.0,Object_Land_Solid_Large,-7.0,,,,,,,,,,,
encoding,value,8,10921961,10927972,10925637.0,10925891.0,255.0,255.0,2173.2,776.4000000000001,2249.0,1269.0,Object_Land_Solid_Large,29.170329042011872,35.18123770784587,2.0,Object_Land_Solid_Large,-7.0,,,,,,,,,,,
encoding,value,8,10921961,10927972,10925945.0,10926307.0,363.0,363.0,1792.3,1096.9,1591.0,891.0,Object_Land_Pattern_Large,29.170329042011872,35.18123770784587,2.0,Object_Land_Solid_Large,-7.0,,,,,,,,,,,
encoding,value,8,10921961,10927972,10926350.0,10926677.0,328.0,328.0,2189.6,808.2,2249.0,1269.0,Object_Land_Solid_Large,29.170329042011872,35.18123770784587,2.0,Object_Land_Solid_Large,-7.0,,,,,,,,,,,
encoding,value,8,10921961,10927972,10926686.0,10926965.0,280.0,280.0,2190.7,774.3,2249.0,1269.0,Object_Land_Solid_Large,29.170329042011872,35.18123770784587,2.0,Object_Land_Solid_Large,-7.0,,,,,,,,,,,
encoding,value,8,10921961,10927972,10926994.0,10927183.0,190.0,190.0,2053.1,953.9000000000001,2249.0,1269.0,Object_Land_Solid_Large,29.170329042011872,35.18123770784587,2.0,Object_Land_Solid_Large,-7.0,,,,,,,,,,,
encoding,value,8,10921961,10927972,10927206.0,10927471.0,266.0,266.0,1858.6,1060.7,1920.0,1080.0,fixation,29.170329042011872,35.18123770784587,2.0,Object_Land_Solid_Large,-7.0,,,,,,,,,,,
encoding,value,8,10921961,10927972,10927513.0,10927788.0,276.0,276.0,2162.9,779.4000000000001,2249.0,1269.0,Object_Land_Solid_Large,29.170329042011872,35.18123770784587,2.0,Object_Land_Solid_Large,-7.0,,,,,,,,,,,
encoding,value,8,10921961,10927972,10927809.0,10928170.0,362.0,163.0,2153.5,870.4000000000001,2249.0,1269.0,Object_Land_Solid_Large,29.170329042011872,35.18123770784587,2.0,Object_Land_Solid_Large,-7.0,,,,,,,,,,,
encoding,attention,8,10927972,10930989,10928193.0,10928450.0,258.0,258.0,2175.1,769.2,2249.0,1269.0,Object_Land_Solid_Large,35.18136658286676,38.19824616704136,2.0,Object_Land_Solid_Large,-7.0,-7.0,1.0,0.7906287910882384,,,,,,,,
encoding,attention,8,10927972,10930989,10928458.0,10928562.0,105.0,105.0,2141.7,757.3,2249.0,1269.0,Object_Land_Solid_Large,35.18136658286676,38.19824616704136,2.0,Object_Land_Solid_Large,-7.0,-7.0,1.0,0.7906287910882384,,,,,,,,
encoding,attention,8,10927972,10930989,10928762.0,10928870.0,109.0,109.0,2143.1,770.5999999999999,2249.0,1269.0,Object_Land_Solid_Large,35.18136658286676,38.19824616704136,2.0,Object_Land_Solid_Large,-7.0,-7.0,1.0,0.7906287910882384,,,,,,,,
encoding,attention,8,10927972,10930989,10928880.0,10929073.0,194.0,194.0,2149.4,754.4000000000001,2249.0,1269.0,Object_Land_Solid_Large,35.18136658286676,38.19824616704136,2.0,Object_Land_Solid_Large,-7.0,-7.0,1.0,0.7906287910882384,,,,,,,,
encoding,attention,8,10927972,10930989,10929327.0,10929399.0,73.0,73.0,2143.5,934.4000000000001,2249.0,1269.0,Object_Land_Solid_Large,35.18136658286676,38.19824616704136,2.0,Object_Land_Solid_Large,-7.0,-7.0,1.0,0.7906287910882384,,,,,,,,
encoding,attention,8,10927972,10930989,10929416.0,10929671.0,256.0,256.0,2163.3,902.0999999999999,2249.0,1269.0,Object_Land_Solid_Large,35.18136658286676,38.19824616704136,2.0,Object_Land_Solid_Large,-7.0,-7.0,1.0,0.7906287910882384,,,,,,,,
encoding,attention,8,10927972,10930989,10929710.0,10929845.0,136.0,136.0,1925.1,1002.9000000000001,1920.0,1460.0,Animal_Land_Pattern_Large,35.18136658286676,38.19824616704136,2.0,Object_Land_Solid_Large,-7.0,-7.0,1.0,0.7906287910882384,,,,,,,,
encoding,attention,8,10927972,10930989,10929871.0,10930234.0,364.0,364.0,2161.7,844.9000000000001,2249.0,1269.0,Object_Land_Solid_Large,35.18136658286676,38.19824616704136,2.0,Object_Land_Solid_Large,-7.0,-7.0,1.0,0.7906287910882384,,,,,,,,
encoding,attention,8,10927972,10930989,10930245.0,10930492.0,248.0,248.0,2144.8,887.8,2249.0,1269.0,Object_Land_Solid_Large,35.18136658286676,38.19824616704136,2.0,Object_Land_Solid_Large,-7.0,-7.0,1.0,0.7906287910882384,,,,,,,,
encoding,fixation,9,10930990,10932495,10931235.0,10931296.0,62.0,62.0,2149.7,956.9000000000001,2249.0,1269.0,Object_Land_Solid_Large,38.19841199996881,39.70363279199228,2.0,Object_Sea_Solid_Small,-1.0,,,,,,,,,,,
encoding,fixation,9,10930990,10932495,10931309.0,10931403.0,95.0,95.0,2162.1,918.0999999999999,2249.0,1269.0,Object_Land_Solid_Large,38.19841199996881,39.70363279199228,2.0,Object_Sea_Solid_Small,-1.0,,,,,,,,,,,
encoding,fixation,9,10930990,10932495,10931434.0,10931863.0,430.0,430.0,1886.3,1077.1,1920.0,1080.0,fixation,38.19841199996881,39.70363279199228,2.0,Object_Sea_Solid_Small,-1.0,,,,,,,,,,,
encoding,fixation,9,10930990,10932495,10931889.0,10932160.0,272.0,272.0,1696.3,1145.5,1591.0,891.0,Object_Land_Pattern_Large,38.19841199996881,39.70363279199228,2.0,Object_Sea_Solid_Small,-1.0,,,,,,,,,,,
encoding,fixation,9,10930990,10932495,10932171.0,10932356.0,186.0,186.0,1644.7,1142.6,1591.0,891.0,Object_Land_Pattern_Large,38.19841199996881,39.70363279199228,2.0,Object_Sea_Solid_Small,-1.0,,,,,,,,,,,
encoding,fixation,9,10930990,10932495,10932376.0,10932686.0,311.0,119.0,1873.7,1165.2,1920.0,700.0,Object_Sea_Solid_Small,38.19841199996881,39.70363279199228,2.0,Object_Sea_Solid_Small,-1.0,,,,,,,,,,,
encoding,image,9,10932495,10933505,10932739.0,10933731.0,993.0,766.0,1879.0,1382.6,1920.0,700.0,Object_Sea_Solid_Small,39.70381570793688,40.71412179199979,2.0,Object_Sea_Solid_Small,-1.0,,,,,,,,,,,
encoding,value,9,10933506,10939517,10933751.0,10934116.0,366.0,366.0,1888.1,1299.8,1920.0,700.0,Object_Sea_Solid_Small,40.71422691689804,46.72546754195355,2.0,Object_Sea_Solid_Small,-1.0,,,,,,,,,,,
encoding,value,9,10933506,10939517,10934135.0,10934513.0,379.0,379.0,1863.2,1383.7,1920.0,700.0,Object_Sea_Solid_Small,40.71422691689804,46.72546754195355,2.0,Object_Sea_Solid_Small,-1.0,,,,,,,,,,,
encoding,value,9,10933506,10939517,10934536.0,10934806.0,271.0,271.0,1872.3,1300.6,1920.0,700.0,Object_Sea_Solid_Small,40.71422691689804,46.72546754195355,2.0,Object_Sea_Solid_Small,-1.0,,,,,,,,,,,
encoding,value,9,10933506,10939517,10934821.0,10935246.0,426.0,426.0,1865.9,1389.8,1920.0,700.0,Object_Sea_Solid_Small,40.71422691689804,46.72546754195355,2.0,Object_Sea_Solid_Small,-1.0,,,,,,,,,,,
encoding,value,9,10933506,10939517,10935281.0,10935391.0,111.0,111.0,1878.1,1297.9,1920.0,700.0,Object_Sea_Solid_Small,40.71422691689804,46.72546754195355,2.0,Object_Sea_Solid_Small,-1.0,,,,,,,,,,,
encoding,value,9,10933506,10939517,10935576.0,10935630.0,55.0,55.0,1887.9,1376.4,1920.0,700.0,Object_Sea_Solid_Small,40.71422691689804,46.72546754195355,2.0,Object_Sea_Solid_Small,-1.0,,,,,,,,,,,
encoding,value,9,10933506,10939517,10935645.0,10935751.0,107.0,107.0,1875.2,1310.3,1920.0,700.0,Object_Sea_Solid_Small,40.71422691689804,46.72546754195355,2.0,Object_Sea_Solid_Small,-1.0,,,,,,,,,,,
encoding,value,9,10933506,10939517,10935770.0,10936090.0,321.0,321.0,1882.3,1391.9,1920.0,700.0,Object_Sea_Solid_Small,40.71422691689804,46.72546754195355,2.0,Object_Sea_Solid_Small,-1.0,,,,,,,,,,,
encoding,value,9,10933506,10939517,10936112.0,10936590.0,479.0,479.0,1877.8,1273.4,1920.0,700.0,Object_Sea_Solid_Small,40.71422691689804,46.72546754195355,2.0,Object_Sea_Solid_Small,-1.0,,,,,,,,,,,
encoding,value,9,10933506,10939517,10936848.0,10936913.0,66.0,66.0,1774.8,1221.9,1591.0,891.0,Object_Land_Pattern_Large,40.71422691689804,46.72546754195355,2.0,Object_Sea_Solid_Small,-1.0,,,,,,,,,,,
encoding,value,9,10933506,10939517,10936923.0,10937222.0,300.0,300.0,1778.3,1170.6,1591.0,891.0,Object_Land_Pattern_Large,40.71422691689804,46.72546754195355,2.0,Object_Sea_Solid_Small,-1.0,,,,,,,,,,,
encoding,value,9,10933506,10939517,10937249.0,10937698.0,450.0,450.0,1867.1,1301.2,1920.0,700.0,Object_Sea_Solid_Small,40.71422691689804,46.72546754195355,2.0,Object_Sea_Solid_Small,-1.0,,,,,,,,,,,
encoding,value,9,10933506,10939517,10937717.0,10937997.0,281.0,281.0,1745.2,1181.1,1591.0,891.0,Object_Land_Pattern_Large,40.71422691689804,46.72546754195355,2.0,Object_Sea_Solid_Small,-1.0,,,,,,,,,,,
encoding,value,9,10933506,10939517,10938024.0,10938414.0,391.0,391.0,1946.2,990.4000000000001,1920.0,1460.0,Animal_Land_Pattern_Large,40.71422691689804,46.72546754195355,2.0,Object_Sea_Solid_Small,-1.0,,,,,,,,,,,
encoding,value,9,10933506,10939517,10938456.0,10938976.0,521.0,521.0,1883.4,1268.2,1920.0,700.0,Object_Sea_Solid_Small,40.71422691689804,46.72546754195355,2.0,Object_Sea_Solid_Small,-1.0,,,,,,,,,,,
encoding,value,9,10933506,10939517,10938994.0,10939269.0,276.0,276.0,1879.2,1346.9,1920.0,700.0,Object_Sea_Solid_Small,40.71422691689804,46.72546754195355,2.0,Object_Sea_Solid_Small,-1.0,,,,,,,,,,,
encoding,value,9,10933506,10939517,10939291.0,10939492.0,202.0,202.0,1869.7,1265.6,1920.0,700.0,Object_Sea_Solid_Small,40.71422691689804,46.72546754195355,2.0,Object_Sea_Solid_Small,-1.0,,,,,,,,,,,
encoding,value,9,10933506,10939517,10939499.0,10939805.0,307.0,18.0,1879.6,1295.0,1920.0,700.0,Object_Sea_Solid_Small,40.71422691689804,46.72546754195355,2.0,Object_Sea_Solid_Small,-1.0,,,,,,,,,,,
encoding,attention,9,10939517,10942534,10939814.0,10940221.0,408.0,408.0,1844.7,1278.8,1920.0,700.0,Object_Sea_Solid_Small,46.72558429185301,49.74223070801236,2.0,Object_Sea_Solid_Small,-1.0,-1.0,1.0,0.8605393329635262,,,,,,,,
encoding,attention,9,10939517,10942534,10940235.0,10940587.0,353.0,353.0,1868.0,1323.7,1920.0,700.0,Object_Sea_Solid_Small,46.72558429185301,49.74223070801236,2.0,Object_Sea_Solid_Small,-1.0,-1.0,1.0,0.8605393329635262,,,,,,,,
encoding,attention,9,10939517,10942534,10940604.0,10940704.0,101.0,101.0,1821.1,1278.2,1920.0,700.0,Object_Sea_Solid_Small,46.72558429185301,49.74223070801236,2.0,Object_Sea_Solid_Small,-1.0,-1.0,1.0,0.8605393329635262,,,,,,,,
encoding,attention,9,10939517,10942534,10940917.0,10940972.0,56.0,56.0,1835.8,1258.3,1920.0,700.0,Object_Sea_Solid_Small,46.72558429185301,49.74223070801236,2.0,Object_Sea_Solid_Small,-1.0,-1.0,1.0,0.8605393329635262,,,,,,,,
encoding,attention,9,10939517,10942534,10940981.0,10941070.0,90.0,90.0,1840.7,1204.8,1591.0,891.0,Object_Land_Pattern_Large,46.72558429185301,49.74223070801236,2.0,Object_Sea_Solid_Small,-1.0,-1.0,1.0,0.8605393329635262,,,,,,,,
encoding,attention,9,10939517,10942534,10941092.0,10941256.0,165.0,165.0,1856.0,1330.7,1920.0,700.0,Object_Sea_Solid_Small,46.72558429185301,49.74223070801236,2.0,Object_Sea_Solid_Small,-1.0,-1.0,1.0,0.8605393329635262,,,,,,,,
encoding,attention,9,10939517,10942534,10941267.0,10941771.0,505.0,505.0,1870.6,1377.0,1920.0,700.0,Object_Sea_Solid_Small,46.72558429185301,49.74223070801236,2.0,Object_Sea_Solid_Small,-1.0,-1.0,1.0,0.8605393329635262,,,,,,,,
encoding,attention,9,10939517,10942534,10941804.0,10942135.0,332.0,332.0,1874.5,1233.6,1920.0,700.0,Object_Sea_Solid_Small,46.72558429185301,49.74223070801236,2.0,Object_Sea_Solid_Small,-1.0,-1.0,1.0,0.8605393329635262,,,,,,,,
encoding,attention,9,10939517,10942534,10942148.0,10942506.0,359.0,359.0,1850.2,1286.6,1920.0,700.0,Object_Sea_Solid_Small,46.72558429185301,49.74223070801236,2.0,Object_Sea_Solid_Small,-1.0,-1.0,1.0,0.8605393329635262,,,,,,,,
encoding,fixation,10,10942534,10943289,10942835.0,10942925.0,91.0,91.0,1877.1,1077.1,1920.0,1080.0,fixation,49.74241358297877,50.49738258286379,2.0,Animal_Sea_Pattern_Small,-2.0,,,,,,,,,,,
encoding,fixation,10,10942534,10943289,10943112.0,10943165.0,54.0,54.0,1854.6,1188.0,1591.0,891.0,Object_Land_Pattern_Large,49.74241358297877,50.49738258286379,2.0,Animal_Sea_Pattern_Small,-2.0,,,,,,,,,,,
encoding,fixation,10,10942534,10943289,10943175.0,10943511.0,337.0,114.0,1859.4,1127.5,1591.0,891.0,Object_Land_Pattern_Large,49.74241358297877,50.49738258286379,2.0,Animal_Sea_Pattern_Small,-2.0,,,,,,,,,,,
encoding,image,10,10943289,10944301,10943545.0,10943817.0,273.0,273.0,2153.2,1200.6,2249.0,891.0,Animal_Sea_Pattern_Small,50.497481666971,51.508717791875824,2.0,Animal_Sea_Pattern_Small,-2.0,,,,,,,,,,,
encoding,image,10,10943289,10944301,10943825.0,10944055.0,231.0,231.0,2179.7,1213.4,2249.0,891.0,Animal_Sea_Pattern_Small,50.497481666971,51.508717791875824,2.0,Animal_Sea_Pattern_Small,-2.0,,,,,,,,,,,
encoding,image,10,10943289,10944301,10944266.0,10944313.0,48.0,35.0,1999.8,1211.9,2249.0,891.0,Animal_Sea_Pattern_Small,50.497481666971,51.508717791875824,2.0,Animal_Sea_Pattern_Small,-2.0,,,,,,,,,,,
encoding,value,10,10944301,10950312,10944322.0,10944493.0,172.0,172.0,1997.0,1154.0,2249.0,891.0,Animal_Sea_Pattern_Small,51.50883708288893,57.520347124896944,2.0,Animal_Sea_Pattern_Small,-2.0,,,,,,,,,,,
encoding,value,10,10944301,10950312,10944516.0,10944925.0,410.0,410.0,2174.3,1153.3,2249.0,891.0,Animal_Sea_Pattern_Small,51.50883708288893,57.520347124896944,2.0,Animal_Sea_Pattern_Small,-2.0,,,,,,,,,,,
encoding,value,10,10944301,10950312,10944947.0,10945462.0,516.0,516.0,1965.2,1164.5,1920.0,700.0,Object_Sea_Solid_Small,51.50883708288893,57.520347124896944,2.0,Animal_Sea_Pattern_Small,-2.0,,,,,,,,,,,
encoding,value,10,10944301,10950312,10945684.0,10945734.0,51.0,51.0,2075.9,1127.6,2249.0,891.0,Animal_Sea_Pattern_Small,51.50883708288893,57.520347124896944,2.0,Animal_Sea_Pattern_Small,-2.0,,,,,,,,,,,
encoding,value,10,10944301,10950312,10945748.0,10946226.0,479.0,479.0,2074.4,1061.5,2249.0,1269.0,Object_Land_Solid_Large,51.50883708288893,57.520347124896944,2.0,Animal_Sea_Pattern_Small,-2.0,,,,,,,,,,,
encoding,value,10,10944301,10950312,10946515.0,10946569.0,55.0,55.0,1928.8,1361.5,1920.0,700.0,Object_Sea_Solid_Small,51.50883708288893,57.520347124896944,2.0,Animal_Sea_Pattern_Small,-2.0,,,,,,,,,,,
encoding,value,10,10944301,10950312,10946576.0,10946807.0,232.0,232.0,1924.9,1275.3,1920.0,700.0,Object_Sea_Solid_Small,51.50883708288893,57.520347124896944,2.0,Animal_Sea_Pattern_Small,-2.0,,,,,,,,,,,
encoding,value,10,10944301,10950312,10946825.0,10947205.0,381.0,381.0,1800.7,1264.1,1591.0,891.0,Object_Land_Pattern_Large,51.50883708288893,57.520347124896944,2.0,Animal_Sea_Pattern_Small,-2.0,,,,,,,,,,,
encoding,value,10,10944301,10950312,10947240.0,10947408.0,169.0,169.0,2125.7,1129.1,2249.0,891.0,Animal_Sea_Pattern_Small,51.50883708288893,57.520347124896944,2.0,Animal_Sea_Pattern_Small,-2.0,,,,,,,,,,,
encoding,value,10,10944301,10950312,10947416.0,10947665.0,250.0,250.0,2156.5,1120.4,2249.0,891.0,Animal_Sea_Pattern_Small,51.50883708288893,57.520347124896944,2.0,Animal_Sea_Pattern_Small,-2.0,,,,,,,,,,,
encoding,value,10,10944301,10950312,10947911.0,10947967.0,57.0,57.0,2069.1,1024.8,2249.0,1269.0,Object_Land_Solid_Large,51.50883708288893,57.520347124896944,2.0,Animal_Sea_Pattern_Small,-2.0,,,,,,,,,,,
encoding,value,10,10944301,10950312,10947975.0,10948028.0,54.0,54.0,2070.0,972.0999999999999,2249.0,1269.0,Object_Land_Solid_Large,51.50883708288893,57.520347124896944,2.0,Animal_Sea_Pattern_Small,-2.0,,,,,,,,,,,
encoding,value,10,10944301,10950312,10948071.0,10948294.0,224.0,224.0,2176.1,1122.5,2249.0,891.0,Animal_Sea_Pattern_Small,51.50883708288893,57.520347124896944,2.0,Animal_Sea_Pattern_Small,-2.0,,,,,,,,,,,
encoding,value,10,10944301,10950312,10948309.0,10948865.0,557.0,557.0,2160.2,1207.9,2249.0,891.0,Animal_Sea_Pattern_Small,51.50883708288893,57.520347124896944,2.0,Animal_Sea_Pattern_Small,-2.0,,,,,,,,,,,
encoding,value,10,10944301,10950312,10948874.0,10949183.0,310.0,310.0,2204.2,1227.7,2249.0,891.0,Animal_Sea_Pattern_Small,51.50883708288893,57.520347124896944,2.0,Animal_Sea_Pattern_Small,-2.0,,,,,,,,,,,
encoding,value,10,10944301,10950312,10949201.0,10949907.0,707.0,707.0,2153.0,1207.1,2249.0,891.0,Animal_Sea_Pattern_Small,51.50883708288893,57.520347124896944,2.0,Animal_Sea_Pattern_Small,-2.0,,,,,,,,,,,
encoding,value,10,10944301,10950312,10949921.0,10950282.0,362.0,362.0,2117.8,1218.3,2249.0,891.0,Animal_Sea_Pattern_Small,51.50883708288893,57.520347124896944,2.0,Animal_Sea_Pattern_Small,-2.0,,,,,,,,,,,
encoding,value,10,10944301,10950312,10950302.0,10950643.0,342.0,10.0,2172.0,1146.6,2249.0,891.0,Animal_Sea_Pattern_Small,51.50883708288893,57.520347124896944,2.0,Animal_Sea_Pattern_Small,-2.0,,,,,,,,,,,
encoding,attention,10,10950312,10953332,10950652.0,10950902.0,251.0,251.0,2130.8,1137.6,2249.0,891.0,Animal_Sea_Pattern_Small,57.52046012482606,60.540173874935135,2.0,Animal_Sea_Pattern_Small,-2.0,-2.0,1.0,0.6874605000484735,,,,,,,,
encoding,attention,10,10950312,10953332,10950917.0,10951309.0,393.0,393.0,2166.6,1219.2,2249.0,891.0,Animal_Sea_Pattern_Small,57.52046012482606,60.540173874935135,2.0,Animal_Sea_Pattern_Small,-2.0,-2.0,1.0,0.6874605000484735,,,,,,,,
encoding,attention,10,10950312,10953332,10951489.0,10952322.0,834.0,834.0,2167.5,1201.4,2249.0,891.0,Animal_Sea_Pattern_Small,57.52046012482606,60.540173874935135,2.0,Animal_Sea_Pattern_Small,-2.0,-2.0,1.0,0.6874605000484735,,,,,,,,
encoding,attention,10,10950312,10953332,10952581.0,10952933.0,353.0,353.0,2092.8,1146.3,2249.0,891.0,Animal_Sea_Pattern_Small,57.52046012482606,60.540173874935135,2.0,Animal_Sea_Pattern_Small,-2.0,-2.0,1.0,0.6874605000484735,,,,,,,,
encoding,fixation,11,10953332,10954338,10953398.0,10953691.0,294.0,294.0,1824.0,1358.5,1920.0,700.0,Object_Sea_Solid_Small,60.5403254579287,61.54540616692975,2.0,Animal_Land_Pattern_Large,6.0,,,,,,,,,,,
encoding,fixation,11,10953332,10954338,10953735.0,10954044.0,310.0,310.0,1915.8,876.0999999999999,1920.0,1460.0,Animal_Land_Pattern_Large,60.5403254579287,61.54540616692975,2.0,Animal_Land_Pattern_Large,6.0,,,,,,,,,,,
encoding,fixation,11,10953332,10954338,10954064.0,10954560.0,497.0,274.0,1831.4,978.0,1591.0,1269.0,Animal_Sea_Solid_Small,60.5403254579287,61.54540616692975,2.0,Animal_Land_Pattern_Large,6.0,,,,,,,,,,,
encoding,image,11,10954338,10955349,10954611.0,10954682.0,72.0,72.0,1878.6,598.3,1920.0,1460.0,Animal_Land_Pattern_Large,61.54553808295168,62.55688358284533,2.0,Animal_Land_Pattern_Large,6.0,,,,,,,,,,,
encoding,image,11,10954338,10955349,10954697.0,10954994.0,298.0,298.0,1849.5,679.9000000000001,1920.0,1460.0,Animal_Land_Pattern_Large,61.54553808295168,62.55688358284533,2.0,Animal_Land_Pattern_Large,6.0,,,,,,,,,,,
encoding,image,11,10954338,10955349,10955303.0,10955360.0,58.0,46.0,1914.9,882.8,1920.0,1460.0,Animal_Land_Pattern_Large,61.54553808295168,62.55688358284533,2.0,Animal_Land_Pattern_Large,6.0,,,,,,,,,,,
encoding,value,11,10955349,10961362,10955374.0,10955643.0,270.0,270.0,1925.6,842.5,1920.0,1460.0,Animal_Land_Pattern_Large,62.55700849997811,68.5690916669555,2.0,Animal_Land_Pattern_Large,6.0,,,,,,,,,,,
encoding,value,11,10955349,10961362,10955699.0,10956095.0,397.0,397.0,1851.6,1299.7,1920.0,700.0,Object_Sea_Solid_Small,62.55700849997811,68.5690916669555,2.0,Animal_Land_Pattern_Large,6.0,,,,,,,,,,,
encoding,value,11,10955349,10961362,10956152.0,10956326.0,175.0,175.0,1856.2,614.0999999999999,1920.0,1460.0,Animal_Land_Pattern_Large,62.55700849997811,68.5690916669555,2.0,Animal_Land_Pattern_Large,6.0,,,,,,,,,,,
encoding,value,11,10955349,10961362,10956347.0,10956524.0,178.0,178.0,1883.0,544.7,1920.0,1460.0,Animal_Land_Pattern_Large,62.55700849997811,68.5690916669555,2.0,Animal_Land_Pattern_Large,6.0,,,,,,,,,,,
encoding,value,11,10955349,10961362,10956760.0,10957498.0,739.0,739.0,1851.5,690.5999999999999,1920.0,1460.0,Animal_Land_Pattern_Large,62.55700849997811,68.5690916669555,2.0,Animal_Land_Pattern_Large,6.0,,,,,,,,,,,
encoding,value,11,10955349,10961362,10957534.0,10957942.0,409.0,409.0,2027.2,970.8,2249.0,1269.0,Object_Land_Solid_Large,62.55700849997811,68.5690916669555,2.0,Animal_Land_Pattern_Large,6.0,,,,,,,,,,,
encoding,value,11,10955349,10961362,10957960.0,10958110.0,151.0,151.0,2117.8,895.7,2249.0,1269.0,Object_Land_Solid_Large,62.55700849997811,68.5690916669555,2.0,Animal_Land_Pattern_Large,6.0,,,,,,,,,,,
encoding,value,11,10955349,10961362,10958334.0,10958427.0,94.0,94.0,1824.7,586.5,1920.0,1460.0,Animal_Land_Pattern_Large,62.55700849997811,68.5690916669555,2.0,Animal_Land_Pattern_Large,6.0,,,,,,,,,,,
encoding,value,11,10955349,10961362,10958435.0,10958516.0,82.0,82.0,1867.4,629.8,1920.0,1460.0,Animal_Land_Pattern_Large,62.55700849997811,68.5690916669555,2.0,Animal_Land_Pattern_Large,6.0,,,,,,,,,,,
encoding,value,11,10955349,10961362,10958536.0,10959333.0,798.0,798.0,1882.5,562.9000000000001,1920.0,1460.0,Animal_Land_Pattern_Large,62.55700849997811,68.5690916669555,2.0,Animal_Land_Pattern_Large,6.0,,,,,,,,,,,
encoding,value,11,10955349,10961362,10959352.0,10960427.0,1076.0,1076.0,1830.5,688.8,1920.0,1460.0,Animal_Land_Pattern_Large,62.55700849997811,68.5690916669555,2.0,Animal_Land_Pattern_Large,6.0,,,,,,,,,,,
encoding,value,11,10955349,10961362,10960452.0,10960697.0,246.0,246.0,1863.1,561.0,1920.0,1460.0,Animal_Land_Pattern_Large,62.55700849997811,68.5690916669555,2.0,Animal_Land_Pattern_Large,6.0,,,,,,,,,,,
encoding,value,11,10955349,10961362,10960721.0,10961447.0,727.0,641.0,1835.0,683.8,1920.0,1460.0,Animal_Land_Pattern_Large,62.55700849997811,68.5690916669555,2.0,Animal_Land_Pattern_Large,6.0,,,,,,,,,,,
encoding,attention,11,10961362,10964380,10961469.0,10962024.0,556.0,556.0,1865.0,575.8,1920.0,1460.0,Animal_Land_Pattern_Large,68.56922020786442,71.58697741688229,2.0,Animal_Land_Pattern_Large,6.0,6.0,1.0,1.9544488340616224,,,,,,,,
encoding,attention,11,10961362,10964380,10962294.0,10962361.0,68.0,68.0,1891.7,435.9000000000001,,,none,68.56922020786442,71.58697741688229,2.0,Animal_Land_Pattern_Large,6.0,6.0,1.0,1.9544488340616224,,,,,,,,
encoding,attention,11,10961362,10964380,10962385.0,10962613.0,229.0,229.0,1908.1,676.2,1920.0,1460.0,Animal_Land_Pattern_Large,68.56922020786442,71.58697741688229,2.0,Animal_Land_Pattern_Large,6.0,6.0,1.0,1.9544488340616224,,,,,,,,
encoding,attention,11,10961362,10964380,10962631.0,10962694.0,64.0,64.0,1833.3,788.7,1920.0,1460.0,Animal_Land_Pattern_Large,68.56922020786442,71.58697741688229,2.0,Animal_Land_Pattern_Large,6.0,6.0,1.0,1.9544488340616224,,,,,,,,
encoding,attention,11,10961362,10964380,10962700.0,10962981.0,282.0,282.0,1835.5,710.3,1920.0,1460.0,Animal_Land_Pattern_Large,68.56922020786442,71.58697741688229,2.0,Animal_Land_Pattern_Large,6.0,6.0,1.0,1.9544488340616224,,,,,,,,
encoding,attention,11,10961362,10964380,10963006.0,10963814.0,809.0,809.0,1916.5,547.0,1920.0,1460.0,Animal_Land_Pattern_Large,68.56922020786442,71.58697741688229,2.0,Animal_Land_Pattern_Large,6.0,6.0,1.0,1.9544488340616224,,,,,,,,
encoding,fixation,12,10964380,10965385,10964643.0,10965036.0,394.0,394.0,1823.6,1105.2,1591.0,891.0,Object_Land_Pattern_Large,71.58714325004257,72.59217641688883,2.0,Animal_Sea_Solid_Small,9.0,,,,,,,,,,,
encoding,fixation,12,10964380,10965385,10965055.0,10965232.0,178.0,178.0,1897.9,1107.9,1920.0,1080.0,fixation,71.58714325004257,72.59217641688883,2.0,Animal_Sea_Solid_Small,9.0,,,,,,,,,,,
encoding,fixation,12,10964380,10965385,10965280.0,10965540.0,261.0,105.0,2109.3,1353.6,2249.0,891.0,Animal_Sea_Pattern_Small,71.58714325004257,72.59217641688883,2.0,Animal_Sea_Solid_Small,9.0,,,,,,,,,,,
encoding,image,12,10965385,10966396,10965603.0,10965706.0,104.0,104.0,1664.4,909.0,1591.0,1269.0,Animal_Sea_Solid_Small,72.5922948748339,73.60314258304425,2.0,Animal_Sea_Solid_Small,9.0,,,,,,,,,,,
encoding,image,12,10965385,10966396,10965723.0,10966044.0,322.0,322.0,1563.4,892.9000000000001,1591.0,1269.0,Animal_Sea_Solid_Small,72.5922948748339,73.60314258304425,2.0,Animal_Sea_Solid_Small,9.0,,,,,,,,,,,
encoding,image,12,10965385,10966396,10966384.0,10966512.0,129.0,12.0,1609.8,847.4000000000001,1591.0,1269.0,Animal_Sea_Solid_Small,72.5922948748339,73.60314258304425,2.0,Animal_Sea_Solid_Small,9.0,,,,,,,,,,,
encoding,value,12,10966396,10972408,10966567.0,10966990.0,424.0,424.0,1998.6,1129.1,2249.0,891.0,Animal_Sea_Pattern_Small,73.60329262493178,79.61542004183866,2.0,Animal_Sea_Solid_Small,9.0,,,,,,,,,,,
encoding,value,12,10966396,10972408,10967039.0,10967396.0,358.0,358.0,1836.9,1287.5,1920.0,700.0,Object_Sea_Solid_Small,73.60329262493178,79.61542004183866,2.0,Animal_Sea_Solid_Small,9.0,,,,,,,,,,,
encoding,value,12,10966396,10972408,10967441.0,10967757.0,317.0,317.0,1783.9,888.4000000000001,1591.0,1269.0,Animal_Sea_Solid_Small,73.60329262493178,79.61542004183866,2.0,Animal_Sea_Solid_Small,9.0,,,,,,,,,,,
encoding,value,12,10966396,10972408,10967789.0,10968001.0,213.0,213.0,1910.0,608.9000000000001,1920.0,1460.0,Animal_Land_Pattern_Large,73.60329262493178,79.61542004183866,2.0,Animal_Sea_Solid_Small,9.0,,,,,,,,,,,
encoding,value,12,10966396,10972408,10968041.0,10968129.0,89.0,89.0,1584.0,759.5999999999999,1591.0,1269.0,Animal_Sea_Solid_Small,73.60329262493178,79.61542004183866,2.0,Animal_Sea_Solid_Small,9.0,,,,,,,,,,,
encoding,value,12,10966396,10972408,10968369.0,10968433.0,65.0,65.0,1454.9,822.8,1591.0,1269.0,Animal_Sea_Solid_Small,73.60329262493178,79.61542004183866,2.0,Animal_Sea_Solid_Small,9.0,,,,,,,,,,,
encoding,value,12,10966396,10972408,10968456.0,10968513.0,58.0,58.0,1558.5,874.4000000000001,1591.0,1269.0,Animal_Sea_Solid_Small,73.60329262493178,79.61542004183866,2.0,Animal_Sea_Solid_Small,9.0,,,,,,,,,,,
encoding,value,12,10966396,10972408,10968527.0,10968828.0,302.0,302.0,1583.1,777.2,1591.0,1269.0,Animal_Sea_Solid_Small,73.60329262493178,79.61542004183866,2.0,Animal_Sea_Solid_Small,9.0,,,,,,,,,,,
encoding,value,12,10966396,10972408,10968849.0,10969154.0,306.0,306.0,1572.0,884.4000000000001,1591.0,1269.0,Animal_Sea_Solid_Small,73.60329262493178,79.61542004183866,2.0,Animal_Sea_Solid_Small,9.0,,,,,,,,,,,
encoding,value,12,10966396,10972408,10969178.0,10970030.0,853.0,853.0,1576.3,790.7,1591.0,1269.0,Animal_Sea_Solid_Small,73.60329262493178,79.61542004183866,2.0,Animal_Sea_Solid_Small,9.0,,,,,,,,,,,
encoding,value,12,10966396,10972408,10970289.0,10970351.0,63.0,63.0,1463.2,835.8,1591.0,1269.0,Animal_Sea_Solid_Small,73.60329262493178,79.61542004183866,2.0,Animal_Sea_Solid_Small,9.0,,,,,,,,,,,
encoding,value,12,10966396,10972408,10970434.0,10970494.0,61.0,61.0,1558.7,881.7,1591.0,1269.0,Animal_Sea_Solid_Small,73.60329262493178,79.61542004183866,2.0,Animal_Sea_Solid_Small,9.0,,,,,,,,,,,
encoding,value,12,10966396,10972408,10970503.0,10970579.0,77.0,77.0,1559.0,802.3,1591.0,1269.0,Animal_Sea_Solid_Small,73.60329262493178,79.61542004183866,2.0,Animal_Sea_Solid_Small,9.0,,,,,,,,,,,
encoding,value,12,10966396,10972408,10970603.0,10971081.0,479.0,479.0,1549.4,879.5,1591.0,1269.0,Animal_Sea_Solid_Small,73.60329262493178,79.61542004183866,2.0,Animal_Sea_Solid_Small,9.0,,,,,,,,,,,
encoding,value,12,10966396,10972408,10971098.0,10971397.0,300.0,300.0,1585.8,782.5,1591.0,1269.0,Animal_Sea_Solid_Small,73.60329262493178,79.61542004183866,2.0,Animal_Sea_Solid_Small,9.0,,,,,,,,,,,
encoding,value,12,10966396,10972408,10971446.0,10971649.0,204.0,204.0,1619.1,1204.4,1591.0,891.0,Object_Land_Pattern_Large,73.60329262493178,79.61542004183866,2.0,Animal_Sea_Solid_Small,9.0,,,,,,,,,,,
encoding,value,12,10966396,10972408,10971673.0,10972167.0,495.0,495.0,1843.6,1262.3,1920.0,700.0,Object_Sea_Solid_Small,73.60329262493178,79.61542004183866,2.0,Animal_Sea_Solid_Small,9.0,,,,,,,,,,,
encoding,value,12,10966396,10972408,10972224.0,10972369.0,146.0,146.0,1578.6,712.9000000000001,1591.0,1269.0,Animal_Sea_Solid_Small,73.60329262493178,79.61542004183866,2.0,Animal_Sea_Solid_Small,9.0,,,,,,,,,,,
encoding,value,12,10966396,10972408,10972385.0,10972776.0,392.0,23.0,1549.9,773.5,1591.0,1269.0,Animal_Sea_Solid_Small,73.60329262493178,79.61542004183866,2.0,Animal_Sea_Solid_Small,9.0,,,,,,,,,,,
encoding,attention,12,10972408,10975426,10973027.0,10973090.0,64.0,64.0,1480.8,871.8,1591.0,1269.0,Animal_Sea_Solid_Small,79.6155478330329,82.63266662484966,2.0,Animal_Sea_Solid_Small,9.0,9.0,1.0,1.4978381670080123,,,,,,,,
encoding,attention,12,10972408,10975426,10973124.0,10973181.0,58.0,58.0,1594.6,883.9000000000001,1591.0,1269.0,Animal_Sea_Solid_Small,79.6155478330329,82.63266662484966,2.0,Animal_Sea_Solid_Small,9.0,9.0,1.0,1.4978381670080123,,,,,,,,
encoding,attention,12,10972408,10975426,10973192.0,10973277.0,86.0,86.0,1596.8,804.5,1591.0,1269.0,Animal_Sea_Solid_Small,79.6155478330329,82.63266662484966,2.0,Animal_Sea_Solid_Small,9.0,9.0,1.0,1.4978381670080123,,,,,,,,
encoding,attention,12,10972408,10975426,10973288.0,10974273.0,986.0,986.0,1525.2,779.5,1591.0,1269.0,Animal_Sea_Solid_Small,79.6155478330329,82.63266662484966,2.0,Animal_Sea_Solid_Small,9.0,9.0,1.0,1.4978381670080123,,,,,,,,
encoding,attention,12,10972408,10975426,10974312.0,10974540.0,229.0,229.0,1642.9,1108.1,1591.0,891.0,Object_Land_Pattern_Large,79.6155478330329,82.63266662484966,2.0,Animal_Sea_Solid_Small,9.0,9.0,1.0,1.4978381670080123,,,,,,,,
encoding,attention,12,10972408,10975426,10974561.0,10974918.0,358.0,358.0,1836.9,1065.6,1591.0,1269.0,Animal_Sea_Solid_Small,79.6155478330329,82.63266662484966,2.0,Animal_Sea_Solid_Small,9.0,9.0,1.0,1.4978381670080123,,,,,,,,
encoding,attention,12,10972408,10975426,10974952.0,10975269.0,318.0,318.0,1857.7,1274.1,1920.0,700.0,Object_Sea_Solid_Small,79.6155478330329,82.63266662484966,2.0,Animal_Sea_Solid_Small,9.0,9.0,1.0,1.4978381670080123,,,,,,,,
encoding,fixation,13,11299126,11300632,11299373.0,11299597.0,225.0,225.0,1900.8,1127.2,1920.0,1080.0,fixation,9.072893334086984,10.578784542158246,3.0,Animal_Land_Solid_Large,-6.0,,,,,,,,,,,
encoding,fixation,13,11299126,11300632,11299651.0,11300032.0,382.0,382.0,1822.7,1351.7,1920.0,700.0,Animal_Land_Solid_Large,9.072893334086984,10.578784542158246,3.0,Animal_Land_Solid_Large,-6.0,,,,,,,,,,,
encoding,fixation,13,11299126,11300632,11300065.0,11300297.0,233.0,233.0,1734.0,1279.5,1591.0,891.0,Object_Sea_Pattern_Small,9.072893334086984,10.578784542158246,3.0,Animal_Land_Solid_Large,-6.0,,,,,,,,,,,
encoding,fixation,13,11299126,11300632,11300313.0,11300543.0,231.0,231.0,1634.1,1216.7,1591.0,891.0,Object_Sea_Pattern_Small,9.072893334086984,10.578784542158246,3.0,Animal_Land_Solid_Large,-6.0,,,,,,,,,,,
encoding,fixation,13,11299126,11300632,11300567.0,11300780.0,214.0,65.0,1851.6,1250.3,1920.0,700.0,Animal_Land_Solid_Large,9.072893334086984,10.578784542158246,3.0,Animal_Land_Solid_Large,-6.0,,,,,,,,,,,
encoding,image,13,11300632,11301644,11300802.0,11300957.0,156.0,156.0,1908.4,1370.4,1920.0,700.0,Animal_Land_Solid_Large,10.578903334215283,11.590929666999727,3.0,Animal_Land_Solid_Large,-6.0,,,,,,,,,,,
encoding,image,13,11300632,11301644,11300973.0,11301618.0,646.0,646.0,1939.0,1403.8,1920.0,700.0,Animal_Land_Solid_Large,10.578903334215283,11.590929666999727,3.0,Animal_Land_Solid_Large,-6.0,,,,,,,,,,,
encoding,image,13,11300632,11301644,11301639.0,11301758.0,120.0,5.0,1892.4,1350.3,1920.0,700.0,Animal_Land_Solid_Large,10.578903334215283,11.590929666999727,3.0,Animal_Land_Solid_Large,-6.0,,,,,,,,,,,
encoding,value,13,11301644,11307660,11301976.0,11302271.0,296.0,296.0,1907.3,1281.1,1920.0,700.0,Animal_Land_Solid_Large,11.591040375176815,17.60613916721195,3.0,Animal_Land_Solid_Large,-6.0,,,,,,,,,,,
encoding,value,13,11301644,11307660,11302288.0,11302665.0,378.0,378.0,1920.7,1337.4,1920.0,700.0,Animal_Land_Solid_Large,11.591040375176815,17.60613916721195,3.0,Animal_Land_Solid_Large,-6.0,,,,,,,,,,,
encoding,value,13,11301644,11307660,11302675.0,11303080.0,406.0,406.0,1926.9,1290.3,1920.0,700.0,Animal_Land_Solid_Large,11.591040375176815,17.60613916721195,3.0,Animal_Land_Solid_Large,-6.0,,,,,,,,,,,
encoding,value,13,11301644,11307660,11303117.0,11303296.0,180.0,180.0,1890.0,957.5999999999999,1920.0,1460.0,Animal_Sea_Pattern_Large,11.591040375176815,17.60613916721195,3.0,Animal_Land_Solid_Large,-6.0,,,,,,,,,,,
encoding,value,13,11301644,11307660,11303362.0,11303669.0,308.0,308.0,1921.1,1282.6,1920.0,700.0,Animal_Land_Solid_Large,11.591040375176815,17.60613916721195,3.0,Animal_Land_Solid_Large,-6.0,,,,,,,,,,,
encoding,value,13,11301644,11307660,11303685.0,11304020.0,336.0,336.0,1938.8,1367.9,1920.0,700.0,Animal_Land_Solid_Large,11.591040375176815,17.60613916721195,3.0,Animal_Land_Solid_Large,-6.0,,,,,,,,,,,
encoding,value,13,11301644,11307660,11304043.0,11304336.0,294.0,294.0,1922.9,1296.9,1920.0,700.0,Animal_Land_Solid_Large,11.591040375176815,17.60613916721195,3.0,Animal_Land_Solid_Large,-6.0,,,,,,,,,,,
encoding,value,13,11301644,11307660,11304347.0,11304508.0,162.0,162.0,1960.6,1259.7,1920.0,700.0,Animal_Land_Solid_Large,11.591040375176815,17.60613916721195,3.0,Animal_Land_Solid_Large,-6.0,,,,,,,,,,,
encoding,value,13,11301644,11307660,11304518.0,11305002.0,485.0,485.0,1914.3,1266.3,1920.0,700.0,Animal_Land_Solid_Large,11.591040375176815,17.60613916721195,3.0,Animal_Land_Solid_Large,-6.0,,,,,,,,,,,
encoding,value,13,11301644,11307660,11305025.0,11305638.0,614.0,614.0,1939.7,1376.9,1920.0,700.0,Animal_Land_Solid_Large,11.591040375176815,17.60613916721195,3.0,Animal_Land_Solid_Large,-6.0,,,,,,,,,,,
encoding,value,13,11301644,11307660,11305852.0,11305882.0,31.0,31.0,1957.9,1445.1,1920.0,700.0,Animal_Land_Solid_Large,11.591040375176815,17.60613916721195,3.0,Animal_Land_Solid_Large,-6.0,,,,,,,,,,,
encoding,value,13,11301644,11307660,11305900.0,11306147.0,248.0,248.0,1944.3,1344.0,1920.0,700.0,Animal_Land_Solid_Large,11.591040375176815,17.60613916721195,3.0,Animal_Land_Solid_Large,-6.0,,,,,,,,,,,
encoding,value,13,11301644,11307660,11306155.0,11307012.0,858.0,858.0,1932.7,1373.6,1920.0,700.0,Animal_Land_Solid_Large,11.591040375176815,17.60613916721195,3.0,Animal_Land_Solid_Large,-6.0,,,,,,,,,,,
encoding,value,13,11301644,11307660,11307033.0,11307256.0,224.0,224.0,1908.0,1263.9,1920.0,700.0,Animal_Land_Solid_Large,11.591040375176815,17.60613916721195,3.0,Animal_Land_Solid_Large,-6.0,,,,,,,,,,,
encoding,value,13,11301644,11307660,11307272.0,11307481.0,210.0,210.0,1929.9,1338.8,1920.0,700.0,Animal_Land_Solid_Large,11.591040375176815,17.60613916721195,3.0,Animal_Land_Solid_Large,-6.0,,,,,,,,,,,
encoding,attention,13,11307660,11310679,11307666.0,11308001.0,336.0,336.0,1922.1,1286.3,1920.0,700.0,Animal_Land_Solid_Large,17.606304209213704,20.625111459055915,3.0,Animal_Land_Solid_Large,-6.0,-6.0,1.0,0.795283499872312,,,,,,,,
encoding,attention,13,11307660,11310679,11308011.0,11308263.0,253.0,253.0,1871.4,1263.4,1920.0,700.0,Animal_Land_Solid_Large,17.606304209213704,20.625111459055915,3.0,Animal_Land_Solid_Large,-6.0,-6.0,1.0,0.795283499872312,,,,,,,,
encoding,attention,13,11307660,11310679,11308275.0,11308784.0,510.0,510.0,1947.2,1269.4,1920.0,700.0,Animal_Land_Solid_Large,17.606304209213704,20.625111459055915,3.0,Animal_Land_Solid_Large,-6.0,-6.0,1.0,0.795283499872312,,,,,,,,
encoding,attention,13,11307660,11310679,11308799.0,11309505.0,707.0,707.0,1933.9,1345.2,1920.0,700.0,Animal_Land_Solid_Large,17.606304209213704,20.625111459055915,3.0,Animal_Land_Solid_Large,-6.0,-6.0,1.0,0.795283499872312,,,,,,,,
encoding,attention,13,11307660,11310679,11309546.0,11309684.0,139.0,139.0,1917.3,1160.8,1920.0,700.0,Animal_Land_Solid_Large,17.606304209213704,20.625111459055915,3.0,Animal_Land_Solid_Large,-6.0,-6.0,1.0,0.795283499872312,,,,,,,,
encoding,attention,13,11307660,11310679,11309717.0,11309946.0,230.0,230.0,1913.6,1301.7,1920.0,700.0,Animal_Land_Solid_Large,17.606304209213704,20.625111459055915,3.0,Animal_Land_Solid_Large,-6.0,-6.0,1.0,0.795283499872312,,,,,,,,
encoding,attention,13,11307660,11310679,11309961.0,11310382.0,422.0,422.0,1924.2,1393.6,1920.0,700.0,Animal_Land_Solid_Large,17.606304209213704,20.625111459055915,3.0,Animal_Land_Solid_Large,-6.0,-6.0,1.0,0.795283499872312,,,,,,,,
encoding,attention,13,11307660,11310679,11310396.0,11310566.0,171.0,171.0,1943.5,1328.6,1920.0,700.0,Animal_Land_Solid_Large,17.606304209213704,20.625111459055915,3.0,Animal_Land_Solid_Large,-6.0,-6.0,1.0,0.795283499872312,,,,,,,,
encoding,fixation,14,11310679,11312184,11311029.0,11311292.0,264.0,264.0,1920.4,1044.7,1920.0,1080.0,fixation,20.62527016713284,22.130185584072024,3.0,Animal_Sea_Solid_Large,-6.0,,,,,,,,,,,
encoding,fixation,14,11310679,11312184,11311327.0,11311544.0,218.0,218.0,1888.5,1205.3,1920.0,700.0,Animal_Land_Solid_Large,20.62527016713284,22.130185584072024,3.0,Animal_Sea_Solid_Large,-6.0,,,,,,,,,,,
encoding,fixation,14,11310679,11312184,11311570.0,11311775.0,206.0,206.0,1925.0,1010.5,1920.0,1080.0,fixation,20.62527016713284,22.130185584072024,3.0,Animal_Sea_Solid_Large,-6.0,,,,,,,,,,,
encoding,fixation,14,11310679,11312184,11311820.0,11312113.0,294.0,294.0,1933.1,1341.6,1920.0,700.0,Animal_Land_Solid_Large,20.62527016713284,22.130185584072024,3.0,Animal_Sea_Solid_Large,-6.0,,,,,,,,,,,
encoding,fixation,14,11310679,11312184,11312141.0,11312376.0,236.0,43.0,2009.7,1354.2,1920.0,700.0,Animal_Land_Solid_Large,20.62527016713284,22.130185584072024,3.0,Animal_Sea_Solid_Large,-6.0,,,,,,,,,,,
encoding,image,14,11312184,11313195,11312444.0,11312692.0,249.0,249.0,2186.2,876.0999999999999,2249.0,1269.0,Animal_Sea_Solid_Large,22.130304584046826,23.14145645918325,3.0,Animal_Sea_Solid_Large,-6.0,,,,,,,,,,,
encoding,image,14,11312184,11313195,11312701.0,11312975.0,275.0,275.0,2225.4,899.7,2249.0,1269.0,Animal_Sea_Solid_Large,22.130304584046826,23.14145645918325,3.0,Animal_Sea_Solid_Large,-6.0,,,,,,,,,,,
encoding,image,14,11312184,11313195,11313033.0,11313312.0,280.0,162.0,1962.9,1387.2,1920.0,700.0,Animal_Land_Solid_Large,22.130304584046826,23.14145645918325,3.0,Animal_Sea_Solid_Large,-6.0,,,,,,,,,,,
encoding,value,14,11313196,11319212,11313342.0,11313448.0,107.0,107.0,1963.7,1436.2,1920.0,700.0,Animal_Land_Solid_Large,23.141585584031414,29.157216125167903,3.0,Animal_Sea_Solid_Large,-6.0,,,,,,,,,,,
encoding,value,14,11313196,11319212,11313685.0,11314008.0,324.0,324.0,2025.4,1242.2,2249.0,891.0,Object_Land_Pattern_Small,23.141585584031414,29.157216125167903,3.0,Animal_Sea_Solid_Large,-6.0,,,,,,,,,,,
encoding,value,14,11313196,11319212,11314064.0,11314352.0,289.0,289.0,2221.0,813.4000000000001,2249.0,1269.0,Animal_Sea_Solid_Large,23.141585584031414,29.157216125167903,3.0,Animal_Sea_Solid_Large,-6.0,,,,,,,,,,,
encoding,value,14,11313196,11319212,11314367.0,11314648.0,282.0,282.0,2219.4,772.9000000000001,2249.0,1269.0,Animal_Sea_Solid_Large,23.141585584031414,29.157216125167903,3.0,Animal_Sea_Solid_Large,-6.0,,,,,,,,,,,
encoding,value,14,11313196,11319212,11314702.0,11314973.0,272.0,272.0,1955.8,1303.0,1920.0,700.0,Animal_Land_Solid_Large,23.141585584031414,29.157216125167903,3.0,Animal_Sea_Solid_Large,-6.0,,,,,,,,,,,
encoding,value,14,11313196,11319212,11315030.0,11315132.0,103.0,103.0,2229.0,686.8,2249.0,1269.0,Animal_Sea_Solid_Large,23.141585584031414,29.157216125167903,3.0,Animal_Sea_Solid_Large,-6.0,,,,,,,,,,,
encoding,value,14,11313196,11319212,11315155.0,11315554.0,400.0,400.0,2228.5,836.0,2249.0,1269.0,Animal_Sea_Solid_Large,23.141585584031414,29.157216125167903,3.0,Animal_Sea_Solid_Large,-6.0,,,,,,,,,,,
encoding,value,14,11313196,11319212,11315586.0,11315924.0,339.0,339.0,2245.6,718.5,2249.0,1269.0,Animal_Sea_Solid_Large,23.141585584031414,29.157216125167903,3.0,Animal_Sea_Solid_Large,-6.0,,,,,,,,,,,
encoding,value,14,11313196,11319212,11316170.0,11316304.0,135.0,135.0,2199.6,876.5999999999999,2249.0,1269.0,Animal_Sea_Solid_Large,23.141585584031414,29.157216125167903,3.0,Animal_Sea_Solid_Large,-6.0,,,,,,,,,,,
encoding,value,14,11313196,11319212,11316322.0,11317204.0,883.0,883.0,2233.9,912.5999999999999,2249.0,1269.0,Animal_Sea_Solid_Large,23.141585584031414,29.157216125167903,3.0,Animal_Sea_Solid_Large,-6.0,,,,,,,,,,,
encoding,value,14,11313196,11319212,11317229.0,11317495.0,267.0,267.0,2219.2,777.3,2249.0,1269.0,Animal_Sea_Solid_Large,23.141585584031414,29.157216125167903,3.0,Animal_Sea_Solid_Large,-6.0,,,,,,,,,,,
encoding,value,14,11313196,11319212,11317516.0,11317871.0,356.0,356.0,2209.5,898.7,2249.0,1269.0,Animal_Sea_Solid_Large,23.141585584031414,29.157216125167903,3.0,Animal_Sea_Solid_Large,-6.0,,,,,,,,,,,
encoding,value,14,11313196,11319212,11317893.0,11317979.0,87.0,87.0,2215.8,810.0999999999999,2249.0,1269.0,Animal_Sea_Solid_Large,23.141585584031414,29.157216125167903,3.0,Animal_Sea_Solid_Large,-6.0,,,,,,,,,,,
encoding,value,14,11313196,11319212,11318207.0,11318539.0,333.0,333.0,2224.5,882.7,2249.0,1269.0,Animal_Sea_Solid_Large,23.141585584031414,29.157216125167903,3.0,Animal_Sea_Solid_Large,-6.0,,,,,,,,,,,
encoding,value,14,11313196,11319212,11318594.0,11318887.0,294.0,294.0,1932.8,1206.3,1920.0,700.0,Animal_Land_Solid_Large,23.141585584031414,29.157216125167903,3.0,Animal_Sea_Solid_Large,-6.0,,,,,,,,,,,
encoding,value,14,11313196,11319212,11319140.0,11319411.0,272.0,72.0,2214.1,867.9000000000001,2249.0,1269.0,Animal_Sea_Solid_Large,23.141585584031414,29.157216125167903,3.0,Animal_Sea_Solid_Large,-6.0,,,,,,,,,,,
encoding,attention,14,11319212,11322230,11319435.0,11320543.0,1109.0,1109.0,2190.5,789.2,2249.0,1269.0,Animal_Sea_Solid_Large,29.157331750029694,32.175122667104006,3.0,Animal_Sea_Solid_Large,-6.0,-6.0,1.0,1.0773161670658735,,,,,,,,
encoding,attention,14,11319212,11322230,11320797.0,11321326.0,530.0,530.0,2229.6,933.7,2249.0,1269.0,Animal_Sea_Solid_Large,29.157331750029694,32.175122667104006,3.0,Animal_Sea_Solid_Large,-6.0,-6.0,1.0,1.0773161670658735,,,,,,,,
encoding,attention,14,11319212,11322230,11321377.0,11321831.0,455.0,455.0,2028.2,1129.9,2249.0,891.0,Object_Land_Pattern_Small,29.157331750029694,32.175122667104006,3.0,Animal_Sea_Solid_Large,-6.0,-6.0,1.0,1.0773161670658735,,,,,,,,
encoding,attention,14,11319212,11322230,11321876.0,11322041.0,166.0,166.0,2282.4,869.0,2249.0,1269.0,Animal_Sea_Solid_Large,29.157331750029694,32.175122667104006,3.0,Animal_Sea_Solid_Large,-6.0,-6.0,1.0,1.0773161670658735,,,,,,,,
encoding,fixation,15,11322230,11322735,11322481.0,11322696.0,216.0,216.0,1942.6,1065.6,1920.0,1080.0,fixation,32.17531816707924,32.68022979213856,3.0,Object_Land_Pattern_Small,2.0,,,,,,,,,,,
encoding,fixation,15,11322230,11322735,11322705.0,11322922.0,218.0,30.0,1905.8,1047.2,1920.0,1080.0,fixation,32.17531816707924,32.68022979213856,3.0,Object_Land_Pattern_Small,2.0,,,,,,,,,,,
encoding,image,15,11322735,11323746,11322959.0,11323385.0,427.0,427.0,2240.9,1207.6,2249.0,891.0,Object_Land_Pattern_Small,32.680342042120174,33.6913672091905,3.0,Object_Land_Pattern_Small,2.0,,,,,,,,,,,
encoding,image,15,11322735,11323746,11323406.0,11323686.0,281.0,281.0,2048.1,1202.3,2249.0,891.0,Object_Land_Pattern_Small,32.680342042120174,33.6913672091905,3.0,Object_Land_Pattern_Small,2.0,,,,,,,,,,,
encoding,value,15,11323746,11329761,11323931.0,11323977.0,47.0,47.0,2038.1,1252.7,2249.0,891.0,Object_Land_Pattern_Small,33.691574334166944,39.70613404200412,3.0,Object_Land_Pattern_Small,2.0,,,,,,,,,,,
encoding,value,15,11323746,11329761,11323986.0,11324081.0,96.0,96.0,2038.3,1170.0,2249.0,891.0,Object_Land_Pattern_Small,33.691574334166944,39.70613404200412,3.0,Object_Land_Pattern_Small,2.0,,,,,,,,,,,
encoding,value,15,11323746,11329761,11324104.0,11324544.0,441.0,441.0,2209.6,1124.7,2249.0,891.0,Object_Land_Pattern_Small,33.691574334166944,39.70613404200412,3.0,Object_Land_Pattern_Small,2.0,,,,,,,,,,,
encoding,value,15,11323746,11329761,11324560.0,11324990.0,431.0,431.0,2219.8,1226.5,2249.0,891.0,Object_Land_Pattern_Small,33.691574334166944,39.70613404200412,3.0,Object_Land_Pattern_Small,2.0,,,,,,,,,,,
encoding,value,15,11323746,11329761,11325009.0,11325210.0,202.0,202.0,2194.7,1109.9,2249.0,891.0,Object_Land_Pattern_Small,33.691574334166944,39.70613404200412,3.0,Object_Land_Pattern_Small,2.0,,,,,,,,,,,
encoding,value,15,11323746,11329761,11325218.0,11325641.0,424.0,424.0,2217.1,1125.5,2249.0,891.0,Object_Land_Pattern_Small,33.691574334166944,39.70613404200412,3.0,Object_Land_Pattern_Small,2.0,,,,,,,,,,,
encoding,value,15,11323746,11329761,11325887.0,11325954.0,68.0,68.0,2220.4,1223.2,2249.0,891.0,Object_Land_Pattern_Small,33.691574334166944,39.70613404200412,3.0,Object_Land_Pattern_Small,2.0,,,,,,,,,,,
encoding,value,15,11323746,11329761,11325962.0,11326246.0,285.0,285.0,2208.0,1150.8,2249.0,891.0,Object_Land_Pattern_Small,33.691574334166944,39.70613404200412,3.0,Object_Land_Pattern_Small,2.0,,,,,,,,,,,
encoding,value,15,11323746,11329761,11326272.0,11326683.0,412.0,412.0,1917.1,1199.4,1920.0,700.0,Animal_Land_Solid_Large,33.691574334166944,39.70613404200412,3.0,Object_Land_Pattern_Small,2.0,,,,,,,,,,,
encoding,value,15,11323746,11329761,11326710.0,11327121.0,412.0,412.0,2187.5,1128.5,2249.0,891.0,Object_Land_Pattern_Small,33.691574334166944,39.70613404200412,3.0,Object_Land_Pattern_Small,2.0,,,,,,,,,,,
encoding,value,15,11323746,11329761,11327129.0,11327465.0,337.0,337.0,2214.7,1126.5,2249.0,891.0,Object_Land_Pattern_Small,33.691574334166944,39.70613404200412,3.0,Object_Land_Pattern_Small,2.0,,,,,,,,,,,
encoding,value,15,11323746,11329761,11327487.0,11327866.0,380.0,380.0,1992.2,1126.3,2249.0,891.0,Object_Land_Pattern_Small,33.691574334166944,39.70613404200412,3.0,Object_Land_Pattern_Small,2.0,,,,,,,,,,,
encoding,value,15,11323746,11329761,11328129.0,11328158.0,30.0,30.0,2240.5,1193.7,2249.0,891.0,Object_Land_Pattern_Small,33.691574334166944,39.70613404200412,3.0,Object_Land_Pattern_Small,2.0,,,,,,,,,,,
encoding,value,15,11323746,11329761,11328174.0,11328303.0,130.0,130.0,2230.5,1108.4,2249.0,891.0,Object_Land_Pattern_Small,33.691574334166944,39.70613404200412,3.0,Object_Land_Pattern_Small,2.0,,,,,,,,,,,
encoding,value,15,11323746,11329761,11328320.0,11328746.0,427.0,427.0,2230.4,1188.9,2249.0,891.0,Object_Land_Pattern_Small,33.691574334166944,39.70613404200412,3.0,Object_Land_Pattern_Small,2.0,,,,,,,,,,,
encoding,value,15,11323746,11329761,11328767.0,11329038.0,272.0,272.0,2246.5,1125.2,2249.0,891.0,Object_Land_Pattern_Small,33.691574334166944,39.70613404200412,3.0,Object_Land_Pattern_Small,2.0,,,,,,,,,,,
encoding,value,15,11323746,11329761,11329068.0,11329376.0,309.0,309.0,2222.5,1205.1,2249.0,891.0,Object_Land_Pattern_Small,33.691574334166944,39.70613404200412,3.0,Object_Land_Pattern_Small,2.0,,,,,,,,,,,
encoding,value,15,11323746,11329761,11329402.0,11330066.0,665.0,359.0,2192.6,1152.5,2249.0,891.0,Object_Land_Pattern_Small,33.691574334166944,39.70613404200412,3.0,Object_Land_Pattern_Small,2.0,,,,,,,,,,,
encoding,attention,15,11329761,11332780,11330076.0,11330197.0,122.0,122.0,2237.1,1150.8,2249.0,891.0,Object_Land_Pattern_Small,39.70624129218049,42.72544258413837,3.0,Object_Land_Pattern_Small,2.0,2.0,1.0,0.8642601668834686,,,,,,,,
encoding,attention,15,11329761,11332780,11330218.0,11330363.0,146.0,146.0,2155.7,1141.1,2249.0,891.0,Object_Land_Pattern_Small,39.70624129218049,42.72544258413837,3.0,Object_Land_Pattern_Small,2.0,2.0,1.0,0.8642601668834686,,,,,,,,
encoding,attention,15,11329761,11332780,11330598.0,11330659.0,62.0,62.0,2146.6,1217.4,2249.0,891.0,Object_Land_Pattern_Small,39.70624129218049,42.72544258413837,3.0,Object_Land_Pattern_Small,2.0,2.0,1.0,0.8642601668834686,,,,,,,,
encoding,attention,15,11329761,11332780,11330674.0,11331002.0,329.0,329.0,2140.2,1141.6,2249.0,891.0,Object_Land_Pattern_Small,39.70624129218049,42.72544258413837,3.0,Object_Land_Pattern_Small,2.0,2.0,1.0,0.8642601668834686,,,,,,,,
encoding,attention,15,11329761,11332780,11331017.0,11331397.0,381.0,381.0,2212.6,1184.9,2249.0,891.0,Object_Land_Pattern_Small,39.70624129218049,42.72544258413837,3.0,Object_Land_Pattern_Small,2.0,2.0,1.0,0.8642601668834686,,,,,,,,
encoding,attention,15,11329761,11332780,11331436.0,11332215.0,780.0,780.0,1968.0,1122.1,1920.0,1080.0,fixation,39.70624129218049,42.72544258413837,3.0,Object_Land_Pattern_Small,2.0,2.0,1.0,0.8642601668834686,,,,,,,,
encoding,fixation,16,11332780,11333285,11333196.0,11333877.0,682.0,89.0,2136.6,1224.9,2249.0,891.0,Object_Land_Pattern_Small,42.72561050020158,43.23060879204422,3.0,Animal_Sea_Pattern_Large,7.0,,,,,,,,,,,
encoding,image,16,11333285,11334295,11333889.0,11333949.0,61.0,61.0,2202.5,1215.1,2249.0,891.0,Object_Land_Pattern_Small,43.23071633419022,44.24064404214732,3.0,Animal_Sea_Pattern_Large,7.0,,,,,,,,,,,
encoding,image,16,11333285,11334295,11334236.0,11334313.0,78.0,59.0,2130.3,1257.7,2249.0,891.0,Object_Land_Pattern_Small,43.23071633419022,44.24064404214732,3.0,Animal_Sea_Pattern_Large,7.0,,,,,,,,,,,
encoding,value,16,11334296,11340307,11334323.0,11334988.0,666.0,666.0,2145.4,1190.8,2249.0,891.0,Object_Land_Pattern_Small,44.24076150008477,50.25143091706559,3.0,Animal_Sea_Pattern_Large,7.0,,,,,,,,,,,
encoding,value,16,11334296,11340307,11335210.0,11335349.0,140.0,140.0,1881.4,665.5,1920.0,1460.0,Animal_Sea_Pattern_Large,44.24076150008477,50.25143091706559,3.0,Animal_Sea_Pattern_Large,7.0,,,,,,,,,,,
encoding,value,16,11334296,11340307,11335367.0,11335496.0,130.0,130.0,1887.6,650.4000000000001,1920.0,1460.0,Animal_Sea_Pattern_Large,44.24076150008477,50.25143091706559,3.0,Animal_Sea_Pattern_Large,7.0,,,,,,,,,,,
encoding,value,16,11334296,11340307,11335512.0,11335658.0,147.0,147.0,1899.6,590.4000000000001,1920.0,1460.0,Animal_Sea_Pattern_Large,44.24076150008477,50.25143091706559,3.0,Animal_Sea_Pattern_Large,7.0,,,,,,,,,,,
encoding,value,16,11334296,11340307,11335679.0,11336693.0,1015.0,1015.0,1871.2,710.2,1920.0,1460.0,Animal_Sea_Pattern_Large,44.24076150008477,50.25143091706559,3.0,Animal_Sea_Pattern_Large,7.0,,,,,,,,,,,
encoding,value,16,11334296,11340307,11336759.0,11337327.0,569.0,569.0,1953.5,1069.7,1920.0,1080.0,fixation,44.24076150008477,50.25143091706559,3.0,Animal_Sea_Pattern_Large,7.0,,,,,,,,,,,
encoding,value,16,11334296,11340307,11337371.0,11337875.0,505.0,505.0,1906.5,1337.7,1920.0,700.0,Animal_Land_Solid_Large,44.24076150008477,50.25143091706559,3.0,Animal_Sea_Pattern_Large,7.0,,,,,,,,,,,
encoding,value,16,11334296,11340307,11337892.0,11338206.0,315.0,315.0,2016.3,1310.5,1920.0,700.0,Animal_Land_Solid_Large,44.24076150008477,50.25143091706559,3.0,Animal_Sea_Pattern_Large,7.0,,,,,,,,,,,
encoding,value,16,11334296,11340307,11338270.0,11338643.0,374.0,374.0,1890.7,555.2,1920.0,1460.0,Animal_Sea_Pattern_Large,44.24076150008477,50.25143091706559,3.0,Animal_Sea_Pattern_Large,7.0,,,,,,,,,,,
encoding,value,16,11334296,11340307,11338921.0,11339040.0,120.0,120.0,1879.5,661.4000000000001,1920.0,1460.0,Animal_Sea_Pattern_Large,44.24076150008477,50.25143091706559,3.0,Animal_Sea_Pattern_Large,7.0,,,,,,,,,,,
encoding,value,16,11334296,11340307,11339058.0,11339141.0,84.0,84.0,1901.6,651.5,1920.0,1460.0,Animal_Sea_Pattern_Large,44.24076150008477,50.25143091706559,3.0,Animal_Sea_Pattern_Large,7.0,,,,,,,,,,,
encoding,value,16,11334296,11340307,11339224.0,11339661.0,438.0,438.0,1973.1,1222.0,1920.0,700.0,Animal_Land_Solid_Large,44.24076150008477,50.25143091706559,3.0,Animal_Sea_Pattern_Large,7.0,,,,,,,,,,,
encoding,value,16,11334296,11340307,11339722.0,11339984.0,263.0,263.0,1908.5,639.0999999999999,1920.0,1460.0,Animal_Sea_Pattern_Large,44.24076150008477,50.25143091706559,3.0,Animal_Sea_Pattern_Large,7.0,,,,,,,,,,,
encoding,value,16,11334296,11340307,11340005.0,11340340.0,336.0,302.0,1888.7,549.0,1920.0,1460.0,Animal_Sea_Pattern_Large,44.24076150008477,50.25143091706559,3.0,Animal_Sea_Pattern_Large,7.0,,,,,,,,,,,
encoding,attention,16,11340307,11343323,11340363.0,11340427.0,65.0,65.0,1851.5,685.3,1920.0,1460.0,Animal_Sea_Pattern_Large,50.25155733409338,53.267819750122726,3.0,Animal_Sea_Pattern_Large,7.0,7.0,1.0,1.0000747500453144,,,,,,,,
encoding,attention,16,11340307,11343323,11340716.0,11340883.0,168.0,168.0,1890.6,673.5,1920.0,1460.0,Animal_Sea_Pattern_Large,50.25155733409338,53.267819750122726,3.0,Animal_Sea_Pattern_Large,7.0,7.0,1.0,1.0000747500453144,,,,,,,,
encoding,attention,16,11340307,11343323,11340897.0,11341544.0,648.0,648.0,1919.0,624.5,1920.0,1460.0,Animal_Sea_Pattern_Large,50.25155733409338,53.267819750122726,3.0,Animal_Sea_Pattern_Large,7.0,7.0,1.0,1.0000747500453144,,,,,,,,
encoding,attention,16,11340307,11343323,11341609.0,11341927.0,319.0,319.0,2060.2,1189.7,2249.0,891.0,Object_Land_Pattern_Small,50.25155733409338,53.267819750122726,3.0,Animal_Sea_Pattern_Large,7.0,7.0,1.0,1.0000747500453144,,,,,,,,
encoding,attention,16,11340307,11343323,11341958.0,11342384.0,427.0,427.0,2207.9,1239.9,2249.0,891.0,Object_Land_Pattern_Small,50.25155733409338,53.267819750122726,3.0,Animal_Sea_Pattern_Large,7.0,7.0,1.0,1.0000747500453144,,,,,,,,
encoding,attention,16,11340307,11343323,11342414.0,11342668.0,255.0,255.0,2076.6,1296.2,2249.0,891.0,Object_Land_Pattern_Small,50.25155733409338,53.267819750122726,3.0,Animal_Sea_Pattern_Large,7.0,7.0,1.0,1.0000747500453144,,,,,,,,
encoding,attention,16,11340307,11343323,11342934.0,11343033.0,100.0,100.0,1924.8,808.9000000000001,1920.0,1460.0,Animal_Sea_Pattern_Large,50.25155733409338,53.267819750122726,3.0,Animal_Sea_Pattern_Large,7.0,7.0,1.0,1.0000747500453144,,,,,,,,
encoding,fixation,17,11343323,11344829,11343692.0,11343879.0,188.0,188.0,1905.2,985.8,1920.0,1460.0,Animal_Sea_Pattern_Large,53.267974875168875,54.77381858415902,3.0,Object_Land_Solid_Small,3.0,,,,,,,,,,,
encoding,fixation,17,11343323,11344829,11343898.0,11344387.0,490.0,490.0,1893.5,1054.2,1920.0,1080.0,fixation,53.267974875168875,54.77381858415902,3.0,Object_Land_Solid_Small,3.0,,,,,,,,,,,
encoding,fixation,17,11343323,11344829,11344430.0,11344933.0,504.0,399.0,1922.9,778.5,1920.0,1460.0,Animal_Sea_Pattern_Large,53.267974875168875,54.77381858415902,3.0,Object_Land_Solid_Small,3.0,,,,,,,,,,,
encoding,image,17,11344829,11345841,11344948.0,11345084.0,137.0,137.0,1822.7,728.4000000000001,1920.0,1460.0,Animal_Sea_Pattern_Large,54.77394258417189,55.78547295904718,3.0,Object_Land_Solid_Small,3.0,,,,,,,,,,,
encoding,image,17,11344829,11345841,11345107.0,11345327.0,221.0,221.0,1603.4,876.8,1591.0,1269.0,Object_Land_Solid_Small,54.77394258417189,55.78547295904718,3.0,Object_Land_Solid_Small,3.0,,,,,,,,,,,
encoding,image,17,11344829,11345841,11345334.0,11345455.0,122.0,122.0,1568.0,870.9000000000001,1591.0,1269.0,Object_Land_Solid_Small,54.77394258417189,55.78547295904718,3.0,Object_Land_Solid_Small,3.0,,,,,,,,,,,
encoding,image,17,11344829,11345841,11345672.0,11345760.0,89.0,89.0,1659.5,871.2,1591.0,1269.0,Object_Land_Solid_Small,54.77394258417189,55.78547295904718,3.0,Object_Land_Solid_Small,3.0,,,,,,,,,,,
encoding,image,17,11344829,11345841,11345777.0,11345827.0,51.0,51.0,1692.1,824.0,1591.0,1269.0,Object_Land_Solid_Small,54.77394258417189,55.78547295904718,3.0,Object_Land_Solid_Small,3.0,,,,,,,,,,,
encoding,value,17,11345841,11351853,11345842.0,11346068.0,227.0,227.0,1596.3,857.0999999999999,1591.0,1269.0,Object_Land_Solid_Small,55.78558050002903,61.797144959215075,3.0,Object_Land_Solid_Small,3.0,,,,,,,,,,,
encoding,value,17,11345841,11351853,11346091.0,11346606.0,516.0,516.0,1592.9,788.9000000000001,1591.0,1269.0,Object_Land_Solid_Small,55.78558050002903,61.797144959215075,3.0,Object_Land_Solid_Small,3.0,,,,,,,,,,,
encoding,value,17,11345841,11351853,11346624.0,11346775.0,152.0,152.0,1578.4,878.0999999999999,1591.0,1269.0,Object_Land_Solid_Small,55.78558050002903,61.797144959215075,3.0,Object_Land_Solid_Small,3.0,,,,,,,,,,,
encoding,value,17,11345841,11351853,11347061.0,11347154.0,94.0,94.0,1564.4,849.9000000000001,1591.0,1269.0,Object_Land_Solid_Small,55.78558050002903,61.797144959215075,3.0,Object_Land_Solid_Small,3.0,,,,,,,,,,,
encoding,value,17,11345841,11351853,11347172.0,11347737.0,566.0,566.0,1596.3,771.0,1591.0,1269.0,Object_Land_Solid_Small,55.78558050002903,61.797144959215075,3.0,Object_Land_Solid_Small,3.0,,,,,,,,,,,
encoding,value,17,11345841,11351853,11347780.0,11348181.0,402.0,402.0,1827.7,1028.7,1591.0,1269.0,Object_Land_Solid_Small,55.78558050002903,61.797144959215075,3.0,Object_Land_Solid_Small,3.0,,,,,,,,,,,
encoding,value,17,11345841,11351853,11348218.0,11349118.0,901.0,901.0,1604.3,794.8,1591.0,1269.0,Object_Land_Solid_Small,55.78558050002903,61.797144959215075,3.0,Object_Land_Solid_Small,3.0,,,,,,,,,,,
encoding,value,17,11345841,11351853,11349133.0,11349413.0,281.0,281.0,1591.7,853.8,1591.0,1269.0,Object_Land_Solid_Small,55.78558050002903,61.797144959215075,3.0,Object_Land_Solid_Small,3.0,,,,,,,,,,,
encoding,value,17,11345841,11351853,11349428.0,11349821.0,394.0,394.0,1610.2,777.7,1591.0,1269.0,Object_Land_Solid_Small,55.78558050002903,61.797144959215075,3.0,Object_Land_Solid_Small,3.0,,,,,,,,,,,
encoding,value,17,11345841,11351853,11349834.0,11349868.0,35.0,35.0,1574.8,863.0,1591.0,1269.0,Object_Land_Solid_Small,55.78558050002903,61.797144959215075,3.0,Object_Land_Solid_Small,3.0,,,,,,,,,,,
encoding,value,17,11345841,11351853,11350116.0,11350238.0,123.0,123.0,1592.8,887.5999999999999,1591.0,1269.0,Object_Land_Solid_Small,55.78558050002903,61.797144959215075,3.0,Object_Land_Solid_Small,3.0,,,,,,,,,,,
encoding,value,17,11345841,11351853,11350255.0,11351013.0,759.0,759.0,1600.2,790.3,1591.0,1269.0,Object_Land_Solid_Small,55.78558050002903,61.797144959215075,3.0,Object_Land_Solid_Small,3.0,,,,,,,,,,,
encoding,value,17,11345841,11351853,11351049.0,11351326.0,278.0,278.0,1986.6,1060.9,1920.0,1080.0,fixation,55.78558050002903,61.797144959215075,3.0,Object_Land_Solid_Small,3.0,,,,,,,,,,,
encoding,value,17,11345841,11351853,11351544.0,11351922.0,379.0,309.0,1983.9,1264.5,1920.0,700.0,Animal_Land_Solid_Large,55.78558050002903,61.797144959215075,3.0,Object_Land_Solid_Small,3.0,,,,,,,,,,,
encoding,attention,17,11351853,11354871,11351944.0,11352106.0,163.0,163.0,2208.6,1241.0,2249.0,891.0,Object_Land_Pattern_Small,61.79727575019933,64.81502866721712,3.0,Object_Land_Solid_Small,3.0,3.0,1.0,0.8939691670238972,,,,,,,,
encoding,attention,17,11351853,11354871,11352161.0,11352348.0,188.0,188.0,1647.7,761.2,1591.0,1269.0,Object_Land_Solid_Small,61.79727575019933,64.81502866721712,3.0,Object_Land_Solid_Small,3.0,3.0,1.0,0.8939691670238972,,,,,,,,
encoding,attention,17,11351853,11354871,11352368.0,11352587.0,220.0,220.0,1581.2,769.3,1591.0,1269.0,Object_Land_Solid_Small,61.79727575019933,64.81502866721712,3.0,Object_Land_Solid_Small,3.0,3.0,1.0,0.8939691670238972,,,,,,,,
encoding,attention,17,11351853,11354871,11352598.0,11353004.0,407.0,407.0,1643.4,780.5,1591.0,1269.0,Object_Land_Solid_Small,61.79727575019933,64.81502866721712,3.0,Object_Land_Solid_Small,3.0,3.0,1.0,0.8939691670238972,,,,,,,,
encoding,attention,17,11351853,11354871,11353253.0,11353303.0,51.0,51.0,1874.1,1052.1,1920.0,1080.0,fixation,61.79727575019933,64.81502866721712,3.0,Object_Land_Solid_Small,3.0,3.0,1.0,0.8939691670238972,,,,,,,,
encoding,attention,17,11351853,11354871,11353319.0,11353580.0,262.0,262.0,1904.1,973.5999999999999,1920.0,1460.0,Animal_Sea_Pattern_Large,61.79727575019933,64.81502866721712,3.0,Object_Land_Solid_Small,3.0,3.0,1.0,0.8939691670238972,,,,,,,,
encoding,attention,17,11351853,11354871,11353953.0,11354220.0,268.0,268.0,2005.2,1104.5,2249.0,891.0,Object_Land_Pattern_Small,61.79727575019933,64.81502866721712,3.0,Object_Land_Solid_Small,3.0,3.0,1.0,0.8939691670238972,,,,,,,,
encoding,attention,17,11351853,11354871,11354242.0,11354587.0,346.0,346.0,2170.3,1164.1,2249.0,891.0,Object_Land_Pattern_Small,61.79727575019933,64.81502866721712,3.0,Object_Land_Solid_Small,3.0,3.0,1.0,0.8939691670238972,,,,,,,,
encoding,fixation,18,11354871,11355877,11354985.0,11355254.0,270.0,270.0,1874.0,923.0,1920.0,1460.0,Animal_Sea_Pattern_Large,64.81520250020549,65.82060637511313,3.0,Object_Sea_Pattern_Small,-6.0,,,,,,,,,,,
encoding,fixation,18,11354871,11355877,11355275.0,11355697.0,423.0,423.0,1889.0,1049.7,1920.0,1080.0,fixation,64.81520250020549,65.82060637511313,3.0,Object_Sea_Pattern_Small,-6.0,,,,,,,,,,,
encoding,image,18,11355877,11356889,11355902.0,11356063.0,162.0,162.0,1853.9,812.9000000000001,1920.0,1460.0,Animal_Sea_Pattern_Large,65.82073000003584,66.83326979214326,3.0,Object_Sea_Pattern_Small,-6.0,,,,,,,,,,,
encoding,image,18,11355877,11356889,11356076.0,11356114.0,39.0,39.0,1873.3,790.9000000000001,1920.0,1460.0,Animal_Sea_Pattern_Large,65.82073000003584,66.83326979214326,3.0,Object_Sea_Pattern_Small,-6.0,,,,,,,,,,,
encoding,image,18,11355877,11356889,11356186.0,11356609.0,424.0,424.0,1619.9,1197.8,1591.0,891.0,Object_Sea_Pattern_Small,65.82073000003584,66.83326979214326,3.0,Object_Sea_Pattern_Small,-6.0,,,,,,,,,,,
encoding,image,18,11355877,11356889,11356627.0,11357282.0,656.0,262.0,1575.3,1179.6,1591.0,891.0,Object_Sea_Pattern_Small,65.82073000003584,66.83326979214326,3.0,Object_Sea_Pattern_Small,-6.0,,,,,,,,,,,
encoding,value,18,11356889,11362901,11357299.0,11357594.0,296.0,296.0,1603.2,1131.2,1591.0,891.0,Object_Sea_Pattern_Small,66.83339137514122,72.8446774170734,3.0,Object_Sea_Pattern_Small,-6.0,,,,,,,,,,,
