subject,phase,event,trial_number,game,option,choice,rt,roi_content,item_index,is_center,is_relevant,fix_start,fix_end,fix_duration_bounded
124,choice,choice,1,1.0,Animal,2.0,13.124133249977604,Object_Land_Pattern_Large,0,0,0,10500006.0,10500229.0,223.0
124,choice,choice,1,1.0,Animal,2.0,13.124133249977604,fixation,-1,1,0,10500254.0,10500481.0,227.0
124,choice,choice,1,1.0,Animal,2.0,13.124133249977604,Object_Land_Pattern_Large,0,0,0,10500527.0,10500868.0,341.0
124,choice,choice,1,1.0,Animal,2.0,13.124133249977604,Animal_Land_Solid_Small,1,0,1,10500890.0,10501007.0,117.0
124,choice,choice,1,1.0,Animal,2.0,13.124133249977604,fixation,-1,1,0,10501164.0,10501520.0,356.0
124,choice,choice,1,1.0,Animal,2.0,13.124133249977604,Object_Land_Pattern_Large,0,0,0,10501544.0,10501732.0,188.0
124,choice,choice,1,1.0,Animal,2.0,13.124133249977604,fixation,-1,1,0,10501755.0,10502045.0,290.0
124,choice,choice,1,1.0,Animal,2.0,13.124133249977604,Object_Land_Pattern_Large,0,0,0,10502089.0,10502458.0,369.0
124,choice,choice,1,1.0,Animal,2.0,13.124133249977604,Animal_Sea_Solid_Small,2,0,1,10502672.0,10503084.0,412.0
124,choice,choice,1,1.0,Animal,2.0,13.124133249977604,Object_Land_Pattern_Large,0,0,0,10503150.0,10503359.0,209.0
124,choice,choice,1,1.0,Animal,2.0,13.124133249977604,fixation,-1,1,0,10503385.0,10504033.0,648.0
124,choice,choice,1,1.0,Animal,2.0,13.124133249977604,Object_Land_Pattern_Large,0,0,0,10504289.0,10504569.0,280.0
124,choice,choice,1,1.0,Animal,2.0,13.124133249977604,Animal_Land_Solid_Small,1,0,1,10505639.0,10506204.0,565.0
124,choice,choice,1,1.0,Animal,2.0,13.124133249977604,Object_Land_Pattern_Large,0,0,0,10506236.0,10507142.0,906.0
124,choice,choice,1,1.0,Animal,2.0,13.124133249977604,Object_Sea_Solid_Large,3,0,0,10507437.0,10507850.0,413.0
124,choice,choice,1,1.0,Animal,2.0,13.124133249977604,Object_Sea_Pattern_Large,4,0,0,10508605.0,10509065.0,460.0
124,choice,choice,1,1.0,Animal,2.0,13.124133249977604,Object_Sea_Solid_Large,3,0,0,10510431.0,10510982.0,551.0
124,choice,choice,1,1.0,Animal,2.0,13.124133249977604,Object_Sea_Pattern_Large,4,0,0,10511300.0,10511462.0,162.0
124,choice,choice,1,1.0,Animal,2.0,13.124133249977604,fixation,-1,1,0,10511482.0,10511718.0,236.0
124,choice,choice,1,1.0,Animal,2.0,13.124133249977604,Object_Sea_Pattern_Large,4,0,0,10511926.0,10512112.0,186.0
124,choice,choice,1,1.0,Animal,2.0,13.124133249977604,fixation,-1,1,0,10512129.0,10512683.0,554.0
124,choice,choice,1,1.0,Animal,2.0,13.124133249977604,Animal_Sea_Solid_Small,2,0,1,10512699.0,10512856.0,157.0
124,choice,choice,1,1.0,Animal,2.0,13.124133249977604,fixation,-1,1,0,10512877.0,10513044.0,167.0
124,choice,choice,2,1.0,Small,2.0,16.362729375017807,Animal_Land_Solid_Small,1,0,1,10516190.0,10516426.0,236.0
124,choice,choice,2,1.0,Small,2.0,16.362729375017807,fixation,-1,1,0,10517133.0,10517596.0,463.0
124,choice,choice,2,1.0,Small,2.0,16.362729375017807,Animal_Sea_Solid_Small,2,0,1,10517840.0,10518544.0,704.0
124,choice,choice,2,1.0,Small,2.0,16.362729375017807,fixation,-1,1,0,10518595.0,10518957.0,362.0
124,choice,choice,2,1.0,Small,2.0,16.362729375017807,Animal_Land_Pattern_Small,5,0,1,10518983.0,10519228.0,245.0
124,choice,choice,2,1.0,Small,2.0,16.362729375017807,Object_Sea_Pattern_Large,4,0,0,10519259.0,10519513.0,254.0
124,choice,choice,2,1.0,Small,2.0,16.362729375017807,Animal_Sea_Solid_Small,2,0,1,10519751.0,10521833.0,2082.0
124,choice,choice,2,1.0,Small,2.0,16.362729375017807,Object_Sea_Solid_Large,3,0,0,10525705.0,10525813.0,108.0
124,choice,choice,2,1.0,Small,2.0,16.362729375017807,Object_Sea_Pattern_Large,4,0,0,10527214.0,10527399.0,185.0
124,choice,choice,2,1.0,Small,2.0,16.362729375017807,fixation,-1,1,0,10527450.0,10527810.0,360.0
124,choice,choice,2,1.0,Small,2.0,16.362729375017807,Animal_Land_Solid_Small,1,0,1,10527843.0,10528075.0,232.0
124,choice,choice,2,1.0,Small,2.0,16.362729375017807,Animal_Land_Pattern_Small,5,0,1,10528834.0,10528996.0,162.0
124,choice,choice,2,1.0,Small,2.0,16.362729375017807,Object_Land_Pattern_Large,0,0,0,10529207.0,10529806.0,599.0
124,choice,choice,2,1.0,Small,2.0,16.362729375017807,Animal_Land_Solid_Small,1,0,1,10529832.0,10529950.0,118.0
124,choice,choice,2,1.0,Small,2.0,16.362729375017807,Animal_Land_Pattern_Small,5,0,1,10530152.0,10530729.0,577.0
124,choice,choice,2,1.0,Small,2.0,16.362729375017807,Object_Sea_Pattern_Large,4,0,0,10530776.0,10531025.0,249.0
124,choice,choice,2,1.0,Small,2.0,16.362729375017807,Animal_Sea_Solid_Small,2,0,1,10531255.0,10531381.0,126.0
124,choice,choice,2,1.0,Small,2.0,16.362729375017807,fixation,-1,1,0,10531417.0,10531820.0,403.0
124,choice,choice,2,1.0,Small,2.0,16.362729375017807,Animal_Land_Pattern_Small,5,0,1,10531841.0,10532211.0,370.0
124,choice,choice,3,1.0,Large,1.0,1.1109989578835666,Object_Sea_Pattern_Large,4,0,1,10535140.0,10535614.0,474.0
124,choice,choice,4,1.0,Object,1.0,11.498573541874066,Animal_Sea_Solid_Small,2,0,0,10540554.0,10540665.0,111.0
124,choice,choice,4,1.0,Object,1.0,11.498573541874066,fixation,-1,1,0,10540897.0,10540939.0,42.0
124,choice,choice,4,1.0,Object,1.0,11.498573541874066,Object_Sea_Pattern_Large,4,0,1,10540956.0,10541122.0,166.0
124,choice,choice,4,1.0,Object,1.0,11.498573541874066,fixation,-1,1,0,10541130.0,10541616.0,486.0
124,choice,choice,4,1.0,Object,1.0,11.498573541874066,Object_Sea_Solid_Large,3,0,1,10541844.0,10542197.0,353.0
124,choice,choice,4,1.0,Object,1.0,11.498573541874066,fixation,-1,1,0,10542224.0,10542555.0,331.0
124,choice,choice,4,1.0,Object,1.0,11.498573541874066,Object_Sea_Pattern_Large,4,0,1,10544799.0,10544849.0,50.0
124,choice,choice,4,1.0,Object,1.0,11.498573541874066,Animal_Sea_Solid_Small,2,0,0,10545100.0,10545398.0,298.0
124,choice,choice,4,1.0,Object,1.0,11.498573541874066,fixation,-1,1,0,10545433.0,10546055.0,622.0
124,choice,choice,4,1.0,Object,1.0,11.498573541874066,Object_Sea_Solid_Large,3,0,1,10546076.0,10546232.0,156.0
124,choice,choice,4,1.0,Object,1.0,11.498573541874066,Object_Land_Pattern_Large,0,0,1,10549666.0,10549724.0,58.0
124,choice,choice,4,1.0,Object,1.0,11.498573541874066,Animal_Sea_Solid_Small,2,0,0,10549731.0,10549925.0,194.0
124,choice,choice,5,1.0,Sea,2.0,6.019751667045057,Animal_Sea_Solid_Small,2,0,1,10558262.0,10558433.0,171.0
124,choice,choice,5,1.0,Sea,2.0,6.019751667045057,Object_Sea_Pattern_Large,4,0,1,10558494.0,10558767.0,273.0
124,choice,choice,6,1.0,Pattern,1.0,18.16091166716069,fixation,-1,1,0,10562350.0,10562763.0,413.0
124,choice,choice,6,1.0,Pattern,1.0,18.16091166716069,Object_Land_Pattern_Large,0,0,1,10564923.0,10565118.0,195.0
124,choice,choice,6,1.0,Pattern,1.0,18.16091166716069,Animal_Land_Pattern_Small,5,0,1,10565152.0,10565843.0,691.0
124,choice,choice,6,1.0,Pattern,1.0,18.16091166716069,Animal_Land_Solid_Small,1,0,0,10566681.0,10566878.0,197.0
124,choice,choice,6,1.0,Pattern,1.0,18.16091166716069,Object_Land_Pattern_Large,0,0,1,10567080.0,10567345.0,265.0
124,choice,choice,6,1.0,Pattern,1.0,18.16091166716069,Animal_Land_Pattern_Small,5,0,1,10567363.0,10567803.0,440.0
124,choice,choice,6,1.0,Pattern,1.0,18.16091166716069,Object_Sea_Solid_Large,3,0,0,10567824.0,10568088.0,264.0
124,choice,choice,6,1.0,Pattern,1.0,18.16091166716069,Object_Land_Pattern_Large,0,0,1,10568317.0,10568936.0,619.0
124,choice,choice,6,1.0,Pattern,1.0,18.16091166716069,Animal_Land_Pattern_Small,5,0,1,10570055.0,10570585.0,530.0
124,choice,choice,6,1.0,Pattern,1.0,18.16091166716069,Object_Sea_Pattern_Large,4,0,1,10575980.0,10576148.0,168.0
124,choice,choice,6,1.0,Pattern,1.0,18.16091166716069,fixation,-1,1,0,10576161.0,10576485.0,324.0
124,choice,choice,6,1.0,Pattern,1.0,18.16091166716069,Object_Sea_Solid_Large,3,0,0,10576513.0,10576746.0,233.0
124,choice,choice,6,1.0,Pattern,1.0,18.16091166716069,Animal_Sea_Solid_Small,2,0,0,10579418.0,10580179.0,761.0
124,choice,choice,7,1.0,Solid,1.0,14.414961708011106,Object_Land_Pattern_Large,0,0,0,10582813.0,10582925.0,112.0
124,choice,choice,7,1.0,Solid,1.0,14.414961708011106,Object_Sea_Solid_Large,3,0,1,10584465.0,10584821.0,356.0
124,choice,choice,7,1.0,Solid,1.0,14.414961708011106,fixation,-1,1,0,10584857.0,10585886.0,1029.0
124,choice,choice,7,1.0,Solid,1.0,14.414961708011106,Object_Sea_Pattern_Large,4,0,0,10586173.0,10587637.0,1464.0
124,choice,choice,7,1.0,Solid,1.0,14.414961708011106,Animal_Sea_Solid_Small,2,0,1,10588860.0,10588924.0,64.0
124,choice,choice,7,1.0,Solid,1.0,14.414961708011106,Object_Sea_Pattern_Large,4,0,0,10588933.0,10589130.0,197.0
124,choice,choice,7,1.0,Solid,1.0,14.414961708011106,Animal_Sea_Solid_Small,2,0,1,10591291.0,10591713.0,422.0
124,choice,choice,7,1.0,Solid,1.0,14.414961708011106,fixation,-1,1,0,10591758.0,10592123.0,365.0
124,choice,choice,7,1.0,Solid,1.0,14.414961708011106,Animal_Land_Pattern_Small,5,0,0,10592176.0,10592199.0,23.0
124,choice,choice,7,1.0,Solid,1.0,14.414961708011106,Object_Sea_Pattern_Large,4,0,0,10595170.0,10595637.0,467.0
124,choice,choice,7,1.0,Solid,1.0,14.414961708011106,Object_Land_Pattern_Large,0,0,0,10595695.0,10596020.0,325.0
124,choice,choice,7,1.0,Solid,1.0,14.414961708011106,Object_Sea_Solid_Large,3,0,1,10596042.0,10596381.0,339.0
124,choice,choice,8,1.0,Land,1.0,13.47247991594486,Animal_Land_Solid_Small,1,0,1,10602266.0,10602578.0,312.0
124,choice,choice,8,1.0,Land,1.0,13.47247991594486,Object_Sea_Pattern_Large,4,0,0,10603727.0,10603783.0,56.0
124,choice,choice,8,1.0,Land,1.0,13.47247991594486,Object_Sea_Solid_Large,3,0,0,10604629.0,10604766.0,137.0
124,choice,choice,8,1.0,Land,1.0,13.47247991594486,Object_Sea_Pattern_Large,4,0,0,10605480.0,10605902.0,422.0
124,choice,choice,8,1.0,Land,1.0,13.47247991594486,Object_Land_Pattern_Large,0,0,1,10609696.0,10609793.0,97.0
124,choice,choice,8,1.0,Land,1.0,13.47247991594486,Animal_Land_Solid_Small,1,0,1,10611164.0,10611480.0,316.0
124,choice,choice,8,1.0,Land,1.0,13.47247991594486,Object_Land_Pattern_Large,0,0,1,10611742.0,10611967.0,225.0
124,choice,choice,9,2.0,Pattern,1.0,2.238561083097011,fixation,-1,1,0,11056549.0,11056862.0,313.0
124,choice,choice,9,2.0,Pattern,1.0,2.238561083097011,Object_Land_Pattern_Large,0,0,1,11058231.0,11058490.0,259.0
124,choice,choice,9,2.0,Pattern,1.0,2.238561083097011,Animal_Sea_Solid_Small,1,0,0,11058529.0,11058775.0,246.0
124,choice,choice,11,2.0,Object,1.0,7.132986375130713,Object_Land_Solid_Large,2,0,1,11075241.0,11075434.0,193.0
124,choice,choice,13,2.0,Sea,2.0,5.965134374797344,fixation,-1,1,0,11089530.0,11089725.0,195.0
124,choice,choice,13,2.0,Sea,2.0,5.965134374797344,Object_Sea_Solid_Small,3,0,1,11089952.0,11090085.0,133.0
124,choice,choice,13,2.0,Sea,2.0,5.965134374797344,Object_Land_Pattern_Large,0,0,0,11094026.0,11094107.0,81.0
124,choice,choice,14,2.0,Land,1.0,5.2894963750150055,Object_Land_Pattern_Large,0,0,1,11097608.0,11097847.0,239.0
124,choice,choice,14,2.0,Land,1.0,5.2894963750150055,fixation,-1,1,0,11098058.0,11098106.0,48.0
124,choice,choice,14,2.0,Land,1.0,5.2894963750150055,Animal_Land_Pattern_Large,4,0,1,11098116.0,11098239.0,123.0
124,choice,choice,14,2.0,Land,1.0,5.2894963750150055,fixation,-1,1,0,11098255.0,11098484.0,229.0
124,choice,choice,14,2.0,Land,1.0,5.2894963750150055,Object_Sea_Solid_Small,3,0,0,11099218.0,11099545.0,327.0
124,choice,choice,14,2.0,Land,1.0,5.2894963750150055,Object_Land_Pattern_Large,0,0,1,11099753.0,11100104.0,351.0
124,choice,choice,14,2.0,Land,1.0,5.2894963750150055,Animal_Sea_Pattern_Small,5,0,0,11100131.0,11100206.0,75.0
124,choice,choice,15,2.0,Solid,1.0,13.600179834058508,Animal_Land_Pattern_Large,4,0,0,11107495.0,11107769.0,274.0
124,choice,choice,15,2.0,Solid,1.0,13.600179834058508,fixation,-1,1,0,11108936.0,11109854.0,918.0
124,choice,choice,15,2.0,Solid,1.0,13.600179834058508,Animal_Sea_Solid_Small,1,0,1,11110090.0,11110389.0,299.0
124,choice,choice,15,2.0,Solid,1.0,13.600179834058508,Object_Land_Pattern_Large,0,0,0,11112074.0,11112205.0,131.0
124,choice,choice,15,2.0,Solid,1.0,13.600179834058508,Object_Land_Solid_Large,2,0,1,11112456.0,11112602.0,146.0
124,choice,choice,15,2.0,Solid,1.0,13.600179834058508,fixation,-1,1,0,11112885.0,11112948.0,63.0
124,choice,choice,15,2.0,Solid,1.0,13.600179834058508,Animal_Land_Pattern_Large,4,0,0,11112966.0,11113093.0,127.0
124,choice,choice,15,2.0,Solid,1.0,13.600179834058508,Animal_Sea_Solid_Small,1,0,1,11118055.0,11118244.0,189.0
124,choice,choice,17,3.0,Animal,2.0,6.545694708824158,Animal_Land_Solid_Large,0,0,1,11444251.0,11445250.0,999.0
124,choice,choice,17,3.0,Animal,2.0,6.545694708824158,Animal_Sea_Pattern_Large,1,0,1,11445537.0,11445733.0,196.0
124,choice,choice,17,3.0,Animal,2.0,6.545694708824158,Animal_Sea_Solid_Large,2,0,1,11445769.0,11446049.0,280.0
124,choice,choice,17,3.0,Animal,2.0,6.545694708824158,Animal_Sea_Pattern_Large,1,0,1,11446323.0,11446909.0,586.0
124,choice,choice,17,3.0,Animal,2.0,6.545694708824158,fixation,-1,1,0,11448333.0,11448516.0,183.0
124,choice,choice,17,3.0,Animal,2.0,6.545694708824158,Animal_Sea_Pattern_Large,1,0,1,11449276.0,11449488.0,212.0
124,choice,choice,17,3.0,Animal,2.0,6.545694708824158,fixation,-1,1,0,11449538.0,11449723.0,185.0
124,choice,choice,18,3.0,Large,2.0,7.308635916095227,Animal_Sea_Pattern_Large,1,0,1,11456728.0,11456946.0,218.0
124,choice,choice,18,3.0,Large,2.0,7.308635916095227,Animal_Sea_Solid_Large,2,0,1,11458837.0,11459054.0,217.0
124,choice,choice,18,3.0,Large,2.0,7.308635916095227,Animal_Land_Solid_Large,0,0,1,11459099.0,11459374.0,275.0
124,choice,choice,18,3.0,Large,2.0,7.308635916095227,Animal_Sea_Pattern_Large,1,0,1,11460028.0,11460142.0,114.0
124,choice,choice,19,3.0,Land,1.0,9.900320040993392,Animal_Land_Solid_Large,0,0,1,11464500.0,11464535.0,35.0
124,choice,choice,19,3.0,Land,1.0,9.900320040993392,Object_Sea_Pattern_Small,3,0,0,11464543.0,11464853.0,310.0
124,choice,choice,19,3.0,Land,1.0,9.900320040993392,Animal_Land_Solid_Large,0,0,1,11464879.0,11465215.0,336.0
124,choice,choice,19,3.0,Land,1.0,9.900320040993392,Object_Land_Pattern_Small,4,0,1,11465489.0,11465976.0,487.0
124,choice,choice,19,3.0,Land,1.0,9.900320040993392,Object_Sea_Pattern_Small,3,0,0,11466937.0,11467238.0,301.0
124,choice,choice,19,3.0,Land,1.0,9.900320040993392,fixation,-1,1,0,11467260.0,11467602.0,342.0
124,choice,choice,19,3.0,Land,1.0,9.900320040993392,Animal_Sea_Pattern_Large,1,0,0,11468915.0,11469089.0,174.0
124,choice,choice,19,3.0,Land,1.0,9.900320040993392,fixation,-1,1,0,11469145.0,11469305.0,160.0
124,choice,choice,19,3.0,Land,1.0,9.900320040993392,Object_Land_Pattern_Small,4,0,1,11469336.0,11469653.0,317.0
124,choice,choice,19,3.0,Land,1.0,9.900320040993392,Object_Sea_Pattern_Small,3,0,0,11470337.0,11471011.0,674.0
124,choice,choice,19,3.0,Land,1.0,9.900320040993392,fixation,-1,1,0,11473121.0,11473228.0,107.0
124,choice,choice,20,3.0,Small,1.0,2.789628833066672,Object_Sea_Pattern_Small,3,0,1,11478520.0,11478809.0,289.0
124,choice,choice,20,3.0,Small,1.0,2.789628833066672,Animal_Land_Solid_Large,0,0,0,11478846.0,11478998.0,152.0
124,choice,choice,20,3.0,Small,1.0,2.789628833066672,Object_Sea_Pattern_Small,3,0,1,11479208.0,11479240.0,32.0
124,choice,choice,20,3.0,Small,1.0,2.789628833066672,Object_Land_Solid_Small,5,0,1,11479258.0,11479572.0,314.0
124,choice,choice,21,3.0,Sea,1.0,4.2266749169211835,Animal_Sea_Solid_Large,2,0,1,11483585.0,11483847.0,262.0
124,choice,choice,21,3.0,Sea,1.0,4.2266749169211835,Animal_Sea_Pattern_Large,1,0,1,11484845.0,11485032.0,187.0
124,choice,choice,21,3.0,Sea,1.0,4.2266749169211835,Object_Land_Solid_Small,5,0,0,11486159.0,11486277.0,118.0
124,choice,choice,21,3.0,Sea,1.0,4.2266749169211835,Animal_Sea_Pattern_Large,1,0,1,11486318.0,11486351.0,33.0
124,choice,choice,22,3.0,Object,1.0,3.519008707953617,Object_Land_Solid_Small,5,0,1,11492253.0,11492666.0,413.0
124,choice,choice,23,3.0,Solid,2.0,3.6820382501464337,Object_Land_Solid_Small,5,0,1,11499537.0,11499885.0,348.0
124,choice,choice,24,3.0,Pattern,1.0,2.235402249963954,Object_Land_Solid_Small,5,0,0,11504056.0,11504219.0,163.0
124,choice,choice,24,3.0,Pattern,1.0,2.235402249963954,fixation,-1,1,0,11504258.0,11504570.0,312.0
124,choice,choice,24,3.0,Pattern,1.0,2.235402249963954,Animal_Sea_Solid_Large,2,0,0,11504594.0,11504899.0,305.0
124,choice,choice,24,3.0,Pattern,1.0,2.235402249963954,Object_Land_Pattern_Small,4,0,1,11504941.0,11505145.0,204.0
124,choice,choice,25,4.0,Sea,2.0,8.310899875126779,Object_Sea_Solid_Large,0,0,1,11786487.0,11786705.0,218.0
124,choice,choice,25,4.0,Sea,2.0,8.310899875126779,Object_Sea_Pattern_Large,1,0,1,11786745.0,11786961.0,216.0
124,choice,choice,25,4.0,Sea,2.0,8.310899875126779,Object_Land_Pattern_Large,2,0,0,11787017.0,11787537.0,520.0
124,choice,choice,25,4.0,Sea,2.0,8.310899875126779,Animal_Sea_Solid_Small,3,0,1,11787567.0,11787679.0,112.0
124,choice,choice,25,4.0,Sea,2.0,8.310899875126779,Object_Sea_Pattern_Large,1,0,1,11787940.0,11788139.0,199.0
124,choice,choice,25,4.0,Sea,2.0,8.310899875126779,Object_Sea_Solid_Large,0,0,1,11788190.0,11789108.0,918.0
124,choice,choice,25,4.0,Sea,2.0,8.310899875126779,Object_Sea_Pattern_Large,1,0,1,11790873.0,11791013.0,140.0
124,choice,choice,25,4.0,Sea,2.0,8.310899875126779,Animal_Sea_Solid_Small,3,0,1,11791203.0,11791337.0,134.0
124,choice,choice,26,4.0,Solid,2.0,6.408277708105743,Animal_Land_Solid_Small,4,0,1,11796935.0,11797919.0,984.0
124,choice,choice,26,4.0,Solid,2.0,6.408277708105743,Animal_Land_Pattern_Small,5,0,0,11798241.0,11798583.0,342.0
124,choice,choice,26,4.0,Solid,2.0,6.408277708105743,Object_Sea_Solid_Large,0,0,1,11798623.0,11799011.0,388.0
124,choice,choice,26,4.0,Solid,2.0,6.408277708105743,Object_Sea_Pattern_Large,1,0,0,11800027.0,11800238.0,211.0
124,choice,choice,26,4.0,Solid,2.0,6.408277708105743,Animal_Sea_Solid_Small,3,0,1,11800285.0,11800444.0,159.0
124,choice,choice,26,4.0,Solid,2.0,6.408277708105743,Object_Sea_Solid_Large,0,0,1,11800701.0,11801231.0,530.0
124,choice,choice,26,4.0,Solid,2.0,6.408277708105743,Animal_Sea_Solid_Small,3,0,1,11801272.0,11801299.0,27.0
124,choice,choice,27,4.0,Land,1.0,10.529806750128046,Animal_Land_Solid_Small,4,0,1,11804407.0,11805321.0,914.0
124,choice,choice,27,4.0,Land,1.0,10.529806750128046,Animal_Land_Pattern_Small,5,0,1,11807082.0,11807869.0,787.0
124,choice,choice,27,4.0,Land,1.0,10.529806750128046,Object_Sea_Solid_Large,0,0,0,11808141.0,11808931.0,790.0
124,choice,choice,27,4.0,Land,1.0,10.529806750128046,Object_Sea_Pattern_Large,1,0,0,11809582.0,11810274.0,692.0
124,choice,choice,27,4.0,Land,1.0,10.529806750128046,Animal_Sea_Solid_Small,3,0,0,11810582.0,11811039.0,457.0
124,choice,choice,27,4.0,Land,1.0,10.529806750128046,fixation,-1,1,0,11811957.0,11812288.0,331.0
124,choice,choice,27,4.0,Land,1.0,10.529806750128046,Animal_Sea_Solid_Small,3,0,0,11812568.0,11812822.0,254.0
124,choice,choice,27,4.0,Land,1.0,10.529806750128046,Object_Sea_Solid_Large,0,0,0,11812856.0,11813231.0,375.0
124,choice,choice,27,4.0,Land,1.0,10.529806750128046,fixation,-1,1,0,11813270.0,11813511.0,241.0
124,choice,choice,27,4.0,Land,1.0,10.529806750128046,Animal_Land_Pattern_Small,5,0,1,11813546.0,11814231.0,685.0
124,choice,choice,28,4.0,Pattern,1.0,8.225823082961142,Object_Sea_Solid_Large,0,0,0,11817366.0,11817546.0,180.0
124,choice,choice,28,4.0,Pattern,1.0,8.225823082961142,fixation,-1,1,0,11817572.0,11817951.0,379.0
124,choice,choice,28,4.0,Pattern,1.0,8.225823082961142,Object_Sea_Pattern_Large,1,0,1,11818705.0,11818915.0,210.0
124,choice,choice,28,4.0,Pattern,1.0,8.225823082961142,fixation,-1,1,0,11818956.0,11819127.0,171.0
124,choice,choice,28,4.0,Pattern,1.0,8.225823082961142,Animal_Land_Pattern_Small,5,0,1,11819723.0,11819933.0,210.0
124,choice,choice,28,4.0,Pattern,1.0,8.225823082961142,Animal_Land_Solid_Small,4,0,0,11820151.0,11820501.0,350.0
124,choice,choice,28,4.0,Pattern,1.0,8.225823082961142,Animal_Land_Pattern_Small,5,0,1,11820536.0,11821006.0,470.0
124,choice,choice,28,4.0,Pattern,1.0,8.225823082961142,Object_Land_Pattern_Large,2,0,1,11821661.0,11822294.0,633.0
124,choice,choice,28,4.0,Pattern,1.0,8.225823082961142,Animal_Sea_Solid_Small,3,0,0,11822528.0,11822692.0,164.0
124,choice,choice,28,4.0,Pattern,1.0,8.225823082961142,Object_Sea_Pattern_Large,1,0,1,11824804.0,11825188.0,384.0
124,choice,choice,29,4.0,Small,2.0,3.615686791948974,Object_Sea_Pattern_Large,1,0,0,11828821.0,11829207.0,386.0
124,choice,choice,29,4.0,Small,2.0,3.615686791948974,Animal_Sea_Solid_Small,3,0,1,11831886.0,11831996.0,110.0
124,choice,choice,31,4.0,Large,2.0,11.626942625036463,Object_Sea_Pattern_Large,1,0,1,11842403.0,11842922.0,519.0
124,choice,choice,32,4.0,Object,2.0,14.836981457890944,Animal_Land_Pattern_Small,5,0,0,11860116.0,11860561.0,445.0
124,choice,choice,32,4.0,Object,2.0,14.836981457890944,Object_Sea_Solid_Large,0,0,1,11861152.0,11861437.0,285.0
124,choice,choice,32,4.0,Object,2.0,14.836981457890944,fixation,-1,1,0,11861455.0,11861606.0,151.0
124,choice,choice,32,4.0,Object,2.0,14.836981457890944,Object_Sea_Solid_Large,0,0,1,11861867.0,11863050.0,1183.0
124,choice,choice,32,4.0,Object,2.0,14.836981457890944,Object_Land_Pattern_Large,2,0,1,11864874.0,11866096.0,1222.0
124,choice,choice,32,4.0,Object,2.0,14.836981457890944,Object_Sea_Pattern_Large,1,0,1,11867541.0,11868101.0,560.0
124,choice,choice,32,4.0,Object,2.0,14.836981457890944,Object_Sea_Solid_Large,0,0,1,11869817.0,11869899.0,82.0
124,choice,choice,33,5.0,Pattern,1.0,4.635152000002563,Object_Land_Pattern_Large,0,0,1,12115556.0,12116548.0,992.0
124,choice,choice,33,5.0,Pattern,1.0,4.635152000002563,Animal_Sea_Solid_Small,1,0,0,12116793.0,12117059.0,266.0
124,choice,choice,33,5.0,Pattern,1.0,4.635152000002563,Object_Land_Solid_Large,2,0,0,12117080.0,12117278.0,198.0
124,choice,choice,33,5.0,Pattern,1.0,4.635152000002563,fixation,-1,1,0,12117310.0,12117532.0,222.0
124,choice,choice,33,5.0,Pattern,1.0,4.635152000002563,Animal_Sea_Pattern_Small,3,0,1,12117555.0,12118209.0,654.0
124,choice,choice,33,5.0,Pattern,1.0,4.635152000002563,fixation,-1,1,0,12118462.0,12118926.0,464.0
124,choice,choice,33,5.0,Pattern,1.0,4.635152000002563,Animal_Sea_Solid_Small,1,0,0,12118946.0,12119230.0,284.0
124,choice,choice,33,5.0,Pattern,1.0,4.635152000002563,fixation,-1,1,0,12119249.0,12119317.0,68.0
124,choice,choice,34,5.0,Animal,1.0,5.348868540953845,Animal_Land_Pattern_Large,4,0,1,12123177.0,12123352.0,175.0
124,choice,choice,34,5.0,Animal,1.0,5.348868540953845,Object_Sea_Solid_Small,5,0,0,12123400.0,12123557.0,157.0
124,choice,choice,34,5.0,Animal,1.0,5.348868540953845,Animal_Sea_Pattern_Small,3,0,1,12124244.0,12124841.0,597.0
124,choice,choice,34,5.0,Animal,1.0,5.348868540953845,Object_Sea_Solid_Small,5,0,0,12124914.0,12125602.0,688.0
124,choice,choice,34,5.0,Animal,1.0,5.348868540953845,Animal_Sea_Pattern_Small,3,0,1,12125633.0,12126390.0,757.0
124,choice,choice,34,5.0,Animal,1.0,5.348868540953845,Object_Land_Solid_Large,2,0,0,12126628.0,12127819.0,1191.0
124,choice,choice,34,5.0,Animal,1.0,5.348868540953845,Animal_Land_Pattern_Large,4,0,1,12127855.0,12128093.0,238.0
124,choice,choice,34,5.0,Animal,1.0,5.348868540953845,fixation,-1,1,0,12128127.0,12128394.0,267.0
124,choice,choice,35,5.0,Small,2.0,11.057337084086612,Animal_Sea_Solid_Small,1,0,1,12134537.0,12134773.0,236.0
124,choice,choice,35,5.0,Small,2.0,11.057337084086612,fixation,-1,1,0,12134802.0,12135227.0,425.0
124,choice,choice,35,5.0,Small,2.0,11.057337084086612,Animal_Sea_Pattern_Small,3,0,1,12135246.0,12135982.0,736.0
124,choice,choice,35,5.0,Small,2.0,11.057337084086612,Animal_Land_Pattern_Large,4,0,0,12136004.0,12136561.0,557.0
124,choice,choice,35,5.0,Small,2.0,11.057337084086612,Animal_Sea_Pattern_Small,3,0,1,12136864.0,12137002.0,138.0
124,choice,choice,35,5.0,Small,2.0,11.057337084086612,Object_Land_Solid_Large,2,0,0,12137636.0,12137666.0,30.0
124,choice,choice,35,5.0,Small,2.0,11.057337084086612,fixation,-1,1,0,12137888.0,12137938.0,50.0
124,choice,choice,35,5.0,Small,2.0,11.057337084086612,Animal_Land_Pattern_Large,4,0,0,12137946.0,12138043.0,97.0
124,choice,choice,35,5.0,Small,2.0,11.057337084086612,fixation,-1,1,0,12138065.0,12138467.0,402.0
124,choice,choice,35,5.0,Small,2.0,11.057337084086612,Animal_Sea_Pattern_Small,3,0,1,12138488.0,12138951.0,463.0
124,choice,choice,35,5.0,Small,2.0,11.057337084086612,Animal_Sea_Solid_Small,1,0,1,12138989.0,12139709.0,720.0
124,choice,choice,35,5.0,Small,2.0,11.057337084086612,fixation,-1,1,0,12139723.0,12140220.0,497.0
124,choice,choice,35,5.0,Small,2.0,11.057337084086612,Animal_Sea_Pattern_Small,3,0,1,12140253.0,12140368.0,115.0
124,choice,choice,35,5.0,Small,2.0,11.057337084086612,fixation,-1,1,0,12140582.0,12140935.0,353.0
124,choice,choice,35,5.0,Small,2.0,11.057337084086612,Animal_Sea_Solid_Small,1,0,1,12140959.0,12141183.0,224.0
124,choice,choice,35,5.0,Small,2.0,11.057337084086612,fixation,-1,1,0,12141206.0,12141502.0,296.0
124,choice,choice,35,5.0,Small,2.0,11.057337084086612,Animal_Sea_Pattern_Small,3,0,1,12141548.0,12141738.0,190.0
124,choice,choice,35,5.0,Small,2.0,11.057337084086612,Animal_Sea_Solid_Small,1,0,1,12142626.0,12142753.0,127.0
124,choice,choice,36,5.0,Sea,1.0,3.6594973751343782,fixation,-1,1,0,12145958.0,12146392.0,434.0
124,choice,choice,36,5.0,Sea,1.0,3.6594973751343782,Object_Land_Solid_Large,2,0,0,12148420.0,12148977.0,557.0
124,choice,choice,36,5.0,Sea,1.0,3.6594973751343782,fixation,-1,1,0,12149203.0,12149447.0,244.0
124,choice,choice,37,5.0,Solid,1.0,9.544286333024502,fixation,-1,1,0,12153015.0,12153934.0,919.0
124,choice,choice,37,5.0,Solid,1.0,9.544286333024502,Animal_Sea_Pattern_Small,3,0,0,12154656.0,12154810.0,154.0
124,choice,choice,37,5.0,Solid,1.0,9.544286333024502,Object_Sea_Solid_Small,5,0,1,12156396.0,12156462.0,66.0
124,choice,choice,37,5.0,Solid,1.0,9.544286333024502,fixation,-1,1,0,12156475.0,12156913.0,438.0
124,choice,choice,37,5.0,Solid,1.0,9.544286333024502,Animal_Sea_Solid_Small,1,0,1,12157235.0,12157362.0,127.0
124,choice,choice,37,5.0,Solid,1.0,9.544286333024502,Animal_Land_Pattern_Large,4,0,0,12157383.0,12157465.0,82.0
124,choice,choice,37,5.0,Solid,1.0,9.544286333024502,Animal_Sea_Pattern_Small,3,0,0,12157496.0,12157698.0,202.0
124,choice,choice,37,5.0,Solid,1.0,9.544286333024502,Animal_Sea_Solid_Small,1,0,1,12159022.0,12159380.0,358.0
124,choice,choice,37,5.0,Solid,1.0,9.544286333024502,Animal_Sea_Pattern_Small,3,0,0,12159433.0,12159582.0,149.0
124,choice,choice,37,5.0,Solid,1.0,9.544286333024502,Animal_Sea_Solid_Small,1,0,1,12161410.0,12161610.0,200.0
124,choice,choice,38,5.0,Object,1.0,9.31425595912151,fixation,-1,1,0,12169845.0,12170625.0,780.0
124,choice,choice,38,5.0,Object,1.0,9.31425595912151,Animal_Sea_Pattern_Small,3,0,0,12173500.0,12173551.0,51.0
124,choice,choice,38,5.0,Object,1.0,9.31425595912151,fixation,-1,1,0,12173563.0,12173795.0,232.0
124,choice,choice,38,5.0,Object,1.0,9.31425595912151,Object_Land_Solid_Large,2,0,1,12174590.0,12174972.0,382.0
124,choice,choice,38,5.0,Object,1.0,9.31425595912151,Animal_Sea_Solid_Small,1,0,0,12174998.0,12175181.0,183.0
124,choice,choice,39,5.0,Large,1.0,4.258673999924213,Animal_Sea_Pattern_Small,3,0,0,12180842.0,12181359.0,517.0
124,choice,choice,39,5.0,Large,1.0,4.258673999924213,fixation,-1,1,0,12181689.0,12181872.0,183.0
124,choice,choice,40,5.0,Land,2.0,0.680463416967541,fixation,-1,1,0,12186316.0,12186474.0,158.0
124,choice,choice,41,6.0,Large,1.0,13.443162499926984,Object_Land_Pattern_Small,0,0,0,12449676.0,12449961.0,285.0
124,choice,choice,41,6.0,Large,1.0,13.443162499926984,Animal_Land_Solid_Large,1,0,1,12450242.0,12450266.0,24.0
124,choice,choice,41,6.0,Large,1.0,13.443162499926984,fixation,-1,1,0,12450275.0,12450812.0,537.0
124,choice,choice,41,6.0,Large,1.0,13.443162499926984,Object_Land_Pattern_Small,0,0,0,12450856.0,12450987.0,131.0
124,choice,choice,41,6.0,Large,1.0,13.443162499926984,Animal_Sea_Solid_Large,2,0,1,12453588.0,12453781.0,193.0
124,choice,choice,41,6.0,Large,1.0,13.443162499926984,Animal_Sea_Pattern_Large,3,0,1,12458795.0,12459234.0,439.0
124,choice,choice,41,6.0,Large,1.0,13.443162499926984,Object_Sea_Pattern_Small,4,0,0,12462265.0,12462301.0,36.0
124,choice,choice,41,6.0,Large,1.0,13.443162499926984,fixation,-1,1,0,12462309.0,12462545.0,236.0
124,choice,choice,42,6.0,Land,1.0,6.493093915982172,Animal_Sea_Solid_Large,2,0,0,12469572.0,12469911.0,339.0
124,choice,choice,42,6.0,Land,1.0,6.493093915982172,Object_Land_Solid_Small,5,0,1,12471707.0,12472008.0,301.0
124,choice,choice,43,6.0,Solid,1.0,13.526903874939308,Animal_Land_Solid_Large,1,0,1,12478340.0,12478368.0,28.0
124,choice,choice,43,6.0,Solid,1.0,13.526903874939308,Animal_Sea_Solid_Large,2,0,1,12479933.0,12480146.0,213.0
124,choice,choice,43,6.0,Solid,1.0,13.526903874939308,Animal_Land_Solid_Large,1,0,1,12480191.0,12480771.0,580.0
124,choice,choice,43,6.0,Solid,1.0,13.526903874939308,Object_Sea_Pattern_Small,4,0,0,12480845.0,12481252.0,407.0
124,choice,choice,43,6.0,Solid,1.0,13.526903874939308,Object_Land_Pattern_Small,0,0,0,12481942.0,12482242.0,300.0
124,choice,choice,43,6.0,Solid,1.0,13.526903874939308,Object_Sea_Pattern_Small,4,0,0,12483064.0,12483226.0,162.0
124,choice,choice,43,6.0,Solid,1.0,13.526903874939308,Animal_Sea_Solid_Large,2,0,1,12483264.0,12483419.0,155.0
124,choice,choice,43,6.0,Solid,1.0,13.526903874939308,Animal_Land_Solid_Large,1,0,1,12483734.0,12483861.0,127.0
124,choice,choice,43,6.0,Solid,1.0,13.526903874939308,Object_Sea_Pattern_Small,4,0,0,12485617.0,12485847.0,230.0
124,choice,choice,43,6.0,Solid,1.0,13.526903874939308,Object_Land_Pattern_Small,0,0,0,12486467.0,12486809.0,342.0
124,choice,choice,43,6.0,Solid,1.0,13.526903874939308,Object_Sea_Pattern_Small,4,0,0,12486877.0,12487410.0,533.0
124,choice,choice,43,6.0,Solid,1.0,13.526903874939308,Animal_Sea_Pattern_Large,3,0,0,12488902.0,12489088.0,186.0
124,choice,choice,44,6.0,Small,1.0,25.87230516690761,Object_Land_Pattern_Small,0,0,1,12505380.0,12505511.0,131.0
124,choice,choice,44,6.0,Small,1.0,25.87230516690761,Animal_Sea_Solid_Large,2,0,0,12505792.0,12506136.0,344.0
124,choice,choice,44,6.0,Small,1.0,25.87230516690761,fixation,-1,1,0,12507149.0,12507291.0,142.0
124,choice,choice,44,6.0,Small,1.0,25.87230516690761,Object_Land_Solid_Small,5,0,1,12507607.0,12507964.0,357.0
124,choice,choice,44,6.0,Small,1.0,25.87230516690761,Animal_Sea_Solid_Large,2,0,0,12516998.0,12517147.0,149.0
124,choice,choice,44,6.0,Small,1.0,25.87230516690761,fixation,-1,1,0,12517179.0,12517514.0,335.0
124,choice,choice,45,6.0,Sea,1.0,14.783575458917769,Animal_Sea_Pattern_Large,3,0,1,12531676.0,12532556.0,880.0
124,choice,choice,45,6.0,Sea,1.0,14.783575458917769,Object_Land_Solid_Small,5,0,0,12534555.0,12534582.0,27.0
124,choice,choice,45,6.0,Sea,1.0,14.783575458917769,Animal_Sea_Solid_Large,2,0,1,12535313.0,12535354.0,41.0
124,choice,choice,46,6.0,Animal,2.0,2.9215352081228048,Animal_Land_Solid_Large,1,0,1,12540293.0,12540651.0,358.0
124,choice,choice,46,6.0,Animal,2.0,2.9215352081228048,Animal_Sea_Solid_Large,2,0,1,12540911.0,12541243.0,332.0
124,choice,choice,46,6.0,Animal,2.0,2.9215352081228048,Object_Land_Solid_Small,5,0,0,12541502.0,12541812.0,310.0
124,choice,choice,47,6.0,Pattern,2.0,10.300624124938622,Animal_Land_Solid_Large,1,0,0,12545926.0,12546094.0,168.0
124,choice,choice,47,6.0,Pattern,2.0,10.300624124938622,Animal_Sea_Pattern_Large,3,0,1,12547838.0,12548590.0,752.0
124,choice,choice,47,6.0,Pattern,2.0,10.300624124938622,Animal_Sea_Solid_Large,2,0,0,12551236.0,12551584.0,348.0
124,choice,choice,47,6.0,Pattern,2.0,10.300624124938622,Object_Land_Pattern_Small,0,0,1,12551625.0,12552223.0,598.0
124,choice,choice,47,6.0,Pattern,2.0,10.300624124938622,Animal_Sea_Solid_Large,2,0,0,12552463.0,12553291.0,828.0
124,choice,choice,47,6.0,Pattern,2.0,10.300624124938622,Animal_Sea_Pattern_Large,3,0,1,12554241.0,12554494.0,253.0
124,choice,choice,47,6.0,Pattern,2.0,10.300624124938622,Object_Land_Solid_Small,5,0,0,12554744.0,12555170.0,426.0
124,choice,choice,48,6.0,Object,2.0,12.475790333002806,Animal_Land_Solid_Large,1,0,0,12560095.0,12560127.0,32.0
124,choice,choice,48,6.0,Object,2.0,12.475790333002806,Object_Sea_Pattern_Small,4,0,1,12560137.0,12560354.0,217.0
124,choice,choice,48,6.0,Object,2.0,12.475790333002806,Object_Land_Pattern_Small,0,0,1,12560773.0,12561210.0,437.0
124,choice,choice,48,6.0,Object,2.0,12.475790333002806,Object_Land_Solid_Small,5,0,1,12563072.0,12563579.0,507.0
124,choice,choice,48,6.0,Object,2.0,12.475790333002806,Animal_Sea_Solid_Large,2,0,0,12563619.0,12563914.0,295.0
124,choice,choice,48,6.0,Object,2.0,12.475790333002806,Object_Land_Solid_Small,5,0,1,12565010.0,12565093.0,83.0
124,choice,choice,48,6.0,Object,2.0,12.475790333002806,Animal_Sea_Pattern_Large,3,0,0,12569750.0,12569935.0,185.0
124,choice,choice,48,6.0,Object,2.0,12.475790333002806,Object_Land_Pattern_Small,0,0,1,12569997.0,12570200.0,203.0
124,choice,choice,49,7.0,Small,2.0,11.382161292014644,Animal_Land_Pattern_Small,0,0,1,12822949.0,12823062.0,113.0
124,choice,choice,49,7.0,Small,2.0,11.382161292014644,Animal_Sea_Solid_Large,1,0,0,12824032.0,12824606.0,574.0
124,choice,choice,49,7.0,Small,2.0,11.382161292014644,Object_Sea_Pattern_Large,2,0,0,12825846.0,12825869.0,23.0
124,choice,choice,49,7.0,Small,2.0,11.382161292014644,Object_Land_Solid_Small,3,0,1,12825923.0,12826403.0,480.0
124,choice,choice,49,7.0,Small,2.0,11.382161292014644,Animal_Land_Pattern_Small,0,0,1,12826801.0,12826909.0,108.0
124,choice,choice,49,7.0,Small,2.0,11.382161292014644,Object_Sea_Pattern_Large,2,0,0,12828010.0,12828448.0,438.0
124,choice,choice,49,7.0,Small,2.0,11.382161292014644,Animal_Land_Pattern_Small,0,0,1,12828563.0,12828664.0,101.0
124,choice,choice,49,7.0,Small,2.0,11.382161292014644,Animal_Land_Solid_Large,4,0,0,12830007.0,12830266.0,259.0
124,choice,choice,49,7.0,Small,2.0,11.382161292014644,Animal_Land_Pattern_Small,0,0,1,12830299.0,12830588.0,289.0
124,choice,choice,49,7.0,Small,2.0,11.382161292014644,fixation,-1,1,0,12831723.0,12832633.0,910.0
124,choice,choice,49,7.0,Small,2.0,11.382161292014644,Animal_Land_Solid_Large,4,0,0,12832876.0,12833289.0,413.0
124,choice,choice,49,7.0,Small,2.0,11.382161292014644,Object_Land_Solid_Small,3,0,1,12833878.0,12834047.0,169.0
124,choice,choice,50,7.0,Pattern,1.0,12.895168792223558,Animal_Land_Pattern_Small,0,0,1,12838596.0,12838843.0,247.0
124,choice,choice,50,7.0,Pattern,1.0,12.895168792223558,fixation,-1,1,0,12838861.0,12839274.0,413.0
124,choice,choice,50,7.0,Pattern,1.0,12.895168792223558,Object_Land_Solid_Small,3,0,0,12839529.0,12840197.0,668.0
124,choice,choice,50,7.0,Pattern,1.0,12.895168792223558,Animal_Sea_Solid_Large,1,0,0,12840856.0,12842364.0,1508.0
124,choice,choice,50,7.0,Pattern,1.0,12.895168792223558,Object_Sea_Pattern_Large,2,0,1,12846363.0,12846762.0,399.0
124,choice,choice,50,7.0,Pattern,1.0,12.895168792223558,Animal_Sea_Solid_Large,1,0,0,12846795.0,12847193.0,398.0
124,choice,choice,50,7.0,Pattern,1.0,12.895168792223558,Object_Sea_Pattern_Large,2,0,1,12847216.0,12847866.0,650.0
124,choice,choice,50,7.0,Pattern,1.0,12.895168792223558,Animal_Sea_Solid_Large,1,0,0,12847897.0,12848266.0,369.0
124,choice,choice,50,7.0,Pattern,1.0,12.895168792223558,Animal_Land_Pattern_Small,0,0,1,12848299.0,12848938.0,639.0
124,choice,choice,50,7.0,Pattern,1.0,12.895168792223558,Object_Sea_Pattern_Small,5,0,1,12849190.0,12849622.0,432.0
124,choice,choice,50,7.0,Pattern,1.0,12.895168792223558,Object_Sea_Pattern_Large,2,0,1,12849656.0,12849842.0,186.0
124,choice,choice,50,7.0,Pattern,1.0,12.895168792223558,Object_Land_Solid_Small,3,0,0,12849867.0,12849999.0,132.0
124,choice,choice,51,7.0,Sea,1.0,4.0510471251327544,fixation,-1,1,0,12855141.0,12855348.0,207.0
124,choice,choice,51,7.0,Sea,1.0,4.0510471251327544,Animal_Sea_Solid_Large,1,0,1,12855363.0,12855571.0,208.0
124,choice,choice,51,7.0,Sea,1.0,4.0510471251327544,Object_Sea_Pattern_Small,5,0,1,12855617.0,12856377.0,760.0
124,choice,choice,51,7.0,Sea,1.0,4.0510471251327544,Animal_Sea_Solid_Large,1,0,1,12856597.0,12856641.0,44.0
124,choice,choice,51,7.0,Sea,1.0,4.0510471251327544,Object_Sea_Pattern_Large,2,0,1,12856648.0,12856935.0,287.0
124,choice,choice,51,7.0,Sea,1.0,4.0510471251327544,Object_Land_Solid_Small,3,0,0,12856979.0,12857138.0,159.0
124,choice,choice,52,7.0,Animal,2.0,10.007566415937616,Animal_Sea_Solid_Large,1,0,1,12867105.0,12867778.0,673.0
124,choice,choice,52,7.0,Animal,2.0,10.007566415937616,fixation,-1,1,0,12869315.0,12870390.0,1075.0
124,choice,choice,53,7.0,Land,2.0,15.985862874891607,Animal_Sea_Solid_Large,1,0,0,12874302.0,12874703.0,401.0
124,choice,choice,53,7.0,Land,2.0,15.985862874891607,Object_Sea_Pattern_Large,2,0,0,12876877.0,12877372.0,495.0
124,choice,choice,53,7.0,Land,2.0,15.985862874891607,Animal_Sea_Solid_Large,1,0,0,12880021.0,12880485.0,464.0
124,choice,choice,53,7.0,Land,2.0,15.985862874891607,fixation,-1,1,0,12880571.0,12881079.0,508.0
124,choice,choice,53,7.0,Land,2.0,15.985862874891607,Animal_Land_Solid_Large,4,0,1,12881132.0,12881457.0,325.0
124,choice,choice,53,7.0,Land,2.0,15.985862874891607,Object_Sea_Pattern_Small,5,0,0,12881472.0,12881730.0,258.0
124,choice,choice,53,7.0,Land,2.0,15.985862874891607,Animal_Sea_Solid_Large,1,0,0,12885113.0,12885554.0,441.0
124,choice,choice,53,7.0,Land,2.0,15.985862874891607,Object_Sea_Pattern_Large,2,0,0,12888735.0,12889046.0,311.0
124,choice,choice,53,7.0,Land,2.0,15.985862874891607,fixation,-1,1,0,12889085.0,12889450.0,365.0
124,choice,choice,54,7.0,Solid,2.0,19.262777084019035,Object_Sea_Pattern_Large,2,0,0,12892652.0,12893278.0,626.0
124,choice,choice,54,7.0,Solid,2.0,19.262777084019035,Animal_Land_Pattern_Small,0,0,0,12893568.0,12894049.0,481.0
124,choice,choice,54,7.0,Solid,2.0,19.262777084019035,Animal_Sea_Solid_Large,1,0,1,12894091.0,12894607.0,516.0
124,choice,choice,54,7.0,Solid,2.0,19.262777084019035,Animal_Land_Solid_Large,4,0,1,12894664.0,12895128.0,464.0
124,choice,choice,54,7.0,Solid,2.0,19.262777084019035,Object_Sea_Pattern_Large,2,0,0,12895358.0,12895828.0,470.0
124,choice,choice,54,7.0,Solid,2.0,19.262777084019035,Animal_Land_Pattern_Small,0,0,0,12896121.0,12896704.0,583.0
124,choice,choice,54,7.0,Solid,2.0,19.262777084019035,Animal_Sea_Solid_Large,1,0,1,12897374.0,12897681.0,307.0
124,choice,choice,54,7.0,Solid,2.0,19.262777084019035,fixation,-1,1,0,12898048.0,12898356.0,308.0
124,choice,choice,54,7.0,Solid,2.0,19.262777084019035,Object_Sea_Pattern_Large,2,0,0,12899255.0,12899955.0,700.0
124,choice,choice,54,7.0,Solid,2.0,19.262777084019035,Object_Land_Solid_Small,3,0,1,12901987.0,12902066.0,79.0
124,choice,choice,54,7.0,Solid,2.0,19.262777084019035,Animal_Land_Pattern_Small,0,0,0,12902824.0,12903732.0,908.0
124,choice,choice,54,7.0,Solid,2.0,19.262777084019035,Animal_Land_Solid_Large,4,0,1,12903841.0,12904064.0,223.0
124,choice,choice,54,7.0,Solid,2.0,19.262777084019035,Object_Sea_Pattern_Small,5,0,0,12904110.0,12904224.0,114.0
124,choice,choice,54,7.0,Solid,2.0,19.262777084019035,Object_Sea_Pattern_Large,2,0,0,12904432.0,12905448.0,1016.0
124,choice,choice,54,7.0,Solid,2.0,19.262777084019035,Animal_Land_Pattern_Small,0,0,0,12905518.0,12905838.0,320.0
124,choice,choice,54,7.0,Solid,2.0,19.262777084019035,fixation,-1,1,0,12906098.0,12906186.0,88.0
124,choice,choice,54,7.0,Solid,2.0,19.262777084019035,Object_Land_Solid_Small,3,0,1,12906198.0,12906501.0,303.0
124,choice,choice,54,7.0,Solid,2.0,19.262777084019035,Animal_Sea_Solid_Large,1,0,1,12908095.0,12908199.0,104.0
124,choice,choice,54,7.0,Solid,2.0,19.262777084019035,Animal_Land_Pattern_Small,0,0,0,12911120.0,12911267.0,147.0
124,choice,choice,55,7.0,Object,2.0,8.053591957781464,Object_Sea_Pattern_Large,2,0,1,12915434.0,12915614.0,180.0
124,choice,choice,55,7.0,Object,2.0,8.053591957781464,Object_Sea_Pattern_Small,5,0,1,12915655.0,12915683.0,28.0
124,choice,choice,55,7.0,Object,2.0,8.053591957781464,Object_Land_Solid_Small,3,0,1,12915702.0,12915904.0,202.0
124,choice,choice,55,7.0,Object,2.0,8.053591957781464,Object_Sea_Pattern_Small,5,0,1,12915939.0,12916107.0,168.0
124,choice,choice,55,7.0,Object,2.0,8.053591957781464,Animal_Land_Pattern_Small,0,0,0,12917996.0,12918233.0,237.0
124,choice,choice,55,7.0,Object,2.0,8.053591957781464,Object_Sea_Pattern_Large,2,0,1,12918892.0,12919357.0,465.0
124,choice,choice,55,7.0,Object,2.0,8.053591957781464,Animal_Sea_Solid_Large,1,0,0,12919399.0,12919752.0,353.0
124,choice,choice,55,7.0,Object,2.0,8.053591957781464,Object_Sea_Pattern_Large,2,0,1,12920802.0,12921354.0,552.0
124,choice,choice,55,7.0,Object,2.0,8.053591957781464,Object_Sea_Pattern_Small,5,0,1,12921427.0,12921677.0,250.0
124,choice,choice,55,7.0,Object,2.0,8.053591957781464,Object_Sea_Pattern_Large,2,0,1,12921697.0,12922055.0,358.0
124,choice,choice,55,7.0,Object,2.0,8.053591957781464,Animal_Sea_Solid_Large,1,0,0,12922074.0,12922136.0,62.0
124,choice,choice,55,7.0,Object,2.0,8.053591957781464,Object_Sea_Pattern_Large,2,0,1,12922381.0,12922742.0,361.0
124,choice,choice,55,7.0,Object,2.0,8.053591957781464,Animal_Sea_Solid_Large,1,0,0,12922769.0,12922874.0,105.0
124,choice,choice,56,7.0,Large,2.0,11.218154500005769,Animal_Land_Pattern_Small,0,0,0,12927425.0,12927957.0,532.0
124,choice,choice,56,7.0,Large,2.0,11.218154500005769,fixation,-1,1,0,12927977.0,12928445.0,468.0
124,choice,choice,56,7.0,Large,2.0,11.218154500005769,Animal_Land_Solid_Large,4,0,1,12928915.0,12929422.0,507.0
124,choice,choice,56,7.0,Large,2.0,11.218154500005769,Object_Sea_Pattern_Small,5,0,0,12929790.0,12930176.0,386.0
124,choice,choice,56,7.0,Large,2.0,11.218154500005769,Object_Land_Solid_Small,3,0,0,12930642.0,12930893.0,251.0
124,choice,choice,56,7.0,Large,2.0,11.218154500005769,Object_Sea_Pattern_Large,2,0,1,12930923.0,12931605.0,682.0
124,choice,choice,56,7.0,Large,2.0,11.218154500005769,Object_Land_Solid_Small,3,0,0,12933886.0,12934258.0,372.0
124,choice,choice,56,7.0,Large,2.0,11.218154500005769,Animal_Land_Pattern_Small,0,0,0,12934314.0,12934634.0,320.0
124,choice,choice,56,7.0,Large,2.0,11.218154500005769,Object_Sea_Pattern_Large,2,0,1,12935931.0,12936441.0,510.0
