phase,event,onset,offset,trial_number,game,image,outcome,choice,correct,rt,letter,match,response,option,true_value,true_position,recalled_position,
encoding,fixation,10.453917915932834,11.71802933292929,1,1,Object_Sea_Pattern_Large,7,,,,,,,,,,,
encoding,image,11.718141499906778,12.73714087496046,1,1,Object_Sea_Pattern_Large,7,,,,,,,,,,,
encoding,value,12.737266082898714,18.75379179092124,1,1,Object_Sea_Pattern_Large,7,,,,,,,,,,,
encoding,attention,18.753957374952734,21.771522874943912,1,1,Object_Sea_Pattern_Large,7,+7,1,1.7521135419374332,,,,,,,,
encoding,fixation,21.771681124926545,23.026670999941416,2,1,Object_Land_Pattern_Large,-2,,,,,,,,,,,
encoding,image,23.026785457972437,24.03866574994754,2,1,Object_Land_Pattern_Large,-2,,,,,,,,,,,
encoding,value,24.03877487499267,30.054610290913843,2,1,Object_Land_Pattern_Large,-2,,,,,,,,,,,
encoding,attention,30.054717832943425,33.07664191594813,2,1,Object_Land_Pattern_Large,-2,-2,1,1.1681676669977605,,,,,,,,
encoding,fixation,33.07679208298214,34.331774207996204,3,1,Animal_Land_Solid_Small,2,,,,,,,,,,,
encoding,image,34.331885332940146,35.342675582971424,3,1,Animal_Land_Solid_Small,2,,,,,,,,,,,
encoding,value,35.342800082988106,41.35454745788593,3,1,Animal_Land_Solid_Small,2,,,,,,,,,,,
encoding,attention,41.3546581659466,44.37630624999292,3,1,Animal_Land_Solid_Small,2,+2,1,0.8147139169741422,,,,,,,,
encoding,fixation,44.376453665900044,45.88143470790237,4,1,Animal_Sea_Solid_Small,2,,,,,,,,,,,
encoding,image,45.88155099994037,46.89256116596516,4,1,Animal_Sea_Solid_Small,2,,,,,,,,,,,
encoding,value,46.89266641589347,52.90374837489799,4,1,Animal_Sea_Solid_Small,2,,,,,,,,,,,
encoding,attention,52.90385541599244,55.9215180829633,4,1,Animal_Sea_Solid_Small,2,+2,1,0.8598931250162423,,,,,,,,
encoding,fixation,55.92165983293671,57.42665633291472,5,1,Object_Sea_Solid_Small,-6,,,,,,,,,,,
encoding,image,57.42679745797068,58.43816566595342,5,1,Object_Sea_Solid_Small,-6,,,,,,,,,,,
encoding,value,58.43827383290045,64.4493699579034,5,1,Object_Sea_Solid_Small,-6,,,,,,,,,,,
encoding,attention,64.44949166593142,67.50387199991383,5,1,Object_Sea_Solid_Small,-6,+2,0,0.9892658339813352,,,,,,,,
encoding,fixation,67.50404987495858,68.5091675829608,6,1,Animal_Land_Pattern_Large,-2,,,,,,,,,,,
encoding,image,68.50926533294842,69.52121020795312,6,1,Animal_Land_Pattern_Large,-2,,,,,,,,,,,
encoding,value,69.52138737495989,75.53270749992225,6,1,Animal_Land_Pattern_Large,-2,,,,,,,,,,,
encoding,attention,75.53284920798615,78.55342712497804,6,1,Animal_Land_Pattern_Large,-2,-2,1,0.9183625829173252,,,,,,,,
n-back,,,,1,1,,,,1,None,N,False,None,,,,,
n-back,,,,2,1,,,,1,None,N,False,None,,,,,
n-back,,,,3,1,,,,1,None,Z,False,None,,,,,
n-back,,,,4,1,,,,1,None,C,False,None,,,,,
n-back,,,,5,1,,,,1,None,X,False,None,,,,,
n-back,,,,6,1,,,,1,None,X,False,None,,,,,
n-back,,,,7,1,,,,1,None,N,False,None,,,,,
n-back,,,,8,1,,,,1,1.0508056660182774,X,True,1,,,,,
n-back,,,,9,1,,,,0,None,N,True,None,,,,,
n-back,,,,10,1,,,,1,None,B,False,None,,,,,
n-back,,,,11,1,,,,1,None,V,False,None,,,,,
n-back,,,,12,1,,,,1,None,X,False,None,,,,,
n-back,,,,13,1,,,,1,1.3187869159737602,V,True,1,,,,,
n-back,,,,14,1,,,,0,None,X,True,None,,,,,
n-back,,,,15,1,,,,0,None,V,True,None,,,,,
n-back,,,,16,1,,,,1,0.9088435410521924,X,True,1,,,,,
n-back,,,,17,1,,,,1,None,Z,False,None,,,,,
n-back,,,,18,1,,,,1,None,B,False,None,,,,,
n-back,,,,19,1,,,,0,1.3379935830598697,V,False,1,,,,,
n-back,,,,20,1,,,,1,0.7369674999499694,B,True,1,,,,,
n-back,,,,21,1,,,,1,None,B,False,None,,,,,
n-back,,,,22,1,,,,1,None,N,False,None,,,,,
n-back,,,,23,1,,,,1,None,C,False,None,,,,,
n-back,,,,24,1,,,,1,None,X,False,None,,,,,
n-back,,,,25,1,,,,1,None,Z,False,None,,,,,
n-back,,,,26,1,,,,1,None,V,False,None,,,,,
n-back,,,,27,1,,,,1,0.6542797080473974,Z,True,1,,,,,
n-back,,,,28,1,,,,1,1.103626583935693,V,True,1,,,,,
n-back,,,,29,1,,,,1,None,V,False,None,,,,,
n-back,,,,30,1,,,,0,None,V,True,None,,,,,
choice,fixation,156.5677975829458,157.57366670796182,1,1,,,,,,,,,Solid,,,,
choice,option,157.58337024995126,158.7469448329648,1,1,,,,,,,,,Solid,,,,
choice,choice,158.7470478329342,164.5470653329976,1,1,,,1,0,4.7884859999176115,,,,Solid,,,,
choice,fixation,164.54720599995926,165.3036792499479,2,1,,,,,,,,,Animal,,,,
choice,option,165.31299358292017,166.34095737489406,2,1,,,,,,,,,Animal,,,,
choice,choice,166.34107149997726,168.0240196249215,2,1,,,2,0,0.6733965410385281,,,,Animal,,,,
choice,fixation,168.02417074993718,169.02916233299766,3,1,,,,,,,,,Pattern,,,,
choice,option,169.03858637495432,170.06592758290935,3,1,,,,,,,,,Pattern,,,,
choice,choice,170.06606420793105,172.16301691590343,3,1,,,2,0,1.0876747090369463,,,,Pattern,,,,
choice,fixation,172.16314216598403,173.1700721658999,4,1,,,,,,,,,Small,,,,
choice,option,173.17918195796665,174.20571837492753,4,1,,,,,,,,,Small,,,,
choice,choice,174.2058280829806,176.57539962499868,4,1,,,1,0,1.3601528339786455,,,,Small,,,,
choice,fixation,176.5755397909088,178.08090149995405,5,1,,,,,,,,,Large,,,,
choice,option,178.08982820797246,179.11776979092974,5,1,,,,,,,,,Large,,,,
choice,choice,179.1178893749602,180.75771462498233,5,1,,,1,1,0.6304086659802124,,,,Large,,,,
choice,fixation,180.75785966590047,181.26280524989124,6,1,,,,,,,,,Land,,,,
choice,option,181.27172279090155,182.2983195829438,6,1,,,,,,,,,Land,,,,
choice,choice,182.298435374978,183.7643635829445,6,1,,,2,1,0.45550533407367766,,,,Land,,,,
choice,fixation,183.7644758329261,185.02141845796723,7,1,,,,,,,,,Sea,,,,
choice,option,185.0297571249539,186.05718758294825,7,1,,,,,,,,,Sea,,,,
choice,choice,186.05729037499987,188.41316399991047,7,1,,,1,1,1.3464429170126095,,,,Sea,,,,
choice,fixation,188.413286457886,189.42037474992685,8,1,,,,,,,,,Object,,,,
choice,option,189.4304595409194,190.45695370796602,8,1,,,,,,,,,Object,,,,
choice,choice,190.4570656249998,192.19487870798912,8,1,,,1,0,0.7286780839785933,,,,Object,,,,
memory,free_recall,271.9764028749196,303.67118641594425,0,1,,,,,,,,,,,,,
memory,value_recall,351.7972010829253,359.4225199999055,1,1,Animal_Land_Pattern_Large,,,,7.619477625004947,,,,,-2,,,
memory,value_recall,360.4710484999232,365.0137420829851,2,1,Object_Sea_Pattern_Large,,,,4.539217249955982,,,,,7,,,
memory,value_recall,366.3110835409025,372.5042040409753,3,1,Animal_Sea_Solid_Small,,,,6.189014125033282,,,,,2,,,
memory,value_recall,374.3006565409014,380.02357695798855,4,1,Object_Sea_Solid_Small,,,,5.718866041046567,,,,,-6,,,
memory,value_recall,381.3215222909348,390.52353445789777,5,1,Object_Land_Pattern_Large,,,,9.1977442499483,,,,,-2,,,
memory,value_recall,391.8203918749932,395.84582849999424,6,1,Animal_Land_Solid_Small,,,,4.021221249946393,,,,,2,,,
memory,spatial_recall,415.2892286248971,419.2200220829109,6,1,Animal_Land_Solid_Small,,,1,3.926876917015761,,,,,,"[0, -380]","[0, -380]",
memory,spatial_recall,421.0258397079306,425.4229081249796,6,1,Animal_Land_Pattern_Large,,,1,4.393174667027779,,,,,,"[0, 380]","[0, 380]",
memory,spatial_recall,426.47812733298633,429.9462260409491,6,1,Object_Sea_Solid_Small,,,1,3.465673292055726,,,,,,"[329, 189]","[329, 189]",
memory,spatial_recall,431.25364012492355,433.00507133291103,6,1,Animal_Sea_Solid_Small,,,1,1.7474882079986855,,,,,,"[-329, -190]","[-329, -190]",
memory,spatial_recall,434.81623645790387,436.98315212491434,6,1,Object_Sea_Pattern_Large,,,1,2.162729625008069,,,,,,"[329, -190]","[329, -190]",
memory,spatial_recall,439.0417995409807,440.72956591588445,6,1,Object_Land_Pattern_Large,,,1,1.683737250044942,,,,,,"[-329, 190]","[-329, 190]",
encoding,fixation,18.036918584024534,18.54537316702772,7,2,Animal_Sea_Pattern_Small,-3,,,,,,,,,,,
encoding,image,18.54549179202877,19.557536375010386,7,2,Animal_Sea_Pattern_Small,-3,,,,,,,,,,,
encoding,value,19.55764629202895,25.570798833970912,7,2,Animal_Sea_Pattern_Small,-3,,,,,,,,,,,
encoding,attention,25.570924333995208,28.589352209004574,7,2,Animal_Sea_Pattern_Small,-3,-3,1,1.5119249579729512,,,,,,,,
encoding,fixation,28.589507541968487,29.345053791999817,8,2,Animal_Sea_Pattern_Large,1,,,,,,,,,,,
encoding,image,29.345148875028826,30.35570308403112,8,2,Animal_Sea_Pattern_Large,1,,,,,,,,,,,
encoding,value,30.35581470897887,36.36898891697638,8,2,Animal_Sea_Pattern_Large,1,,,,,,,,,,,
encoding,attention,36.36908970901277,39.387152625015005,8,2,Animal_Sea_Pattern_Large,1,+1,1,0.856889458023943,,,,,,,,
encoding,fixation,39.387314875028096,40.14165454194881,9,2,Animal_Land_Solid_Large,3,,,,,,,,,,,
encoding,image,40.14175950002391,41.152939083985984,9,2,Animal_Land_Solid_Large,3,,,,,,,,,,,
encoding,value,41.153053291956894,47.165132167050615,9,2,Animal_Land_Solid_Large,3,,,,,,,,,,,
encoding,attention,47.165268667042255,50.18297600001097,9,2,Animal_Land_Solid_Large,3,+3,1,2.0115898749791086,,,,,,,,
encoding,fixation,50.18311895895749,51.68791787500959,10,2,Object_Land_Solid_Small,1,,,,,,,,,,,
encoding,image,51.688022959046066,52.6998574170284,10,2,Object_Land_Solid_Small,1,,,,,,,,,,,
encoding,value,52.700000292039476,58.71363370900508,10,2,Object_Land_Solid_Small,1,,,,,,,,,,,
encoding,attention,58.71375691704452,61.73350258404389,10,2,Object_Land_Solid_Small,1,+1,1,1.5834866249933839,,,,,,,,
encoding,fixation,61.733644417021424,63.23898808402009,11,2,Object_Sea_Solid_Large,-8,,,,,,,,,,,
encoding,image,63.23914166702889,64.2504524589749,11,2,Object_Sea_Solid_Large,-8,,,,,,,,,,,
encoding,value,64.25056225003209,70.26249245903455,11,2,Object_Sea_Solid_Large,-8,,,,,,,,,,,
encoding,attention,70.2626524589723,73.28249570901971,11,2,Object_Sea_Solid_Large,-8,-8,1,1.0671052079414949,,,,,,,,
encoding,fixation,73.28264270897489,74.7876058750553,12,2,Object_Land_Pattern_Small,-3,,,,,,,,,,,
encoding,image,74.787710124976,75.79885016696062,12,2,Object_Land_Pattern_Small,-3,,,,,,,,,,,
encoding,value,75.79897766700014,81.81078029202763,12,2,Object_Land_Pattern_Small,-3,,,,,,,,,,,
encoding,attention,81.81090541696176,84.82978204195388,12,2,Object_Land_Pattern_Small,-3,-3,1,1.3693621249403805,,,,,,,,
n-back,,,,31,2,,,,1,None,B,False,None,,,,,
n-back,,,,32,2,,,,0,None,X,True,None,,,,,
n-back,,,,33,2,,,,1,None,X,False,None,,,,,
n-back,,,,34,2,,,,1,None,B,False,None,,,,,
n-back,,,,35,2,,,,1,None,C,False,None,,,,,
n-back,,,,36,2,,,,1,0.4231086670188233,B,True,1,,,,,
n-back,,,,37,2,,,,1,None,X,False,None,,,,,
n-back,,,,38,2,,,,1,None,Z,False,None,,,,,
n-back,,,,39,2,,,,1,1.046141958096996,X,True,1,,,,,
n-back,,,,40,2,,,,1,None,V,False,None,,,,,
n-back,,,,41,2,,,,1,None,C,False,None,,,,,
n-back,,,,42,2,,,,1,0.4229403749341145,V,True,1,,,,,
n-back,,,,43,2,,,,1,None,Z,False,None,,,,,
n-back,,,,44,2,,,,1,None,X,False,None,,,,,
n-back,,,,45,2,,,,1,None,X,False,None,,,,,
n-back,,,,46,2,,,,1,0.7355020840186626,X,True,1,,,,,
n-back,,,,47,2,,,,1,None,B,False,None,,,,,
n-back,,,,48,2,,,,1,None,V,False,None,,,,,
n-back,,,,49,2,,,,1,None,N,False,None,,,,,
n-back,,,,50,2,,,,1,0.7517499580280855,V,True,1,,,,,
n-back,,,,51,2,,,,1,1.346404958050698,N,True,1,,,,,
n-back,,,,52,2,,,,0,None,V,True,None,,,,,
n-back,,,,53,2,,,,1,None,C,False,None,,,,,
n-back,,,,54,2,,,,0,None,V,True,None,,,,,
n-back,,,,55,2,,,,1,None,V,False,None,,,,,
n-back,,,,56,2,,,,1,0.7215742910047993,V,True,1,,,,,
n-back,,,,57,2,,,,1,None,B,False,None,,,,,
n-back,,,,58,2,,,,1,None,C,False,None,,,,,
n-back,,,,59,2,,,,1,None,N,False,None,,,,,
n-back,,,,60,2,,,,1,None,V,False,None,,,,,
choice,fixation,163.1607857090421,164.6645449589705,9,2,,,,,,,,,Object,,,,
choice,option,164.6732114170445,165.70113804202992,9,2,,,,,,,,,Object,,,,
choice,choice,165.7012405419955,187.1412100000307,9,2,,,2,1,20.42851304204669,,,,Object,,,,
choice,fixation,187.14133274997585,188.14623579196632,10,2,,,,,,,,,Land,,,,
choice,option,188.15489604196046,189.18097895896062,10,2,,,,,,,,,Land,,,,
choice,choice,189.18108091701288,210.24592787504662,10,2,,,1,1,20.05422416597139,,,,Land,,,,
choice,fixation,210.24606070900336,210.75103629205842,11,2,,,,,,,,,Pattern,,,,
choice,option,210.76096570899244,211.7876367920544,11,2,,,,,,,,,Pattern,,,,
choice,choice,211.78774066700134,248.36614137503784,11,2,,,1,0,35.56502737500705,,,,Pattern,,,,
choice,fixation,248.3662571250461,248.8717706670286,12,2,,,,,,,,,Large,,,,
choice,option,248.88084708398674,249.9068727500271,12,2,,,,,,,,,Large,,,,
choice,choice,249.90698045899626,258.3493703339482,12,2,,,2,1,7.432279833010398,,,,Large,,,,
choice,fixation,258.34948637499474,259.1047325839754,13,2,,,,,,,,,Small,,,,
choice,option,259.1140621670056,260.1404646249721,13,2,,,,,,,,,Small,,,,
choice,choice,260.14057579205837,268.74107029195875,13,2,,,1,0,7.590623209020123,,,,Small,,,,
choice,fixation,268.7411825839663,270.246915500029,14,2,,,,,,,,,Sea,,,,
choice,option,270.25523620902095,271.2815965419868,14,2,,,,,,,,,Sea,,,,
choice,choice,271.2817305419594,279.78902587504126,14,2,,,2,1,7.4975745000410825,,,,Sea,,,,
choice,fixation,279.7891379590146,281.0442406249931,15,2,,,,,,,,,Solid,,,,
choice,option,281.0535600420553,282.07948674994987,15,2,,,,,,,,,Solid,,,,
choice,choice,282.07959504204337,290.6614835419459,15,2,,,2,1,7.570487792021595,,,,Solid,,,,
choice,fixation,290.6616283749463,291.91656016698107,16,2,,,,,,,,,Animal,,,,
choice,option,291.9257343340432,292.9531885420438,16,2,,,,,,,,,Animal,,,,
choice,choice,292.95329508394934,306.18298533395864,16,2,,,1,1,12.218932209070772,,,,Animal,,,,
memory,free_recall,326.4685479589971,353.02546158398036,6,2,,,,,,,,,,,,,
memory,value_recall,364.5106850840384,370.4851309170481,7,2,Object_Land_Pattern_Small,,,,5.9699607089860365,,,,,-3,,,
memory,value_recall,372.0315145419445,375.54280291695613,8,2,Object_Land_Solid_Small,,,,3.5071897079469636,,,,,1,,,
memory,value_recall,377.08903516700957,381.3985358340433,9,2,Animal_Sea_Pattern_Large,,,,4.304704542038962,,,,,1,,,
memory,value_recall,382.6950732090045,385.3107838339638,10,2,Animal_Land_Solid_Large,,,,2.611620666924864,,,,,3,,,
memory,value_recall,386.35645383398514,394.7496154590044,11,2,Object_Sea_Solid_Large,,,,8.389908708981238,,,,,-8,,,
memory,value_recall,396.5465838339878,402.6133317500353,12,2,Animal_Sea_Pattern_Small,,,,6.062681791954674,,,,,-3,,,
memory,spatial_recall,408.2284575840458,414.4621992500033,12,2,Object_Sea_Solid_Large,,,1,6.229781500063837,,,,,,"[0, 380]","[0, 380]",
memory,spatial_recall,416.02682916703634,420.7787383750547,12,2,Animal_Sea_Pattern_Small,,,1,4.747848500031978,,,,,,"[-329, 190]","[-329, 190]",
memory,spatial_recall,422.0843232499901,424.2101423339918,12,2,Animal_Sea_Pattern_Large,,,1,2.121688707964495,,,,,,"[329, 189]","[329, 189]",
memory,spatial_recall,425.7680915419478,429.8453400840517,12,2,Object_Land_Pattern_Small,,,1,4.073174749966711,,,,,,"[0, -380]","[0, -380]",
memory,spatial_recall,431.40518329199404,433.6569521250203,12,2,Object_Land_Solid_Small,,,1,2.2466317910002545,,,,,,"[-329, -190]","[-329, -190]",
memory,spatial_recall,435.4643992499914,438.43738133402076,12,2,Animal_Land_Solid_Large,,,1,2.969121208996512,,,,,,"[329, -190]","[329, -190]",
encoding,fixation,9.437106917030178,10.943171499995515,13,3,Object_Land_Solid_Large,2,,,,,,,,,,,
encoding,image,10.943286875030026,11.953572375001386,13,3,Object_Land_Solid_Large,2,,,,,,,,,,,
encoding,value,11.953673499985598,17.966109792003408,13,3,Object_Land_Solid_Large,2,,,,,,,,,,,
encoding,attention,17.96624374995008,20.9858522079885,13,3,Object_Land_Solid_Large,2,+2,1,0.8352462919428945,,,,,,,,
encoding,fixation,20.985994625021704,21.740953291999176,14,3,Object_Sea_Pattern_Small,6,,,,,,,,,,,
encoding,image,21.741045792005025,22.752158457995392,14,3,Object_Sea_Pattern_Small,6,,,,,,,,,,,
encoding,value,22.752265707938932,28.764017625013366,14,3,Object_Sea_Pattern_Small,6,,,,,,,,,,,
encoding,attention,28.764153124997392,31.782604374922812,14,3,Object_Sea_Pattern_Small,6,+6,1,0.9093766250880435,,,,,,,,
encoding,fixation,31.78276620793622,33.287721999920905,15,3,Animal_Sea_Solid_Small,-9,,,,,,,,,,,
encoding,image,33.28782637498807,34.29894820798654,15,3,Animal_Sea_Solid_Small,-9,,,,,,,,,,,
encoding,value,34.29911641695071,40.31081574992277,15,3,Animal_Sea_Solid_Small,-9,,,,,,,,,,,
encoding,attention,40.310957332956605,43.328167791944,15,3,Animal_Sea_Solid_Small,-9,-9,1,1.0104107910301536,,,,,,,,
encoding,fixation,43.32831104192883,43.833360541961156,16,3,Animal_Land_Pattern_Small,6,,,,,,,,,,,
encoding,image,43.833475666935556,44.84443495795131,16,3,Animal_Land_Pattern_Small,6,,,,,,,,,,,
encoding,value,44.84456095797941,50.855512582929805,16,3,Animal_Land_Pattern_Small,6,,,,,,,,,,,
encoding,attention,50.85561450000387,53.86725516698789,16,3,Animal_Land_Pattern_Small,6,None,None,None,,,,,,,,
encoding,fixation,53.867432125029154,54.62285783293191,17,3,Object_Land_Pattern_Large,-9,,,,,,,,,,,
encoding,image,54.62299962493125,55.6356352919247,17,3,Object_Land_Pattern_Large,-9,,,,,,,,,,,
encoding,value,55.63575416698586,61.64868441701401,17,3,Object_Land_Pattern_Large,-9,,,,,,,,,,,
encoding,attention,61.64882687502541,64.67179945798125,17,3,Object_Land_Pattern_Large,-9,-9,1,0.8762346250005066,,,,,,,,
encoding,fixation,64.67195241700392,65.9271368329646,18,3,Animal_Sea_Solid_Large,8,,,,,,,,,,,
encoding,image,65.92729562497698,66.93857837491669,18,3,Animal_Sea_Solid_Large,8,,,,,,,,,,,
encoding,value,66.93869624997023,72.95034712494817,18,3,Animal_Sea_Solid_Large,8,,,,,,,,,,,
encoding,attention,72.95049449999351,75.96834508294705,18,3,Animal_Sea_Solid_Large,8,+8,1,0.6517495410516858,,,,,,,,
n-back,,,,61,3,,,,1,None,V,False,None,,,,,
n-back,,,,62,3,,,,0,None,X,True,None,,,,,
n-back,,,,63,3,,,,1,None,N,False,None,,,,,
n-back,,,,64,3,,,,1,None,C,False,None,,,,,
n-back,,,,65,3,,,,1,None,V,False,None,,,,,
n-back,,,,66,3,,,,1,None,B,False,None,,,,,
n-back,,,,67,3,,,,1,None,B,False,None,,,,,
n-back,,,,68,3,,,,1,0.5070666250539944,B,True,1,,,,,
n-back,,,,69,3,,,,1,None,N,False,None,,,,,
n-back,,,,70,3,,,,1,None,X,False,None,,,,,
n-back,,,,71,3,,,,1,None,X,False,None,,,,,
n-back,,,,72,3,,,,1,0.44195841695182025,X,True,1,,,,,
n-back,,,,73,3,,,,1,None,V,False,None,,,,,
n-back,,,,74,3,,,,1,0.5079082499723881,X,True,1,,,,,
n-back,,,,75,3,,,,1,1.17189400002826,V,True,1,,,,,
n-back,,,,76,3,,,,1,0.9469812921015546,X,True,1,,,,,
n-back,,,,77,3,,,,1,1.380585499922745,V,True,1,,,,,
n-back,,,,78,3,,,,1,None,B,False,None,,,,,
n-back,,,,79,3,,,,1,None,B,False,None,,,,,
n-back,,,,80,3,,,,1,0.5071532919537276,B,True,1,,,,,
n-back,,,,81,3,,,,1,1.2026237499667332,B,True,1,,,,,
n-back,,,,82,3,,,,1,None,X,False,None,,,,,
n-back,,,,83,3,,,,1,0.4073149999603629,B,True,1,,,,,
n-back,,,,84,3,,,,1,None,V,False,None,,,,,
n-back,,,,85,3,,,,1,None,Z,False,None,,,,,
n-back,,,,86,3,,,,1,None,X,False,None,,,,,
n-back,,,,87,3,,,,1,None,B,False,None,,,,,
n-back,,,,88,3,,,,1,None,Z,False,None,,,,,
n-back,,,,89,3,,,,1,None,N,False,None,,,,,
n-back,,,,90,3,,,,1,None,B,False,None,,,,,
choice,fixation,153.5469739169348,154.30025733297225,17,3,,,,,,,,,Small,,,,
choice,option,154.30892466695514,155.3342007920146,17,3,,,,,,,,,Small,,,,
choice,choice,155.33430574997328,178.50830170791596,17,3,,,2,0,22.162233207956888,,,,Small,,,,
choice,fixation,178.5084236669354,179.51407208293676,18,3,,,,,,,,,Large,,,,
choice,option,179.522492374992,180.54920000000857,18,3,,,,,,,,,Large,,,,
choice,choice,180.54930412501562,240.18154641694855,18,3,,,2,0,58.62011995795183,,,,Large,,,,
choice,fixation,240.18166366696823,241.4366922499612,19,3,,,,,,,,,Sea,,,,
choice,option,241.44502120802645,242.47156470792834,19,3,,,,,,,,,Sea,,,,
choice,choice,242.47169575002044,247.08448683295865,19,3,,,1,1,3.602947917068377,,,,Sea,,,,
choice,fixation,247.0846022919286,248.08940412499942,20,3,,,,,,,,,Land,,,,
choice,option,248.09811833302956,249.12467287492473,20,3,,,,,,,,,Land,,,,
choice,choice,249.12477833300363,258.60428529197816,20,3,,,1,0,8.469228250090964,,,,Land,,,,
choice,fixation,258.6044050420169,259.60950237500947,21,3,,,,,,,,,Object,,,,
choice,option,259.6190941670211,260.6481847920222,21,3,,,,,,,,,Object,,,,
choice,choice,260.64831404201686,279.95565716701094,21,3,,,2,1,18.296157957985997,,,,Object,,,,
choice,fixation,279.95577187498566,280.7110569169745,22,3,,,,,,,,,Solid,,,,
choice,option,280.7202535419492,281.7477772079874,22,3,,,,,,,,,Solid,,,,
choice,choice,281.74789512495045,306.4912225829903,22,3,,,1,1,23.731799916015007,,,,Solid,,,,
choice,fixation,306.49134649999905,307.49814358295407,23,3,,,,,,,,,Pattern,,,,
choice,option,307.5070348329609,308.5332596669905,23,3,,,,,,,,,Pattern,,,,
choice,choice,308.5333641669713,325.4615861249622,23,3,,,1,1,15.917514250031672,,,,Pattern,,,,
choice,fixation,325.4617177499458,326.4667848329991,24,3,,,,,,,,,Animal,,,,
choice,option,326.4762720420258,327.50264366692863,24,3,,,,,,,,,Animal,,,,
choice,choice,327.5027690419229,339.5533024169272,24,3,,,1,1,11.03945533290971,,,,Animal,,,,
memory,free_recall,352.7563084999565,369.90124958299566,12,3,,,,,,,,,,,,,
memory,value_recall,379.93933012499474,384.7335832499666,13,3,Animal_Land_Pattern_Small,,,,4.790911209071055,,,,,6,,,
memory,value_recall,386.53113262495026,388.5110597499879,14,3,Object_Land_Solid_Large,,,,1.9757162500172853,,,,,2,,,
memory,value_recall,389.8071282079909,393.64577233302407,15,3,Object_Sea_Pattern_Small,,,,3.8318663330283016,,,,,6,,,
memory,value_recall,395.69221512496006,399.3895594999194,16,3,Animal_Sea_Solid_Large,,,,3.692986416979693,,,,,8,,,
memory,value_recall,400.4351302079158,402.86930416699033,17,3,Object_Land_Pattern_Large,,,,2.4308993750019,,,,,-9,,,
memory,value_recall,403.91499712492805,410.09503162500914,18,3,Animal_Sea_Solid_Small,,,,6.176677208044566,,,,,-9,,,
memory,spatial_recall,417.44134274998214,420.3821909580147,18,3,Animal_Sea_Solid_Small,,,1,2.9342827920336276,,,,,,"[-329, -190]","[-329, -190]",
memory,spatial_recall,422.4422701250296,423.9278502080124,18,3,Object_Land_Solid_Large,,,1,1.4806476670783013,,,,,,"[329, -190]","[329, -190]",
memory,spatial_recall,425.74187199992593,433.65703875001054,18,3,Animal_Land_Pattern_Small,,,1,7.910039792070165,,,,,,"[329, 189]","[329, 189]",
memory,spatial_recall,434.9657690830063,436.73159966699313,18,3,Object_Land_Pattern_Large,,,1,1.7618202079320326,,,,,,"[-329, 190]","[-329, 190]",
memory,spatial_recall,438.5436319169821,440.9133155000163,18,3,Object_Sea_Pattern_Small,,,1,2.3656608749879524,,,,,,"[0, 380]","[0, 380]",
memory,spatial_recall,442.4693662079517,444.3308945830213,18,3,Animal_Sea_Solid_Large,,,1,1.8574969579931349,,,,,,"[0, -380]","[0, -380]",
encoding,fixation,6.675012208055705,7.1802613330073655,19,4,Animal_Land_Pattern_Large,8,,,,,,,,,,,
encoding,image,7.180449208011851,8.191993958083913,19,4,Animal_Land_Pattern_Large,8,,,,,,,,,,,
encoding,value,8.192103666020557,14.205983166000806,19,4,Animal_Land_Pattern_Large,8,,,,,,,,,,,
encoding,attention,14.20610829105135,17.224363291054033,19,4,Animal_Land_Pattern_Large,8,+8,1,0.7655467500444502,,,,,,,,
encoding,fixation,17.22451016609557,17.72970345802605,20,4,Object_Sea_Solid_Small,5,,,,,,,,,,,
encoding,image,17.729807208059356,18.740420291083865,20,4,Object_Sea_Solid_Small,5,,,,,,,,,,,
encoding,value,18.740525541012175,24.751791583024897,20,4,Object_Sea_Solid_Small,5,,,,,,,,,,,
encoding,attention,24.75190879101865,27.770297125098296,20,4,Object_Sea_Solid_Small,5,+5,1,0.653410958009772,,,,,,,,
encoding,fixation,27.77052633301355,28.775782375014387,21,4,Animal_Land_Solid_Small,-1,,,,,,,,,,,
encoding,image,28.775880916044116,29.78699333302211,21,4,Animal_Land_Solid_Small,-1,,,,,,,,,,,
encoding,value,29.787109333090484,35.79928270808887,21,4,Animal_Land_Solid_Small,-1,,,,,,,,,,,
encoding,attention,35.79939150006976,38.81582795805298,21,4,Animal_Land_Solid_Small,-1,-1,1,1.264675416983664,,,,,,,,
encoding,fixation,38.81597491609864,40.324075040989555,22,4,Object_Sea_Pattern_Large,-1,,,,,,,,,,,
encoding,image,40.3241885000607,41.33563400001731,22,4,Object_Sea_Pattern_Large,-1,,,,,,,,,,,
encoding,value,41.335758375003934,47.34716712508816,22,4,Object_Sea_Pattern_Large,-1,,,,,,,,,,,
encoding,attention,47.34730274998583,50.36544754100032,22,4,Object_Sea_Pattern_Large,-1,-1,1,0.6708649169886485,,,,,,,,
encoding,fixation,50.3656794159906,50.870934166014194,23,4,Animal_Sea_Solid_Small,-5,,,,,,,,,,,
encoding,image,50.87103487504646,51.88275091606192,23,4,Animal_Sea_Solid_Small,-5,,,,,,,,,,,
encoding,value,51.882874875096604,57.894600916071795,23,4,Animal_Sea_Solid_Small,-5,,,,,,,,,,,
encoding,attention,57.89471650007181,60.91115995799191,23,4,Animal_Sea_Solid_Small,-5,-5,1,0.6665762920165434,,,,,,,,
encoding,fixation,60.91129950003233,61.66677512507886,24,4,Object_Land_Pattern_Large,-1,,,,,,,,,,,
encoding,image,61.66689470806159,62.67855200008489,24,4,Object_Land_Pattern_Large,-1,,,,,,,,,,,
encoding,value,62.67865745804738,68.69081666599959,24,4,Object_Land_Pattern_Large,-1,,,,,,,,,,,
encoding,attention,68.69094300002325,71.71079720801208,24,4,Object_Land_Pattern_Large,-1,-1,1,0.798647916992195,,,,,,,,
n-back,,,,91,4,,,,1,None,X,False,None,,,,,
n-back,,,,92,4,,,,1,None,Z,False,None,,,,,
n-back,,,,93,4,,,,1,None,V,False,None,,,,,
n-back,,,,94,4,,,,1,1.083367208018899,Z,True,1,,,,,
n-back,,,,95,4,,,,1,0.7216432919958606,V,True,1,,,,,
n-back,,,,96,4,,,,1,0.6368646660121158,Z,True,1,,,,,
n-back,,,,97,4,,,,1,0.5413738338975236,V,True,1,,,,,
n-back,,,,98,4,,,,1,0.4621332089882344,Z,True,1,,,,,
n-back,,,,99,4,,,,1,None,C,False,None,,,,,
n-back,,,,100,4,,,,1,None,C,False,None,,,,,
n-back,,,,101,4,,,,1,0.3855755419936031,C,True,1,,,,,
n-back,,,,102,4,,,,1,None,B,False,None,,,,,
n-back,,,,103,4,,,,1,None,Z,False,None,,,,,
n-back,,,,104,4,,,,1,None,Z,False,None,,,,,
n-back,,,,105,4,,,,1,0.5704732500016689,Z,True,1,,,,,
n-back,,,,106,4,,,,1,None,V,False,None,,,,,
n-back,,,,107,4,,,,1,None,X,False,None,,,,,
n-back,,,,108,4,,,,1,0.42389650002587587,V,True,1,,,,,
n-back,,,,109,4,,,,1,None,B,False,None,,,,,
n-back,,,,110,4,,,,1,None,B,False,None,,,,,
n-back,,,,111,4,,,,1,None,C,False,None,,,,,
n-back,,,,112,4,,,,1,0.49013237503822893,B,True,1,,,,,
n-back,,,,113,4,,,,1,None,B,False,None,,,,,
n-back,,,,114,4,,,,1,None,V,False,None,,,,,
n-back,,,,115,4,,,,1,0.5320272500393912,B,True,1,,,,,
n-back,,,,116,4,,,,1,None,N,False,None,,,,,
n-back,,,,117,4,,,,1,None,V,False,None,,,,,
n-back,,,,118,4,,,,1,None,B,False,None,,,,,
n-back,,,,119,4,,,,1,None,N,False,None,,,,,
n-back,,,,120,4,,,,1,None,C,False,None,,,,,
choice,fixation,145.8012133750599,147.3056836250471,25,4,,,,,,,,,Solid,,,,
choice,option,147.31487220805138,148.34178591601085,25,4,,,,,,,,,Solid,,,,
choice,choice,148.34188729105517,226.781069166027,25,4,,,2,1,77.4158242919948,,,,Solid,,,,
choice,fixation,226.78121799998917,227.5366165000014,26,4,,,,,,,,,Land,,,,
choice,option,227.5459582080366,228.5742084160447,26,4,,,,,,,,,Land,,,,
choice,choice,228.57431754108984,248.55108833301347,26,4,,,1,1,18.965493542025797,,,,Land,,,,
choice,fixation,248.55120149999857,250.05656966601964,27,4,,,,,,,,,Object,,,,
choice,option,250.06593283300754,251.09262258303352,27,4,,,,,,,,,Object,,,,
choice,choice,251.0927848330466,282.40190320799593,27,4,,,1,1,30.297704834025353,,,,Object,,,,
choice,fixation,282.40202083298936,283.1573115410283,28,4,,,,,,,,,Pattern,,,,
choice,option,283.167118708021,284.1947717079893,28,4,,,,,,,,,Pattern,,,,
choice,choice,284.194896333036,312.76265195803717,28,4,,,1,1,27.556774249998853,,,,Pattern,,,,
choice,fixation,312.7627664580941,313.7681781660067,29,4,,,,,,,,,Animal,,,,
choice,option,313.77887975005433,314.8069518749835,29,4,,,,,,,,,Animal,,,,
choice,choice,314.80712083308026,321.61359283304773,29,4,,,1,1,5.796859125024639,,,,Animal,,,,
choice,fixation,321.6137414580444,322.61908270802815,30,4,,,,,,,,,Large,,,,
choice,option,322.62797862500884,323.656951416051,30,4,,,,,,,,,Large,,,,
choice,choice,323.6570524160052,339.8810301250778,30,4,,,1,1,15.213187291985378,,,,Large,,,,
choice,fixation,339.8811665000394,340.3862382500665,31,4,,,,,,,,,Sea,,,,
choice,option,340.39565108309034,341.4237392080249,31,4,,,,,,,,,Sea,,,,
choice,choice,341.4238470410928,355.72817737504374,31,4,,,2,1,13.293373082997277,,,,Sea,,,,
choice,fixation,355.7283804999897,356.7338523750659,32,4,,,,,,,,,Small,,,,
choice,option,356.74323241598904,357.769883583067,32,4,,,,,,,,,Small,,,,
choice,choice,357.7700019580079,369.07028358301613,32,4,,,2,1,10.289345124969259,,,,Small,,,,
memory,free_recall,383.75433229107875,413.11264775006566,18,4,,,,,,,,,,,,,
memory,value_recall,420.25267758301925,423.9585403330857,19,4,Object_Sea_Pattern_Large,,,,3.7017099160002545,,,,,-1,,,
memory,value_recall,426.0065320410067,428.168146083015,20,4,Object_Sea_Solid_Small,,,,2.1574779170332476,,,,,5,,,
memory,value_recall,430.2140117500676,432.0097820830997,21,4,Animal_Land_Solid_Small,,,,1.7917572910664603,,,,,-1,,,
memory,value_recall,433.5560181660112,435.66471654106863,22,4,Animal_Sea_Solid_Small,,,,2.104278041049838,,,,,-5,,,
memory,value_recall,437.2103368330281,439.39985195803456,23,4,Animal_Land_Pattern_Large,,,,2.1849339170148596,,,,,8,,,
memory,value_recall,441.44463425001595,443.60643012507353,24,4,Object_Land_Pattern_Large,,,,2.156392125063576,,,,,-1,,,
memory,spatial_recall,447.60176137508824,451.42593975004274,24,4,Animal_Sea_Solid_Small,,,1,3.8200615000678226,,,,,,"[-329, -190]","[-329, -190]",
memory,spatial_recall,452.7336115000071,454.3025541250827,24,4,Object_Sea_Solid_Small,,,1,1.5648925409186631,,,,,,"[329, 189]","[329, 189]",
memory,spatial_recall,455.6068100000266,458.0821284999838,24,4,Object_Sea_Pattern_Large,,,1,2.4712415829999372,,,,,,"[329, -190]","[329, -190]",
memory,spatial_recall,459.6414250410162,462.8730885410914,24,4,Animal_Land_Solid_Small,,,1,3.2275654580444098,,,,,,"[0, -380]","[0, -380]",
memory,spatial_recall,464.68286208307836,467.3024835829856,24,4,Object_Land_Pattern_Large,,,1,2.613243166008033,,,,,,"[-329, 190]","[-329, 190]",
memory,spatial_recall,468.35728683299385,470.0355904160533,24,4,Animal_Land_Pattern_Large,,,1,1.6758482080185786,,,,,,"[0, 380]","[0, 380]",
encoding,fixation,8.38881308294367,9.897908375016414,25,5,Object_Sea_Solid_Large,-6,,,,,,,,,,,
encoding,image,9.898026666021906,10.91303879104089,25,5,Object_Sea_Solid_Large,-6,,,,,,,,,,,
encoding,value,10.913147332961671,16.929217541008256,25,5,Object_Sea_Solid_Large,-6,,,,,,,,,,,
encoding,attention,16.929333250038326,19.947505500051193,25,5,Object_Sea_Solid_Large,-6,-6,1,0.7276729160221294,,,,,,,,
encoding,fixation,19.947649708017707,20.452739333035424,26,5,Animal_Sea_Pattern_Large,6,,,,,,,,,,,
encoding,image,20.452856832998805,21.463131000055,26,5,Animal_Sea_Pattern_Large,6,,,,,,,,,,,
encoding,value,21.463315290980972,27.473996457993053,26,5,Animal_Sea_Pattern_Large,6,,,,,,,,,,,
encoding,attention,27.474185958039016,30.492901999969035,26,5,Animal_Sea_Pattern_Large,6,+6,1,0.7366697090910748,,,,,,,,
encoding,fixation,30.493049790966325,30.999255083035678,27,5,Object_Land_Solid_Small,6,,,,,,,,,,,
encoding,image,30.999357832944952,32.01339850004297,27,5,Object_Land_Solid_Small,6,,,,,,,,,,,
encoding,value,32.013522124965675,38.02588170801755,27,5,Object_Land_Solid_Small,6,,,,,,,,,,,
encoding,attention,38.02601233299356,41.04342941602226,27,5,Object_Land_Solid_Small,6,+6,1,0.5068228750023991,,,,,,,,
encoding,fixation,41.043571416055784,41.549118750030175,28,5,Animal_Sea_Pattern_Small,-3,,,,,,,,,,,
encoding,image,41.54922616598196,42.56352079100907,28,5,Animal_Sea_Pattern_Small,-3,,,,,,,,,,,
encoding,value,42.56362920801621,48.575169165967964,28,5,Animal_Sea_Pattern_Small,-3,,,,,,,,,,,
encoding,attention,48.575386208016425,51.59266020799987,28,5,Animal_Sea_Pattern_Small,-3,-3,1,0.6812223750166595,,,,,,,,
encoding,fixation,51.59281862503849,52.34787466598209,29,5,Animal_Land_Solid_Large,-1,,,,,,,,,,,
encoding,image,52.348050624947064,53.360055207973346,29,5,Animal_Land_Solid_Large,-1,,,,,,,,,,,
encoding,value,53.36015433294233,59.372536874958314,29,5,Animal_Land_Solid_Large,-1,,,,,,,,,,,
encoding,attention,59.37271545804106,62.390461749979295,29,5,Animal_Land_Solid_Large,-1,-1,1,0.6779560410650447,,,,,,,,
encoding,fixation,62.390664665959775,63.14750099997036,30,5,Object_Land_Pattern_Small,-1,,,,,,,,,,,
encoding,image,63.14763599995058,64.15914454101585,30,5,Object_Land_Pattern_Small,-1,,,,,,,,,,,
encoding,value,64.15924850001466,70.17096420796588,30,5,Object_Land_Pattern_Small,-1,,,,,,,,,,,
encoding,attention,70.17110212496482,73.18905579100829,30,5,Object_Land_Pattern_Small,-1,-1,1,0.6955109999980778,,,,,,,,
n-back,,,,121,5,,,,1,None,N,False,None,,,,,
n-back,,,,122,5,,,,0,None,B,True,None,,,,,
n-back,,,,123,5,,,,1,None,V,False,None,,,,,
n-back,,,,124,5,,,,1,None,Z,False,None,,,,,
n-back,,,,125,5,,,,1,0.9111550829838961,V,True,1,,,,,
n-back,,,,126,5,,,,1,None,B,False,None,,,,,
n-back,,,,127,5,,,,1,None,X,False,None,,,,,
n-back,,,,128,5,,,,1,None,C,False,None,,,,,
n-back,,,,129,5,,,,1,0.6832444579340518,X,True,1,,,,,
n-back,,,,130,5,,,,1,0.8840735000558197,C,True,1,,,,,
n-back,,,,131,5,,,,1,None,C,False,None,,,,,
n-back,,,,132,5,,,,1,None,B,False,None,,,,,
n-back,,,,133,5,,,,1,None,X,False,None,,,,,
n-back,,,,134,5,,,,1,0.7473457499872893,B,True,1,,,,,
n-back,,,,135,5,,,,1,None,N,False,None,,,,,
n-back,,,,136,5,,,,1,None,X,False,None,,,,,
n-back,,,,137,5,,,,1,None,V,False,None,,,,,
n-back,,,,138,5,,,,1,None,V,False,None,,,,,
n-back,,,,139,5,,,,1,None,N,False,None,,,,,
n-back,,,,140,5,,,,1,None,B,False,None,,,,,
n-back,,,,141,5,,,,1,None,B,False,None,,,,,
n-back,,,,142,5,,,,1,0.46100041700992733,B,True,1,,,,,
n-back,,,,143,5,,,,1,None,Z,False,None,,,,,
n-back,,,,144,5,,,,1,None,Z,False,None,,,,,
n-back,,,,145,5,,,,1,0.4325407079886645,Z,True,1,,,,,
n-back,,,,146,5,,,,1,None,X,False,None,,,,,
n-back,,,,147,5,,,,1,None,B,False,None,,,,,
n-back,,,,148,5,,,,1,0.417130040936172,X,True,1,,,,,
n-back,,,,149,5,,,,1,0.748894292046316,B,True,1,,,,,
n-back,,,,150,5,,,,1,0.5848031669156626,X,True,1,,,,,
choice,fixation,147.98283750005066,148.73710129095707,33,5,,,,,,,,,Large,,,,
choice,option,148.7454942909535,149.77418512501754,33,5,,,,,,,,,Large,,,,
choice,choice,149.77430262498092,214.17992858297657,33,5,,,2,1,63.394805374904536,,,,Large,,,,
choice,fixation,214.18004704103805,215.435215333011,34,5,,,,,,,,,Sea,,,,
choice,option,215.44419733295217,216.47140216594562,34,5,,,,,,,,,Sea,,,,
choice,choice,216.47150562494062,226.9737370830262,34,5,,,2,1,9.491680709063075,,,,Sea,,,,
choice,fixation,226.97386270796414,228.47952708299272,35,5,,,,,,,,,Object,,,,
choice,option,228.48886325000785,229.51785295794252,35,5,,,,,,,,,Object,,,,
choice,choice,229.5179573330097,266.5806225410197,35,5,,,2,1,36.05053441703785,,,,Object,,,,
choice,fixation,266.5807495410554,268.085879500024,36,5,,,,,,,,,Land,,,,
choice,option,268.09535891597625,269.1216417499818,36,5,,,,,,,,,Land,,,,
choice,choice,269.12174904101994,293.10119120799936,36,5,,,1,1,22.96788699994795,,,,Land,,,,
choice,fixation,293.1013395830523,294.1062671659747,37,5,,,,,,,,,Small,,,,
choice,option,294.1153481659712,295.1412347080186,37,5,,,,,,,,,Small,,,,
choice,choice,295.14133791602217,326.0442948329728,37,5,,,1,1,29.891133249970153,,,,Small,,,,
choice,fixation,326.04441779095214,327.2994839999592,38,5,,,,,,,,,Solid,,,,
choice,option,327.3090183750028,328.33626195800025,38,5,,,,,,,,,Solid,,,,
choice,choice,328.3363732909784,360.00550983299036,38,5,,,2,1,30.658428499940783,,,,Solid,,,,
choice,fixation,360.00570379104465,360.7606104159495,39,5,,,,,,,,,Animal,,,,
choice,option,360.76974100002553,361.7964281250024,39,5,,,,,,,,,Animal,,,,
choice,choice,361.7965260409983,374.00157966604456,39,5,,,1,1,11.19474137504585,,,,Animal,,,,
choice,fixation,374.001691875048,375.25639204098843,40,5,,,,,,,,,Pattern,,,,
choice,option,375.26562495797407,376.29314349999186,40,5,,,,,,,,,Pattern,,,,
choice,choice,376.29325483297,390.35776449996047,40,5,,,1,1,13.053318749996834,,,,Pattern,,,,
memory,free_recall,403.2143613330554,461.0392736659851,24,5,,,,,,,,,,,,,
memory,value_recall,465.8876109579578,470.11753245803993,25,5,Animal_Sea_Pattern_Large,,,,4.225672833039425,,,,,6,,,
memory,value_recall,471.6641805409454,474.51496633305214,26,5,Object_Sea_Solid_Large,,,,2.8463161670370027,,,,,-6,,,
memory,value_recall,475.81206366594415,478.2480962499976,27,5,Object_Land_Solid_Small,,,,2.431379209039733,,,,,6,,,
memory,value_recall,480.04355295794085,481.9177545000566,28,5,Animal_Sea_Pattern_Small,,,,1.8701065829955041,,,,,-3,,,
memory,value_recall,483.71422791597433,486.92708616598975,29,5,Object_Land_Pattern_Small,,,,3.2086849169572815,,,,,-1,,,
memory,value_recall,488.724508290994,490.85535570804495,30,5,Animal_Land_Solid_Large,,,,2.1267124169971794,,,,,-1,,,
memory,spatial_recall,493.98108104104176,498.2296338749584,30,5,Object_Land_Pattern_Small,,,1,4.2454890420194715,,,,,,"[0, -380]","[0, -380]",
memory,spatial_recall,500.04491399996914,501.97534612496383,30,5,Object_Land_Solid_Small,,,1,1.926308957976289,,,,,,"[-329, -190]","[-329, -190]",
memory,spatial_recall,504.03430466598365,508.39178041601554,30,5,Object_Sea_Solid_Large,,,1,4.353435750002973,,,,,,"[0, 380]","[0, 380]",
memory,spatial_recall,510.19887166598346,513.0755060409429,30,5,Animal_Land_Solid_Large,,,1,2.8721304170321673,,,,,,"[329, -190]","[329, -190]",
memory,spatial_recall,514.6274126250064,516.3588812500238,30,5,Animal_Sea_Pattern_Large,,,1,1.7274254589574412,,,,,,"[329, 189]","[329, 189]",
memory,spatial_recall,517.9137344999472,521.0472613329766,30,5,Animal_Sea_Pattern_Small,,,1,3.1294242090079933,,,,,,"[-329, 190]","[-329, 190]",
encoding,fixation,8.941343749989755,9.450444375048392,31,6,Object_Land_Solid_Large,3,,,,,,,,,,,
encoding,image,9.450560708064586,10.461436417070217,31,6,Object_Land_Solid_Large,3,,,,,,,,,,,
encoding,value,10.461556041962467,16.474818667047657,31,6,Object_Land_Solid_Large,3,,,,,,,,,,,
encoding,attention,16.47493695805315,19.493107249960303,31,6,Object_Land_Solid_Large,3,+3,1,0.7643209589878097,,,,,,,,
encoding,fixation,19.49325962504372,20.749238332966343,32,6,Animal_Land_Pattern_Small,3,,,,,,,,,,,
encoding,image,20.749343042029068,21.76083954202477,32,6,Animal_Land_Pattern_Small,3,,,,,,,,,,,
encoding,value,21.76101962500252,27.77232783299405,32,6,Animal_Land_Pattern_Small,3,,,,,,,,,,,
encoding,attention,27.772436041967012,30.79081120796036,32,6,Animal_Land_Pattern_Small,3,+3,1,0.8678078750381246,,,,,,,,
encoding,fixation,30.790965707972646,31.54618670803029,33,6,Animal_Sea_Solid_Large,3,,,,,,,,,,,
encoding,image,31.546305541996844,32.55757950001862,33,6,Animal_Sea_Solid_Large,3,,,,,,,,,,,
encoding,value,32.557681292062625,38.569087208015844,33,6,Animal_Sea_Solid_Large,3,,,,,,,,,,,
encoding,attention,38.56918674998451,41.58630012499634,33,6,Animal_Sea_Solid_Large,3,+3,1,0.6654750000452623,,,,,,,,
encoding,fixation,41.58644558303058,42.09181124996394,34,6,Object_Land_Pattern_Large,-8,,,,,,,,,,,
encoding,image,42.09191091696266,43.103063332964666,34,6,Object_Land_Pattern_Large,-8,,,,,,,,,,,
encoding,value,43.10316104197409,49.11588675004896,34,6,Object_Land_Pattern_Large,-8,,,,,,,,,,,
encoding,attention,49.115998542052694,52.13472895801533,34,6,Object_Land_Pattern_Large,-8,-8,1,0.7644830420613289,,,,,,,,
encoding,fixation,52.1348655000329,52.89000958297402,35,6,Object_Sea_Pattern_Small,1,,,,,,,,,,,
encoding,image,52.89011341705918,53.90201566705946,35,6,Object_Sea_Pattern_Small,1,,,,,,,,,,,
encoding,value,53.90213408297859,59.915178333059885,35,6,Object_Sea_Pattern_Small,1,,,,,,,,,,,
encoding,attention,59.915335417026654,62.933174750069156,35,6,Object_Sea_Pattern_Small,1,+1,1,1.1485416669165716,,,,,,,,
encoding,fixation,62.933323250035755,64.1883732919814,36,6,Animal_Sea_Solid_Small,-9,,,,,,,,,,,
encoding,image,64.1884721670067,65.19925941701513,36,6,Animal_Sea_Solid_Small,-9,,,,,,,,,,,
encoding,value,65.19938283297233,71.21101879200432,36,6,Animal_Sea_Solid_Small,-9,,,,,,,,,,,
encoding,attention,71.21117854199838,74.22886862501036,36,6,Animal_Sea_Solid_Small,-9,-9,1,0.6119991670129821,,,,,,,,
n-back,,,,151,6,,,,1,None,C,False,None,,,,,
n-back,,,,152,6,,,,0,None,X,True,None,,,,,
n-back,,,,153,6,,,,1,None,N,False,None,,,,,
n-back,,,,154,6,,,,1,0.6246366669656709,X,True,1,,,,,
n-back,,,,155,6,,,,1,0.6101788330124691,N,True,1,,,,,
n-back,,,,156,6,,,,1,None,N,False,None,,,,,
n-back,,,,157,6,,,,1,0.46461949998047203,N,True,1,,,,,
n-back,,,,158,6,,,,1,None,V,False,None,,,,,
n-back,,,,159,6,,,,1,None,B,False,None,,,,,
n-back,,,,160,6,,,,1,None,Z,False,None,,,,,
n-back,,,,161,6,,,,1,None,C,False,None,,,,,
n-back,,,,162,6,,,,1,None,B,False,None,,,,,
n-back,,,,163,6,,,,1,None,Z,False,None,,,,,
n-back,,,,164,6,,,,0,0.8202379159629345,C,False,1,,,,,
n-back,,,,165,6,,,,1,None,B,False,None,,,,,
n-back,,,,166,6,,,,1,0.4753779169404879,C,True,1,,,,,
n-back,,,,167,6,,,,1,None,Z,False,None,,,,,
n-back,,,,168,6,,,,1,None,B,False,None,,,,,
n-back,,,,169,6,,,,1,None,B,False,None,,,,,
n-back,,,,170,6,,,,1,0.40588595799636096,B,True,1,,,,,
n-back,,,,171,6,,,,1,None,N,False,None,,,,,
n-back,,,,172,6,,,,1,0.6261208750074729,B,True,1,,,,,
n-back,,,,173,6,,,,1,None,X,False,None,,,,,
n-back,,,,174,6,,,,1,None,X,False,None,,,,,
n-back,,,,175,6,,,,1,0.4762004589429125,X,True,1,,,,,
n-back,,,,176,6,,,,1,0.7471744170179591,X,True,1,,,,,
n-back,,,,177,6,,,,1,None,N,False,None,,,,,
n-back,,,,178,6,,,,1,None,V,False,None,,,,,
n-back,,,,179,6,,,,1,None,Z,False,None,,,,,
n-back,,,,180,6,,,,1,0.5572297499747947,V,True,1,,,,,
choice,fixation,147.3877925419947,148.1415698750643,41,6,,,,,,,,,Sea,,,,
choice,option,148.1498292919714,149.1774475419661,41,6,,,,,,,,,Sea,,,,
choice,choice,149.17756670806557,179.45416866696905,41,6,,,2,1,29.26367916702293,,,,Sea,,,,
choice,fixation,179.45430041698273,180.45950800005812,42,6,,,,,,,,,Small,,,,
choice,option,180.46835904195905,181.49443149997387,42,6,,,,,,,,,Small,,,,
choice,choice,181.49455775006209,195.22740937501658,42,6,,,2,1,12.722204916994087,,,,Small,,,,
choice,fixation,195.2275383330416,195.73253525001928,43,6,,,,,,,,,Animal,,,,
choice,option,195.74173883302137,196.7690676250495,43,6,,,,,,,,,Animal,,,,
choice,choice,196.76920808304567,208.73884054203518,43,6,,,2,1,10.958686417085119,,,,Animal,,,,
choice,fixation,208.7389823750127,209.24426679196768,44,6,,,,,,,,,Pattern,,,,
choice,option,209.25331974995788,210.28221750003286,44,6,,,,,,,,,Pattern,,,,
choice,choice,210.28232270805165,231.90778537502047,44,6,,,2,1,20.614885124959983,,,,Pattern,,,,
choice,fixation,231.90791279205587,233.41315929195844,45,6,,,,,,,,,Large,,,,
choice,option,233.42194812500384,234.44960241706576,45,6,,,,,,,,,Large,,,,
choice,choice,234.44976079196204,269.76670258305967,45,6,,,2,1,34.303816208965145,,,,Large,,,,
choice,fixation,269.7668390000472,270.7718947500689,46,6,,,,,,,,,Object,,,,
choice,option,270.78198624996,271.80801174999215,46,6,,,,,,,,,Object,,,,
choice,choice,271.80811308301054,357.51615237502847,46,6,,,2,1,84.69415454100817,,,,Object,,,,
choice,fixation,357.5163000000175,358.27132679196075,47,6,,,,,,,,,Land,,,,
choice,option,358.28038454195485,359.3077055000467,47,6,,,,,,,,,Land,,,,
choice,choice,359.3078221670585,404.19585816701874,47,6,,,2,1,43.87406579207163,,,,Land,,,,
choice,fixation,404.19599870801903,405.2011212919606,48,6,,,,,,,,,Solid,,,,
choice,option,405.2103498750366,406.23673408303875,48,6,,,,,,,,,Solid,,,,
choice,choice,406.236849833047,420.3077152080368,48,6,,,2,1,13.06009066698607,,,,Solid,,,,
memory,free_recall,427.7870566250058,463.5097910830518,30,6,,,,,,,,,,,,,
memory,value_recall,470.23206333303824,482.7899431249825,31,6,Object_Sea_Pattern_Small,,,,12.553205957985483,,,,,1,,,
memory,value_recall,484.3378352919826,486.58190637500957,32,6,Object_Land_Pattern_Large,,,,2.2397068749414757,,,,,-8,,,
memory,value_recall,487.87818833300844,489.70899683306925,33,6,Animal_Sea_Solid_Small,,,,1.8267507500713691,,,,,-9,,,
memory,value_recall,491.50617195805535,493.0316756670363,34,6,Object_Land_Solid_Large,,,,1.521312917000614,,,,,3,,,
memory,value_recall,494.06593404198065,495.61968200001866,35,6,Animal_Land_Pattern_Small,,,,1.5505387920420617,,,,,3,,,
memory,value_recall,497.41528054198716,499.7667365829693,36,6,Animal_Sea_Solid_Large,,,,2.347290250007063,,,,,3,,,
memory,spatial_recall,503.9202265830245,506.5256924580317,36,6,Animal_Land_Pattern_Small,,,1,2.6003773330012336,,,,,,"[329, 189]","[329, 189]",
memory,spatial_recall,507.83340483298525,509.2078931250144,36,6,Animal_Sea_Solid_Small,,,1,1.3704089580569416,,,,,,"[-329, -190]","[-329, -190]",
memory,spatial_recall,510.7612019999651,513.5309982920298,36,6,Object_Land_Solid_Large,,,1,2.7657713330117986,,,,,,"[329, -190]","[329, -190]",
memory,spatial_recall,515.0868654169608,516.5822899170453,36,6,Animal_Sea_Solid_Large,,,1,1.4913954999065027,,,,,,"[0, -380]","[0, -380]",
memory,spatial_recall,518.1434360420099,519.3579737079563,36,6,Object_Sea_Pattern_Small,,,1,1.209876750013791,,,,,,"[0, 380]","[0, 380]",
memory,spatial_recall,520.6590816669632,521.9810564169893,36,6,Object_Land_Pattern_Large,,,1,1.31709937506821,,,,,,"[-329, 190]","[-329, 190]",
encoding,fixation,6.6990298749879,8.205496957991272,37,7,Object_Land_Pattern_Small,5,,,,,,,,,,,
encoding,image,8.205605665920302,9.217157208011486,37,7,Object_Land_Pattern_Small,5,,,,,,,,,,,
encoding,value,9.217323582968675,15.231169375008903,37,7,Object_Land_Pattern_Small,5,,,,,,,,,,,
encoding,attention,15.23128520802129,18.2516760409344,37,7,Object_Land_Pattern_Small,5,+5,1,0.5592894169967622,,,,,,,,
encoding,fixation,18.25189891597256,19.507221375009976,38,7,Animal_Sea_Pattern_Large,-1,,,,,,,,,,,
encoding,image,19.507331874920055,20.517328582936898,38,7,Animal_Sea_Pattern_Large,-1,,,,,,,,,,,
encoding,value,20.517433499917388,26.52974008291494,38,7,Animal_Sea_Pattern_Large,-1,,,,,,,,,,,
encoding,attention,26.529856249922886,29.5466777079273,38,7,Animal_Sea_Pattern_Large,-1,-1,1,0.6455357919912785,,,,,,,,
encoding,fixation,29.54683520796243,30.80213741597254,39,7,Animal_Sea_Pattern_Small,-1,,,,,,,,,,,
encoding,image,30.80228283291217,31.813008665922098,39,7,Animal_Sea_Pattern_Small,-1,,,,,,,,,,,
encoding,value,31.813109332928434,37.82487895793747,39,7,Animal_Sea_Pattern_Small,-1,,,,,,,,,,,
encoding,attention,37.824991624918766,40.84204762498848,39,7,Animal_Sea_Pattern_Small,-1,-1,1,1.1262673330493271,,,,,,,,
encoding,fixation,40.84219925000798,41.34724874992389,40,7,Animal_Land_Solid_Large,3,,,,,,,,,,,
encoding,image,41.347352999961004,42.35976449993905,40,7,Animal_Land_Solid_Large,3,,,,,,,,,,,
encoding,value,42.359865957987495,48.37213649996556,40,7,Animal_Land_Solid_Large,3,,,,,,,,,,,
encoding,attention,48.37224466598127,51.38963720796164,40,7,Animal_Land_Solid_Large,3,+3,1,0.7314325830666348,,,,,,,,
encoding,fixation,51.38977333297953,52.147363124997355,41,7,Object_Sea_Solid_Large,6,,,,,,,,,,,
encoding,image,52.147512165945955,53.15933062497061,41,7,Object_Sea_Solid_Large,6,,,,,,,,,,,
encoding,value,53.15947708301246,59.171685290988535,41,7,Object_Sea_Solid_Large,6,,,,,,,,,,,
encoding,attention,59.17180229094811,62.19139104092028,41,7,Object_Sea_Solid_Large,6,+6,1,0.5051368329441175,,,,,,,,
encoding,fixation,62.191530582960695,62.94729691592511,42,7,Object_Land_Solid_Small,-7,,,,,,,,,,,
encoding,image,62.94743037491571,63.958263457985595,42,7,Object_Land_Solid_Small,-7,,,,,,,,,,,
encoding,value,63.95838266599458,69.97018012497574,42,7,Object_Land_Solid_Small,-7,,,,,,,,,,,
encoding,attention,69.97030620800797,72.98765304090921,42,7,Object_Land_Solid_Small,-7,-7,1,0.7664778339676559,,,,,,,,
n-back,,,,181,7,,,,1,None,X,False,None,,,,,
n-back,,,,182,7,,,,0,None,X,True,None,,,,,
n-back,,,,183,7,,,,1,0.3612379169790074,X,True,1,,,,,
n-back,,,,184,7,,,,1,0.5487219580681995,X,True,1,,,,,
n-back,,,,185,7,,,,1,None,N,False,None,,,,,
n-back,,,,186,7,,,,1,None,V,False,None,,,,,
n-back,,,,187,7,,,,1,None,Z,False,None,,,,,
n-back,,,,188,7,,,,1,0.7499376250198111,V,True,1,,,,,
n-back,,,,189,7,,,,1,1.0760850420920178,Z,True,1,,,,,
n-back,,,,190,7,,,,1,None,B,False,None,,,,,
n-back,,,,191,7,,,,1,None,C,False,None,,,,,
n-back,,,,192,7,,,,1,None,Z,False,None,,,,,
n-back,,,,193,7,,,,1,None,V,False,None,,,,,
n-back,,,,194,7,,,,1,None,B,False,None,,,,,
n-back,,,,195,7,,,,0,None,V,True,None,,,,,
n-back,,,,196,7,,,,1,None,N,False,None,,,,,
n-back,,,,197,7,,,,1,0.3811939579900354,V,True,1,,,,,
n-back,,,,198,7,,,,1,None,X,False,None,,,,,
n-back,,,,199,7,,,,1,None,B,False,None,,,,,
n-back,,,,200,7,,,,1,0.4638113749679178,X,True,1,,,,,
n-back,,,,201,7,,,,1,None,N,False,None,,,,,
n-back,,,,202,7,,,,1,None,Z,False,None,,,,,
n-back,,,,203,7,,,,1,None,X,False,None,,,,,
n-back,,,,204,7,,,,1,0.5771367920096964,Z,True,1,,,,,
n-back,,,,205,7,,,,1,None,V,False,None,,,,,
n-back,,,,206,7,,,,1,None,C,False,None,,,,,
n-back,,,,207,7,,,,1,None,N,False,None,,,,,
n-back,,,,208,7,,,,1,0.7858390409965068,C,True,1,,,,,
n-back,,,,209,7,,,,1,None,X,False,None,,,,,
n-back,,,,210,7,,,,1,None,B,False,None,,,,,
choice,fixation,147.9913306660019,148.7445419159485,49,7,,,,,,,,,Animal,,,,
choice,option,148.75368854100816,149.78013216599356,49,7,,,,,,,,,Animal,,,,
choice,choice,149.78025383292697,196.69119787495583,49,7,,,1,1,45.8990796249127,,,,Animal,,,,
choice,fixation,196.69131958298385,197.44643000001088,50,7,,,,,,,,,Pattern,,,,
choice,option,197.4555459159892,198.48243895801716,50,7,,,,,,,,,Pattern,,,,
choice,choice,198.48254649993032,351.77823345793877,50,7,,,2,0,152.27615637495182,,,,Pattern,,,,
choice,fixation,351.7784889580216,352.28395750001073,51,7,,,,,,,,,Solid,,,,
choice,option,352.29620116599835,353.3262723329244,51,7,,,,,,,,,Solid,,,,
choice,choice,353.32638220791705,382.2195357499877,51,7,,,1,1,27.881936499965377,,,,Solid,,,,
choice,fixation,382.2196573750116,383.7252486249199,52,7,,,,,,,,,Object,,,,
choice,option,383.7349772499874,384.7634019579273,52,7,,,,,,,,,Object,,,,
choice,choice,384.763527291012,400.33592837501783,52,7,,,1,1,14.560738582978956,,,,Object,,,,
choice,fixation,400.3360741659999,401.3415989159839,53,7,,,,,,,,,Large,,,,
choice,option,401.3516118749976,402.38033641595393,53,7,,,,,,,,,Large,,,,
choice,choice,402.38043824990746,421.5852081249468,53,7,,,1,1,18.19422562501859,,,,Large,,,,
choice,fixation,421.5853290829109,422.59061125002336,54,7,,,,,,,,,Sea,,,,
choice,option,422.59933862497564,423.6275612079771,54,7,,,,,,,,,Sea,,,,
choice,choice,423.62767374992836,439.7711190410191,54,7,,,1,1,15.132721500005573,,,,Sea,,,,
choice,fixation,439.7712578329956,441.2763691250002,55,7,,,,,,,,,Small,,,,
choice,option,441.28580266598146,442.31376595795155,55,7,,,,,,,,,Small,,,,
choice,choice,442.3138846249785,454.5021158750169,55,7,,,2,1,11.176918874960393,,,,Small,,,,
choice,fixation,454.50223191594705,455.50721458299085,56,7,,,,,,,,,Land,,,,
choice,option,455.51580962492153,456.5426492909901,56,7,,,,,,,,,Land,,,,
choice,choice,456.5428309579147,470.572335749981,56,7,,,1,1,13.018781541963108,,,,Land,,,,
memory,free_recall,480.7890900829807,518.3003864159109,36,7,,,,,,,,,,,,,
memory,value_recall,524.9928869159194,528.4347505000187,37,7,Object_Sea_Solid_Large,,,,3.4376984169939533,,,,,6,,,
memory,value_recall,529.4815013749758,532.9077821659157,38,7,Animal_Sea_Pattern_Small,,,,3.422898125019856,,,,,-1,,,
memory,value_recall,534.9536846659612,545.0951896659099,39,7,Animal_Sea_Pattern_Large,,,,10.137037792010233,,,,,-1,,,
memory,value_recall,546.6429599159164,548.9792564999079,40,7,Object_Land_Pattern_Small,,,,2.3319934169994667,,,,,5,,,
memory,value_recall,550.2759092079941,552.6527702909661,41,7,Animal_Land_Solid_Large,,,,2.372774292016402,,,,,3,,,
memory,value_recall,554.1979677909985,558.0856901659863,42,7,Object_Land_Solid_Small,,,,3.882661834009923,,,,,-7,,,
memory,spatial_recall,563.9911408330081,566.2388986659935,42,7,Object_Land_Solid_Small,,,1,2.24347508396022,,,,,,"[-329, -190]","[-329, -190]",
memory,spatial_recall,567.5478068749653,568.7826567499433,42,7,Animal_Sea_Pattern_Large,,,1,1.2308444159571081,,,,,,"[329, 189]","[329, 189]",
memory,spatial_recall,570.5929580000229,572.2420660000062,42,7,Object_Land_Pattern_Small,,,1,1.6450869999825954,,,,,,"[0, -380]","[0, -380]",
memory,spatial_recall,574.3016932909377,576.6563820409356,42,7,Animal_Land_Solid_Large,,,1,2.3506087500136346,,,,,,"[329, -190]","[329, -190]",
memory,spatial_recall,577.7130748329218,579.5393083329545,42,7,Object_Sea_Solid_Large,,,1,1.823467709007673,,,,,,"[0, 380]","[0, 380]",
memory,spatial_recall,580.597212457913,582.7566748749232,42,7,Animal_Sea_Pattern_Small,,,1,2.1553635000018403,,,,,,"[-329, 190]","[-329, 190]",
