subject,phase,event,trial_number,game,option,choice,rt,roi_content,item_index,is_center,is_relevant,fix_start,fix_end,fix_duration_bounded
146,choice,choice,9,2.0,Object,2.0,20.42851304204669,Object_Sea_Solid_Large,0,0,1,2643105.0,2643585.0,480.0
146,choice,choice,9,2.0,Object,2.0,20.42851304204669,Animal_Sea_Pattern_Small,1,0,0,2643968.0,2644337.0,369.0
146,choice,choice,9,2.0,Object,2.0,20.42851304204669,fixation,-1,1,0,2644630.0,2645251.0,621.0
146,choice,choice,9,2.0,Object,2.0,20.42851304204669,Animal_Sea_Pattern_Large,2,0,0,2645321.0,2645613.0,292.0
146,choice,choice,9,2.0,Object,2.0,20.42851304204669,Object_Land_Solid_Small,3,0,1,2646278.0,2646566.0,288.0
146,choice,choice,9,2.0,Object,2.0,20.42851304204669,fixation,-1,1,0,2647839.0,2648044.0,205.0
146,choice,choice,9,2.0,Object,2.0,20.42851304204669,Animal_Sea_Pattern_Large,2,0,0,2648097.0,2648363.0,266.0
146,choice,choice,9,2.0,Object,2.0,20.42851304204669,Object_Sea_Solid_Large,0,0,1,2648388.0,2648658.0,270.0
146,choice,choice,9,2.0,Object,2.0,20.42851304204669,Animal_Sea_Pattern_Large,2,0,0,2648681.0,2648885.0,204.0
146,choice,choice,9,2.0,Object,2.0,20.42851304204669,Object_Land_Solid_Small,3,0,1,2648925.0,2649547.0,622.0
146,choice,choice,9,2.0,Object,2.0,20.42851304204669,fixation,-1,1,0,2649570.0,2649835.0,265.0
146,choice,choice,9,2.0,Object,2.0,20.42851304204669,Object_Land_Solid_Small,3,0,1,2649859.0,2650077.0,218.0
146,choice,choice,9,2.0,Object,2.0,20.42851304204669,Animal_Sea_Pattern_Small,1,0,0,2650330.0,2650398.0,68.0
146,choice,choice,9,2.0,Object,2.0,20.42851304204669,fixation,-1,1,0,2650432.0,2650693.0,261.0
146,choice,choice,9,2.0,Object,2.0,20.42851304204669,Animal_Sea_Pattern_Small,1,0,0,2650716.0,2651013.0,297.0
146,choice,choice,9,2.0,Object,2.0,20.42851304204669,fixation,-1,1,0,2651048.0,2651360.0,312.0
146,choice,choice,9,2.0,Object,2.0,20.42851304204669,Object_Land_Pattern_Small,4,0,1,2651380.0,2653183.0,1803.0
146,choice,choice,9,2.0,Object,2.0,20.42851304204669,Animal_Land_Solid_Large,5,0,0,2653224.0,2653604.0,380.0
146,choice,choice,9,2.0,Object,2.0,20.42851304204669,Object_Land_Pattern_Small,4,0,1,2653626.0,2653965.0,339.0
146,choice,choice,9,2.0,Object,2.0,20.42851304204669,Animal_Land_Solid_Large,5,0,0,2653991.0,2656024.0,2033.0
146,choice,choice,9,2.0,Object,2.0,20.42851304204669,Animal_Sea_Pattern_Large,2,0,0,2656136.0,2656867.0,731.0
146,choice,choice,9,2.0,Object,2.0,20.42851304204669,Object_Sea_Solid_Large,0,0,1,2656901.0,2657687.0,786.0
146,choice,choice,9,2.0,Object,2.0,20.42851304204669,Animal_Sea_Pattern_Small,1,0,0,2657730.0,2658382.0,652.0
146,choice,choice,9,2.0,Object,2.0,20.42851304204669,Object_Land_Solid_Small,3,0,1,2658410.0,2658899.0,489.0
146,choice,choice,9,2.0,Object,2.0,20.42851304204669,Object_Land_Pattern_Small,4,0,1,2658924.0,2659205.0,281.0
146,choice,choice,9,2.0,Object,2.0,20.42851304204669,Animal_Land_Solid_Large,5,0,0,2659228.0,2659561.0,333.0
146,choice,choice,9,2.0,Object,2.0,20.42851304204669,Object_Land_Pattern_Small,4,0,1,2659582.0,2659858.0,276.0
146,choice,choice,9,2.0,Object,2.0,20.42851304204669,Animal_Land_Solid_Large,5,0,0,2659883.0,2660115.0,232.0
146,choice,choice,9,2.0,Object,2.0,20.42851304204669,Object_Sea_Solid_Large,0,0,1,2660169.0,2661792.0,1623.0
146,choice,choice,9,2.0,Object,2.0,20.42851304204669,fixation,-1,1,0,2661956.0,2662176.0,220.0
146,choice,choice,9,2.0,Object,2.0,20.42851304204669,Animal_Land_Solid_Large,5,0,0,2662362.0,2662613.0,251.0
146,choice,choice,9,2.0,Object,2.0,20.42851304204669,Object_Land_Solid_Small,3,0,1,2662678.0,2662893.0,215.0
146,choice,choice,10,2.0,Land,1.0,20.05422416597139,Object_Sea_Solid_Large,0,0,0,2666569.0,2666908.0,339.0
146,choice,choice,10,2.0,Land,1.0,20.05422416597139,Animal_Sea_Pattern_Large,2,0,0,2667344.0,2667678.0,334.0
146,choice,choice,10,2.0,Land,1.0,20.05422416597139,Object_Sea_Solid_Large,0,0,0,2667705.0,2668066.0,361.0
146,choice,choice,10,2.0,Land,1.0,20.05422416597139,Animal_Sea_Pattern_Large,2,0,0,2668277.0,2668317.0,40.0
146,choice,choice,10,2.0,Land,1.0,20.05422416597139,Object_Sea_Solid_Large,0,0,0,2668374.0,2668623.0,249.0
146,choice,choice,10,2.0,Land,1.0,20.05422416597139,Object_Land_Pattern_Small,4,0,1,2668676.0,2669111.0,435.0
146,choice,choice,10,2.0,Land,1.0,20.05422416597139,Animal_Land_Solid_Large,5,0,1,2669512.0,2670690.0,1178.0
146,choice,choice,10,2.0,Land,1.0,20.05422416597139,Object_Land_Solid_Small,3,0,1,2671661.0,2671808.0,147.0
146,choice,choice,10,2.0,Land,1.0,20.05422416597139,Object_Sea_Solid_Large,0,0,0,2672149.0,2672446.0,297.0
146,choice,choice,10,2.0,Land,1.0,20.05422416597139,Animal_Sea_Pattern_Large,2,0,0,2672599.0,2673146.0,547.0
146,choice,choice,10,2.0,Land,1.0,20.05422416597139,Object_Land_Solid_Small,3,0,1,2673211.0,2673929.0,718.0
146,choice,choice,10,2.0,Land,1.0,20.05422416597139,Object_Land_Pattern_Small,4,0,1,2673974.0,2674223.0,249.0
146,choice,choice,10,2.0,Land,1.0,20.05422416597139,Animal_Sea_Pattern_Small,1,0,0,2674248.0,2675056.0,808.0
146,choice,choice,10,2.0,Land,1.0,20.05422416597139,Animal_Sea_Pattern_Large,2,0,0,2675433.0,2675705.0,272.0
146,choice,choice,10,2.0,Land,1.0,20.05422416597139,Object_Land_Solid_Small,3,0,1,2675760.0,2676082.0,322.0
146,choice,choice,10,2.0,Land,1.0,20.05422416597139,Animal_Sea_Pattern_Small,1,0,0,2676709.0,2676913.0,204.0
146,choice,choice,10,2.0,Land,1.0,20.05422416597139,fixation,-1,1,0,2676963.0,2677160.0,197.0
146,choice,choice,10,2.0,Land,1.0,20.05422416597139,Object_Land_Solid_Small,3,0,1,2677396.0,2677571.0,175.0
146,choice,choice,10,2.0,Land,1.0,20.05422416597139,Animal_Land_Solid_Large,5,0,1,2677636.0,2677945.0,309.0
146,choice,choice,10,2.0,Land,1.0,20.05422416597139,Animal_Sea_Pattern_Small,1,0,0,2678394.0,2678746.0,352.0
146,choice,choice,10,2.0,Land,1.0,20.05422416597139,Animal_Sea_Pattern_Large,2,0,0,2678784.0,2679044.0,260.0
146,choice,choice,10,2.0,Land,1.0,20.05422416597139,Object_Sea_Solid_Large,0,0,0,2679258.0,2679580.0,322.0
146,choice,choice,10,2.0,Land,1.0,20.05422416597139,Animal_Sea_Pattern_Large,2,0,0,2679614.0,2679913.0,299.0
146,choice,choice,10,2.0,Land,1.0,20.05422416597139,Object_Sea_Solid_Large,0,0,0,2679935.0,2680314.0,379.0
146,choice,choice,10,2.0,Land,1.0,20.05422416597139,Animal_Sea_Pattern_Large,2,0,0,2680351.0,2680558.0,207.0
146,choice,choice,10,2.0,Land,1.0,20.05422416597139,Object_Sea_Solid_Large,0,0,0,2680587.0,2681379.0,792.0
146,choice,choice,10,2.0,Land,1.0,20.05422416597139,Animal_Sea_Pattern_Large,2,0,0,2681430.0,2681705.0,275.0
146,choice,choice,10,2.0,Land,1.0,20.05422416597139,Object_Sea_Solid_Large,0,0,0,2681735.0,2682004.0,269.0
146,choice,choice,10,2.0,Land,1.0,20.05422416597139,Animal_Sea_Pattern_Large,2,0,0,2682041.0,2682191.0,150.0
146,choice,choice,10,2.0,Land,1.0,20.05422416597139,Animal_Sea_Pattern_Small,1,0,0,2682415.0,2682914.0,499.0
146,choice,choice,10,2.0,Land,1.0,20.05422416597139,fixation,-1,1,0,2682967.0,2683265.0,298.0
146,choice,choice,10,2.0,Land,1.0,20.05422416597139,Object_Land_Solid_Small,3,0,1,2683287.0,2683649.0,362.0
146,choice,choice,10,2.0,Land,1.0,20.05422416597139,Animal_Sea_Pattern_Small,1,0,0,2683931.0,2685730.0,1799.0
146,choice,choice,10,2.0,Land,1.0,20.05422416597139,Object_Sea_Solid_Large,0,0,0,2685847.0,2686023.0,176.0
146,choice,choice,10,2.0,Land,1.0,20.05422416597139,Object_Land_Solid_Small,3,0,1,2686062.0,2686288.0,226.0
146,choice,choice,11,2.0,Pattern,1.0,35.56502737500705,Object_Sea_Solid_Large,0,0,0,2688844.0,2690906.0,2062.0
146,choice,choice,11,2.0,Pattern,1.0,35.56502737500705,Animal_Sea_Pattern_Large,2,0,1,2691390.0,2694394.0,3004.0
146,choice,choice,11,2.0,Pattern,1.0,35.56502737500705,Animal_Land_Solid_Large,5,0,0,2694511.0,2695288.0,777.0
146,choice,choice,11,2.0,Pattern,1.0,35.56502737500705,Animal_Sea_Pattern_Large,2,0,1,2695537.0,2696131.0,594.0
146,choice,choice,11,2.0,Pattern,1.0,35.56502737500705,Object_Sea_Solid_Large,0,0,0,2696353.0,2697065.0,712.0
146,choice,choice,11,2.0,Pattern,1.0,35.56502737500705,Animal_Sea_Pattern_Large,2,0,1,2697132.0,2697606.0,474.0
146,choice,choice,11,2.0,Pattern,1.0,35.56502737500705,Object_Sea_Solid_Large,0,0,0,2697855.0,2698073.0,218.0
146,choice,choice,11,2.0,Pattern,1.0,35.56502737500705,Animal_Sea_Pattern_Large,2,0,1,2698486.0,2698825.0,339.0
146,choice,choice,11,2.0,Pattern,1.0,35.56502737500705,Object_Sea_Solid_Large,0,0,0,2698862.0,2699581.0,719.0
146,choice,choice,11,2.0,Pattern,1.0,35.56502737500705,Animal_Sea_Pattern_Large,2,0,1,2699644.0,2700246.0,602.0
146,choice,choice,11,2.0,Pattern,1.0,35.56502737500705,Object_Sea_Solid_Large,0,0,0,2700303.0,2700599.0,296.0
146,choice,choice,11,2.0,Pattern,1.0,35.56502737500705,Animal_Sea_Pattern_Large,2,0,1,2700934.0,2701138.0,204.0
146,choice,choice,11,2.0,Pattern,1.0,35.56502737500705,Animal_Land_Solid_Large,5,0,0,2701177.0,2701413.0,236.0
146,choice,choice,11,2.0,Pattern,1.0,35.56502737500705,Animal_Sea_Pattern_Small,1,0,1,2701441.0,2701654.0,213.0
146,choice,choice,11,2.0,Pattern,1.0,35.56502737500705,Animal_Sea_Pattern_Large,2,0,1,2702152.0,2702778.0,626.0
146,choice,choice,11,2.0,Pattern,1.0,35.56502737500705,Object_Sea_Solid_Large,0,0,0,2703077.0,2703351.0,274.0
146,choice,choice,11,2.0,Pattern,1.0,35.56502737500705,Animal_Sea_Pattern_Large,2,0,1,2703375.0,2704549.0,1174.0
146,choice,choice,11,2.0,Pattern,1.0,35.56502737500705,Animal_Land_Solid_Large,5,0,0,2704635.0,2704935.0,300.0
146,choice,choice,11,2.0,Pattern,1.0,35.56502737500705,Animal_Sea_Pattern_Large,2,0,1,2704959.0,2705287.0,328.0
146,choice,choice,11,2.0,Pattern,1.0,35.56502737500705,Animal_Sea_Pattern_Small,1,0,1,2705308.0,2705614.0,306.0
146,choice,choice,11,2.0,Pattern,1.0,35.56502737500705,fixation,-1,1,0,2705628.0,2706002.0,374.0
146,choice,choice,11,2.0,Pattern,1.0,35.56502737500705,Animal_Land_Solid_Large,5,0,0,2706033.0,2706425.0,392.0
146,choice,choice,11,2.0,Pattern,1.0,35.56502737500705,Animal_Sea_Pattern_Large,2,0,1,2706450.0,2707517.0,1067.0
146,choice,choice,11,2.0,Pattern,1.0,35.56502737500705,Animal_Sea_Pattern_Small,1,0,1,2707959.0,2708212.0,253.0
146,choice,choice,11,2.0,Pattern,1.0,35.56502737500705,Animal_Land_Solid_Large,5,0,0,2709104.0,2710331.0,1227.0
146,choice,choice,11,2.0,Pattern,1.0,35.56502737500705,Object_Land_Pattern_Small,4,0,1,2710413.0,2710727.0,314.0
146,choice,choice,11,2.0,Pattern,1.0,35.56502737500705,Animal_Land_Solid_Large,5,0,0,2710749.0,2711179.0,430.0
146,choice,choice,11,2.0,Pattern,1.0,35.56502737500705,Animal_Sea_Pattern_Large,2,0,1,2711209.0,2714395.0,3186.0
146,choice,choice,11,2.0,Pattern,1.0,35.56502737500705,Animal_Land_Solid_Large,5,0,0,2714565.0,2714837.0,272.0
146,choice,choice,11,2.0,Pattern,1.0,35.56502737500705,Object_Land_Pattern_Small,4,0,1,2714853.0,2715452.0,599.0
146,choice,choice,11,2.0,Pattern,1.0,35.56502737500705,Animal_Sea_Pattern_Small,1,0,1,2717094.0,2717332.0,238.0
146,choice,choice,11,2.0,Pattern,1.0,35.56502737500705,Animal_Sea_Pattern_Large,2,0,1,2717363.0,2717707.0,344.0
146,choice,choice,11,2.0,Pattern,1.0,35.56502737500705,Animal_Land_Solid_Large,5,0,0,2717744.0,2717939.0,195.0
146,choice,choice,11,2.0,Pattern,1.0,35.56502737500705,Animal_Sea_Pattern_Large,2,0,1,2718149.0,2719764.0,1615.0
146,choice,choice,11,2.0,Pattern,1.0,35.56502737500705,fixation,-1,1,0,2719916.0,2720249.0,333.0
146,choice,choice,11,2.0,Pattern,1.0,35.56502737500705,Object_Land_Solid_Small,3,0,0,2720274.0,2720739.0,465.0
146,choice,choice,11,2.0,Pattern,1.0,35.56502737500705,Object_Land_Pattern_Small,4,0,1,2720778.0,2720977.0,199.0
146,choice,choice,11,2.0,Pattern,1.0,35.56502737500705,Animal_Sea_Pattern_Small,1,0,1,2721191.0,2721584.0,393.0
146,choice,choice,11,2.0,Pattern,1.0,35.56502737500705,Object_Sea_Solid_Large,0,0,0,2721630.0,2721843.0,213.0
146,choice,choice,11,2.0,Pattern,1.0,35.56502737500705,Object_Land_Solid_Small,3,0,0,2721877.0,2723772.0,1895.0
146,choice,choice,11,2.0,Pattern,1.0,35.56502737500705,Animal_Sea_Pattern_Small,1,0,1,2723857.0,2724288.0,431.0
146,choice,choice,12,2.0,Large,2.0,7.432279833010398,Animal_Land_Solid_Large,5,0,1,2727214.0,2728177.0,963.0
146,choice,choice,12,2.0,Large,2.0,7.432279833010398,Animal_Sea_Pattern_Large,2,0,1,2728885.0,2729652.0,767.0
146,choice,choice,12,2.0,Large,2.0,7.432279833010398,Object_Sea_Solid_Large,0,0,1,2729997.0,2730302.0,305.0
146,choice,choice,12,2.0,Large,2.0,7.432279833010398,Animal_Sea_Pattern_Large,2,0,1,2730337.0,2731274.0,937.0
146,choice,choice,12,2.0,Large,2.0,7.432279833010398,Object_Sea_Solid_Large,0,0,1,2731301.0,2731989.0,688.0
146,choice,choice,12,2.0,Large,2.0,7.432279833010398,Animal_Sea_Pattern_Small,1,0,0,2732013.0,2732231.0,218.0
146,choice,choice,12,2.0,Large,2.0,7.432279833010398,Object_Sea_Solid_Large,0,0,1,2732255.0,2732554.0,299.0
146,choice,choice,12,2.0,Large,2.0,7.432279833010398,Animal_Sea_Pattern_Large,2,0,1,2732588.0,2732758.0,170.0
146,choice,choice,12,2.0,Large,2.0,7.432279833010398,Animal_Sea_Pattern_Small,1,0,0,2732791.0,2733021.0,230.0
146,choice,choice,12,2.0,Large,2.0,7.432279833010398,Object_Sea_Solid_Large,0,0,1,2733062.0,2733255.0,193.0
146,choice,choice,12,2.0,Large,2.0,7.432279833010398,Animal_Sea_Pattern_Small,1,0,0,2733295.0,2733718.0,423.0
146,choice,choice,12,2.0,Large,2.0,7.432279833010398,Object_Sea_Solid_Large,0,0,1,2733739.0,2734235.0,496.0
146,choice,choice,12,2.0,Large,2.0,7.432279833010398,Animal_Sea_Pattern_Small,1,0,0,2734258.0,2734395.0,137.0
146,choice,choice,13,2.0,Small,1.0,7.590623209020123,Object_Sea_Solid_Large,0,0,0,2737204.0,2737528.0,324.0
146,choice,choice,13,2.0,Small,1.0,7.590623209020123,Animal_Sea_Pattern_Large,2,0,0,2737574.0,2737759.0,185.0
146,choice,choice,13,2.0,Small,1.0,7.590623209020123,Object_Sea_Solid_Large,0,0,0,2737784.0,2738247.0,463.0
146,choice,choice,13,2.0,Small,1.0,7.590623209020123,Animal_Sea_Pattern_Large,2,0,0,2738271.0,2738607.0,336.0
146,choice,choice,13,2.0,Small,1.0,7.590623209020123,Object_Sea_Solid_Large,0,0,0,2738628.0,2738883.0,255.0
146,choice,choice,13,2.0,Small,1.0,7.590623209020123,Animal_Sea_Pattern_Large,2,0,0,2738907.0,2739391.0,484.0
146,choice,choice,13,2.0,Small,1.0,7.590623209020123,Object_Sea_Solid_Large,0,0,0,2739755.0,2739990.0,235.0
146,choice,choice,13,2.0,Small,1.0,7.590623209020123,Animal_Land_Solid_Large,5,0,0,2740030.0,2741298.0,1268.0
146,choice,choice,13,2.0,Small,1.0,7.590623209020123,Object_Land_Pattern_Small,4,0,1,2741369.0,2743156.0,1787.0
146,choice,choice,13,2.0,Small,1.0,7.590623209020123,Object_Land_Solid_Small,3,0,1,2743534.0,2744249.0,715.0
146,choice,choice,13,2.0,Small,1.0,7.590623209020123,Animal_Sea_Pattern_Small,1,0,1,2744306.0,2744456.0,150.0
146,choice,choice,13,2.0,Small,1.0,7.590623209020123,Object_Land_Pattern_Small,4,0,1,2744503.0,2744643.0,140.0
146,choice,choice,14,2.0,Sea,2.0,7.497574500041083,Object_Sea_Solid_Large,0,0,1,2748593.0,2748933.0,340.0
146,choice,choice,14,2.0,Sea,2.0,7.497574500041083,Animal_Sea_Pattern_Large,2,0,1,2748987.0,2750069.0,1082.0
146,choice,choice,14,2.0,Sea,2.0,7.497574500041083,Object_Sea_Solid_Large,0,0,1,2750133.0,2750469.0,336.0
146,choice,choice,14,2.0,Sea,2.0,7.497574500041083,Animal_Sea_Pattern_Large,2,0,1,2750492.0,2750736.0,244.0
146,choice,choice,14,2.0,Sea,2.0,7.497574500041083,Object_Sea_Solid_Large,0,0,1,2750765.0,2752620.0,1855.0
146,choice,choice,14,2.0,Sea,2.0,7.497574500041083,Animal_Sea_Pattern_Small,1,0,1,2752699.0,2753822.0,1123.0
146,choice,choice,14,2.0,Sea,2.0,7.497574500041083,Object_Sea_Solid_Large,0,0,1,2753864.0,2754502.0,638.0
146,choice,choice,14,2.0,Sea,2.0,7.497574500041083,Animal_Sea_Pattern_Large,2,0,1,2754567.0,2755159.0,592.0
146,choice,choice,14,2.0,Sea,2.0,7.497574500041083,Animal_Land_Solid_Large,5,0,0,2755204.0,2755416.0,212.0
146,choice,choice,14,2.0,Sea,2.0,7.497574500041083,Object_Land_Solid_Small,3,0,0,2755491.0,2755743.0,252.0
146,choice,choice,15,2.0,Solid,2.0,7.570487792021595,Object_Sea_Solid_Large,0,0,1,2759675.0,2761094.0,1419.0
146,choice,choice,15,2.0,Solid,2.0,7.570487792021595,Animal_Sea_Pattern_Large,2,0,0,2761188.0,2761642.0,454.0
146,choice,choice,15,2.0,Solid,2.0,7.570487792021595,Object_Sea_Solid_Large,0,0,1,2761659.0,2762044.0,385.0
146,choice,choice,15,2.0,Solid,2.0,7.570487792021595,Animal_Sea_Pattern_Large,2,0,0,2762063.0,2762318.0,255.0
146,choice,choice,15,2.0,Solid,2.0,7.570487792021595,Object_Sea_Solid_Large,0,0,1,2762341.0,2762674.0,333.0
146,choice,choice,15,2.0,Solid,2.0,7.570487792021595,Animal_Sea_Pattern_Large,2,0,0,2762710.0,2763117.0,407.0
146,choice,choice,15,2.0,Solid,2.0,7.570487792021595,Animal_Land_Solid_Large,5,0,1,2763365.0,2764138.0,773.0
146,choice,choice,15,2.0,Solid,2.0,7.570487792021595,Animal_Sea_Pattern_Large,2,0,0,2764469.0,2764534.0,65.0
146,choice,choice,15,2.0,Solid,2.0,7.570487792021595,fixation,-1,1,0,2764686.0,2764839.0,153.0
146,choice,choice,15,2.0,Solid,2.0,7.570487792021595,Object_Land_Pattern_Small,4,0,0,2764860.0,2765015.0,155.0
146,choice,choice,15,2.0,Solid,2.0,7.570487792021595,Animal_Land_Solid_Large,5,0,1,2765036.0,2765282.0,246.0
146,choice,choice,15,2.0,Solid,2.0,7.570487792021595,Object_Land_Solid_Small,3,0,1,2765326.0,2766364.0,1038.0
146,choice,choice,16,2.0,Animal,1.0,12.218932209070772,Animal_Sea_Pattern_Large,2,0,1,2770515.0,2770573.0,58.0
146,choice,choice,16,2.0,Animal,1.0,12.218932209070772,Object_Sea_Solid_Large,0,0,0,2770605.0,2771041.0,436.0
146,choice,choice,16,2.0,Animal,1.0,12.218932209070772,Animal_Sea_Pattern_Large,2,0,1,2771105.0,2772040.0,935.0
146,choice,choice,16,2.0,Animal,1.0,12.218932209070772,Animal_Sea_Pattern_Small,1,0,1,2774171.0,2774223.0,52.0
146,choice,choice,16,2.0,Animal,1.0,12.218932209070772,Object_Land_Solid_Small,3,0,0,2774251.0,2774339.0,88.0
146,choice,choice,16,2.0,Animal,1.0,12.218932209070772,Animal_Sea_Pattern_Large,2,0,1,2774624.0,2776747.0,2123.0
146,choice,choice,16,2.0,Animal,1.0,12.218932209070772,Object_Sea_Solid_Large,0,0,0,2777326.0,2777621.0,295.0
146,choice,choice,16,2.0,Animal,1.0,12.218932209070772,Animal_Sea_Pattern_Large,2,0,1,2777794.0,2779107.0,1313.0
146,choice,choice,16,2.0,Animal,1.0,12.218932209070772,Animal_Sea_Pattern_Small,1,0,1,2779512.0,2779909.0,397.0
146,choice,choice,16,2.0,Animal,1.0,12.218932209070772,Animal_Sea_Pattern_Large,2,0,1,2779960.0,2781200.0,1240.0
146,choice,choice,16,2.0,Animal,1.0,12.218932209070772,fixation,-1,1,0,2781319.0,2781657.0,338.0
146,choice,choice,16,2.0,Animal,1.0,12.218932209070772,Object_Land_Solid_Small,3,0,0,2781678.0,2781855.0,177.0
146,choice,choice,16,2.0,Animal,1.0,12.218932209070772,Animal_Sea_Pattern_Large,2,0,1,2781898.0,2782151.0,253.0
146,choice,choice,16,2.0,Animal,1.0,12.218932209070772,Animal_Land_Solid_Large,5,0,1,2782174.0,2782230.0,56.0
146,choice,choice,17,3.0,Small,2.0,22.162233207956888,Animal_Land_Pattern_Small,0,0,1,3087939.0,3088545.0,606.0
146,choice,choice,17,3.0,Small,2.0,22.162233207956888,Object_Sea_Pattern_Small,1,0,1,3088644.0,3088925.0,281.0
146,choice,choice,17,3.0,Small,2.0,22.162233207956888,Animal_Land_Pattern_Small,0,0,1,3088963.0,3089255.0,292.0
146,choice,choice,17,3.0,Small,2.0,22.162233207956888,Object_Land_Pattern_Large,2,0,0,3089309.0,3089608.0,299.0
146,choice,choice,17,3.0,Small,2.0,22.162233207956888,Animal_Sea_Solid_Small,3,0,1,3089663.0,3089918.0,255.0
146,choice,choice,17,3.0,Small,2.0,22.162233207956888,fixation,-1,1,0,3089961.0,3090206.0,245.0
146,choice,choice,17,3.0,Small,2.0,22.162233207956888,Animal_Land_Pattern_Small,0,0,1,3090248.0,3090570.0,322.0
146,choice,choice,17,3.0,Small,2.0,22.162233207956888,Object_Sea_Pattern_Small,1,0,1,3090616.0,3090801.0,185.0
146,choice,choice,17,3.0,Small,2.0,22.162233207956888,Object_Land_Pattern_Large,2,0,0,3090828.0,3091087.0,259.0
146,choice,choice,17,3.0,Small,2.0,22.162233207956888,Animal_Land_Pattern_Small,0,0,1,3091141.0,3093844.0,2703.0
146,choice,choice,17,3.0,Small,2.0,22.162233207956888,Object_Sea_Pattern_Small,1,0,1,3094120.0,3096243.0,2123.0
146,choice,choice,17,3.0,Small,2.0,22.162233207956888,Animal_Land_Pattern_Small,0,0,1,3096349.0,3096683.0,334.0
146,choice,choice,17,3.0,Small,2.0,22.162233207956888,Object_Sea_Pattern_Small,1,0,1,3096709.0,3097081.0,372.0
146,choice,choice,17,3.0,Small,2.0,22.162233207956888,Animal_Land_Pattern_Small,0,0,1,3097109.0,3098294.0,1185.0
146,choice,choice,17,3.0,Small,2.0,22.162233207956888,Object_Land_Solid_Large,4,0,0,3098343.0,3099734.0,1391.0
146,choice,choice,17,3.0,Small,2.0,22.162233207956888,Animal_Sea_Solid_Large,5,0,0,3099832.0,3100297.0,465.0
146,choice,choice,17,3.0,Small,2.0,22.162233207956888,Object_Land_Solid_Large,4,0,0,3100319.0,3100784.0,465.0
146,choice,choice,17,3.0,Small,2.0,22.162233207956888,Animal_Sea_Solid_Small,3,0,1,3101009.0,3101207.0,198.0
146,choice,choice,17,3.0,Small,2.0,22.162233207956888,Animal_Land_Pattern_Small,0,0,1,3101438.0,3101464.0,26.0
146,choice,choice,17,3.0,Small,2.0,22.162233207956888,Object_Land_Solid_Large,4,0,0,3101471.0,3101665.0,194.0
146,choice,choice,17,3.0,Small,2.0,22.162233207956888,Object_Land_Pattern_Large,2,0,0,3101709.0,3101984.0,275.0
146,choice,choice,17,3.0,Small,2.0,22.162233207956888,Object_Sea_Pattern_Small,1,0,1,3102004.0,3102357.0,353.0
146,choice,choice,17,3.0,Small,2.0,22.162233207956888,Object_Land_Solid_Large,4,0,0,3102609.0,3102887.0,278.0
146,choice,choice,17,3.0,Small,2.0,22.162233207956888,Animal_Sea_Solid_Small,3,0,1,3102925.0,3103631.0,706.0
146,choice,choice,17,3.0,Small,2.0,22.162233207956888,Object_Land_Solid_Large,4,0,0,3103706.0,3103973.0,267.0
146,choice,choice,17,3.0,Small,2.0,22.162233207956888,Object_Land_Pattern_Large,2,0,0,3103998.0,3104525.0,527.0
146,choice,choice,17,3.0,Small,2.0,22.162233207956888,Animal_Land_Pattern_Small,0,0,1,3104879.0,3105183.0,304.0
146,choice,choice,17,3.0,Small,2.0,22.162233207956888,Animal_Sea_Solid_Small,3,0,1,3105211.0,3105470.0,259.0
146,choice,choice,17,3.0,Small,2.0,22.162233207956888,Animal_Sea_Solid_Large,5,0,0,3105489.0,3106321.0,832.0
146,choice,choice,17,3.0,Small,2.0,22.162233207956888,fixation,-1,1,0,3106707.0,3106977.0,270.0
146,choice,choice,17,3.0,Small,2.0,22.162233207956888,Animal_Sea_Solid_Large,5,0,0,3106996.0,3107295.0,299.0
146,choice,choice,17,3.0,Small,2.0,22.162233207956888,Animal_Sea_Solid_Small,3,0,1,3107317.0,3108757.0,1440.0
146,choice,choice,17,3.0,Small,2.0,22.162233207956888,Animal_Sea_Solid_Large,5,0,0,3108824.0,3109735.0,911.0
146,choice,choice,17,3.0,Small,2.0,22.162233207956888,Animal_Sea_Solid_Small,3,0,1,3109769.0,3110048.0,279.0
146,choice,choice,18,3.0,Large,2.0,58.62011995795183,Object_Land_Pattern_Large,2,0,1,3113194.0,3116151.0,2957.0
146,choice,choice,18,3.0,Large,2.0,58.62011995795183,Object_Sea_Pattern_Small,1,0,0,3116240.0,3116503.0,263.0
146,choice,choice,18,3.0,Large,2.0,58.62011995795183,Object_Land_Pattern_Large,2,0,1,3116529.0,3117792.0,1263.0
146,choice,choice,18,3.0,Large,2.0,58.62011995795183,Object_Land_Solid_Large,4,0,1,3117857.0,3119357.0,1500.0
146,choice,choice,18,3.0,Large,2.0,58.62011995795183,Animal_Land_Pattern_Small,0,0,0,3119669.0,3119844.0,175.0
146,choice,choice,18,3.0,Large,2.0,58.62011995795183,Object_Land_Solid_Large,4,0,1,3119865.0,3120358.0,493.0
146,choice,choice,18,3.0,Large,2.0,58.62011995795183,Animal_Sea_Solid_Large,5,0,1,3120409.0,3121490.0,1081.0
146,choice,choice,18,3.0,Large,2.0,58.62011995795183,Object_Sea_Pattern_Small,1,0,0,3121589.0,3123680.0,2091.0
146,choice,choice,18,3.0,Large,2.0,58.62011995795183,Object_Land_Pattern_Large,2,0,1,3123758.0,3124036.0,278.0
146,choice,choice,18,3.0,Large,2.0,58.62011995795183,Object_Sea_Pattern_Small,1,0,0,3124062.0,3124337.0,275.0
146,choice,choice,18,3.0,Large,2.0,58.62011995795183,Animal_Land_Pattern_Small,0,0,0,3124366.0,3125087.0,721.0
146,choice,choice,18,3.0,Large,2.0,58.62011995795183,Animal_Sea_Solid_Small,3,0,0,3125169.0,3125854.0,685.0
146,choice,choice,18,3.0,Large,2.0,58.62011995795183,Object_Land_Pattern_Large,2,0,1,3125915.0,3126266.0,351.0
146,choice,choice,18,3.0,Large,2.0,58.62011995795183,fixation,-1,1,0,3126300.0,3126537.0,237.0
146,choice,choice,18,3.0,Large,2.0,58.62011995795183,Animal_Sea_Solid_Large,5,0,1,3126559.0,3127549.0,990.0
146,choice,choice,18,3.0,Large,2.0,58.62011995795183,Object_Land_Pattern_Large,2,0,1,3127846.0,3128172.0,326.0
146,choice,choice,18,3.0,Large,2.0,58.62011995795183,Animal_Sea_Solid_Large,5,0,1,3128204.0,3128407.0,203.0
146,choice,choice,18,3.0,Large,2.0,58.62011995795183,Object_Land_Solid_Large,4,0,1,3128440.0,3128696.0,256.0
146,choice,choice,18,3.0,Large,2.0,58.62011995795183,Animal_Sea_Solid_Small,3,0,0,3129739.0,3129997.0,258.0
146,choice,choice,18,3.0,Large,2.0,58.62011995795183,Object_Land_Pattern_Large,2,0,1,3130234.0,3130547.0,313.0
146,choice,choice,18,3.0,Large,2.0,58.62011995795183,Animal_Land_Pattern_Small,0,0,0,3130571.0,3130822.0,251.0
146,choice,choice,18,3.0,Large,2.0,58.62011995795183,Object_Land_Pattern_Large,2,0,1,3130849.0,3131904.0,1055.0
146,choice,choice,18,3.0,Large,2.0,58.62011995795183,Object_Sea_Pattern_Small,1,0,0,3131983.0,3132318.0,335.0
146,choice,choice,18,3.0,Large,2.0,58.62011995795183,Animal_Sea_Solid_Large,5,0,1,3132388.0,3132845.0,457.0
146,choice,choice,18,3.0,Large,2.0,58.62011995795183,Object_Land_Pattern_Large,2,0,1,3132895.0,3133129.0,234.0
146,choice,choice,18,3.0,Large,2.0,58.62011995795183,Object_Sea_Pattern_Small,1,0,0,3133151.0,3133648.0,497.0
146,choice,choice,18,3.0,Large,2.0,58.62011995795183,Object_Land_Pattern_Large,2,0,1,3133695.0,3134438.0,743.0
146,choice,choice,18,3.0,Large,2.0,58.62011995795183,Object_Sea_Pattern_Small,1,0,0,3134463.0,3134752.0,289.0
146,choice,choice,18,3.0,Large,2.0,58.62011995795183,Animal_Land_Pattern_Small,0,0,0,3134778.0,3135108.0,330.0
146,choice,choice,18,3.0,Large,2.0,58.62011995795183,Object_Sea_Pattern_Small,1,0,0,3135126.0,3135459.0,333.0
146,choice,choice,18,3.0,Large,2.0,58.62011995795183,Animal_Land_Pattern_Small,0,0,0,3135479.0,3135899.0,420.0
146,choice,choice,18,3.0,Large,2.0,58.62011995795183,Object_Sea_Pattern_Small,1,0,0,3135937.0,3138972.0,3035.0
146,choice,choice,18,3.0,Large,2.0,58.62011995795183,fixation,-1,1,0,3139209.0,3139808.0,599.0
146,choice,choice,18,3.0,Large,2.0,58.62011995795183,Object_Land_Solid_Large,4,0,1,3139835.0,3140044.0,209.0
146,choice,choice,18,3.0,Large,2.0,58.62011995795183,Animal_Sea_Solid_Small,3,0,0,3140066.0,3140297.0,231.0
146,choice,choice,18,3.0,Large,2.0,58.62011995795183,fixation,-1,1,0,3140312.0,3140717.0,405.0
146,choice,choice,18,3.0,Large,2.0,58.62011995795183,Object_Land_Solid_Large,4,0,1,3140739.0,3140944.0,205.0
146,choice,choice,18,3.0,Large,2.0,58.62011995795183,Object_Land_Pattern_Large,2,0,1,3141191.0,3141399.0,208.0
146,choice,choice,18,3.0,Large,2.0,58.62011995795183,Object_Land_Solid_Large,4,0,1,3141457.0,3141816.0,359.0
146,choice,choice,18,3.0,Large,2.0,58.62011995795183,Animal_Sea_Solid_Small,3,0,0,3141856.0,3142379.0,523.0
146,choice,choice,18,3.0,Large,2.0,58.62011995795183,Object_Land_Solid_Large,4,0,1,3142595.0,3143499.0,904.0
146,choice,choice,18,3.0,Large,2.0,58.62011995795183,Animal_Sea_Solid_Large,5,0,1,3143884.0,3144176.0,292.0
146,choice,choice,18,3.0,Large,2.0,58.62011995795183,Animal_Sea_Solid_Small,3,0,0,3144214.0,3144398.0,184.0
146,choice,choice,18,3.0,Large,2.0,58.62011995795183,Object_Land_Solid_Large,4,0,1,3144455.0,3144703.0,248.0
146,choice,choice,18,3.0,Large,2.0,58.62011995795183,Animal_Sea_Solid_Large,5,0,1,3144725.0,3145229.0,504.0
146,choice,choice,18,3.0,Large,2.0,58.62011995795183,Object_Land_Solid_Large,4,0,1,3145377.0,3145724.0,347.0
146,choice,choice,18,3.0,Large,2.0,58.62011995795183,Animal_Sea_Solid_Small,3,0,0,3145766.0,3146046.0,280.0
146,choice,choice,18,3.0,Large,2.0,58.62011995795183,Animal_Sea_Solid_Large,5,0,1,3146077.0,3146590.0,513.0
146,choice,choice,18,3.0,Large,2.0,58.62011995795183,Object_Land_Solid_Large,4,0,1,3146632.0,3146884.0,252.0
146,choice,choice,18,3.0,Large,2.0,58.62011995795183,Animal_Sea_Solid_Small,3,0,0,3146933.0,3148362.0,1429.0
146,choice,choice,18,3.0,Large,2.0,58.62011995795183,Object_Land_Pattern_Large,2,0,1,3148695.0,3148774.0,79.0
146,choice,choice,18,3.0,Large,2.0,58.62011995795183,Animal_Sea_Solid_Small,3,0,0,3148799.0,3148923.0,124.0
146,choice,choice,18,3.0,Large,2.0,58.62011995795183,Object_Land_Solid_Large,4,0,1,3148946.0,3150409.0,1463.0
146,choice,choice,18,3.0,Large,2.0,58.62011995795183,Animal_Land_Pattern_Small,0,0,0,3150478.0,3151250.0,772.0
146,choice,choice,18,3.0,Large,2.0,58.62011995795183,Object_Sea_Pattern_Small,1,0,0,3151310.0,3151622.0,312.0
146,choice,choice,18,3.0,Large,2.0,58.62011995795183,Animal_Land_Pattern_Small,0,0,0,3151648.0,3152004.0,356.0
146,choice,choice,18,3.0,Large,2.0,58.62011995795183,Object_Sea_Pattern_Small,1,0,0,3152026.0,3152565.0,539.0
146,choice,choice,18,3.0,Large,2.0,58.62011995795183,Object_Land_Pattern_Large,2,0,1,3152606.0,3152879.0,273.0
146,choice,choice,18,3.0,Large,2.0,58.62011995795183,Animal_Land_Pattern_Small,0,0,0,3152907.0,3154512.0,1605.0
146,choice,choice,18,3.0,Large,2.0,58.62011995795183,Object_Sea_Pattern_Small,1,0,0,3154761.0,3155133.0,372.0
146,choice,choice,18,3.0,Large,2.0,58.62011995795183,Animal_Land_Pattern_Small,0,0,0,3155155.0,3155353.0,198.0
146,choice,choice,18,3.0,Large,2.0,58.62011995795183,Object_Sea_Pattern_Small,1,0,0,3155373.0,3155624.0,251.0
146,choice,choice,18,3.0,Large,2.0,58.62011995795183,Animal_Land_Pattern_Small,0,0,0,3155647.0,3156061.0,414.0
146,choice,choice,18,3.0,Large,2.0,58.62011995795183,Object_Sea_Pattern_Small,1,0,0,3156088.0,3157652.0,1564.0
146,choice,choice,18,3.0,Large,2.0,58.62011995795183,Object_Land_Pattern_Large,2,0,1,3159387.0,3159702.0,315.0
146,choice,choice,18,3.0,Large,2.0,58.62011995795183,Object_Sea_Pattern_Small,1,0,0,3159738.0,3160036.0,298.0
146,choice,choice,18,3.0,Large,2.0,58.62011995795183,Object_Land_Pattern_Large,2,0,1,3160054.0,3160417.0,363.0
146,choice,choice,18,3.0,Large,2.0,58.62011995795183,Object_Sea_Pattern_Small,1,0,0,3160709.0,3165451.0,4742.0
146,choice,choice,18,3.0,Large,2.0,58.62011995795183,Object_Land_Pattern_Large,2,0,1,3166116.0,3166449.0,333.0
146,choice,choice,18,3.0,Large,2.0,58.62011995795183,Object_Land_Solid_Large,4,0,1,3166502.0,3166707.0,205.0
146,choice,choice,18,3.0,Large,2.0,58.62011995795183,Animal_Sea_Solid_Large,5,0,1,3166733.0,3167034.0,301.0
146,choice,choice,18,3.0,Large,2.0,58.62011995795183,Object_Land_Solid_Large,4,0,1,3167058.0,3167536.0,478.0
146,choice,choice,18,3.0,Large,2.0,58.62011995795183,Animal_Sea_Solid_Large,5,0,1,3167574.0,3168060.0,486.0
146,choice,choice,18,3.0,Large,2.0,58.62011995795183,Object_Land_Solid_Large,4,0,1,3168086.0,3168473.0,387.0
146,choice,choice,18,3.0,Large,2.0,58.62011995795183,fixation,-1,1,0,3168499.0,3168666.0,167.0
146,choice,choice,18,3.0,Large,2.0,58.62011995795183,Object_Land_Pattern_Large,2,0,1,3168690.0,3169636.0,946.0
146,choice,choice,18,3.0,Large,2.0,58.62011995795183,Object_Land_Solid_Large,4,0,1,3170029.0,3170295.0,266.0
146,choice,choice,18,3.0,Large,2.0,58.62011995795183,Animal_Sea_Solid_Large,5,0,1,3170316.0,3170551.0,235.0
146,choice,choice,18,3.0,Large,2.0,58.62011995795183,Object_Land_Solid_Large,4,0,1,3170559.0,3171286.0,727.0
146,choice,choice,18,3.0,Large,2.0,58.62011995795183,Animal_Sea_Solid_Small,3,0,0,3171331.0,3171581.0,250.0
146,choice,choice,18,3.0,Large,2.0,58.62011995795183,fixation,-1,1,0,3171606.0,3171724.0,118.0
146,choice,choice,19,3.0,Sea,1.0,3.602947917068377,fixation,-1,1,0,3175476.0,3175641.0,165.0
146,choice,choice,19,3.0,Sea,1.0,3.602947917068377,Animal_Land_Pattern_Small,0,0,0,3175730.0,3175862.0,132.0
146,choice,choice,19,3.0,Sea,1.0,3.602947917068377,Object_Sea_Pattern_Small,1,0,1,3175887.0,3176135.0,248.0
146,choice,choice,19,3.0,Sea,1.0,3.602947917068377,Object_Land_Pattern_Large,2,0,0,3176161.0,3176340.0,179.0
146,choice,choice,19,3.0,Sea,1.0,3.602947917068377,Object_Sea_Pattern_Small,1,0,1,3176382.0,3176507.0,125.0
146,choice,choice,19,3.0,Sea,1.0,3.602947917068377,Animal_Sea_Solid_Small,3,0,1,3176879.0,3177025.0,146.0
146,choice,choice,19,3.0,Sea,1.0,3.602947917068377,Animal_Sea_Solid_Large,5,0,1,3177057.0,3177137.0,80.0
146,choice,choice,19,3.0,Sea,1.0,3.602947917068377,fixation,-1,1,0,3177493.0,3177896.0,403.0
146,choice,choice,19,3.0,Sea,1.0,3.602947917068377,Animal_Land_Pattern_Small,0,0,0,3177939.0,3178153.0,214.0
146,choice,choice,19,3.0,Sea,1.0,3.602947917068377,Animal_Sea_Solid_Small,3,0,1,3178232.0,3178469.0,237.0
146,choice,choice,20,3.0,Land,1.0,8.469228250090964,Object_Land_Pattern_Large,2,0,1,3181871.0,3182382.0,511.0
146,choice,choice,20,3.0,Land,1.0,8.469228250090964,Animal_Land_Pattern_Small,0,0,1,3182662.0,3182882.0,220.0
146,choice,choice,20,3.0,Land,1.0,8.469228250090964,Object_Land_Pattern_Large,2,0,1,3182916.0,3184206.0,1290.0
146,choice,choice,20,3.0,Land,1.0,8.469228250090964,Object_Sea_Pattern_Small,1,0,0,3184271.0,3185079.0,808.0
146,choice,choice,20,3.0,Land,1.0,8.469228250090964,Animal_Land_Pattern_Small,0,0,1,3185165.0,3185465.0,300.0
146,choice,choice,20,3.0,Land,1.0,8.469228250090964,Object_Land_Solid_Large,4,0,1,3185489.0,3187612.0,2123.0
146,choice,choice,20,3.0,Land,1.0,8.469228250090964,Animal_Land_Pattern_Small,0,0,1,3187711.0,3188737.0,1026.0
146,choice,choice,20,3.0,Land,1.0,8.469228250090964,Object_Sea_Pattern_Small,1,0,0,3188779.0,3189097.0,318.0
146,choice,choice,20,3.0,Land,1.0,8.469228250090964,Animal_Land_Pattern_Small,0,0,1,3189253.0,3189628.0,375.0
146,choice,choice,20,3.0,Land,1.0,8.469228250090964,Object_Land_Solid_Large,4,0,1,3189678.0,3190032.0,354.0
146,choice,choice,20,3.0,Land,1.0,8.469228250090964,Animal_Land_Pattern_Small,0,0,1,3190048.0,3190150.0,102.0
146,choice,choice,21,3.0,Object,2.0,18.296157957985997,Object_Sea_Pattern_Small,1,0,1,3193310.0,3193600.0,290.0
146,choice,choice,21,3.0,Object,2.0,18.296157957985997,Object_Land_Pattern_Large,2,0,1,3194518.0,3195157.0,639.0
146,choice,choice,21,3.0,Object,2.0,18.296157957985997,Animal_Sea_Solid_Small,3,0,0,3195449.0,3195685.0,236.0
146,choice,choice,21,3.0,Object,2.0,18.296157957985997,Object_Land_Pattern_Large,2,0,1,3195706.0,3198441.0,2735.0
146,choice,choice,21,3.0,Object,2.0,18.296157957985997,Object_Sea_Pattern_Small,1,0,1,3198870.0,3199085.0,215.0
146,choice,choice,21,3.0,Object,2.0,18.296157957985997,Animal_Land_Pattern_Small,0,0,0,3199115.0,3199433.0,318.0
146,choice,choice,21,3.0,Object,2.0,18.296157957985997,Object_Land_Solid_Large,4,0,1,3199468.0,3200793.0,1325.0
146,choice,choice,21,3.0,Object,2.0,18.296157957985997,Animal_Sea_Solid_Small,3,0,0,3200847.0,3202693.0,1846.0
146,choice,choice,21,3.0,Object,2.0,18.296157957985997,Object_Land_Pattern_Large,2,0,1,3202989.0,3203077.0,88.0
146,choice,choice,21,3.0,Object,2.0,18.296157957985997,Animal_Sea_Solid_Small,3,0,0,3203092.0,3203135.0,43.0
146,choice,choice,21,3.0,Object,2.0,18.296157957985997,Animal_Sea_Solid_Large,5,0,0,3203517.0,3203840.0,323.0
146,choice,choice,21,3.0,Object,2.0,18.296157957985997,Animal_Sea_Solid_Small,3,0,0,3203861.0,3204188.0,327.0
146,choice,choice,21,3.0,Object,2.0,18.296157957985997,fixation,-1,1,0,3204206.0,3204411.0,205.0
146,choice,choice,21,3.0,Object,2.0,18.296157957985997,Animal_Sea_Solid_Large,5,0,0,3204433.0,3204713.0,280.0
146,choice,choice,21,3.0,Object,2.0,18.296157957985997,Animal_Sea_Solid_Small,3,0,0,3204736.0,3204943.0,207.0
146,choice,choice,21,3.0,Object,2.0,18.296157957985997,Object_Land_Solid_Large,4,0,1,3205002.0,3205230.0,228.0
146,choice,choice,21,3.0,Object,2.0,18.296157957985997,Animal_Sea_Solid_Large,5,0,0,3205255.0,3205670.0,415.0
146,choice,choice,21,3.0,Object,2.0,18.296157957985997,Animal_Sea_Solid_Small,3,0,0,3205694.0,3205881.0,187.0
146,choice,choice,21,3.0,Object,2.0,18.296157957985997,Object_Land_Pattern_Large,2,0,1,3206109.0,3206838.0,729.0
146,choice,choice,21,3.0,Object,2.0,18.296157957985997,Animal_Land_Pattern_Small,0,0,0,3207000.0,3207405.0,405.0
146,choice,choice,21,3.0,Object,2.0,18.296157957985997,Object_Land_Solid_Large,4,0,1,3207430.0,3207751.0,321.0
146,choice,choice,21,3.0,Object,2.0,18.296157957985997,Animal_Land_Pattern_Small,0,0,0,3207970.0,3208197.0,227.0
146,choice,choice,21,3.0,Object,2.0,18.296157957985997,Object_Sea_Pattern_Small,1,0,1,3208234.0,3208573.0,339.0
146,choice,choice,21,3.0,Object,2.0,18.296157957985997,Object_Land_Pattern_Large,2,0,1,3208604.0,3208785.0,181.0
146,choice,choice,21,3.0,Object,2.0,18.296157957985997,Animal_Land_Pattern_Small,0,0,0,3209254.0,3209898.0,644.0
146,choice,choice,21,3.0,Object,2.0,18.296157957985997,Object_Sea_Pattern_Small,1,0,1,3209948.0,3210224.0,276.0
146,choice,choice,21,3.0,Object,2.0,18.296157957985997,Animal_Land_Pattern_Small,0,0,0,3210263.0,3210450.0,187.0
146,choice,choice,21,3.0,Object,2.0,18.296157957985997,Object_Sea_Pattern_Small,1,0,1,3210476.0,3211198.0,722.0
146,choice,choice,22,3.0,Solid,1.0,23.731799916015007,Object_Land_Pattern_Large,2,0,0,3214410.0,3214812.0,402.0
146,choice,choice,22,3.0,Solid,1.0,23.731799916015007,Animal_Land_Pattern_Small,0,0,0,3215082.0,3215305.0,223.0
146,choice,choice,22,3.0,Solid,1.0,23.731799916015007,Object_Land_Solid_Large,4,0,1,3215348.0,3215550.0,202.0
146,choice,choice,22,3.0,Solid,1.0,23.731799916015007,Animal_Sea_Solid_Small,3,0,1,3215575.0,3215805.0,230.0
146,choice,choice,22,3.0,Solid,1.0,23.731799916015007,Animal_Sea_Solid_Large,5,0,1,3215827.0,3218527.0,2700.0
146,choice,choice,22,3.0,Solid,1.0,23.731799916015007,Object_Land_Solid_Large,4,0,1,3218738.0,3220375.0,1637.0
146,choice,choice,22,3.0,Solid,1.0,23.731799916015007,Animal_Land_Pattern_Small,0,0,0,3220599.0,3221102.0,503.0
146,choice,choice,22,3.0,Solid,1.0,23.731799916015007,Object_Land_Pattern_Large,2,0,0,3221592.0,3222604.0,1012.0
146,choice,choice,22,3.0,Solid,1.0,23.731799916015007,Animal_Sea_Solid_Small,3,0,1,3222681.0,3223037.0,356.0
146,choice,choice,22,3.0,Solid,1.0,23.731799916015007,Object_Land_Pattern_Large,2,0,0,3223221.0,3224570.0,1349.0
146,choice,choice,22,3.0,Solid,1.0,23.731799916015007,Animal_Sea_Solid_Small,3,0,1,3224688.0,3224823.0,135.0
146,choice,choice,22,3.0,Solid,1.0,23.731799916015007,fixation,-1,1,0,3225029.0,3225203.0,174.0
146,choice,choice,22,3.0,Solid,1.0,23.731799916015007,Animal_Sea_Solid_Small,3,0,1,3225274.0,3226665.0,1391.0
146,choice,choice,22,3.0,Solid,1.0,23.731799916015007,fixation,-1,1,0,3226761.0,3226998.0,237.0
146,choice,choice,22,3.0,Solid,1.0,23.731799916015007,Object_Sea_Pattern_Small,1,0,0,3227272.0,3227371.0,99.0
146,choice,choice,22,3.0,Solid,1.0,23.731799916015007,Animal_Land_Pattern_Small,0,0,0,3227390.0,3227477.0,87.0
146,choice,choice,22,3.0,Solid,1.0,23.731799916015007,Object_Sea_Pattern_Small,1,0,0,3227511.0,3234968.0,7457.0
146,choice,choice,23,3.0,Pattern,1.0,15.917514250031672,Object_Land_Pattern_Large,2,0,1,3241309.0,3243777.0,2468.0
146,choice,choice,23,3.0,Pattern,1.0,15.917514250031672,Animal_Land_Pattern_Small,0,0,1,3243870.0,3244990.0,1120.0
146,choice,choice,23,3.0,Pattern,1.0,15.917514250031672,Object_Sea_Pattern_Small,1,0,1,3245047.0,3245405.0,358.0
146,choice,choice,23,3.0,Pattern,1.0,15.917514250031672,Animal_Land_Pattern_Small,0,0,1,3245423.0,3245863.0,440.0
146,choice,choice,23,3.0,Pattern,1.0,15.917514250031672,Object_Sea_Pattern_Small,1,0,1,3246151.0,3246507.0,356.0
146,choice,choice,23,3.0,Pattern,1.0,15.917514250031672,Animal_Land_Pattern_Small,0,0,1,3246532.0,3249274.0,2742.0
146,choice,choice,23,3.0,Pattern,1.0,15.917514250031672,Object_Sea_Pattern_Small,1,0,1,3249800.0,3252128.0,2328.0
146,choice,choice,23,3.0,Pattern,1.0,15.917514250031672,Animal_Land_Pattern_Small,0,0,1,3254808.0,3254955.0,147.0
146,choice,choice,23,3.0,Pattern,1.0,15.917514250031672,Object_Sea_Pattern_Small,1,0,1,3255238.0,3255530.0,292.0
146,choice,choice,23,3.0,Pattern,1.0,15.917514250031672,Animal_Land_Pattern_Small,0,0,1,3255585.0,3255799.0,214.0
146,choice,choice,23,3.0,Pattern,1.0,15.917514250031672,Object_Land_Pattern_Large,2,0,1,3255845.0,3256156.0,311.0
146,choice,choice,23,3.0,Pattern,1.0,15.917514250031672,Object_Sea_Pattern_Small,1,0,1,3256206.0,3256628.0,422.0
146,choice,choice,23,3.0,Pattern,1.0,15.917514250031672,Object_Land_Pattern_Large,2,0,1,3256659.0,3256855.0,196.0
146,choice,choice,24,3.0,Animal,1.0,11.03945533290971,Object_Sea_Pattern_Small,1,0,0,3260330.0,3260723.0,393.0
146,choice,choice,24,3.0,Animal,1.0,11.03945533290971,Animal_Land_Pattern_Small,0,0,1,3260987.0,3261224.0,237.0
146,choice,choice,24,3.0,Animal,1.0,11.03945533290971,Object_Sea_Pattern_Small,1,0,0,3261269.0,3262557.0,1288.0
146,choice,choice,24,3.0,Animal,1.0,11.03945533290971,Animal_Sea_Solid_Large,5,0,1,3262632.0,3264140.0,1508.0
146,choice,choice,24,3.0,Animal,1.0,11.03945533290971,Object_Land_Solid_Large,4,0,0,3264174.0,3264521.0,347.0
146,choice,choice,24,3.0,Animal,1.0,11.03945533290971,Animal_Sea_Solid_Large,5,0,1,3264547.0,3264861.0,314.0
146,choice,choice,24,3.0,Animal,1.0,11.03945533290971,Animal_Land_Pattern_Small,0,0,1,3265054.0,3266388.0,1334.0
146,choice,choice,24,3.0,Animal,1.0,11.03945533290971,Object_Sea_Pattern_Small,1,0,0,3266912.0,3267175.0,263.0
146,choice,choice,24,3.0,Animal,1.0,11.03945533290971,Animal_Land_Pattern_Small,0,0,1,3267199.0,3267549.0,350.0
146,choice,choice,24,3.0,Animal,1.0,11.03945533290971,Object_Sea_Pattern_Small,1,0,0,3267574.0,3267818.0,244.0
146,choice,choice,24,3.0,Animal,1.0,11.03945533290971,Animal_Sea_Solid_Large,5,0,1,3268064.0,3268868.0,804.0
146,choice,choice,24,3.0,Animal,1.0,11.03945533290971,Object_Land_Solid_Large,4,0,0,3268945.0,3269136.0,191.0
146,choice,choice,24,3.0,Animal,1.0,11.03945533290971,Animal_Land_Pattern_Small,0,0,1,3269196.0,3270649.0,1453.0
146,choice,choice,24,3.0,Animal,1.0,11.03945533290971,Object_Land_Pattern_Large,2,0,0,3270714.0,3270853.0,139.0
146,choice,choice,25,4.0,Solid,2.0,77.4158242919948,Animal_Land_Pattern_Large,0,0,0,3554449.0,3554581.0,132.0
146,choice,choice,25,4.0,Solid,2.0,77.4158242919948,Object_Sea_Solid_Small,1,0,1,3554768.0,3557463.0,2695.0
146,choice,choice,25,4.0,Solid,2.0,77.4158242919948,Animal_Land_Pattern_Large,0,0,0,3557820.0,3558219.0,399.0
146,choice,choice,25,4.0,Solid,2.0,77.4158242919948,Object_Sea_Solid_Small,1,0,1,3558499.0,3558733.0,234.0
146,choice,choice,25,4.0,Solid,2.0,77.4158242919948,Animal_Land_Pattern_Large,0,0,0,3559122.0,3559425.0,303.0
146,choice,choice,25,4.0,Solid,2.0,77.4158242919948,Object_Sea_Solid_Small,1,0,1,3559449.0,3559723.0,274.0
146,choice,choice,25,4.0,Solid,2.0,77.4158242919948,Animal_Land_Pattern_Large,0,0,0,3559755.0,3559930.0,175.0
146,choice,choice,25,4.0,Solid,2.0,77.4158242919948,Object_Sea_Solid_Small,1,0,1,3560347.0,3561809.0,1462.0
146,choice,choice,25,4.0,Solid,2.0,77.4158242919948,Object_Sea_Pattern_Large,2,0,0,3561890.0,3562256.0,366.0
146,choice,choice,25,4.0,Solid,2.0,77.4158242919948,Object_Sea_Solid_Small,1,0,1,3562282.0,3563166.0,884.0
146,choice,choice,25,4.0,Solid,2.0,77.4158242919948,Animal_Sea_Solid_Small,3,0,1,3563240.0,3564533.0,1293.0
146,choice,choice,25,4.0,Solid,2.0,77.4158242919948,Object_Sea_Solid_Small,1,0,1,3564618.0,3564876.0,258.0
146,choice,choice,25,4.0,Solid,2.0,77.4158242919948,Object_Land_Pattern_Large,4,0,0,3564907.0,3565288.0,381.0
146,choice,choice,25,4.0,Solid,2.0,77.4158242919948,Animal_Sea_Solid_Small,3,0,1,3565313.0,3565775.0,462.0
146,choice,choice,25,4.0,Solid,2.0,77.4158242919948,fixation,-1,1,0,3565813.0,3566134.0,321.0
146,choice,choice,25,4.0,Solid,2.0,77.4158242919948,Object_Sea_Solid_Small,1,0,1,3566160.0,3566707.0,547.0
146,choice,choice,25,4.0,Solid,2.0,77.4158242919948,Animal_Sea_Solid_Small,3,0,1,3566766.0,3567405.0,639.0
146,choice,choice,25,4.0,Solid,2.0,77.4158242919948,Animal_Land_Solid_Small,5,0,1,3567473.0,3568392.0,919.0
146,choice,choice,25,4.0,Solid,2.0,77.4158242919948,Object_Sea_Pattern_Large,2,0,0,3568463.0,3568799.0,336.0
146,choice,choice,25,4.0,Solid,2.0,77.4158242919948,Object_Land_Pattern_Large,4,0,0,3569105.0,3569184.0,79.0
146,choice,choice,25,4.0,Solid,2.0,77.4158242919948,fixation,-1,1,0,3569206.0,3569598.0,392.0
146,choice,choice,25,4.0,Solid,2.0,77.4158242919948,Animal_Sea_Solid_Small,3,0,1,3569614.0,3569862.0,248.0
146,choice,choice,25,4.0,Solid,2.0,77.4158242919948,Object_Sea_Pattern_Large,2,0,0,3569889.0,3570300.0,411.0
146,choice,choice,25,4.0,Solid,2.0,77.4158242919948,Animal_Land_Solid_Small,5,0,1,3570325.0,3571348.0,1023.0
146,choice,choice,25,4.0,Solid,2.0,77.4158242919948,Object_Sea_Pattern_Large,2,0,0,3572027.0,3572339.0,312.0
146,choice,choice,25,4.0,Solid,2.0,77.4158242919948,fixation,-1,1,0,3572385.0,3572710.0,325.0
146,choice,choice,25,4.0,Solid,2.0,77.4158242919948,Object_Sea_Pattern_Large,2,0,0,3572738.0,3572805.0,67.0
146,choice,choice,25,4.0,Solid,2.0,77.4158242919948,fixation,-1,1,0,3573053.0,3573079.0,26.0
146,choice,choice,25,4.0,Solid,2.0,77.4158242919948,Animal_Land_Solid_Small,5,0,1,3573087.0,3573918.0,831.0
146,choice,choice,25,4.0,Solid,2.0,77.4158242919948,Animal_Sea_Solid_Small,3,0,1,3573976.0,3574180.0,204.0
146,choice,choice,25,4.0,Solid,2.0,77.4158242919948,Object_Sea_Solid_Small,1,0,1,3574227.0,3574496.0,269.0
146,choice,choice,25,4.0,Solid,2.0,77.4158242919948,Animal_Land_Pattern_Large,0,0,0,3574522.0,3575107.0,585.0
146,choice,choice,25,4.0,Solid,2.0,77.4158242919948,Object_Land_Pattern_Large,4,0,0,3575134.0,3575360.0,226.0
146,choice,choice,25,4.0,Solid,2.0,77.4158242919948,Animal_Land_Solid_Small,5,0,1,3575403.0,3576937.0,1534.0
146,choice,choice,25,4.0,Solid,2.0,77.4158242919948,Animal_Land_Pattern_Large,0,0,0,3577071.0,3577240.0,169.0
146,choice,choice,25,4.0,Solid,2.0,77.4158242919948,Object_Land_Pattern_Large,4,0,0,3577267.0,3578249.0,982.0
146,choice,choice,25,4.0,Solid,2.0,77.4158242919948,Animal_Land_Pattern_Large,0,0,0,3578276.0,3579365.0,1089.0
146,choice,choice,25,4.0,Solid,2.0,77.4158242919948,Object_Sea_Solid_Small,1,0,1,3579408.0,3579963.0,555.0
146,choice,choice,25,4.0,Solid,2.0,77.4158242919948,Animal_Land_Pattern_Large,0,0,0,3579980.0,3580931.0,951.0
146,choice,choice,25,4.0,Solid,2.0,77.4158242919948,Object_Sea_Solid_Small,1,0,1,3580950.0,3581154.0,204.0
146,choice,choice,25,4.0,Solid,2.0,77.4158242919948,Object_Land_Pattern_Large,4,0,0,3581201.0,3581682.0,481.0
146,choice,choice,25,4.0,Solid,2.0,77.4158242919948,Animal_Land_Solid_Small,5,0,1,3581711.0,3581984.0,273.0
146,choice,choice,25,4.0,Solid,2.0,77.4158242919948,Object_Sea_Pattern_Large,2,0,0,3582003.0,3583345.0,1342.0
146,choice,choice,25,4.0,Solid,2.0,77.4158242919948,Object_Sea_Solid_Small,1,0,1,3583583.0,3584192.0,609.0
146,choice,choice,25,4.0,Solid,2.0,77.4158242919948,Object_Sea_Pattern_Large,2,0,0,3584235.0,3585973.0,1738.0
146,choice,choice,25,4.0,Solid,2.0,77.4158242919948,Animal_Sea_Solid_Small,3,0,1,3586288.0,3586510.0,222.0
146,choice,choice,25,4.0,Solid,2.0,77.4158242919948,Animal_Land_Solid_Small,5,0,1,3586770.0,3586986.0,216.0
146,choice,choice,25,4.0,Solid,2.0,77.4158242919948,Animal_Sea_Solid_Small,3,0,1,3587022.0,3587481.0,459.0
146,choice,choice,25,4.0,Solid,2.0,77.4158242919948,Animal_Land_Solid_Small,5,0,1,3587733.0,3588243.0,510.0
146,choice,choice,25,4.0,Solid,2.0,77.4158242919948,fixation,-1,1,0,3588281.0,3588530.0,249.0
146,choice,choice,25,4.0,Solid,2.0,77.4158242919948,Object_Sea_Pattern_Large,2,0,0,3588778.0,3589487.0,709.0
146,choice,choice,25,4.0,Solid,2.0,77.4158242919948,Object_Land_Pattern_Large,4,0,0,3589535.0,3589901.0,366.0
146,choice,choice,25,4.0,Solid,2.0,77.4158242919948,Object_Sea_Solid_Small,1,0,1,3589923.0,3590223.0,300.0
146,choice,choice,25,4.0,Solid,2.0,77.4158242919948,Object_Sea_Pattern_Large,2,0,0,3590259.0,3590805.0,546.0
146,choice,choice,25,4.0,Solid,2.0,77.4158242919948,Animal_Land_Pattern_Large,0,0,0,3591046.0,3591443.0,397.0
146,choice,choice,25,4.0,Solid,2.0,77.4158242919948,Object_Sea_Solid_Small,1,0,1,3591472.0,3591669.0,197.0
146,choice,choice,25,4.0,Solid,2.0,77.4158242919948,Animal_Land_Pattern_Large,0,0,0,3591692.0,3592249.0,557.0
146,choice,choice,25,4.0,Solid,2.0,77.4158242919948,Object_Sea_Solid_Small,1,0,1,3592277.0,3592570.0,293.0
146,choice,choice,25,4.0,Solid,2.0,77.4158242919948,Animal_Land_Pattern_Large,0,0,0,3592589.0,3593187.0,598.0
146,choice,choice,25,4.0,Solid,2.0,77.4158242919948,Object_Sea_Solid_Small,1,0,1,3593350.0,3593711.0,361.0
146,choice,choice,25,4.0,Solid,2.0,77.4158242919948,Animal_Land_Pattern_Large,0,0,0,3593727.0,3594098.0,371.0
146,choice,choice,25,4.0,Solid,2.0,77.4158242919948,Object_Sea_Solid_Small,1,0,1,3594133.0,3594484.0,351.0
146,choice,choice,25,4.0,Solid,2.0,77.4158242919948,Animal_Land_Pattern_Large,0,0,0,3594505.0,3594852.0,347.0
146,choice,choice,25,4.0,Solid,2.0,77.4158242919948,Animal_Land_Solid_Small,5,0,1,3594918.0,3595157.0,239.0
146,choice,choice,25,4.0,Solid,2.0,77.4158242919948,Animal_Sea_Solid_Small,3,0,1,3595182.0,3596544.0,1362.0
146,choice,choice,25,4.0,Solid,2.0,77.4158242919948,Object_Land_Pattern_Large,4,0,0,3596652.0,3597402.0,750.0
146,choice,choice,25,4.0,Solid,2.0,77.4158242919948,Animal_Land_Pattern_Large,0,0,0,3597455.0,3597635.0,180.0
146,choice,choice,25,4.0,Solid,2.0,77.4158242919948,Object_Land_Pattern_Large,4,0,0,3597660.0,3597994.0,334.0
146,choice,choice,25,4.0,Solid,2.0,77.4158242919948,fixation,-1,1,0,3598337.0,3598511.0,174.0
146,choice,choice,25,4.0,Solid,2.0,77.4158242919948,Animal_Sea_Solid_Small,3,0,1,3598527.0,3598741.0,214.0
146,choice,choice,25,4.0,Solid,2.0,77.4158242919948,Object_Land_Pattern_Large,4,0,0,3598777.0,3599244.0,467.0
146,choice,choice,25,4.0,Solid,2.0,77.4158242919948,Animal_Sea_Solid_Small,3,0,1,3599276.0,3600616.0,1340.0
146,choice,choice,25,4.0,Solid,2.0,77.4158242919948,Object_Land_Pattern_Large,4,0,0,3600713.0,3602368.0,1655.0
146,choice,choice,25,4.0,Solid,2.0,77.4158242919948,Animal_Land_Pattern_Large,0,0,0,3603411.0,3605212.0,1801.0
146,choice,choice,25,4.0,Solid,2.0,77.4158242919948,Object_Land_Pattern_Large,4,0,0,3605361.0,3606364.0,1003.0
146,choice,choice,25,4.0,Solid,2.0,77.4158242919948,Animal_Land_Pattern_Large,0,0,0,3606454.0,3607095.0,641.0
146,choice,choice,25,4.0,Solid,2.0,77.4158242919948,Object_Sea_Solid_Small,1,0,1,3607165.0,3607600.0,435.0
146,choice,choice,25,4.0,Solid,2.0,77.4158242919948,Animal_Land_Pattern_Large,0,0,0,3607619.0,3607932.0,313.0
146,choice,choice,25,4.0,Solid,2.0,77.4158242919948,Object_Sea_Solid_Small,1,0,1,3607952.0,3608279.0,327.0
146,choice,choice,25,4.0,Solid,2.0,77.4158242919948,Animal_Land_Pattern_Large,0,0,0,3608301.0,3608602.0,301.0
146,choice,choice,25,4.0,Solid,2.0,77.4158242919948,Object_Sea_Solid_Small,1,0,1,3608644.0,3609100.0,456.0
146,choice,choice,25,4.0,Solid,2.0,77.4158242919948,fixation,-1,1,0,3609297.0,3609636.0,339.0
146,choice,choice,25,4.0,Solid,2.0,77.4158242919948,Object_Sea_Pattern_Large,2,0,0,3609663.0,3609864.0,201.0
146,choice,choice,25,4.0,Solid,2.0,77.4158242919948,fixation,-1,1,0,3609889.0,3610264.0,375.0
146,choice,choice,25,4.0,Solid,2.0,77.4158242919948,Object_Sea_Solid_Small,1,0,1,3610288.0,3610486.0,198.0
146,choice,choice,25,4.0,Solid,2.0,77.4158242919948,Animal_Land_Pattern_Large,0,0,0,3610506.0,3610855.0,349.0
146,choice,choice,25,4.0,Solid,2.0,77.4158242919948,Object_Sea_Solid_Small,1,0,1,3610878.0,3611319.0,441.0
146,choice,choice,25,4.0,Solid,2.0,77.4158242919948,Object_Land_Pattern_Large,4,0,0,3611510.0,3611877.0,367.0
146,choice,choice,25,4.0,Solid,2.0,77.4158242919948,Object_Sea_Solid_Small,1,0,1,3611904.0,3612666.0,762.0
146,choice,choice,25,4.0,Solid,2.0,77.4158242919948,Object_Land_Pattern_Large,4,0,0,3612917.0,3613166.0,249.0
146,choice,choice,25,4.0,Solid,2.0,77.4158242919948,Object_Sea_Pattern_Large,2,0,0,3613206.0,3613538.0,332.0
146,choice,choice,25,4.0,Solid,2.0,77.4158242919948,fixation,-1,1,0,3613561.0,3614184.0,623.0
146,choice,choice,25,4.0,Solid,2.0,77.4158242919948,Object_Sea_Solid_Small,1,0,1,3614211.0,3614517.0,306.0
146,choice,choice,25,4.0,Solid,2.0,77.4158242919948,fixation,-1,1,0,3614749.0,3615102.0,353.0
146,choice,choice,25,4.0,Solid,2.0,77.4158242919948,Object_Sea_Solid_Small,1,0,1,3615143.0,3615383.0,240.0
146,choice,choice,25,4.0,Solid,2.0,77.4158242919948,fixation,-1,1,0,3615418.0,3616051.0,633.0
146,choice,choice,25,4.0,Solid,2.0,77.4158242919948,Object_Sea_Pattern_Large,2,0,0,3616075.0,3616339.0,264.0
146,choice,choice,25,4.0,Solid,2.0,77.4158242919948,Animal_Sea_Solid_Small,3,0,1,3616364.0,3616765.0,401.0
146,choice,choice,25,4.0,Solid,2.0,77.4158242919948,Object_Sea_Solid_Small,1,0,1,3616798.0,3617461.0,663.0
146,choice,choice,25,4.0,Solid,2.0,77.4158242919948,Animal_Land_Pattern_Large,0,0,0,3617690.0,3618487.0,797.0
146,choice,choice,25,4.0,Solid,2.0,77.4158242919948,Object_Sea_Solid_Small,1,0,1,3618566.0,3619714.0,1148.0
146,choice,choice,25,4.0,Solid,2.0,77.4158242919948,Animal_Sea_Solid_Small,3,0,1,3620338.0,3620696.0,358.0
146,choice,choice,25,4.0,Solid,2.0,77.4158242919948,Object_Sea_Pattern_Large,2,0,0,3620734.0,3621071.0,337.0
146,choice,choice,25,4.0,Solid,2.0,77.4158242919948,Animal_Sea_Solid_Small,3,0,1,3621323.0,3621651.0,328.0
146,choice,choice,25,4.0,Solid,2.0,77.4158242919948,Animal_Land_Pattern_Large,0,0,0,3621672.0,3622159.0,487.0
146,choice,choice,25,4.0,Solid,2.0,77.4158242919948,Object_Land_Pattern_Large,4,0,0,3622183.0,3622395.0,212.0
146,choice,choice,25,4.0,Solid,2.0,77.4158242919948,Object_Sea_Solid_Small,1,0,1,3622600.0,3622778.0,178.0
146,choice,choice,25,4.0,Solid,2.0,77.4158242919948,Animal_Land_Pattern_Large,0,0,0,3622802.0,3623432.0,630.0
146,choice,choice,25,4.0,Solid,2.0,77.4158242919948,Object_Sea_Pattern_Large,2,0,0,3624069.0,3624283.0,214.0
146,choice,choice,25,4.0,Solid,2.0,77.4158242919948,Animal_Land_Solid_Small,5,0,1,3624318.0,3624625.0,307.0
146,choice,choice,25,4.0,Solid,2.0,77.4158242919948,fixation,-1,1,0,3624948.0,3625271.0,323.0
146,choice,choice,25,4.0,Solid,2.0,77.4158242919948,Object_Sea_Solid_Small,1,0,1,3625307.0,3625595.0,288.0
146,choice,choice,25,4.0,Solid,2.0,77.4158242919948,Animal_Land_Pattern_Large,0,0,0,3625637.0,3625798.0,161.0
146,choice,choice,25,4.0,Solid,2.0,77.4158242919948,Object_Sea_Solid_Small,1,0,1,3626052.0,3626158.0,106.0
146,choice,choice,25,4.0,Solid,2.0,77.4158242919948,Animal_Land_Pattern_Large,0,0,0,3626209.0,3626502.0,293.0
146,choice,choice,25,4.0,Solid,2.0,77.4158242919948,Animal_Sea_Solid_Small,3,0,1,3626723.0,3627255.0,532.0
146,choice,choice,25,4.0,Solid,2.0,77.4158242919948,Object_Sea_Solid_Small,1,0,1,3628114.0,3628581.0,467.0
146,choice,choice,25,4.0,Solid,2.0,77.4158242919948,Animal_Sea_Solid_Small,3,0,1,3628801.0,3629084.0,283.0
146,choice,choice,25,4.0,Solid,2.0,77.4158242919948,Object_Sea_Solid_Small,1,0,1,3629127.0,3629342.0,215.0
146,choice,choice,25,4.0,Solid,2.0,77.4158242919948,Animal_Sea_Solid_Small,3,0,1,3629529.0,3629869.0,340.0
146,choice,choice,25,4.0,Solid,2.0,77.4158242919948,Animal_Land_Solid_Small,5,0,1,3629894.0,3630208.0,314.0
146,choice,choice,25,4.0,Solid,2.0,77.4158242919948,Animal_Sea_Solid_Small,3,0,1,3630238.0,3630458.0,220.0
146,choice,choice,25,4.0,Solid,2.0,77.4158242919948,Animal_Land_Pattern_Large,0,0,0,3630532.0,3630816.0,284.0
146,choice,choice,25,4.0,Solid,2.0,77.4158242919948,Object_Land_Pattern_Large,4,0,0,3630857.0,3631280.0,423.0
146,choice,choice,25,4.0,Solid,2.0,77.4158242919948,Object_Sea_Solid_Small,1,0,1,3631306.0,3631507.0,201.0
146,choice,choice,26,4.0,Land,1.0,18.965493542025797,Animal_Land_Pattern_Large,0,0,1,3634625.0,3635139.0,514.0
146,choice,choice,26,4.0,Land,1.0,18.965493542025797,Object_Sea_Solid_Small,1,0,0,3635529.0,3635798.0,269.0
146,choice,choice,26,4.0,Land,1.0,18.965493542025797,Animal_Land_Pattern_Large,0,0,1,3635822.0,3637248.0,1426.0
146,choice,choice,26,4.0,Land,1.0,18.965493542025797,Object_Land_Pattern_Large,4,0,1,3638146.0,3641706.0,3560.0
146,choice,choice,26,4.0,Land,1.0,18.965493542025797,Animal_Land_Pattern_Large,0,0,1,3642181.0,3642399.0,218.0
146,choice,choice,26,4.0,Land,1.0,18.965493542025797,Object_Land_Pattern_Large,4,0,1,3642422.0,3644250.0,1828.0
146,choice,choice,26,4.0,Land,1.0,18.965493542025797,Animal_Land_Pattern_Large,0,0,1,3644306.0,3644505.0,199.0
146,choice,choice,26,4.0,Land,1.0,18.965493542025797,Animal_Land_Solid_Small,5,0,1,3644548.0,3646260.0,1712.0
146,choice,choice,26,4.0,Land,1.0,18.965493542025797,Object_Land_Pattern_Large,4,0,1,3646339.0,3647338.0,999.0
146,choice,choice,26,4.0,Land,1.0,18.965493542025797,fixation,-1,1,0,3647410.0,3647569.0,159.0
146,choice,choice,26,4.0,Land,1.0,18.965493542025797,Animal_Land_Solid_Small,5,0,1,3647593.0,3648072.0,479.0
146,choice,choice,26,4.0,Land,1.0,18.965493542025797,Animal_Land_Pattern_Large,0,0,1,3648153.0,3649046.0,893.0
146,choice,choice,26,4.0,Land,1.0,18.965493542025797,Object_Sea_Solid_Small,1,0,0,3649365.0,3649583.0,218.0
146,choice,choice,26,4.0,Land,1.0,18.965493542025797,Animal_Land_Pattern_Large,0,0,1,3649772.0,3651118.0,1346.0
146,choice,choice,26,4.0,Land,1.0,18.965493542025797,Object_Land_Pattern_Large,4,0,1,3651804.0,3652072.0,268.0
146,choice,choice,26,4.0,Land,1.0,18.965493542025797,Animal_Land_Pattern_Large,0,0,1,3652101.0,3652539.0,438.0
146,choice,choice,27,4.0,Object,1.0,30.297704834025353,Object_Sea_Solid_Small,1,0,1,3657155.0,3657418.0,263.0
146,choice,choice,27,4.0,Object,1.0,30.297704834025353,Animal_Land_Pattern_Large,0,0,0,3657665.0,3658962.0,1297.0
146,choice,choice,27,4.0,Object,1.0,30.297704834025353,Object_Sea_Solid_Small,1,0,1,3659477.0,3661105.0,1628.0
146,choice,choice,27,4.0,Object,1.0,30.297704834025353,Animal_Land_Pattern_Large,0,0,0,3661215.0,3661541.0,326.0
146,choice,choice,27,4.0,Object,1.0,30.297704834025353,Object_Sea_Solid_Small,1,0,1,3661562.0,3662613.0,1051.0
146,choice,choice,27,4.0,Object,1.0,30.297704834025353,Animal_Land_Pattern_Large,0,0,0,3662633.0,3663229.0,596.0
146,choice,choice,27,4.0,Object,1.0,30.297704834025353,Object_Sea_Solid_Small,1,0,1,3663246.0,3664158.0,912.0
146,choice,choice,27,4.0,Object,1.0,30.297704834025353,Object_Sea_Pattern_Large,2,0,1,3664207.0,3664458.0,251.0
146,choice,choice,27,4.0,Object,1.0,30.297704834025353,Object_Sea_Solid_Small,1,0,1,3664482.0,3664760.0,278.0
146,choice,choice,27,4.0,Object,1.0,30.297704834025353,Animal_Sea_Solid_Small,3,0,0,3664783.0,3664991.0,208.0
146,choice,choice,27,4.0,Object,1.0,30.297704834025353,Animal_Land_Solid_Small,5,0,0,3665015.0,3665649.0,634.0
146,choice,choice,27,4.0,Object,1.0,30.297704834025353,Object_Sea_Pattern_Large,2,0,1,3665697.0,3665934.0,237.0
146,choice,choice,27,4.0,Object,1.0,30.297704834025353,Object_Sea_Solid_Small,1,0,1,3665979.0,3668296.0,2317.0
146,choice,choice,27,4.0,Object,1.0,30.297704834025353,Animal_Land_Pattern_Large,0,0,0,3668716.0,3668902.0,186.0
146,choice,choice,27,4.0,Object,1.0,30.297704834025353,Object_Sea_Pattern_Large,2,0,1,3668969.0,3669265.0,296.0
146,choice,choice,27,4.0,Object,1.0,30.297704834025353,Object_Sea_Solid_Small,1,0,1,3669286.0,3670198.0,912.0
146,choice,choice,27,4.0,Object,1.0,30.297704834025353,Animal_Land_Pattern_Large,0,0,0,3670243.0,3670610.0,367.0
146,choice,choice,27,4.0,Object,1.0,30.297704834025353,Animal_Sea_Solid_Small,3,0,0,3670629.0,3671417.0,788.0
146,choice,choice,27,4.0,Object,1.0,30.297704834025353,Animal_Land_Solid_Small,5,0,0,3671701.0,3671936.0,235.0
146,choice,choice,27,4.0,Object,1.0,30.297704834025353,Object_Sea_Pattern_Large,2,0,1,3671962.0,3672159.0,197.0
146,choice,choice,27,4.0,Object,1.0,30.297704834025353,Animal_Land_Solid_Small,5,0,0,3672390.0,3672652.0,262.0
146,choice,choice,27,4.0,Object,1.0,30.297704834025353,fixation,-1,1,0,3672686.0,3672945.0,259.0
146,choice,choice,27,4.0,Object,1.0,30.297704834025353,Object_Land_Pattern_Large,4,0,1,3672971.0,3673517.0,546.0
146,choice,choice,27,4.0,Object,1.0,30.297704834025353,Animal_Land_Solid_Small,5,0,0,3673554.0,3674511.0,957.0
146,choice,choice,27,4.0,Object,1.0,30.297704834025353,Animal_Sea_Solid_Small,3,0,0,3674775.0,3675122.0,347.0
146,choice,choice,27,4.0,Object,1.0,30.297704834025353,Object_Land_Pattern_Large,4,0,1,3675144.0,3675702.0,558.0
146,choice,choice,27,4.0,Object,1.0,30.297704834025353,Animal_Land_Pattern_Large,0,0,0,3675770.0,3676424.0,654.0
146,choice,choice,27,4.0,Object,1.0,30.297704834025353,Animal_Land_Solid_Small,5,0,0,3677043.0,3677331.0,288.0
146,choice,choice,27,4.0,Object,1.0,30.297704834025353,Object_Sea_Pattern_Large,2,0,1,3677355.0,3677685.0,330.0
146,choice,choice,27,4.0,Object,1.0,30.297704834025353,Object_Land_Pattern_Large,4,0,1,3677731.0,3678140.0,409.0
146,choice,choice,27,4.0,Object,1.0,30.297704834025353,Animal_Sea_Solid_Small,3,0,0,3678349.0,3678699.0,350.0
146,choice,choice,27,4.0,Object,1.0,30.297704834025353,Object_Sea_Pattern_Large,2,0,1,3678724.0,3679103.0,379.0
146,choice,choice,27,4.0,Object,1.0,30.297704834025353,Animal_Sea_Solid_Small,3,0,0,3679126.0,3679340.0,214.0
146,choice,choice,27,4.0,Object,1.0,30.297704834025353,Object_Sea_Pattern_Large,2,0,1,3679372.0,3679653.0,281.0
146,choice,choice,27,4.0,Object,1.0,30.297704834025353,Animal_Sea_Solid_Small,3,0,0,3680008.0,3680183.0,175.0
146,choice,choice,27,4.0,Object,1.0,30.297704834025353,fixation,-1,1,0,3680383.0,3680641.0,258.0
146,choice,choice,27,4.0,Object,1.0,30.297704834025353,Object_Sea_Solid_Small,1,0,1,3680678.0,3680985.0,307.0
146,choice,choice,27,4.0,Object,1.0,30.297704834025353,Animal_Land_Pattern_Large,0,0,0,3681037.0,3681356.0,319.0
146,choice,choice,27,4.0,Object,1.0,30.297704834025353,Object_Sea_Solid_Small,1,0,1,3681393.0,3681882.0,489.0
146,choice,choice,27,4.0,Object,1.0,30.297704834025353,Animal_Land_Pattern_Large,0,0,0,3682107.0,3682660.0,553.0
146,choice,choice,27,4.0,Object,1.0,30.297704834025353,Object_Sea_Solid_Small,1,0,1,3682681.0,3683991.0,1310.0
146,choice,choice,27,4.0,Object,1.0,30.297704834025353,Object_Land_Pattern_Large,4,0,1,3684384.0,3686220.0,1836.0
146,choice,choice,27,4.0,Object,1.0,30.297704834025353,Animal_Land_Pattern_Large,0,0,0,3686519.0,3686700.0,181.0
146,choice,choice,28,4.0,Pattern,1.0,27.556774249998853,Object_Land_Pattern_Large,4,0,1,3690932.0,3693166.0,2234.0
146,choice,choice,28,4.0,Pattern,1.0,27.556774249998853,Animal_Land_Pattern_Large,0,0,1,3693486.0,3693906.0,420.0
146,choice,choice,28,4.0,Pattern,1.0,27.556774249998853,Object_Sea_Solid_Small,1,0,0,3694157.0,3694456.0,299.0
146,choice,choice,28,4.0,Pattern,1.0,27.556774249998853,Animal_Land_Pattern_Large,0,0,1,3694477.0,3694710.0,233.0
146,choice,choice,28,4.0,Pattern,1.0,27.556774249998853,Object_Sea_Solid_Small,1,0,0,3694853.0,3695181.0,328.0
146,choice,choice,28,4.0,Pattern,1.0,27.556774249998853,Animal_Land_Pattern_Large,0,0,1,3695480.0,3695818.0,338.0
146,choice,choice,28,4.0,Pattern,1.0,27.556774249998853,Object_Land_Pattern_Large,4,0,1,3695882.0,3696072.0,190.0
146,choice,choice,28,4.0,Pattern,1.0,27.556774249998853,Object_Sea_Solid_Small,1,0,0,3696106.0,3696437.0,331.0
146,choice,choice,28,4.0,Pattern,1.0,27.556774249998853,Object_Sea_Pattern_Large,2,0,1,3696469.0,3696701.0,232.0
146,choice,choice,28,4.0,Pattern,1.0,27.556774249998853,fixation,-1,1,0,3696736.0,3696937.0,201.0
146,choice,choice,28,4.0,Pattern,1.0,27.556774249998853,Object_Land_Pattern_Large,4,0,1,3696972.0,3698515.0,1543.0
146,choice,choice,28,4.0,Pattern,1.0,27.556774249998853,Animal_Land_Pattern_Large,0,0,1,3698952.0,3699204.0,252.0
146,choice,choice,28,4.0,Pattern,1.0,27.556774249998853,Object_Land_Pattern_Large,4,0,1,3699241.0,3699816.0,575.0
146,choice,choice,28,4.0,Pattern,1.0,27.556774249998853,Object_Sea_Solid_Small,1,0,0,3699870.0,3700640.0,770.0
146,choice,choice,28,4.0,Pattern,1.0,27.556774249998853,Object_Sea_Pattern_Large,2,0,1,3700660.0,3701554.0,894.0
146,choice,choice,28,4.0,Pattern,1.0,27.556774249998853,Animal_Sea_Solid_Small,3,0,0,3701590.0,3701979.0,389.0
146,choice,choice,28,4.0,Pattern,1.0,27.556774249998853,Object_Sea_Solid_Small,1,0,0,3702164.0,3702460.0,296.0
146,choice,choice,28,4.0,Pattern,1.0,27.556774249998853,Object_Sea_Pattern_Large,2,0,1,3702477.0,3702958.0,481.0
146,choice,choice,28,4.0,Pattern,1.0,27.556774249998853,Animal_Land_Solid_Small,5,0,0,3702975.0,3703374.0,399.0
146,choice,choice,28,4.0,Pattern,1.0,27.556774249998853,Animal_Sea_Solid_Small,3,0,0,3703672.0,3703993.0,321.0
146,choice,choice,28,4.0,Pattern,1.0,27.556774249998853,Animal_Land_Solid_Small,5,0,0,3704011.0,3704670.0,659.0
146,choice,choice,28,4.0,Pattern,1.0,27.556774249998853,Animal_Sea_Solid_Small,3,0,0,3704705.0,3704988.0,283.0
146,choice,choice,28,4.0,Pattern,1.0,27.556774249998853,Animal_Land_Solid_Small,5,0,0,3705014.0,3705403.0,389.0
146,choice,choice,28,4.0,Pattern,1.0,27.556774249998853,Animal_Sea_Solid_Small,3,0,0,3705460.0,3705945.0,485.0
146,choice,choice,28,4.0,Pattern,1.0,27.556774249998853,Object_Land_Pattern_Large,4,0,1,3706147.0,3706328.0,181.0
146,choice,choice,28,4.0,Pattern,1.0,27.556774249998853,fixation,-1,1,0,3706359.0,3706864.0,505.0
146,choice,choice,28,4.0,Pattern,1.0,27.556774249998853,Object_Sea_Pattern_Large,2,0,1,3706891.0,3707058.0,167.0
146,choice,choice,28,4.0,Pattern,1.0,27.556774249998853,Object_Land_Pattern_Large,4,0,1,3707107.0,3707817.0,710.0
146,choice,choice,28,4.0,Pattern,1.0,27.556774249998853,Animal_Land_Pattern_Large,0,0,1,3707885.0,3708117.0,232.0
146,choice,choice,28,4.0,Pattern,1.0,27.556774249998853,Object_Sea_Solid_Small,1,0,0,3708149.0,3708463.0,314.0
146,choice,choice,28,4.0,Pattern,1.0,27.556774249998853,Object_Sea_Pattern_Large,2,0,1,3708485.0,3709423.0,938.0
146,choice,choice,28,4.0,Pattern,1.0,27.556774249998853,Object_Land_Pattern_Large,4,0,1,3709463.0,3709849.0,386.0
146,choice,choice,28,4.0,Pattern,1.0,27.556774249998853,Animal_Sea_Solid_Small,3,0,0,3709870.0,3710357.0,487.0
146,choice,choice,28,4.0,Pattern,1.0,27.556774249998853,Object_Land_Pattern_Large,4,0,1,3710384.0,3711098.0,714.0
146,choice,choice,28,4.0,Pattern,1.0,27.556774249998853,Animal_Land_Pattern_Large,0,0,1,3711160.0,3712576.0,1416.0
146,choice,choice,28,4.0,Pattern,1.0,27.556774249998853,Object_Sea_Solid_Small,1,0,0,3714270.0,3714550.0,280.0
146,choice,choice,28,4.0,Pattern,1.0,27.556774249998853,Object_Land_Pattern_Large,4,0,1,3714589.0,3715167.0,578.0
146,choice,choice,28,4.0,Pattern,1.0,27.556774249998853,Animal_Sea_Solid_Small,3,0,0,3715442.0,3715798.0,356.0
146,choice,choice,28,4.0,Pattern,1.0,27.556774249998853,Object_Sea_Pattern_Large,2,0,1,3715847.0,3716047.0,200.0
146,choice,choice,28,4.0,Pattern,1.0,27.556774249998853,Animal_Land_Pattern_Large,0,0,1,3716106.0,3716467.0,361.0
146,choice,choice,28,4.0,Pattern,1.0,27.556774249998853,Object_Land_Pattern_Large,4,0,1,3716493.0,3716652.0,159.0
146,choice,choice,29,4.0,Animal,1.0,5.796859125024639,Animal_Land_Pattern_Large,0,0,1,3720862.0,3721550.0,688.0
146,choice,choice,29,4.0,Animal,1.0,5.796859125024639,Animal_Land_Solid_Small,5,0,1,3721975.0,3722086.0,111.0
146,choice,choice,29,4.0,Animal,1.0,5.796859125024639,Animal_Sea_Solid_Small,3,0,1,3722423.0,3723566.0,1143.0
146,choice,choice,29,4.0,Animal,1.0,5.796859125024639,Object_Land_Pattern_Large,4,0,0,3723623.0,3723901.0,278.0
146,choice,choice,29,4.0,Animal,1.0,5.796859125024639,Animal_Sea_Solid_Small,3,0,1,3723926.0,3724500.0,574.0
146,choice,choice,29,4.0,Animal,1.0,5.796859125024639,Animal_Land_Pattern_Large,0,0,1,3724556.0,3725358.0,802.0
146,choice,choice,29,4.0,Animal,1.0,5.796859125024639,Animal_Sea_Solid_Small,3,0,1,3725455.0,3726296.0,841.0
146,choice,choice,30,4.0,Large,1.0,15.213187291985378,Animal_Land_Pattern_Large,0,0,1,3729446.0,3729755.0,309.0
146,choice,choice,30,4.0,Large,1.0,15.213187291985378,Object_Land_Pattern_Large,4,0,1,3730019.0,3731793.0,1774.0
146,choice,choice,30,4.0,Large,1.0,15.213187291985378,Animal_Land_Pattern_Large,0,0,1,3731856.0,3732267.0,411.0
146,choice,choice,30,4.0,Large,1.0,15.213187291985378,Object_Sea_Solid_Small,1,0,0,3732293.0,3732510.0,217.0
146,choice,choice,30,4.0,Large,1.0,15.213187291985378,Animal_Land_Pattern_Large,0,0,1,3732535.0,3736668.0,4133.0
146,choice,choice,30,4.0,Large,1.0,15.213187291985378,Object_Sea_Pattern_Large,2,0,1,3736975.0,3739676.0,2701.0
146,choice,choice,30,4.0,Large,1.0,15.213187291985378,fixation,-1,1,0,3739909.0,3740279.0,370.0
146,choice,choice,30,4.0,Large,1.0,15.213187291985378,Animal_Land_Solid_Small,5,0,0,3740541.0,3741130.0,589.0
146,choice,choice,30,4.0,Large,1.0,15.213187291985378,Animal_Sea_Solid_Small,3,0,0,3741182.0,3741808.0,626.0
146,choice,choice,30,4.0,Large,1.0,15.213187291985378,Object_Sea_Pattern_Large,2,0,1,3741830.0,3742061.0,231.0
146,choice,choice,30,4.0,Large,1.0,15.213187291985378,Object_Sea_Solid_Small,1,0,0,3742086.0,3742408.0,322.0
146,choice,choice,30,4.0,Large,1.0,15.213187291985378,Animal_Land_Pattern_Large,0,0,1,3742446.0,3742773.0,327.0
146,choice,choice,30,4.0,Large,1.0,15.213187291985378,Object_Land_Pattern_Large,4,0,1,3742798.0,3743233.0,435.0
146,choice,choice,30,4.0,Large,1.0,15.213187291985378,Animal_Land_Pattern_Large,0,0,1,3743258.0,3743547.0,289.0
146,choice,choice,30,4.0,Large,1.0,15.213187291985378,Object_Sea_Solid_Small,1,0,0,3743581.0,3744037.0,456.0
146,choice,choice,31,4.0,Sea,2.0,13.293373082997276,Animal_Land_Pattern_Large,0,0,0,3747188.0,3747802.0,614.0
146,choice,choice,31,4.0,Sea,2.0,13.293373082997276,Object_Sea_Solid_Small,1,0,1,3747858.0,3750699.0,2841.0
146,choice,choice,31,4.0,Sea,2.0,13.293373082997276,Animal_Land_Pattern_Large,0,0,0,3750842.0,3751144.0,302.0
146,choice,choice,31,4.0,Sea,2.0,13.293373082997276,Object_Sea_Solid_Small,1,0,1,3751170.0,3751404.0,234.0
146,choice,choice,31,4.0,Sea,2.0,13.293373082997276,Object_Sea_Pattern_Large,2,0,1,3751421.0,3753913.0,2492.0
146,choice,choice,31,4.0,Sea,2.0,13.293373082997276,Animal_Land_Solid_Small,5,0,0,3753947.0,3754283.0,336.0
146,choice,choice,31,4.0,Sea,2.0,13.293373082997276,Animal_Sea_Solid_Small,3,0,1,3754299.0,3754569.0,270.0
146,choice,choice,31,4.0,Sea,2.0,13.293373082997276,fixation,-1,1,0,3754580.0,3754890.0,310.0
146,choice,choice,31,4.0,Sea,2.0,13.293373082997276,Object_Sea_Solid_Small,1,0,1,3754915.0,3756102.0,1187.0
146,choice,choice,31,4.0,Sea,2.0,13.293373082997276,Object_Sea_Pattern_Large,2,0,1,3756180.0,3757149.0,969.0
146,choice,choice,31,4.0,Sea,2.0,13.293373082997276,Object_Sea_Solid_Small,1,0,1,3757169.0,3757632.0,463.0
146,choice,choice,31,4.0,Sea,2.0,13.293373082997276,Object_Land_Pattern_Large,4,0,0,3757838.0,3758098.0,260.0
146,choice,choice,31,4.0,Sea,2.0,13.293373082997276,Animal_Sea_Solid_Small,3,0,1,3758252.0,3759498.0,1246.0
146,choice,choice,31,4.0,Sea,2.0,13.293373082997276,Object_Sea_Pattern_Large,2,0,1,3759549.0,3759821.0,272.0
146,choice,choice,31,4.0,Sea,2.0,13.293373082997276,Animal_Sea_Solid_Small,3,0,1,3759858.0,3760051.0,193.0
146,choice,choice,32,4.0,Small,2.0,10.28934512496926,Animal_Sea_Solid_Small,3,0,1,3763796.0,3765020.0,1224.0
146,choice,choice,32,4.0,Small,2.0,10.28934512496926,fixation,-1,1,0,3765372.0,3765829.0,457.0
146,choice,choice,32,4.0,Small,2.0,10.28934512496926,Animal_Sea_Solid_Small,3,0,1,3765879.0,3766561.0,682.0
146,choice,choice,32,4.0,Small,2.0,10.28934512496926,Animal_Land_Pattern_Large,0,0,0,3766795.0,3766960.0,165.0
146,choice,choice,32,4.0,Small,2.0,10.28934512496926,Object_Sea_Solid_Small,1,0,1,3766994.0,3768173.0,1179.0
146,choice,choice,32,4.0,Small,2.0,10.28934512496926,Animal_Land_Pattern_Large,0,0,0,3768213.0,3768401.0,188.0
146,choice,choice,32,4.0,Small,2.0,10.28934512496926,Animal_Sea_Solid_Small,3,0,1,3768452.0,3769401.0,949.0
146,choice,choice,32,4.0,Small,2.0,10.28934512496926,Animal_Land_Solid_Small,5,0,1,3769455.0,3769706.0,251.0
146,choice,choice,32,4.0,Small,2.0,10.28934512496926,Object_Sea_Solid_Small,1,0,1,3769750.0,3770147.0,397.0
146,choice,choice,32,4.0,Small,2.0,10.28934512496926,Animal_Land_Pattern_Large,0,0,0,3770163.0,3770431.0,268.0
146,choice,choice,32,4.0,Small,2.0,10.28934512496926,Animal_Sea_Solid_Small,3,0,1,3770485.0,3770639.0,154.0
146,choice,choice,32,4.0,Small,2.0,10.28934512496926,Animal_Land_Solid_Small,5,0,1,3770800.0,3771502.0,702.0
146,choice,choice,32,4.0,Small,2.0,10.28934512496926,Animal_Land_Pattern_Large,0,0,0,3771801.0,3772217.0,416.0
146,choice,choice,32,4.0,Small,2.0,10.28934512496926,Object_Land_Pattern_Large,4,0,0,3772238.0,3772500.0,262.0
146,choice,choice,32,4.0,Small,2.0,10.28934512496926,Animal_Land_Pattern_Large,0,0,0,3772537.0,3772786.0,249.0
146,choice,choice,32,4.0,Small,2.0,10.28934512496926,Object_Sea_Pattern_Large,2,0,0,3772818.0,3773022.0,204.0
146,choice,choice,32,4.0,Small,2.0,10.28934512496926,Animal_Land_Solid_Small,5,0,1,3773077.0,3773483.0,406.0
146,choice,choice,33,5.0,Large,2.0,63.394805374904536,Object_Sea_Solid_Large,0,0,1,4043443.0,4044698.0,1255.0
146,choice,choice,33,5.0,Large,2.0,63.394805374904536,Animal_Land_Solid_Large,1,0,1,4044833.0,4045224.0,391.0
146,choice,choice,33,5.0,Large,2.0,63.394805374904536,Animal_Sea_Pattern_Small,2,0,0,4045258.0,4046048.0,790.0
146,choice,choice,33,5.0,Large,2.0,63.394805374904536,Object_Sea_Solid_Large,0,0,1,4046128.0,4052134.0,6006.0
146,choice,choice,33,5.0,Large,2.0,63.394805374904536,Animal_Land_Solid_Large,1,0,1,4053180.0,4055411.0,2231.0
146,choice,choice,33,5.0,Large,2.0,63.394805374904536,Animal_Sea_Pattern_Large,3,0,1,4055501.0,4055753.0,252.0
146,choice,choice,33,5.0,Large,2.0,63.394805374904536,Object_Sea_Solid_Large,0,0,1,4055772.0,4056101.0,329.0
146,choice,choice,33,5.0,Large,2.0,63.394805374904536,Animal_Sea_Pattern_Large,3,0,1,4056121.0,4056394.0,273.0
146,choice,choice,33,5.0,Large,2.0,63.394805374904536,Object_Sea_Solid_Large,0,0,1,4056416.0,4057210.0,794.0
146,choice,choice,33,5.0,Large,2.0,63.394805374904536,Animal_Sea_Pattern_Small,2,0,0,4057244.0,4059215.0,1971.0
146,choice,choice,33,5.0,Large,2.0,63.394805374904536,Object_Sea_Solid_Large,0,0,1,4059255.0,4059480.0,225.0
146,choice,choice,33,5.0,Large,2.0,63.394805374904536,Object_Land_Solid_Small,4,0,0,4059523.0,4060272.0,749.0
146,choice,choice,33,5.0,Large,2.0,63.394805374904536,Animal_Land_Solid_Large,1,0,1,4060333.0,4060572.0,239.0
146,choice,choice,33,5.0,Large,2.0,63.394805374904536,Object_Land_Pattern_Small,5,0,0,4060593.0,4061370.0,777.0
146,choice,choice,33,5.0,Large,2.0,63.394805374904536,Animal_Land_Solid_Large,1,0,1,4061406.0,4061647.0,241.0
146,choice,choice,33,5.0,Large,2.0,63.394805374904536,Object_Land_Solid_Small,4,0,0,4061677.0,4062084.0,407.0
146,choice,choice,33,5.0,Large,2.0,63.394805374904536,Animal_Land_Solid_Large,1,0,1,4062105.0,4062369.0,264.0
146,choice,choice,33,5.0,Large,2.0,63.394805374904536,Object_Land_Pattern_Small,5,0,0,4062393.0,4062578.0,185.0
146,choice,choice,33,5.0,Large,2.0,63.394805374904536,Animal_Land_Solid_Large,1,0,1,4062603.0,4062850.0,247.0
146,choice,choice,33,5.0,Large,2.0,63.394805374904536,fixation,-1,1,0,4063345.0,4063599.0,254.0
146,choice,choice,33,5.0,Large,2.0,63.394805374904536,Object_Land_Pattern_Small,5,0,0,4063622.0,4063884.0,262.0
146,choice,choice,33,5.0,Large,2.0,63.394805374904536,Animal_Land_Solid_Large,1,0,1,4063919.0,4064308.0,389.0
146,choice,choice,33,5.0,Large,2.0,63.394805374904536,Object_Land_Solid_Small,4,0,0,4064630.0,4064945.0,315.0
146,choice,choice,33,5.0,Large,2.0,63.394805374904536,Animal_Land_Solid_Large,1,0,1,4064977.0,4065136.0,159.0
146,choice,choice,33,5.0,Large,2.0,63.394805374904536,Object_Land_Solid_Small,4,0,0,4065596.0,4065952.0,356.0
146,choice,choice,33,5.0,Large,2.0,63.394805374904536,Object_Land_Pattern_Small,5,0,0,4067050.0,4067475.0,425.0
146,choice,choice,33,5.0,Large,2.0,63.394805374904536,Animal_Land_Solid_Large,1,0,1,4067522.0,4067646.0,124.0
146,choice,choice,33,5.0,Large,2.0,63.394805374904536,Animal_Sea_Pattern_Large,3,0,1,4067939.0,4068081.0,142.0
146,choice,choice,33,5.0,Large,2.0,63.394805374904536,Animal_Sea_Pattern_Small,2,0,0,4068141.0,4068410.0,269.0
146,choice,choice,33,5.0,Large,2.0,63.394805374904536,Object_Land_Pattern_Small,5,0,0,4068436.0,4068691.0,255.0
146,choice,choice,33,5.0,Large,2.0,63.394805374904536,Object_Land_Solid_Small,4,0,0,4069010.0,4069157.0,147.0
146,choice,choice,33,5.0,Large,2.0,63.394805374904536,fixation,-1,1,0,4069198.0,4069464.0,266.0
146,choice,choice,33,5.0,Large,2.0,63.394805374904536,Object_Land_Solid_Small,4,0,0,4069490.0,4069786.0,296.0
146,choice,choice,33,5.0,Large,2.0,63.394805374904536,Animal_Sea_Pattern_Small,2,0,0,4069810.0,4070064.0,254.0
146,choice,choice,33,5.0,Large,2.0,63.394805374904536,Object_Land_Solid_Small,4,0,0,4070099.0,4070597.0,498.0
146,choice,choice,33,5.0,Large,2.0,63.394805374904536,Animal_Sea_Pattern_Small,2,0,0,4070917.0,4071710.0,793.0
146,choice,choice,33,5.0,Large,2.0,63.394805374904536,Object_Land_Solid_Small,4,0,0,4071790.0,4073092.0,1302.0
146,choice,choice,33,5.0,Large,2.0,63.394805374904536,Animal_Sea_Pattern_Small,2,0,0,4074139.0,4074433.0,294.0
146,choice,choice,33,5.0,Large,2.0,63.394805374904536,fixation,-1,1,0,4074491.0,4074782.0,291.0
146,choice,choice,33,5.0,Large,2.0,63.394805374904536,Object_Land_Solid_Small,4,0,0,4074813.0,4075144.0,331.0
146,choice,choice,33,5.0,Large,2.0,63.394805374904536,Animal_Sea_Pattern_Small,2,0,0,4075381.0,4075423.0,42.0
146,choice,choice,33,5.0,Large,2.0,63.394805374904536,Object_Land_Solid_Small,4,0,0,4075439.0,4076165.0,726.0
146,choice,choice,33,5.0,Large,2.0,63.394805374904536,Animal_Sea_Pattern_Large,3,0,1,4076225.0,4079344.0,3119.0
146,choice,choice,33,5.0,Large,2.0,63.394805374904536,Object_Sea_Solid_Large,0,0,1,4079448.0,4082610.0,3162.0
146,choice,choice,33,5.0,Large,2.0,63.394805374904536,Animal_Sea_Pattern_Large,3,0,1,4082829.0,4084221.0,1392.0
146,choice,choice,33,5.0,Large,2.0,63.394805374904536,Animal_Land_Solid_Large,1,0,1,4084316.0,4087432.0,3116.0
146,choice,choice,33,5.0,Large,2.0,63.394805374904536,Animal_Sea_Pattern_Large,3,0,1,4087683.0,4088100.0,417.0
146,choice,choice,33,5.0,Large,2.0,63.394805374904536,fixation,-1,1,0,4088125.0,4088428.0,303.0
146,choice,choice,33,5.0,Large,2.0,63.394805374904536,Animal_Sea_Pattern_Large,3,0,1,4088453.0,4088659.0,206.0
146,choice,choice,33,5.0,Large,2.0,63.394805374904536,Object_Sea_Solid_Large,0,0,1,4088707.0,4088983.0,276.0
146,choice,choice,33,5.0,Large,2.0,63.394805374904536,Animal_Sea_Pattern_Small,2,0,0,4089023.0,4089437.0,414.0
146,choice,choice,33,5.0,Large,2.0,63.394805374904536,Object_Sea_Solid_Large,0,0,1,4089462.0,4089616.0,154.0
146,choice,choice,33,5.0,Large,2.0,63.394805374904536,Animal_Sea_Pattern_Small,2,0,0,4089835.0,4090479.0,644.0
146,choice,choice,33,5.0,Large,2.0,63.394805374904536,Object_Sea_Solid_Large,0,0,1,4090546.0,4090745.0,199.0
146,choice,choice,33,5.0,Large,2.0,63.394805374904536,Animal_Sea_Pattern_Small,2,0,0,4090950.0,4091484.0,534.0
146,choice,choice,33,5.0,Large,2.0,63.394805374904536,Object_Sea_Solid_Large,0,0,1,4091553.0,4091830.0,277.0
146,choice,choice,33,5.0,Large,2.0,63.394805374904536,Animal_Sea_Pattern_Large,3,0,1,4091853.0,4092112.0,259.0
146,choice,choice,33,5.0,Large,2.0,63.394805374904536,Animal_Sea_Pattern_Small,2,0,0,4092424.0,4092601.0,177.0
146,choice,choice,33,5.0,Large,2.0,63.394805374904536,Object_Sea_Solid_Large,0,0,1,4092626.0,4093113.0,487.0
146,choice,choice,33,5.0,Large,2.0,63.394805374904536,Animal_Sea_Pattern_Small,2,0,0,4093175.0,4093754.0,579.0
146,choice,choice,33,5.0,Large,2.0,63.394805374904536,Animal_Sea_Pattern_Large,3,0,1,4093812.0,4094253.0,441.0
146,choice,choice,33,5.0,Large,2.0,63.394805374904536,Object_Sea_Solid_Large,0,0,1,4094484.0,4094743.0,259.0
146,choice,choice,33,5.0,Large,2.0,63.394805374904536,Animal_Sea_Pattern_Small,2,0,0,4094782.0,4094959.0,177.0
146,choice,choice,33,5.0,Large,2.0,63.394805374904536,fixation,-1,1,0,4094976.0,4095345.0,369.0
146,choice,choice,33,5.0,Large,2.0,63.394805374904536,Animal_Sea_Pattern_Large,3,0,1,4095387.0,4095631.0,244.0
146,choice,choice,33,5.0,Large,2.0,63.394805374904536,Object_Sea_Solid_Large,0,0,1,4095668.0,4095939.0,271.0
146,choice,choice,33,5.0,Large,2.0,63.394805374904536,Animal_Sea_Pattern_Small,2,0,0,4095983.0,4098990.0,3007.0
146,choice,choice,33,5.0,Large,2.0,63.394805374904536,Object_Sea_Solid_Large,0,0,1,4099447.0,4100383.0,936.0
146,choice,choice,33,5.0,Large,2.0,63.394805374904536,Animal_Sea_Pattern_Large,3,0,1,4100427.0,4101091.0,664.0
146,choice,choice,33,5.0,Large,2.0,63.394805374904536,fixation,-1,1,0,4101146.0,4101398.0,252.0
146,choice,choice,33,5.0,Large,2.0,63.394805374904536,Object_Land_Pattern_Small,5,0,0,4101416.0,4102081.0,665.0
146,choice,choice,33,5.0,Large,2.0,63.394805374904536,Object_Land_Solid_Small,4,0,0,4102131.0,4102584.0,453.0
146,choice,choice,33,5.0,Large,2.0,63.394805374904536,Object_Land_Pattern_Small,5,0,0,4102608.0,4102852.0,244.0
146,choice,choice,33,5.0,Large,2.0,63.394805374904536,Object_Land_Solid_Small,4,0,0,4102878.0,4103664.0,786.0
146,choice,choice,33,5.0,Large,2.0,63.394805374904536,Animal_Sea_Pattern_Small,2,0,0,4103706.0,4104684.0,978.0
146,choice,choice,33,5.0,Large,2.0,63.394805374904536,Animal_Sea_Pattern_Large,3,0,1,4105224.0,4105518.0,294.0
146,choice,choice,33,5.0,Large,2.0,63.394805374904536,Object_Sea_Solid_Large,0,0,1,4105544.0,4105836.0,292.0
146,choice,choice,33,5.0,Large,2.0,63.394805374904536,Animal_Sea_Pattern_Large,3,0,1,4105881.0,4106156.0,275.0
146,choice,choice,33,5.0,Large,2.0,63.394805374904536,Object_Land_Solid_Small,4,0,0,4106187.0,4106349.0,162.0
146,choice,choice,34,5.0,Sea,2.0,9.491680709063075,Animal_Sea_Pattern_Small,2,0,1,4109928.0,4110090.0,162.0
146,choice,choice,34,5.0,Sea,2.0,9.491680709063075,Object_Sea_Solid_Large,0,0,1,4110373.0,4113414.0,3041.0
146,choice,choice,34,5.0,Sea,2.0,9.491680709063075,Animal_Sea_Pattern_Large,3,0,1,4114016.0,4115609.0,1593.0
146,choice,choice,34,5.0,Sea,2.0,9.491680709063075,Object_Sea_Solid_Large,0,0,1,4115631.0,4116237.0,606.0
146,choice,choice,34,5.0,Sea,2.0,9.491680709063075,Animal_Sea_Pattern_Small,2,0,1,4116280.0,4117822.0,1542.0
146,choice,choice,34,5.0,Sea,2.0,9.491680709063075,Animal_Land_Solid_Large,1,0,0,4118664.0,4118890.0,226.0
146,choice,choice,35,5.0,Object,2.0,36.05053441703785,Object_Sea_Solid_Large,0,0,1,4123150.0,4123657.0,507.0
146,choice,choice,35,5.0,Object,2.0,36.05053441703785,Animal_Sea_Pattern_Small,2,0,0,4123683.0,4124094.0,411.0
146,choice,choice,35,5.0,Object,2.0,36.05053441703785,Object_Sea_Solid_Large,0,0,1,4124137.0,4124704.0,567.0
146,choice,choice,35,5.0,Object,2.0,36.05053441703785,Animal_Sea_Pattern_Large,3,0,0,4124772.0,4125087.0,315.0
146,choice,choice,35,5.0,Object,2.0,36.05053441703785,Object_Sea_Solid_Large,0,0,1,4125115.0,4127714.0,2599.0
146,choice,choice,35,5.0,Object,2.0,36.05053441703785,Animal_Sea_Pattern_Large,3,0,0,4127840.0,4128370.0,530.0
146,choice,choice,35,5.0,Object,2.0,36.05053441703785,Animal_Land_Solid_Large,1,0,0,4128430.0,4129620.0,1190.0
146,choice,choice,35,5.0,Object,2.0,36.05053441703785,Object_Land_Solid_Small,4,0,1,4129975.0,4130817.0,842.0
146,choice,choice,35,5.0,Object,2.0,36.05053441703785,Animal_Sea_Pattern_Small,2,0,0,4130860.0,4131476.0,616.0
146,choice,choice,35,5.0,Object,2.0,36.05053441703785,fixation,-1,1,0,4131547.0,4131748.0,201.0
146,choice,choice,35,5.0,Object,2.0,36.05053441703785,Object_Land_Solid_Small,4,0,1,4132500.0,4132899.0,399.0
146,choice,choice,35,5.0,Object,2.0,36.05053441703785,Object_Sea_Solid_Large,0,0,1,4132965.0,4134279.0,1314.0
146,choice,choice,35,5.0,Object,2.0,36.05053441703785,Animal_Sea_Pattern_Small,2,0,0,4134419.0,4135224.0,805.0
146,choice,choice,35,5.0,Object,2.0,36.05053441703785,Object_Land_Solid_Small,4,0,1,4135644.0,4137504.0,1860.0
146,choice,choice,35,5.0,Object,2.0,36.05053441703785,Animal_Sea_Pattern_Small,2,0,0,4137877.0,4137953.0,76.0
146,choice,choice,35,5.0,Object,2.0,36.05053441703785,Object_Land_Solid_Small,4,0,1,4137963.0,4138484.0,521.0
146,choice,choice,35,5.0,Object,2.0,36.05053441703785,Animal_Sea_Pattern_Small,2,0,0,4138563.0,4138738.0,175.0
146,choice,choice,35,5.0,Object,2.0,36.05053441703785,Object_Sea_Solid_Large,0,0,1,4138784.0,4141043.0,2259.0
146,choice,choice,35,5.0,Object,2.0,36.05053441703785,Animal_Sea_Pattern_Small,2,0,0,4141187.0,4141441.0,254.0
146,choice,choice,35,5.0,Object,2.0,36.05053441703785,Object_Land_Solid_Small,4,0,1,4141599.0,4143124.0,1525.0
146,choice,choice,35,5.0,Object,2.0,36.05053441703785,Object_Land_Pattern_Small,5,0,1,4143244.0,4144107.0,863.0
146,choice,choice,35,5.0,Object,2.0,36.05053441703785,Object_Land_Solid_Small,4,0,1,4144171.0,4144505.0,334.0
146,choice,choice,35,5.0,Object,2.0,36.05053441703785,Object_Sea_Solid_Large,0,0,1,4144539.0,4145494.0,955.0
146,choice,choice,35,5.0,Object,2.0,36.05053441703785,Object_Land_Solid_Small,4,0,1,4145625.0,4145879.0,254.0
146,choice,choice,35,5.0,Object,2.0,36.05053441703785,Object_Sea_Solid_Large,0,0,1,4146106.0,4146150.0,44.0
146,choice,choice,35,5.0,Object,2.0,36.05053441703785,fixation,-1,1,0,4146160.0,4146436.0,276.0
146,choice,choice,35,5.0,Object,2.0,36.05053441703785,Object_Land_Pattern_Small,5,0,1,4146460.0,4146836.0,376.0
146,choice,choice,35,5.0,Object,2.0,36.05053441703785,Animal_Sea_Pattern_Small,2,0,0,4146862.0,4147638.0,776.0
146,choice,choice,35,5.0,Object,2.0,36.05053441703785,Object_Land_Solid_Small,4,0,1,4147870.0,4148887.0,1017.0
146,choice,choice,35,5.0,Object,2.0,36.05053441703785,Object_Sea_Solid_Large,0,0,1,4148929.0,4150402.0,1473.0
146,choice,choice,35,5.0,Object,2.0,36.05053441703785,Object_Land_Solid_Small,4,0,1,4150583.0,4151822.0,1239.0
146,choice,choice,35,5.0,Object,2.0,36.05053441703785,Object_Land_Pattern_Small,5,0,1,4151890.0,4153981.0,2091.0
146,choice,choice,35,5.0,Object,2.0,36.05053441703785,Animal_Land_Solid_Large,1,0,0,4154203.0,4154555.0,352.0
146,choice,choice,35,5.0,Object,2.0,36.05053441703785,Object_Land_Pattern_Small,5,0,1,4154590.0,4155600.0,1010.0
146,choice,choice,35,5.0,Object,2.0,36.05053441703785,Animal_Sea_Pattern_Small,2,0,0,4155920.0,4156133.0,213.0
146,choice,choice,35,5.0,Object,2.0,36.05053441703785,Object_Sea_Solid_Large,0,0,1,4156191.0,4156840.0,649.0
146,choice,choice,35,5.0,Object,2.0,36.05053441703785,Animal_Sea_Pattern_Small,2,0,0,4156920.0,4157216.0,296.0
146,choice,choice,35,5.0,Object,2.0,36.05053441703785,Object_Land_Solid_Small,4,0,1,4157256.0,4157628.0,372.0
146,choice,choice,35,5.0,Object,2.0,36.05053441703785,Object_Land_Pattern_Small,5,0,1,4157650.0,4158681.0,1031.0
146,choice,choice,35,5.0,Object,2.0,36.05053441703785,Object_Land_Solid_Small,4,0,1,4158728.0,4158918.0,190.0
146,choice,choice,36,5.0,Land,1.0,22.96788699994795,Object_Land_Solid_Small,4,0,1,4162744.0,4163263.0,519.0
146,choice,choice,36,5.0,Land,1.0,22.96788699994795,Object_Land_Pattern_Small,5,0,1,4163307.0,4164689.0,1382.0
146,choice,choice,36,5.0,Land,1.0,22.96788699994795,Animal_Land_Solid_Large,1,0,1,4164757.0,4165034.0,277.0
146,choice,choice,36,5.0,Land,1.0,22.96788699994795,fixation,-1,1,0,4165055.0,4165123.0,68.0
146,choice,choice,36,5.0,Land,1.0,22.96788699994795,Animal_Sea_Pattern_Large,3,0,0,4165315.0,4166145.0,830.0
146,choice,choice,36,5.0,Land,1.0,22.96788699994795,Animal_Land_Solid_Large,1,0,1,4166234.0,4166509.0,275.0
146,choice,choice,36,5.0,Land,1.0,22.96788699994795,Animal_Sea_Pattern_Large,3,0,0,4166542.0,4166744.0,202.0
146,choice,choice,36,5.0,Land,1.0,22.96788699994795,Object_Land_Pattern_Small,5,0,1,4166767.0,4167050.0,283.0
146,choice,choice,36,5.0,Land,1.0,22.96788699994795,Animal_Land_Solid_Large,1,0,1,4167084.0,4168123.0,1039.0
146,choice,choice,36,5.0,Land,1.0,22.96788699994795,fixation,-1,1,0,4168201.0,4168392.0,191.0
146,choice,choice,36,5.0,Land,1.0,22.96788699994795,Animal_Sea_Pattern_Large,3,0,0,4168608.0,4168677.0,69.0
146,choice,choice,36,5.0,Land,1.0,22.96788699994795,Object_Sea_Solid_Large,0,0,0,4168756.0,4169356.0,600.0
146,choice,choice,36,5.0,Land,1.0,22.96788699994795,Object_Land_Pattern_Small,5,0,1,4169422.0,4169671.0,249.0
146,choice,choice,36,5.0,Land,1.0,22.96788699994795,Object_Land_Solid_Small,4,0,1,4169690.0,4169996.0,306.0
146,choice,choice,36,5.0,Land,1.0,22.96788699994795,Object_Land_Pattern_Small,5,0,1,4170175.0,4170502.0,327.0
146,choice,choice,36,5.0,Land,1.0,22.96788699994795,Object_Land_Solid_Small,4,0,1,4170551.0,4171872.0,1321.0
146,choice,choice,36,5.0,Land,1.0,22.96788699994795,Animal_Sea_Pattern_Small,2,0,0,4171973.0,4172283.0,310.0
146,choice,choice,36,5.0,Land,1.0,22.96788699994795,Object_Land_Solid_Small,4,0,1,4172314.0,4172950.0,636.0
146,choice,choice,36,5.0,Land,1.0,22.96788699994795,Animal_Sea_Pattern_Small,2,0,0,4172976.0,4173334.0,358.0
146,choice,choice,36,5.0,Land,1.0,22.96788699994795,Object_Sea_Solid_Large,0,0,0,4173357.0,4173620.0,263.0
146,choice,choice,36,5.0,Land,1.0,22.96788699994795,Animal_Sea_Pattern_Small,2,0,0,4173752.0,4173945.0,193.0
146,choice,choice,36,5.0,Land,1.0,22.96788699994795,Object_Sea_Solid_Large,0,0,0,4174009.0,4174319.0,310.0
146,choice,choice,36,5.0,Land,1.0,22.96788699994795,Animal_Sea_Pattern_Large,3,0,0,4174343.0,4174642.0,299.0
146,choice,choice,36,5.0,Land,1.0,22.96788699994795,Object_Sea_Solid_Large,0,0,0,4174674.0,4175328.0,654.0
146,choice,choice,36,5.0,Land,1.0,22.96788699994795,fixation,-1,1,0,4175393.0,4175668.0,275.0
146,choice,choice,36,5.0,Land,1.0,22.96788699994795,Animal_Land_Solid_Large,1,0,1,4175691.0,4175918.0,227.0
146,choice,choice,36,5.0,Land,1.0,22.96788699994795,Object_Land_Solid_Small,4,0,1,4176187.0,4177166.0,979.0
146,choice,choice,36,5.0,Land,1.0,22.96788699994795,Object_Land_Pattern_Small,5,0,1,4177233.0,4177681.0,448.0
146,choice,choice,36,5.0,Land,1.0,22.96788699994795,Animal_Land_Solid_Large,1,0,1,4177897.0,4178062.0,165.0
146,choice,choice,36,5.0,Land,1.0,22.96788699994795,Object_Land_Pattern_Small,5,0,1,4178145.0,4178394.0,249.0
146,choice,choice,36,5.0,Land,1.0,22.96788699994795,Animal_Land_Solid_Large,1,0,1,4178427.0,4179170.0,743.0
146,choice,choice,36,5.0,Land,1.0,22.96788699994795,Animal_Sea_Pattern_Large,3,0,0,4179394.0,4179584.0,190.0
146,choice,choice,36,5.0,Land,1.0,22.96788699994795,Animal_Land_Solid_Large,1,0,1,4179621.0,4180098.0,477.0
146,choice,choice,36,5.0,Land,1.0,22.96788699994795,Animal_Sea_Pattern_Large,3,0,0,4180140.0,4180364.0,224.0
146,choice,choice,36,5.0,Land,1.0,22.96788699994795,Animal_Land_Solid_Large,1,0,1,4180390.0,4180694.0,304.0
146,choice,choice,36,5.0,Land,1.0,22.96788699994795,fixation,-1,1,0,4180744.0,4181166.0,422.0
146,choice,choice,36,5.0,Land,1.0,22.96788699994795,Animal_Land_Solid_Large,1,0,1,4181195.0,4181435.0,240.0
146,choice,choice,36,5.0,Land,1.0,22.96788699994795,Animal_Sea_Pattern_Small,2,0,0,4181466.0,4181955.0,489.0
146,choice,choice,36,5.0,Land,1.0,22.96788699994795,Animal_Land_Solid_Large,1,0,1,4181981.0,4182104.0,123.0
146,choice,choice,36,5.0,Land,1.0,22.96788699994795,Object_Land_Solid_Small,4,0,1,4182135.0,4182514.0,379.0
146,choice,choice,36,5.0,Land,1.0,22.96788699994795,fixation,-1,1,0,4182741.0,4183068.0,327.0
146,choice,choice,36,5.0,Land,1.0,22.96788699994795,Animal_Sea_Pattern_Large,3,0,0,4183129.0,4183302.0,173.0
146,choice,choice,36,5.0,Land,1.0,22.96788699994795,fixation,-1,1,0,4183329.0,4184074.0,745.0
146,choice,choice,36,5.0,Land,1.0,22.96788699994795,Animal_Sea_Pattern_Small,2,0,0,4184095.0,4184377.0,282.0
146,choice,choice,36,5.0,Land,1.0,22.96788699994795,Object_Land_Solid_Small,4,0,1,4184401.0,4184990.0,589.0
146,choice,choice,37,5.0,Small,1.0,29.891133249970153,Object_Land_Pattern_Small,5,0,1,4188736.0,4188979.0,243.0
146,choice,choice,37,5.0,Small,1.0,29.891133249970153,Animal_Sea_Pattern_Small,2,0,1,4189005.0,4189467.0,462.0
146,choice,choice,37,5.0,Small,1.0,29.891133249970153,Animal_Sea_Pattern_Large,3,0,0,4189503.0,4189996.0,493.0
146,choice,choice,37,5.0,Small,1.0,29.891133249970153,Object_Sea_Solid_Large,0,0,0,4190077.0,4190774.0,697.0
146,choice,choice,37,5.0,Small,1.0,29.891133249970153,Object_Land_Pattern_Small,5,0,1,4191815.0,4192115.0,300.0
146,choice,choice,37,5.0,Small,1.0,29.891133249970153,Object_Land_Solid_Small,4,0,1,4192133.0,4193211.0,1078.0
146,choice,choice,37,5.0,Small,1.0,29.891133249970153,fixation,-1,1,0,4193283.0,4193767.0,484.0
146,choice,choice,37,5.0,Small,1.0,29.891133249970153,Object_Land_Solid_Small,4,0,1,4193785.0,4195574.0,1789.0
146,choice,choice,37,5.0,Small,1.0,29.891133249970153,Animal_Sea_Pattern_Small,2,0,1,4195647.0,4196309.0,662.0
146,choice,choice,37,5.0,Small,1.0,29.891133249970153,Animal_Sea_Pattern_Large,3,0,0,4196381.0,4196642.0,261.0
146,choice,choice,37,5.0,Small,1.0,29.891133249970153,Object_Sea_Solid_Large,0,0,0,4196662.0,4196885.0,223.0
146,choice,choice,37,5.0,Small,1.0,29.891133249970153,Animal_Sea_Pattern_Large,3,0,0,4196908.0,4197132.0,224.0
146,choice,choice,37,5.0,Small,1.0,29.891133249970153,Object_Sea_Solid_Large,0,0,0,4197159.0,4197987.0,828.0
146,choice,choice,37,5.0,Small,1.0,29.891133249970153,Animal_Sea_Pattern_Small,2,0,1,4198082.0,4198832.0,750.0
146,choice,choice,37,5.0,Small,1.0,29.891133249970153,Object_Sea_Solid_Large,0,0,0,4198876.0,4199020.0,144.0
146,choice,choice,37,5.0,Small,1.0,29.891133249970153,Animal_Sea_Pattern_Small,2,0,1,4199208.0,4199367.0,159.0
146,choice,choice,37,5.0,Small,1.0,29.891133249970153,Object_Land_Solid_Small,4,0,1,4199393.0,4200023.0,630.0
146,choice,choice,37,5.0,Small,1.0,29.891133249970153,fixation,-1,1,0,4200060.0,4200364.0,304.0
146,choice,choice,37,5.0,Small,1.0,29.891133249970153,Animal_Sea_Pattern_Small,2,0,1,4200415.0,4201194.0,779.0
146,choice,choice,37,5.0,Small,1.0,29.891133249970153,Object_Sea_Solid_Large,0,0,0,4201270.0,4201537.0,267.0
146,choice,choice,37,5.0,Small,1.0,29.891133249970153,Animal_Sea_Pattern_Small,2,0,1,4201555.0,4201789.0,234.0
146,choice,choice,37,5.0,Small,1.0,29.891133249970153,Animal_Land_Solid_Large,1,0,0,4201812.0,4202109.0,297.0
146,choice,choice,37,5.0,Small,1.0,29.891133249970153,Object_Land_Pattern_Small,5,0,1,4202129.0,4203118.0,989.0
146,choice,choice,37,5.0,Small,1.0,29.891133249970153,Animal_Sea_Pattern_Small,2,0,1,4203163.0,4203492.0,329.0
146,choice,choice,37,5.0,Small,1.0,29.891133249970153,fixation,-1,1,0,4203506.0,4203731.0,225.0
146,choice,choice,37,5.0,Small,1.0,29.891133249970153,Object_Sea_Solid_Large,0,0,0,4203873.0,4204064.0,191.0
146,choice,choice,37,5.0,Small,1.0,29.891133249970153,Animal_Sea_Pattern_Small,2,0,1,4204098.0,4205041.0,943.0
146,choice,choice,37,5.0,Small,1.0,29.891133249970153,Object_Land_Solid_Small,4,0,1,4205875.0,4206073.0,198.0
146,choice,choice,37,5.0,Small,1.0,29.891133249970153,Object_Land_Pattern_Small,5,0,1,4206114.0,4206397.0,283.0
146,choice,choice,37,5.0,Small,1.0,29.891133249970153,Animal_Sea_Pattern_Large,3,0,0,4206671.0,4206704.0,33.0
146,choice,choice,37,5.0,Small,1.0,29.891133249970153,Animal_Land_Solid_Large,1,0,0,4206720.0,4206854.0,134.0
146,choice,choice,37,5.0,Small,1.0,29.891133249970153,fixation,-1,1,0,4206875.0,4207137.0,262.0
146,choice,choice,37,5.0,Small,1.0,29.891133249970153,Animal_Land_Solid_Large,1,0,0,4207162.0,4207450.0,288.0
146,choice,choice,37,5.0,Small,1.0,29.891133249970153,fixation,-1,1,0,4207682.0,4207760.0,78.0
146,choice,choice,37,5.0,Small,1.0,29.891133249970153,Object_Land_Pattern_Small,5,0,1,4207769.0,4207934.0,165.0
146,choice,choice,37,5.0,Small,1.0,29.891133249970153,Animal_Land_Solid_Large,1,0,0,4207970.0,4208357.0,387.0
146,choice,choice,37,5.0,Small,1.0,29.891133249970153,Animal_Sea_Pattern_Small,2,0,1,4208413.0,4210479.0,2066.0
146,choice,choice,37,5.0,Small,1.0,29.891133249970153,Object_Land_Solid_Small,4,0,1,4211105.0,4211280.0,175.0
146,choice,choice,37,5.0,Small,1.0,29.891133249970153,Object_Land_Pattern_Small,5,0,1,4211311.0,4211772.0,461.0
146,choice,choice,37,5.0,Small,1.0,29.891133249970153,Object_Land_Solid_Small,4,0,1,4211804.0,4211850.0,46.0
146,choice,choice,37,5.0,Small,1.0,29.891133249970153,Object_Land_Pattern_Small,5,0,1,4211862.0,4212169.0,307.0
146,choice,choice,37,5.0,Small,1.0,29.891133249970153,Animal_Land_Solid_Large,1,0,0,4212195.0,4212833.0,638.0
146,choice,choice,37,5.0,Small,1.0,29.891133249970153,Animal_Sea_Pattern_Large,3,0,0,4213073.0,4213609.0,536.0
146,choice,choice,37,5.0,Small,1.0,29.891133249970153,Object_Sea_Solid_Large,0,0,0,4213684.0,4214003.0,319.0
146,choice,choice,37,5.0,Small,1.0,29.891133249970153,Animal_Sea_Pattern_Large,3,0,0,4214030.0,4215171.0,1141.0
146,choice,choice,37,5.0,Small,1.0,29.891133249970153,Animal_Sea_Pattern_Small,2,0,1,4215529.0,4215770.0,241.0
146,choice,choice,37,5.0,Small,1.0,29.891133249970153,Animal_Land_Solid_Large,1,0,0,4215828.0,4215975.0,147.0
146,choice,choice,37,5.0,Small,1.0,29.891133249970153,Animal_Sea_Pattern_Small,2,0,1,4216255.0,4217688.0,1433.0
146,choice,choice,37,5.0,Small,1.0,29.891133249970153,Object_Land_Solid_Small,4,0,1,4217971.0,4218067.0,96.0
146,choice,choice,38,5.0,Solid,2.0,30.658428499940783,Object_Sea_Solid_Large,0,0,1,4221985.0,4222200.0,215.0
146,choice,choice,38,5.0,Solid,2.0,30.658428499940783,Animal_Sea_Pattern_Large,3,0,0,4222257.0,4222641.0,384.0
146,choice,choice,38,5.0,Solid,2.0,30.658428499940783,Animal_Land_Solid_Large,1,0,1,4222864.0,4225316.0,2452.0
146,choice,choice,38,5.0,Solid,2.0,30.658428499940783,Animal_Sea_Pattern_Large,3,0,0,4225355.0,4225477.0,122.0
146,choice,choice,38,5.0,Solid,2.0,30.658428499940783,Object_Sea_Solid_Large,0,0,1,4225527.0,4226979.0,1452.0
146,choice,choice,38,5.0,Solid,2.0,30.658428499940783,Animal_Sea_Pattern_Small,2,0,0,4227087.0,4227563.0,476.0
146,choice,choice,38,5.0,Solid,2.0,30.658428499940783,fixation,-1,1,0,4227574.0,4227893.0,319.0
146,choice,choice,38,5.0,Solid,2.0,30.658428499940783,Object_Land_Solid_Small,4,0,1,4227900.0,4227937.0,37.0
146,choice,choice,38,5.0,Solid,2.0,30.658428499940783,Animal_Sea_Pattern_Small,2,0,0,4228148.0,4228415.0,267.0
146,choice,choice,38,5.0,Solid,2.0,30.658428499940783,Object_Land_Solid_Small,4,0,1,4228449.0,4228755.0,306.0
146,choice,choice,38,5.0,Solid,2.0,30.658428499940783,Object_Land_Pattern_Small,5,0,0,4228785.0,4228977.0,192.0
146,choice,choice,38,5.0,Solid,2.0,30.658428499940783,Object_Land_Solid_Small,4,0,1,4229004.0,4229544.0,540.0
146,choice,choice,38,5.0,Solid,2.0,30.658428499940783,fixation,-1,1,0,4229607.0,4229918.0,311.0
146,choice,choice,38,5.0,Solid,2.0,30.658428499940783,Animal_Sea_Pattern_Small,2,0,0,4229950.0,4230345.0,395.0
146,choice,choice,38,5.0,Solid,2.0,30.658428499940783,Object_Sea_Solid_Large,0,0,1,4230361.0,4230680.0,319.0
146,choice,choice,38,5.0,Solid,2.0,30.658428499940783,Animal_Sea_Pattern_Large,3,0,0,4230752.0,4230877.0,125.0
146,choice,choice,38,5.0,Solid,2.0,30.658428499940783,Animal_Land_Solid_Large,1,0,1,4230925.0,4231380.0,455.0
146,choice,choice,38,5.0,Solid,2.0,30.658428499940783,Object_Sea_Solid_Large,0,0,1,4231418.0,4232443.0,1025.0
146,choice,choice,38,5.0,Solid,2.0,30.658428499940783,Animal_Sea_Pattern_Large,3,0,0,4232707.0,4232946.0,239.0
146,choice,choice,38,5.0,Solid,2.0,30.658428499940783,Object_Sea_Solid_Large,0,0,1,4233018.0,4233493.0,475.0
146,choice,choice,38,5.0,Solid,2.0,30.658428499940783,Animal_Sea_Pattern_Small,2,0,0,4233577.0,4233920.0,343.0
146,choice,choice,38,5.0,Solid,2.0,30.658428499940783,Object_Land_Pattern_Small,5,0,0,4233940.0,4234283.0,343.0
146,choice,choice,38,5.0,Solid,2.0,30.658428499940783,Animal_Land_Solid_Large,1,0,1,4234306.0,4234606.0,300.0
146,choice,choice,38,5.0,Solid,2.0,30.658428499940783,Object_Land_Pattern_Small,5,0,0,4234630.0,4234876.0,246.0
146,choice,choice,38,5.0,Solid,2.0,30.658428499940783,Animal_Land_Solid_Large,1,0,1,4234930.0,4235165.0,235.0
146,choice,choice,38,5.0,Solid,2.0,30.658428499940783,Object_Sea_Solid_Large,0,0,1,4235211.0,4235466.0,255.0
146,choice,choice,38,5.0,Solid,2.0,30.658428499940783,Object_Land_Pattern_Small,5,0,0,4235761.0,4236050.0,289.0
146,choice,choice,38,5.0,Solid,2.0,30.658428499940783,Object_Land_Solid_Small,4,0,1,4236614.0,4237005.0,391.0
146,choice,choice,38,5.0,Solid,2.0,30.658428499940783,Animal_Land_Solid_Large,1,0,1,4237056.0,4237253.0,197.0
146,choice,choice,38,5.0,Solid,2.0,30.658428499940783,Object_Land_Solid_Small,4,0,1,4237280.0,4237672.0,392.0
146,choice,choice,38,5.0,Solid,2.0,30.658428499940783,fixation,-1,1,0,4237732.0,4237957.0,225.0
146,choice,choice,38,5.0,Solid,2.0,30.658428499940783,Object_Sea_Solid_Large,0,0,1,4238347.0,4238561.0,214.0
146,choice,choice,38,5.0,Solid,2.0,30.658428499940783,Animal_Land_Solid_Large,1,0,1,4238599.0,4239126.0,527.0
146,choice,choice,38,5.0,Solid,2.0,30.658428499940783,Object_Land_Solid_Small,4,0,1,4239167.0,4239409.0,242.0
146,choice,choice,38,5.0,Solid,2.0,30.658428499940783,Animal_Sea_Pattern_Small,2,0,0,4239437.0,4239547.0,110.0
146,choice,choice,38,5.0,Solid,2.0,30.658428499940783,Object_Land_Solid_Small,4,0,1,4239557.0,4240001.0,444.0
146,choice,choice,38,5.0,Solid,2.0,30.658428499940783,Object_Sea_Solid_Large,0,0,1,4240043.0,4240391.0,348.0
146,choice,choice,38,5.0,Solid,2.0,30.658428499940783,Animal_Land_Solid_Large,1,0,1,4240425.0,4241181.0,756.0
146,choice,choice,38,5.0,Solid,2.0,30.658428499940783,Object_Land_Solid_Small,4,0,1,4241249.0,4241768.0,519.0
146,choice,choice,38,5.0,Solid,2.0,30.658428499940783,Object_Sea_Solid_Large,0,0,1,4241813.0,4242496.0,683.0
