phase,event,trial_number,eyetracker_onset,eyetracker_offset,fix_start,fix_end,fix_duration_full,fix_duration_bounded,fix_x,fix_y,roi_x,roi_y,roi_content,onset,offset,game,image,outcome,choice,correct,rt,letter,match,response,option,true_value,true_position,recalled_position,Unnamed: 18
encoding,fixation,7,2495078,2495586,2495361.0,2495606.0,246.0,225.0,1797.5,1307.4,1920.0,700.0,Object_Sea_Solid_Large,18.036918584024537,18.54537316702772,2.0,Animal_Sea_Pattern_Small,-3.0,,,,,,,,,,,
encoding,image,7,2495586,2496598,2495781.0,2495916.0,136.0,136.0,2020.9,1264.9,1920.0,700.0,Object_Sea_Solid_Large,18.54549179202877,19.557536375010383,2.0,Animal_Sea_Pattern_Small,-3.0,,,,,,,,,,,
encoding,image,7,2495586,2496598,2495951.0,2496787.0,837.0,647.0,1603.0,1258.0,1591.0,891.0,Animal_Sea_Pattern_Small,18.54549179202877,19.557536375010383,2.0,Animal_Sea_Pattern_Small,-3.0,,,,,,,,,,,
encoding,value,7,2496598,2502612,2496807.0,2497383.0,577.0,577.0,1555.9,1143.3,1591.0,891.0,Animal_Sea_Pattern_Small,19.55764629202895,25.570798833970912,2.0,Animal_Sea_Pattern_Small,-3.0,,,,,,,,,,,
encoding,value,7,2496598,2502612,2497390.0,2498022.0,633.0,633.0,1572.7,1160.4,1591.0,891.0,Animal_Sea_Pattern_Small,19.55764629202895,25.570798833970912,2.0,Animal_Sea_Pattern_Small,-3.0,,,,,,,,,,,
encoding,value,7,2496598,2502612,2498039.0,2498363.0,325.0,325.0,1577.1,1241.7,1591.0,891.0,Animal_Sea_Pattern_Small,19.55764629202895,25.570798833970912,2.0,Animal_Sea_Pattern_Small,-3.0,,,,,,,,,,,
encoding,value,7,2496598,2502612,2498381.0,2498644.0,264.0,264.0,1546.3,1150.3,1591.0,891.0,Animal_Sea_Pattern_Small,19.55764629202895,25.570798833970912,2.0,Animal_Sea_Pattern_Small,-3.0,,,,,,,,,,,
encoding,value,7,2496598,2502612,2498780.0,2499010.0,231.0,231.0,1542.4,1157.3,1591.0,891.0,Animal_Sea_Pattern_Small,19.55764629202895,25.570798833970912,2.0,Animal_Sea_Pattern_Small,-3.0,,,,,,,,,,,
encoding,value,7,2496598,2502612,2499019.0,2499563.0,545.0,545.0,1563.4,1135.3,1591.0,891.0,Animal_Sea_Pattern_Small,19.55764629202895,25.570798833970912,2.0,Animal_Sea_Pattern_Small,-3.0,,,,,,,,,,,
encoding,value,7,2496598,2502612,2499580.0,2500207.0,628.0,628.0,1588.3,1235.9,1591.0,891.0,Animal_Sea_Pattern_Small,19.55764629202895,25.570798833970912,2.0,Animal_Sea_Pattern_Small,-3.0,,,,,,,,,,,
encoding,value,7,2496598,2502612,2500218.0,2500498.0,281.0,281.0,1642.0,1245.0,1591.0,891.0,Animal_Sea_Pattern_Small,19.55764629202895,25.570798833970912,2.0,Animal_Sea_Pattern_Small,-3.0,,,,,,,,,,,
encoding,value,7,2496598,2502612,2500510.0,2500758.0,249.0,249.0,1568.0,1246.7,1591.0,891.0,Animal_Sea_Pattern_Small,19.55764629202895,25.570798833970912,2.0,Animal_Sea_Pattern_Small,-3.0,,,,,,,,,,,
encoding,value,7,2496598,2502612,2500773.0,2501277.0,505.0,505.0,1577.7,1155.8,1591.0,891.0,Animal_Sea_Pattern_Small,19.55764629202895,25.570798833970912,2.0,Animal_Sea_Pattern_Small,-3.0,,,,,,,,,,,
encoding,value,7,2496598,2502612,2501422.0,2501921.0,500.0,500.0,1569.7,1131.4,1591.0,891.0,Animal_Sea_Pattern_Small,19.55764629202895,25.570798833970912,2.0,Animal_Sea_Pattern_Small,-3.0,,,,,,,,,,,
encoding,value,7,2496598,2502612,2501937.0,2502226.0,290.0,290.0,1637.9,1189.4,1591.0,891.0,Animal_Sea_Pattern_Small,19.55764629202895,25.570798833970912,2.0,Animal_Sea_Pattern_Small,-3.0,,,,,,,,,,,
encoding,value,7,2496598,2502612,2502449.0,2503059.0,611.0,163.0,1554.7,1135.6,1591.0,891.0,Animal_Sea_Pattern_Small,19.55764629202895,25.570798833970912,2.0,Animal_Sea_Pattern_Small,-3.0,,,,,,,,,,,
encoding,attention,7,2502612,2505631,2503070.0,2503334.0,265.0,265.0,1623.5,1115.5,1591.0,891.0,Animal_Sea_Pattern_Small,25.570924333995208,28.589352209004577,2.0,Animal_Sea_Pattern_Small,-3.0,-3.0,1.0,1.5119249579729512,,,,,,,,
encoding,attention,7,2502612,2505631,2503353.0,2503594.0,242.0,242.0,1560.1,1224.3,1591.0,891.0,Animal_Sea_Pattern_Small,25.570924333995208,28.589352209004577,2.0,Animal_Sea_Pattern_Small,-3.0,-3.0,1.0,1.5119249579729512,,,,,,,,
encoding,attention,7,2502612,2505631,2503612.0,2503758.0,147.0,147.0,1619.3,1144.4,1591.0,891.0,Animal_Sea_Pattern_Small,25.570924333995208,28.589352209004577,2.0,Animal_Sea_Pattern_Small,-3.0,-3.0,1.0,1.5119249579729512,,,,,,,,
encoding,attention,7,2502612,2505631,2504009.0,2504030.0,22.0,22.0,1593.1,1316.6,1591.0,891.0,Animal_Sea_Pattern_Small,25.570924333995208,28.589352209004577,2.0,Animal_Sea_Pattern_Small,-3.0,-3.0,1.0,1.5119249579729512,,,,,,,,
encoding,attention,7,2502612,2505631,2504058.0,2504431.0,374.0,374.0,1589.6,1213.0,1591.0,891.0,Animal_Sea_Pattern_Small,25.570924333995208,28.589352209004577,2.0,Animal_Sea_Pattern_Small,-3.0,-3.0,1.0,1.5119249579729512,,,,,,,,
encoding,attention,7,2502612,2505631,2504450.0,2504802.0,353.0,353.0,1625.1,1113.5,1591.0,891.0,Animal_Sea_Pattern_Small,25.570924333995208,28.589352209004577,2.0,Animal_Sea_Pattern_Small,-3.0,-3.0,1.0,1.5119249579729512,,,,,,,,
encoding,attention,7,2502612,2505631,2504822.0,2505123.0,302.0,302.0,1562.6,1229.4,1591.0,891.0,Animal_Sea_Pattern_Small,25.570924333995208,28.589352209004577,2.0,Animal_Sea_Pattern_Small,-3.0,-3.0,1.0,1.5119249579729512,,,,,,,,
encoding,attention,7,2502612,2505631,2505131.0,2505437.0,307.0,307.0,1604.5,1230.5,1591.0,891.0,Animal_Sea_Pattern_Small,25.570924333995208,28.589352209004577,2.0,Animal_Sea_Pattern_Small,-3.0,-3.0,1.0,1.5119249579729512,,,,,,,,
encoding,fixation,8,2505631,2506386,2505751.0,2505898.0,148.0,148.0,1570.6,1236.4,1591.0,891.0,Animal_Sea_Pattern_Small,28.589507541968487,29.345053791999817,2.0,Animal_Sea_Pattern_Large,1.0,,,,,,,,,,,
encoding,fixation,8,2505631,2506386,2505940.0,2506107.0,168.0,168.0,1941.9,1065.0,1920.0,1080.0,fixation,28.589507541968487,29.345053791999817,2.0,Animal_Sea_Pattern_Large,1.0,,,,,,,,,,,
encoding,fixation,8,2505631,2506386,2506267.0,2506306.0,40.0,40.0,2964.6,1231.1,,,none,28.589507541968487,29.345053791999817,2.0,Animal_Sea_Pattern_Large,1.0,,,,,,,,,,,
encoding,fixation,8,2505631,2506386,2506317.0,2506526.0,210.0,69.0,2948.3,1144.4,,,none,28.589507541968487,29.345053791999817,2.0,Animal_Sea_Pattern_Large,1.0,,,,,,,,,,,
encoding,image,8,2506386,2507397,2506579.0,2506729.0,151.0,151.0,1992.9,1207.5,1920.0,700.0,Object_Sea_Solid_Large,29.345148875028823,30.35570308403112,2.0,Animal_Sea_Pattern_Large,1.0,,,,,,,,,,,
encoding,image,8,2506386,2507397,2506753.0,2507140.0,388.0,388.0,2214.0,1208.6,2249.0,891.0,Animal_Sea_Pattern_Large,29.345148875028823,30.35570308403112,2.0,Animal_Sea_Pattern_Large,1.0,,,,,,,,,,,
encoding,image,8,2506386,2507397,2507346.0,2507546.0,201.0,51.0,2168.2,1287.6,2249.0,891.0,Animal_Sea_Pattern_Large,29.345148875028823,30.35570308403112,2.0,Animal_Sea_Pattern_Large,1.0,,,,,,,,,,,
encoding,value,8,2507397,2513410,2507573.0,2507736.0,164.0,164.0,2174.3,1094.0,2249.0,891.0,Animal_Sea_Pattern_Large,30.35581470897887,36.36898891697638,2.0,Animal_Sea_Pattern_Large,1.0,,,,,,,,,,,
encoding,value,8,2507397,2513410,2507744.0,2508152.0,409.0,409.0,2203.9,1118.7,2249.0,891.0,Animal_Sea_Pattern_Large,30.35581470897887,36.36898891697638,2.0,Animal_Sea_Pattern_Large,1.0,,,,,,,,,,,
encoding,value,8,2507397,2513410,2508362.0,2508508.0,147.0,147.0,2164.9,1274.8,2249.0,891.0,Animal_Sea_Pattern_Large,30.35581470897887,36.36898891697638,2.0,Animal_Sea_Pattern_Large,1.0,,,,,,,,,,,
encoding,value,8,2507397,2513410,2508520.0,2508930.0,411.0,411.0,2205.6,1235.9,2249.0,891.0,Animal_Sea_Pattern_Large,30.35581470897887,36.36898891697638,2.0,Animal_Sea_Pattern_Large,1.0,,,,,,,,,,,
encoding,value,8,2507397,2513410,2508943.0,2509082.0,140.0,140.0,2248.4,1190.0,2249.0,891.0,Animal_Sea_Pattern_Large,30.35581470897887,36.36898891697638,2.0,Animal_Sea_Pattern_Large,1.0,,,,,,,,,,,
encoding,value,8,2507397,2513410,2509355.0,2509723.0,369.0,369.0,2189.6,1195.6,2249.0,891.0,Animal_Sea_Pattern_Large,30.35581470897887,36.36898891697638,2.0,Animal_Sea_Pattern_Large,1.0,,,,,,,,,,,
encoding,value,8,2507397,2513410,2509735.0,2510022.0,288.0,288.0,2194.9,1149.4,2249.0,891.0,Animal_Sea_Pattern_Large,30.35581470897887,36.36898891697638,2.0,Animal_Sea_Pattern_Large,1.0,,,,,,,,,,,
encoding,value,8,2507397,2513410,2510045.0,2510343.0,299.0,299.0,2145.1,1266.8,2249.0,891.0,Animal_Sea_Pattern_Large,30.35581470897887,36.36898891697638,2.0,Animal_Sea_Pattern_Large,1.0,,,,,,,,,,,
encoding,value,8,2507397,2513410,2510361.0,2510592.0,232.0,232.0,2211.5,1173.9,2249.0,891.0,Animal_Sea_Pattern_Large,30.35581470897887,36.36898891697638,2.0,Animal_Sea_Pattern_Large,1.0,,,,,,,,,,,
encoding,value,8,2507397,2513410,2510610.0,2510893.0,284.0,284.0,2158.1,1246.0,2249.0,891.0,Animal_Sea_Pattern_Large,30.35581470897887,36.36898891697638,2.0,Animal_Sea_Pattern_Large,1.0,,,,,,,,,,,
encoding,value,8,2507397,2513410,2510906.0,2511233.0,328.0,328.0,2215.1,1210.1,2249.0,891.0,Animal_Sea_Pattern_Large,30.35581470897887,36.36898891697638,2.0,Animal_Sea_Pattern_Large,1.0,,,,,,,,,,,
encoding,value,8,2507397,2513410,2511246.0,2511541.0,296.0,296.0,2225.4,1143.8,2249.0,891.0,Animal_Sea_Pattern_Large,30.35581470897887,36.36898891697638,2.0,Animal_Sea_Pattern_Large,1.0,,,,,,,,,,,
encoding,value,8,2507397,2513410,2511561.0,2511808.0,248.0,248.0,2171.5,1269.8,2249.0,891.0,Animal_Sea_Pattern_Large,30.35581470897887,36.36898891697638,2.0,Animal_Sea_Pattern_Large,1.0,,,,,,,,,,,
encoding,value,8,2507397,2513410,2511827.0,2511915.0,89.0,89.0,2297.5,1251.1,2249.0,891.0,Animal_Sea_Pattern_Large,30.35581470897887,36.36898891697638,2.0,Animal_Sea_Pattern_Large,1.0,,,,,,,,,,,
encoding,value,8,2507397,2513410,2512119.0,2512152.0,34.0,34.0,2291.3,1358.3,2249.0,891.0,Animal_Sea_Pattern_Large,30.35581470897887,36.36898891697638,2.0,Animal_Sea_Pattern_Large,1.0,,,,,,,,,,,
encoding,value,8,2507397,2513410,2512164.0,2512316.0,153.0,153.0,2293.9,1257.7,2249.0,891.0,Animal_Sea_Pattern_Large,30.35581470897887,36.36898891697638,2.0,Animal_Sea_Pattern_Large,1.0,,,,,,,,,,,
encoding,value,8,2507397,2513410,2512333.0,2512546.0,214.0,214.0,2160.6,1240.6,2249.0,891.0,Animal_Sea_Pattern_Large,30.35581470897887,36.36898891697638,2.0,Animal_Sea_Pattern_Large,1.0,,,,,,,,,,,
encoding,value,8,2507397,2513410,2512564.0,2512913.0,350.0,350.0,2289.7,1199.0,2249.0,891.0,Animal_Sea_Pattern_Large,30.35581470897887,36.36898891697638,2.0,Animal_Sea_Pattern_Large,1.0,,,,,,,,,,,
encoding,value,8,2507397,2513410,2512933.0,2513103.0,171.0,171.0,2389.9,1263.6,2249.0,891.0,Animal_Sea_Pattern_Large,30.35581470897887,36.36898891697638,2.0,Animal_Sea_Pattern_Large,1.0,,,,,,,,,,,
encoding,value,8,2507397,2513410,2513129.0,2514027.0,899.0,281.0,2178.6,1160.9,2249.0,891.0,Animal_Sea_Pattern_Large,30.35581470897887,36.36898891697638,2.0,Animal_Sea_Pattern_Large,1.0,,,,,,,,,,,
encoding,attention,8,2513410,2516429,2514044.0,2514513.0,470.0,470.0,2254.8,1171.4,2249.0,891.0,Animal_Sea_Pattern_Large,36.36908970901277,39.387152625015005,2.0,Animal_Sea_Pattern_Large,1.0,1.0,1.0,0.856889458023943,,,,,,,,
encoding,attention,8,2513410,2516429,2514714.0,2514888.0,175.0,175.0,2123.0,1294.2,2249.0,891.0,Animal_Sea_Pattern_Large,36.36908970901277,39.387152625015005,2.0,Animal_Sea_Pattern_Large,1.0,1.0,1.0,0.856889458023943,,,,,,,,
encoding,attention,8,2513410,2516429,2514908.0,2515085.0,178.0,178.0,2241.8,1212.9,2249.0,891.0,Animal_Sea_Pattern_Large,36.36908970901277,39.387152625015005,2.0,Animal_Sea_Pattern_Large,1.0,1.0,1.0,0.856889458023943,,,,,,,,
encoding,attention,8,2513410,2516429,2515125.0,2515311.0,187.0,187.0,1738.8,1280.0,1591.0,891.0,Animal_Sea_Pattern_Small,36.36908970901277,39.387152625015005,2.0,Animal_Sea_Pattern_Large,1.0,1.0,1.0,0.856889458023943,,,,,,,,
encoding,attention,8,2513410,2516429,2515354.0,2515640.0,287.0,287.0,2230.4,1249.2,2249.0,891.0,Animal_Sea_Pattern_Large,36.36908970901277,39.387152625015005,2.0,Animal_Sea_Pattern_Large,1.0,1.0,1.0,0.856889458023943,,,,,,,,
encoding,attention,8,2513410,2516429,2515685.0,2515946.0,262.0,262.0,1643.2,1263.9,1591.0,891.0,Animal_Sea_Pattern_Small,36.36908970901277,39.387152625015005,2.0,Animal_Sea_Pattern_Large,1.0,1.0,1.0,0.856889458023943,,,,,,,,
encoding,attention,8,2513410,2516429,2515994.0,2516295.0,302.0,302.0,2225.6,1229.3,2249.0,891.0,Animal_Sea_Pattern_Large,36.36908970901277,39.387152625015005,2.0,Animal_Sea_Pattern_Large,1.0,1.0,1.0,0.856889458023943,,,,,,,,
encoding,fixation,9,2516429,2517183,2516563.0,2516703.0,141.0,141.0,2114.2,1217.4,2249.0,891.0,Animal_Sea_Pattern_Large,39.387314875028096,40.14165454194881,2.0,Animal_Land_Solid_Large,3.0,,,,,,,,,,,
encoding,fixation,9,2516429,2517183,2516892.0,2516912.0,21.0,21.0,1933.2,1202.7,1920.0,700.0,Object_Sea_Solid_Large,39.387314875028096,40.14165454194881,2.0,Animal_Land_Solid_Large,3.0,,,,,,,,,,,
encoding,fixation,9,2516429,2517183,2516932.0,2517059.0,128.0,128.0,1940.5,1077.0,1920.0,1080.0,fixation,39.387314875028096,40.14165454194881,2.0,Animal_Land_Solid_Large,3.0,,,,,,,,,,,
encoding,fixation,9,2516429,2517183,2517086.0,2517276.0,191.0,97.0,1684.0,1163.6,1591.0,891.0,Animal_Sea_Pattern_Small,39.387314875028096,40.14165454194881,2.0,Animal_Land_Solid_Large,3.0,,,,,,,,,,,
encoding,image,9,2517183,2518195,2517298.0,2517459.0,162.0,162.0,1924.7,1108.9,1920.0,1080.0,fixation,40.14175950002391,41.152939083985984,2.0,Animal_Land_Solid_Large,3.0,,,,,,,,,,,
encoding,image,9,2517183,2518195,2517499.0,2518147.0,649.0,649.0,2245.5,889.7,2249.0,1269.0,Animal_Land_Solid_Large,40.14175950002391,41.152939083985984,2.0,Animal_Land_Solid_Large,3.0,,,,,,,,,,,
encoding,value,9,2518195,2524207,2518309.0,2518466.0,158.0,158.0,2270.2,890.0999999999999,2249.0,1269.0,Animal_Land_Solid_Large,41.153053291956894,47.165132167050615,2.0,Animal_Land_Solid_Large,3.0,,,,,,,,,,,
encoding,value,9,2518195,2524207,2518487.0,2518993.0,507.0,507.0,2258.0,743.4000000000001,2249.0,1269.0,Animal_Land_Solid_Large,41.153053291956894,47.165132167050615,2.0,Animal_Land_Solid_Large,3.0,,,,,,,,,,,
encoding,value,9,2518195,2524207,2519016.0,2519322.0,307.0,307.0,2248.9,885.0999999999999,2249.0,1269.0,Animal_Land_Solid_Large,41.153053291956894,47.165132167050615,2.0,Animal_Land_Solid_Large,3.0,,,,,,,,,,,
encoding,value,9,2518195,2524207,2519518.0,2519540.0,23.0,23.0,2231.9,953.0,2249.0,1269.0,Animal_Land_Solid_Large,41.153053291956894,47.165132167050615,2.0,Animal_Land_Solid_Large,3.0,,,,,,,,,,,
encoding,value,9,2518195,2524207,2519547.0,2519965.0,419.0,419.0,2224.3,825.4000000000001,2249.0,1269.0,Animal_Land_Solid_Large,41.153053291956894,47.165132167050615,2.0,Animal_Land_Solid_Large,3.0,,,,,,,,,,,
encoding,value,9,2518195,2524207,2520024.0,2520277.0,254.0,254.0,1620.4,1212.6,1591.0,891.0,Animal_Sea_Pattern_Small,41.153053291956894,47.165132167050615,2.0,Animal_Land_Solid_Large,3.0,,,,,,,,,,,
encoding,value,9,2518195,2524207,2520329.0,2520597.0,269.0,269.0,2240.8,910.2,2249.0,1269.0,Animal_Land_Solid_Large,41.153053291956894,47.165132167050615,2.0,Animal_Land_Solid_Large,3.0,,,,,,,,,,,
encoding,value,9,2518195,2524207,2520617.0,2520901.0,285.0,285.0,2221.5,807.9000000000001,2249.0,1269.0,Animal_Land_Solid_Large,41.153053291956894,47.165132167050615,2.0,Animal_Land_Solid_Large,3.0,,,,,,,,,,,
encoding,value,9,2518195,2524207,2521097.0,2521118.0,22.0,22.0,2207.0,900.2,2249.0,1269.0,Animal_Land_Solid_Large,41.153053291956894,47.165132167050615,2.0,Animal_Land_Solid_Large,3.0,,,,,,,,,,,
encoding,value,9,2518195,2524207,2521166.0,2521352.0,187.0,187.0,2231.0,774.2,2249.0,1269.0,Animal_Land_Solid_Large,41.153053291956894,47.165132167050615,2.0,Animal_Land_Solid_Large,3.0,,,,,,,,,,,
encoding,value,9,2518195,2524207,2521372.0,2521868.0,497.0,497.0,2252.4,882.2,2249.0,1269.0,Animal_Land_Solid_Large,41.153053291956894,47.165132167050615,2.0,Animal_Land_Solid_Large,3.0,,,,,,,,,,,
encoding,value,9,2518195,2524207,2521911.0,2522103.0,193.0,193.0,1831.5,1074.9,1591.0,1269.0,Object_Land_Solid_Small,41.153053291956894,47.165132167050615,2.0,Animal_Land_Solid_Large,3.0,,,,,,,,,,,
encoding,value,9,2518195,2524207,2522147.0,2522493.0,347.0,347.0,2275.8,868.8,2249.0,1269.0,Animal_Land_Solid_Large,41.153053291956894,47.165132167050615,2.0,Animal_Land_Solid_Large,3.0,,,,,,,,,,,
encoding,value,9,2518195,2524207,2522514.0,2522756.0,243.0,243.0,2238.3,775.0999999999999,2249.0,1269.0,Animal_Land_Solid_Large,41.153053291956894,47.165132167050615,2.0,Animal_Land_Solid_Large,3.0,,,,,,,,,,,
encoding,value,9,2518195,2524207,2522776.0,2523047.0,272.0,272.0,2248.0,893.5999999999999,2249.0,1269.0,Animal_Land_Solid_Large,41.153053291956894,47.165132167050615,2.0,Animal_Land_Solid_Large,3.0,,,,,,,,,,,
encoding,value,9,2518195,2524207,2523065.0,2524056.0,992.0,992.0,2217.4,791.3,2249.0,1269.0,Animal_Land_Solid_Large,41.153053291956894,47.165132167050615,2.0,Animal_Land_Solid_Large,3.0,,,,,,,,,,,
encoding,value,9,2518195,2524207,2524063.0,2524297.0,235.0,144.0,2243.4,782.4000000000001,2249.0,1269.0,Animal_Land_Solid_Large,41.153053291956894,47.165132167050615,2.0,Animal_Land_Solid_Large,3.0,,,,,,,,,,,
encoding,attention,9,2524207,2527225,2524310.0,2524546.0,237.0,237.0,2215.0,840.5999999999999,2249.0,1269.0,Animal_Land_Solid_Large,47.165268667042255,50.18297600001097,2.0,Animal_Land_Solid_Large,3.0,3.0,1.0,2.011589874979109,,,,,,,,
encoding,attention,9,2524207,2527225,2524695.0,2524721.0,27.0,27.0,2256.7,880.0,2249.0,1269.0,Animal_Land_Solid_Large,47.165268667042255,50.18297600001097,2.0,Animal_Land_Solid_Large,3.0,3.0,1.0,2.011589874979109,,,,,,,,
encoding,attention,9,2524207,2527225,2524741.0,2524888.0,148.0,148.0,2277.5,776.9000000000001,2249.0,1269.0,Animal_Land_Solid_Large,47.165268667042255,50.18297600001097,2.0,Animal_Land_Solid_Large,3.0,3.0,1.0,2.011589874979109,,,,,,,,
encoding,attention,9,2524207,2527225,2524908.0,2525394.0,487.0,487.0,2234.4,894.0999999999999,2249.0,1269.0,Animal_Land_Solid_Large,47.165268667042255,50.18297600001097,2.0,Animal_Land_Solid_Large,3.0,3.0,1.0,2.011589874979109,,,,,,,,
encoding,attention,9,2524207,2527225,2525416.0,2525609.0,194.0,194.0,2304.8,767.9000000000001,2249.0,1269.0,Animal_Land_Solid_Large,47.165268667042255,50.18297600001097,2.0,Animal_Land_Solid_Large,3.0,3.0,1.0,2.011589874979109,,,,,,,,
encoding,attention,9,2524207,2527225,2525617.0,2526639.0,1023.0,1023.0,2271.9,784.0999999999999,2249.0,1269.0,Animal_Land_Solid_Large,47.165268667042255,50.18297600001097,2.0,Animal_Land_Solid_Large,3.0,3.0,1.0,2.011589874979109,,,,,,,,
encoding,fixation,10,2527225,2528730,2527319.0,2527460.0,142.0,142.0,2221.5,870.4000000000001,2249.0,1269.0,Animal_Land_Solid_Large,50.18311895895749,51.68791787500959,2.0,Object_Land_Solid_Small,1.0,,,,,,,,,,,
encoding,fixation,10,2527225,2528730,2527492.0,2527659.0,168.0,168.0,1880.5,1033.4,1920.0,1080.0,fixation,50.18311895895749,51.68791787500959,2.0,Object_Land_Solid_Small,1.0,,,,,,,,,,,
encoding,fixation,10,2527225,2528730,2527980.0,2528109.0,130.0,130.0,1784.8,1272.6,1591.0,891.0,Animal_Sea_Pattern_Small,50.18311895895749,51.68791787500959,2.0,Object_Land_Solid_Small,1.0,,,,,,,,,,,
encoding,fixation,10,2527225,2528730,2528134.0,2528257.0,124.0,124.0,1930.1,1102.9,1920.0,1080.0,fixation,50.18311895895749,51.68791787500959,2.0,Object_Land_Solid_Small,1.0,,,,,,,,,,,
encoding,fixation,10,2527225,2528730,2528274.0,2528927.0,654.0,456.0,1880.7,1047.1,1920.0,1080.0,fixation,50.18311895895749,51.68791787500959,2.0,Object_Land_Solid_Small,1.0,,,,,,,,,,,
encoding,image,10,2528730,2529742,2528963.0,2529502.0,540.0,540.0,1575.7,885.9000000000001,1591.0,1269.0,Object_Land_Solid_Small,51.688022959046066,52.6998574170284,2.0,Object_Land_Solid_Small,1.0,,,,,,,,,,,
encoding,image,10,2528730,2529742,2529682.0,2529704.0,23.0,23.0,1645.0,1004.5,1591.0,1269.0,Object_Land_Solid_Small,51.688022959046066,52.6998574170284,2.0,Object_Land_Solid_Small,1.0,,,,,,,,,,,
encoding,image,10,2528730,2529742,2529719.0,2529791.0,73.0,23.0,1647.5,933.0,1591.0,1269.0,Object_Land_Solid_Small,51.688022959046066,52.6998574170284,2.0,Object_Land_Solid_Small,1.0,,,,,,,,,,,
encoding,value,10,2529742,2535756,2529827.0,2530093.0,267.0,267.0,1926.4,1040.8,1920.0,1080.0,fixation,52.70000029203947,58.71363370900508,2.0,Object_Land_Solid_Small,1.0,,,,,,,,,,,
encoding,value,10,2529742,2535756,2530131.0,2530583.0,453.0,453.0,1577.8,751.7,1591.0,1269.0,Object_Land_Solid_Small,52.70000029203947,58.71363370900508,2.0,Object_Land_Solid_Small,1.0,,,,,,,,,,,
encoding,value,10,2529742,2535756,2530796.0,2530826.0,31.0,31.0,2202.3,1262.9,2249.0,891.0,Animal_Sea_Pattern_Large,52.70000029203947,58.71363370900508,2.0,Object_Land_Solid_Small,1.0,,,,,,,,,,,
encoding,value,10,2529742,2535756,2530838.0,2531150.0,313.0,313.0,2197.5,1189.0,2249.0,891.0,Animal_Sea_Pattern_Large,52.70000029203947,58.71363370900508,2.0,Object_Land_Solid_Small,1.0,,,,,,,,,,,
encoding,value,10,2529742,2535756,2531177.0,2531327.0,151.0,151.0,2066.5,1299.9,2249.0,891.0,Animal_Sea_Pattern_Large,52.70000029203947,58.71363370900508,2.0,Object_Land_Solid_Small,1.0,,,,,,,,,,,
encoding,value,10,2529742,2535756,2531388.0,2531640.0,253.0,253.0,1581.1,826.5999999999999,1591.0,1269.0,Object_Land_Solid_Small,52.70000029203947,58.71363370900508,2.0,Object_Land_Solid_Small,1.0,,,,,,,,,,,
encoding,value,10,2529742,2535756,2531651.0,2531986.0,336.0,336.0,1571.2,790.8,1591.0,1269.0,Object_Land_Solid_Small,52.70000029203947,58.71363370900508,2.0,Object_Land_Solid_Small,1.0,,,,,,,,,,,
encoding,value,10,2529742,2535756,2532003.0,2532110.0,108.0,108.0,1595.7,866.8,1591.0,1269.0,Object_Land_Solid_Small,52.70000029203947,58.71363370900508,2.0,Object_Land_Solid_Small,1.0,,,,,,,,,,,
encoding,value,10,2529742,2535756,2532336.0,2532364.0,29.0,29.0,1575.4,1067.9,1591.0,1269.0,Object_Land_Solid_Small,52.70000029203947,58.71363370900508,2.0,Object_Land_Solid_Small,1.0,,,,,,,,,,,
encoding,value,10,2529742,2535756,2532382.0,2532431.0,50.0,50.0,1562.4,1009.8,1591.0,1269.0,Object_Land_Solid_Small,52.70000029203947,58.71363370900508,2.0,Object_Land_Solid_Small,1.0,,,,,,,,,,,
encoding,value,10,2529742,2535756,2532446.0,2532514.0,69.0,69.0,1571.2,927.5999999999999,1591.0,1269.0,Object_Land_Solid_Small,52.70000029203947,58.71363370900508,2.0,Object_Land_Solid_Small,1.0,,,,,,,,,,,
encoding,value,10,2529742,2535756,2532536.0,2532862.0,327.0,327.0,1569.5,809.0,1591.0,1269.0,Object_Land_Solid_Small,52.70000029203947,58.71363370900508,2.0,Object_Land_Solid_Small,1.0,,,,,,,,,,,
encoding,value,10,2529742,2535756,2532877.0,2533212.0,336.0,336.0,1538.3,892.3,1591.0,1269.0,Object_Land_Solid_Small,52.70000029203947,58.71363370900508,2.0,Object_Land_Solid_Small,1.0,,,,,,,,,,,
encoding,value,10,2529742,2535756,2533222.0,2533477.0,256.0,256.0,1590.9,874.0999999999999,1591.0,1269.0,Object_Land_Solid_Small,52.70000029203947,58.71363370900508,2.0,Object_Land_Solid_Small,1.0,,,,,,,,,,,
encoding,value,10,2529742,2535756,2533488.0,2533706.0,219.0,219.0,1564.0,815.0,1591.0,1269.0,Object_Land_Solid_Small,52.70000029203947,58.71363370900508,2.0,Object_Land_Solid_Small,1.0,,,,,,,,,,,
encoding,value,10,2529742,2535756,2533929.0,2533978.0,50.0,50.0,1578.9,938.9000000000001,1591.0,1269.0,Object_Land_Solid_Small,52.70000029203947,58.71363370900508,2.0,Object_Land_Solid_Small,1.0,,,,,,,,,,,
encoding,value,10,2529742,2535756,2535494.0,2535541.0,48.0,48.0,1550.2,987.5,1591.0,1269.0,Object_Land_Solid_Small,52.70000029203947,58.71363370900508,2.0,Object_Land_Solid_Small,1.0,,,,,,,,,,,
encoding,value,10,2529742,2535756,2535571.0,2535720.0,150.0,150.0,1569.9,854.9000000000001,1591.0,1269.0,Object_Land_Solid_Small,52.70000029203947,58.71363370900508,2.0,Object_Land_Solid_Small,1.0,,,,,,,,,,,
encoding,attention,10,2535756,2538776,2535781.0,2535902.0,122.0,122.0,1884.9,984.5999999999999,1920.0,1460.0,Object_Land_Pattern_Small,58.71375691704452,61.73350258404389,2.0,Object_Land_Solid_Small,1.0,1.0,1.0,1.583486624993384,,,,,,,,
encoding,attention,10,2535756,2538776,2535938.0,2536091.0,154.0,154.0,1538.4,764.7,1591.0,1269.0,Object_Land_Solid_Small,58.71375691704452,61.73350258404389,2.0,Object_Land_Solid_Small,1.0,1.0,1.0,1.583486624993384,,,,,,,,
encoding,attention,10,2535756,2538776,2536103.0,2536409.0,307.0,307.0,1615.5,748.7,1591.0,1269.0,Object_Land_Solid_Small,58.71375691704452,61.73350258404389,2.0,Object_Land_Solid_Small,1.0,1.0,1.0,1.583486624993384,,,,,,,,
encoding,attention,10,2535756,2538776,2536427.0,2536691.0,265.0,265.0,1491.7,776.4000000000001,1591.0,1269.0,Object_Land_Solid_Small,58.71375691704452,61.73350258404389,2.0,Object_Land_Solid_Small,1.0,1.0,1.0,1.583486624993384,,,,,,,,
encoding,attention,10,2535756,2538776,2536703.0,2536980.0,278.0,278.0,1549.8,779.5999999999999,1591.0,1269.0,Object_Land_Solid_Small,58.71375691704452,61.73350258404389,2.0,Object_Land_Solid_Small,1.0,1.0,1.0,1.583486624993384,,,,,,,,
encoding,attention,10,2535756,2538776,2537365.0,2537687.0,323.0,323.0,1493.3,929.0,1591.0,1269.0,Object_Land_Solid_Small,58.71375691704452,61.73350258404389,2.0,Object_Land_Solid_Small,1.0,1.0,1.0,1.583486624993384,,,,,,,,
encoding,attention,10,2535756,2538776,2537705.0,2537808.0,104.0,104.0,1494.9,789.2,1591.0,1269.0,Object_Land_Solid_Small,58.71375691704452,61.73350258404389,2.0,Object_Land_Solid_Small,1.0,1.0,1.0,1.583486624993384,,,,,,,,
encoding,attention,10,2535756,2538776,2537819.0,2538072.0,254.0,254.0,1583.2,799.4000000000001,1591.0,1269.0,Object_Land_Solid_Small,58.71375691704452,61.73350258404389,2.0,Object_Land_Solid_Small,1.0,1.0,1.0,1.583486624993384,,,,,,,,
encoding,attention,10,2535756,2538776,2538087.0,2538350.0,264.0,264.0,1535.0,853.7,1591.0,1269.0,Object_Land_Solid_Small,58.71375691704452,61.73350258404389,2.0,Object_Land_Solid_Small,1.0,1.0,1.0,1.583486624993384,,,,,,,,
encoding,attention,10,2535756,2538776,2538366.0,2538631.0,266.0,266.0,1549.5,769.8,1591.0,1269.0,Object_Land_Solid_Small,58.71375691704452,61.73350258404389,2.0,Object_Land_Solid_Small,1.0,1.0,1.0,1.583486624993384,,,,,,,,
encoding,fixation,11,2538776,2540282,2539000.0,2539214.0,215.0,215.0,1954.4,1062.2,1920.0,1080.0,fixation,61.733644417021424,63.23898808402009,2.0,Object_Sea_Solid_Large,-8.0,,,,,,,,,,,
encoding,fixation,11,2538776,2540282,2539467.0,2539530.0,64.0,64.0,1898.3,1325.2,1920.0,700.0,Object_Sea_Solid_Large,61.733644417021424,63.23898808402009,2.0,Object_Sea_Solid_Large,-8.0,,,,,,,,,,,
encoding,fixation,11,2538776,2540282,2539569.0,2540458.0,890.0,713.0,1887.4,1050.4,1920.0,1080.0,fixation,61.733644417021424,63.23898808402009,2.0,Object_Sea_Solid_Large,-8.0,,,,,,,,,,,
encoding,image,11,2540282,2541293,2540493.0,2541570.0,1078.0,800.0,1890.0,1417.0,1920.0,700.0,Object_Sea_Solid_Large,63.23914166702889,64.2504524589749,2.0,Object_Sea_Solid_Large,-8.0,,,,,,,,,,,
encoding,value,11,2541293,2547305,2541586.0,2542079.0,494.0,494.0,1885.2,1358.5,1920.0,700.0,Object_Sea_Solid_Large,64.25056225003209,70.26249245903455,2.0,Object_Sea_Solid_Large,-8.0,,,,,,,,,,,
encoding,value,11,2541293,2547305,2542100.0,2542329.0,230.0,230.0,1867.5,1460.0,1920.0,700.0,Object_Sea_Solid_Large,64.25056225003209,70.26249245903455,2.0,Object_Sea_Solid_Large,-8.0,,,,,,,,,,,
encoding,value,11,2541293,2547305,2542339.0,2542598.0,260.0,260.0,1899.6,1434.6,1920.0,700.0,Object_Sea_Solid_Large,64.25056225003209,70.26249245903455,2.0,Object_Sea_Solid_Large,-8.0,,,,,,,,,,,
encoding,value,11,2541293,2547305,2542768.0,2542812.0,45.0,45.0,1909.7,1575.3,1920.0,700.0,Object_Sea_Solid_Large,64.25056225003209,70.26249245903455,2.0,Object_Sea_Solid_Large,-8.0,,,,,,,,,,,
encoding,value,11,2541293,2547305,2542831.0,2543067.0,237.0,237.0,1899.6,1465.2,1920.0,700.0,Object_Sea_Solid_Large,64.25056225003209,70.26249245903455,2.0,Object_Sea_Solid_Large,-8.0,,,,,,,,,,,
encoding,value,11,2541293,2547305,2543109.0,2543353.0,245.0,245.0,2257.7,1498.5,2249.0,891.0,Animal_Sea_Pattern_Large,64.25056225003209,70.26249245903455,2.0,Object_Sea_Solid_Large,-8.0,,,,,,,,,,,
encoding,value,11,2541293,2547305,2543385.0,2543631.0,247.0,247.0,1865.3,1463.3,1920.0,700.0,Object_Sea_Solid_Large,64.25056225003209,70.26249245903455,2.0,Object_Sea_Solid_Large,-8.0,,,,,,,,,,,
encoding,value,11,2541293,2547305,2543649.0,2544166.0,518.0,518.0,1863.0,1388.2,1920.0,700.0,Object_Sea_Solid_Large,64.25056225003209,70.26249245903455,2.0,Object_Sea_Solid_Large,-8.0,,,,,,,,,,,
encoding,value,11,2541293,2547305,2544174.0,2544350.0,177.0,177.0,1884.5,1397.4,1920.0,700.0,Object_Sea_Solid_Large,64.25056225003209,70.26249245903455,2.0,Object_Sea_Solid_Large,-8.0,,,,,,,,,,,
encoding,value,11,2541293,2547305,2544537.0,2544590.0,54.0,54.0,1866.5,1574.9,1920.0,700.0,Object_Sea_Solid_Large,64.25056225003209,70.26249245903455,2.0,Object_Sea_Solid_Large,-8.0,,,,,,,,,,,
encoding,value,11,2541293,2547305,2544607.0,2544751.0,145.0,145.0,1862.7,1471.5,1920.0,700.0,Object_Sea_Solid_Large,64.25056225003209,70.26249245903455,2.0,Object_Sea_Solid_Large,-8.0,,,,,,,,,,,
encoding,value,11,2541293,2547305,2544769.0,2545129.0,361.0,361.0,1900.0,1423.4,1920.0,700.0,Object_Sea_Solid_Large,64.25056225003209,70.26249245903455,2.0,Object_Sea_Solid_Large,-8.0,,,,,,,,,,,
encoding,value,11,2541293,2547305,2545151.0,2545555.0,405.0,405.0,1888.9,1273.2,1920.0,700.0,Object_Sea_Solid_Large,64.25056225003209,70.26249245903455,2.0,Object_Sea_Solid_Large,-8.0,,,,,,,,,,,
encoding,value,11,2541293,2547305,2545582.0,2545934.0,353.0,353.0,2143.6,1299.8,2249.0,891.0,Animal_Sea_Pattern_Large,64.25056225003209,70.26249245903455,2.0,Object_Sea_Solid_Large,-8.0,,,,,,,,,,,
encoding,value,11,2541293,2547305,2545957.0,2546156.0,200.0,200.0,1885.2,1371.2,1920.0,700.0,Object_Sea_Solid_Large,64.25056225003209,70.26249245903455,2.0,Object_Sea_Solid_Large,-8.0,,,,,,,,,,,
encoding,value,11,2541293,2547305,2546189.0,2546421.0,233.0,233.0,1927.2,1135.0,1920.0,1080.0,fixation,64.25056225003209,70.26249245903455,2.0,Object_Sea_Solid_Large,-8.0,,,,,,,,,,,
encoding,value,11,2541293,2547305,2546455.0,2546679.0,225.0,225.0,1850.7,1406.2,1920.0,700.0,Object_Sea_Solid_Large,64.25056225003209,70.26249245903455,2.0,Object_Sea_Solid_Large,-8.0,,,,,,,,,,,
encoding,value,11,2541293,2547305,2546742.0,2546975.0,234.0,234.0,2573.2,1469.2,,,none,64.25056225003209,70.26249245903455,2.0,Object_Sea_Solid_Large,-8.0,,,,,,,,,,,
encoding,value,11,2541293,2547305,2547027.0,2547373.0,347.0,278.0,1896.8,1433.9,1920.0,700.0,Object_Sea_Solid_Large,64.25056225003209,70.26249245903455,2.0,Object_Sea_Solid_Large,-8.0,,,,,,,,,,,
encoding,attention,11,2547306,2550325,2547401.0,2547594.0,194.0,194.0,1846.1,1246.5,1920.0,700.0,Object_Sea_Solid_Large,70.2626524589723,73.28249570901971,2.0,Object_Sea_Solid_Large,-8.0,-8.0,1.0,1.0671052079414949,,,,,,,,
encoding,attention,11,2547306,2550325,2547616.0,2547836.0,221.0,221.0,1832.6,1392.2,1920.0,700.0,Object_Sea_Solid_Large,70.2626524589723,73.28249570901971,2.0,Object_Sea_Solid_Large,-8.0,-8.0,1.0,1.0671052079414949,,,,,,,,
encoding,attention,11,2547306,2550325,2547849.0,2548187.0,339.0,339.0,1913.9,1386.1,1920.0,700.0,Object_Sea_Solid_Large,70.2626524589723,73.28249570901971,2.0,Object_Sea_Solid_Large,-8.0,-8.0,1.0,1.0671052079414949,,,,,,,,
encoding,attention,11,2547306,2550325,2548198.0,2548627.0,430.0,430.0,1830.6,1388.2,1920.0,700.0,Object_Sea_Solid_Large,70.2626524589723,73.28249570901971,2.0,Object_Sea_Solid_Large,-8.0,-8.0,1.0,1.0671052079414949,,,,,,,,
encoding,attention,11,2547306,2550325,2548831.0,2549090.0,260.0,260.0,1880.7,1476.4,1920.0,700.0,Object_Sea_Solid_Large,70.2626524589723,73.28249570901971,2.0,Object_Sea_Solid_Large,-8.0,-8.0,1.0,1.0671052079414949,,,,,,,,
encoding,attention,11,2547306,2550325,2549109.0,2549359.0,251.0,251.0,1947.9,1401.3,1920.0,700.0,Object_Sea_Solid_Large,70.2626524589723,73.28249570901971,2.0,Object_Sea_Solid_Large,-8.0,-8.0,1.0,1.0671052079414949,,,,,,,,
encoding,attention,11,2547306,2550325,2549373.0,2549683.0,311.0,311.0,1846.6,1438.7,1920.0,700.0,Object_Sea_Solid_Large,70.2626524589723,73.28249570901971,2.0,Object_Sea_Solid_Large,-8.0,-8.0,1.0,1.0671052079414949,,,,,,,,
encoding,attention,11,2547306,2550325,2549700.0,2549971.0,272.0,272.0,1915.3,1465.0,1920.0,700.0,Object_Sea_Solid_Large,70.2626524589723,73.28249570901971,2.0,Object_Sea_Solid_Large,-8.0,-8.0,1.0,1.0671052079414949,,,,,,,,
encoding,attention,11,2547306,2550325,2549984.0,2550265.0,282.0,282.0,1840.5,1481.9,1920.0,700.0,Object_Sea_Solid_Large,70.2626524589723,73.28249570901971,2.0,Object_Sea_Solid_Large,-8.0,-8.0,1.0,1.0671052079414949,,,,,,,,
encoding,fixation,12,2550326,2551831,2550590.0,2550694.0,105.0,105.0,1866.0,1124.4,1920.0,1080.0,fixation,73.28264270897489,74.7876058750553,2.0,Object_Land_Pattern_Small,-3.0,,,,,,,,,,,
encoding,fixation,12,2550326,2551831,2550918.0,2550985.0,68.0,68.0,1874.6,1253.3,1920.0,700.0,Object_Sea_Solid_Large,73.28264270897489,74.7876058750553,2.0,Object_Land_Pattern_Small,-3.0,,,,,,,,,,,
encoding,fixation,12,2550326,2551831,2551004.0,2551041.0,38.0,38.0,1872.2,1169.3,1920.0,700.0,Object_Sea_Solid_Large,73.28264270897489,74.7876058750553,2.0,Object_Land_Pattern_Small,-3.0,,,,,,,,,,,
encoding,fixation,12,2550326,2551831,2551053.0,2551314.0,262.0,262.0,1873.1,1069.9,1920.0,1080.0,fixation,73.28264270897489,74.7876058750553,2.0,Object_Land_Pattern_Small,-3.0,,,,,,,,,,,
encoding,fixation,12,2550326,2551831,2551337.0,2551535.0,199.0,199.0,2012.1,1142.7,2249.0,891.0,Animal_Sea_Pattern_Large,73.28264270897489,74.7876058750553,2.0,Object_Land_Pattern_Small,-3.0,,,,,,,,,,,
encoding,fixation,12,2550326,2551831,2551558.0,2551762.0,205.0,205.0,1919.0,1314.4,1920.0,700.0,Object_Sea_Solid_Large,73.28264270897489,74.7876058750553,2.0,Object_Land_Pattern_Small,-3.0,,,,,,,,,,,
encoding,fixation,12,2550326,2551831,2551800.0,2551985.0,186.0,31.0,2237.0,1439.9,2249.0,891.0,Animal_Sea_Pattern_Large,73.28264270897489,74.7876058750553,2.0,Object_Land_Pattern_Small,-3.0,,,,,,,,,,,
encoding,image,12,2551831,2552842,2552052.0,2552207.0,156.0,156.0,1920.6,844.7,1920.0,1460.0,Object_Land_Pattern_Small,74.787710124976,75.79885016696062,2.0,Object_Land_Pattern_Small,-3.0,,,,,,,,,,,
encoding,image,12,2551831,2552842,2552229.0,2552568.0,340.0,340.0,1898.5,698.5,1920.0,1460.0,Object_Land_Pattern_Small,74.787710124976,75.79885016696062,2.0,Object_Land_Pattern_Small,-3.0,,,,,,,,,,,
encoding,image,12,2551831,2552842,2552616.0,2552754.0,139.0,139.0,1863.6,1084.4,1920.0,1080.0,fixation,74.787710124976,75.79885016696062,2.0,Object_Land_Pattern_Small,-3.0,,,,,,,,,,,
encoding,image,12,2551831,2552842,2552797.0,2553098.0,302.0,45.0,1913.9,620.3,1920.0,1460.0,Object_Land_Pattern_Small,74.787710124976,75.79885016696062,2.0,Object_Land_Pattern_Small,-3.0,,,,,,,,,,,
encoding,value,12,2552842,2558854,2553113.0,2553398.0,286.0,286.0,1898.9,536.2,1920.0,1460.0,Object_Land_Pattern_Small,75.79897766700014,81.81078029202763,2.0,Object_Land_Pattern_Small,-3.0,,,,,,,,,,,
encoding,value,12,2552842,2558854,2553609.0,2553642.0,34.0,34.0,1872.7,828.4000000000001,1920.0,1460.0,Object_Land_Pattern_Small,75.79897766700014,81.81078029202763,2.0,Object_Land_Pattern_Small,-3.0,,,,,,,,,,,
encoding,value,12,2552842,2558854,2553673.0,2553858.0,186.0,186.0,1886.6,706.7,1920.0,1460.0,Object_Land_Pattern_Small,75.79897766700014,81.81078029202763,2.0,Object_Land_Pattern_Small,-3.0,,,,,,,,,,,
encoding,value,12,2552842,2558854,2553875.0,2554257.0,383.0,383.0,1917.9,621.7,1920.0,1460.0,Object_Land_Pattern_Small,75.79897766700014,81.81078029202763,2.0,Object_Land_Pattern_Small,-3.0,,,,,,,,,,,
encoding,value,12,2552842,2558854,2554275.0,2554552.0,278.0,278.0,1870.4,555.5999999999999,1920.0,1460.0,Object_Land_Pattern_Small,75.79897766700014,81.81078029202763,2.0,Object_Land_Pattern_Small,-3.0,,,,,,,,,,,
encoding,value,12,2552842,2558854,2554829.0,2554894.0,66.0,66.0,1837.7,753.5,1920.0,1460.0,Object_Land_Pattern_Small,75.79897766700014,81.81078029202763,2.0,Object_Land_Pattern_Small,-3.0,,,,,,,,,,,
encoding,value,12,2552842,2558854,2554928.0,2555030.0,103.0,103.0,1853.7,642.9000000000001,1920.0,1460.0,Object_Land_Pattern_Small,75.79897766700014,81.81078029202763,2.0,Object_Land_Pattern_Small,-3.0,,,,,,,,,,,
encoding,value,12,2552842,2558854,2555037.0,2556709.0,1673.0,1673.0,1874.9,585.7,1920.0,1460.0,Object_Land_Pattern_Small,75.79897766700014,81.81078029202763,2.0,Object_Land_Pattern_Small,-3.0,,,,,,,,,,,
encoding,value,12,2552842,2558854,2556724.0,2557940.0,1217.0,1217.0,1897.1,679.3,1920.0,1460.0,Object_Land_Pattern_Small,75.79897766700014,81.81078029202763,2.0,Object_Land_Pattern_Small,-3.0,,,,,,,,,,,
encoding,value,12,2552842,2558854,2557954.0,2559086.0,1133.0,900.0,1917.6,619.0,1920.0,1460.0,Object_Land_Pattern_Small,75.79897766700014,81.81078029202763,2.0,Object_Land_Pattern_Small,-3.0,,,,,,,,,,,
encoding,attention,12,2558854,2561873,2559097.0,2559179.0,83.0,83.0,1944.5,605.8,1920.0,1460.0,Object_Land_Pattern_Small,81.81090541696176,84.82978204195388,2.0,Object_Land_Pattern_Small,-3.0,-3.0,1.0,1.3693621249403805,,,,,,,,
encoding,attention,12,2558854,2561873,2559532.0,2559670.0,139.0,139.0,1865.4,798.5999999999999,1920.0,1460.0,Object_Land_Pattern_Small,81.81090541696176,84.82978204195388,2.0,Object_Land_Pattern_Small,-3.0,-3.0,1.0,1.3693621249403805,,,,,,,,
encoding,attention,12,2558854,2561873,2559764.0,2559845.0,82.0,82.0,1891.3,674.0,1920.0,1460.0,Object_Land_Pattern_Small,81.81090541696176,84.82978204195388,2.0,Object_Land_Pattern_Small,-3.0,-3.0,1.0,1.3693621249403805,,,,,,,,
encoding,attention,12,2558854,2561873,2559854.0,2560558.0,705.0,705.0,1931.4,632.3,1920.0,1460.0,Object_Land_Pattern_Small,81.81090541696176,84.82978204195388,2.0,Object_Land_Pattern_Small,-3.0,-3.0,1.0,1.3693621249403805,,,,,,,,
encoding,attention,12,2558854,2561873,2560576.0,2560878.0,303.0,303.0,1873.3,673.8,1920.0,1460.0,Object_Land_Pattern_Small,81.81090541696176,84.82978204195388,2.0,Object_Land_Pattern_Small,-3.0,-3.0,1.0,1.3693621249403805,,,,,,,,
encoding,attention,12,2558854,2561873,2560895.0,2561188.0,294.0,294.0,1941.3,604.2,1920.0,1460.0,Object_Land_Pattern_Small,81.81090541696176,84.82978204195388,2.0,Object_Land_Pattern_Small,-3.0,-3.0,1.0,1.3693621249403805,,,,,,,,
encoding,attention,12,2558854,2561873,2561203.0,2561440.0,238.0,238.0,1839.4,594.7,1920.0,1460.0,Object_Land_Pattern_Small,81.81090541696176,84.82978204195388,2.0,Object_Land_Pattern_Small,-3.0,-3.0,1.0,1.3693621249403805,,,,,,,,
encoding,attention,12,2558854,2561873,2561459.0,2561770.0,312.0,312.0,1899.1,723.0999999999999,1920.0,1460.0,Object_Land_Pattern_Small,81.81090541696176,84.82978204195388,2.0,Object_Land_Pattern_Small,-3.0,-3.0,1.0,1.3693621249403805,,,,,,,,
encoding,fixation,13,2941977,2943483,2942307.0,2942521.0,215.0,215.0,1865.7,1091.7,1920.0,1080.0,fixation,9.437106917030178,10.943171499995517,3.0,Object_Land_Solid_Large,2.0,,,,,,,,,,,
encoding,fixation,13,2941977,2943483,2942564.0,2942710.0,147.0,147.0,2040.9,1405.2,1920.0,700.0,Object_Sea_Pattern_Small,9.437106917030178,10.943171499995517,3.0,Object_Land_Solid_Large,2.0,,,,,,,,,,,
encoding,fixation,13,2941977,2943483,2942937.0,2943050.0,114.0,114.0,1853.8,1512.0,1920.0,700.0,Object_Sea_Pattern_Small,9.437106917030178,10.943171499995517,3.0,Object_Land_Solid_Large,2.0,,,,,,,,,,,
encoding,fixation,13,2941977,2943483,2943076.0,2943440.0,365.0,365.0,1979.8,1366.8,1920.0,700.0,Object_Sea_Pattern_Small,9.437106917030178,10.943171499995517,3.0,Object_Land_Solid_Large,2.0,,,,,,,,,,,
encoding,image,13,2943484,2944494,2943702.0,2943814.0,113.0,113.0,1913.8,1302.4,1920.0,700.0,Object_Sea_Pattern_Small,10.943286875030026,11.953572375001386,3.0,Object_Land_Solid_Large,2.0,,,,,,,,,,,
encoding,image,13,2943484,2944494,2943860.0,2944685.0,826.0,634.0,2205.6,887.2,2249.0,1269.0,Object_Land_Solid_Large,10.943286875030026,11.953572375001386,3.0,Object_Land_Solid_Large,2.0,,,,,,,,,,,
encoding,value,13,2944494,2950507,2944701.0,2945060.0,360.0,360.0,2241.3,779.8,2249.0,1269.0,Object_Land_Solid_Large,11.953673499985598,17.966109792003408,3.0,Object_Land_Solid_Large,2.0,,,,,,,,,,,
encoding,value,13,2944494,2950507,2945273.0,2945565.0,293.0,293.0,2224.4,901.2,2249.0,1269.0,Object_Land_Solid_Large,11.953673499985598,17.966109792003408,3.0,Object_Land_Solid_Large,2.0,,,,,,,,,,,
encoding,value,13,2944494,2950507,2945772.0,2945816.0,45.0,45.0,2222.2,989.3,2249.0,1269.0,Object_Land_Solid_Large,11.953673499985598,17.966109792003408,3.0,Object_Land_Solid_Large,2.0,,,,,,,,,,,
encoding,value,13,2944494,2950507,2945823.0,2946031.0,209.0,209.0,2221.2,913.5,2249.0,1269.0,Object_Land_Solid_Large,11.953673499985598,17.966109792003408,3.0,Object_Land_Solid_Large,2.0,,,,,,,,,,,
encoding,value,13,2944494,2950507,2946279.0,2946395.0,117.0,117.0,2195.7,951.0999999999999,2249.0,1269.0,Object_Land_Solid_Large,11.953673499985598,17.966109792003408,3.0,Object_Land_Solid_Large,2.0,,,,,,,,,,,
encoding,value,13,2944494,2950507,2946632.0,2946675.0,44.0,44.0,2164.4,1046.7,2249.0,1269.0,Object_Land_Solid_Large,11.953673499985598,17.966109792003408,3.0,Object_Land_Solid_Large,2.0,,,,,,,,,,,
encoding,value,13,2944494,2950507,2946687.0,2946754.0,68.0,68.0,2163.4,965.7,2249.0,1269.0,Object_Land_Solid_Large,11.953673499985598,17.966109792003408,3.0,Object_Land_Solid_Large,2.0,,,,,,,,,,,
encoding,value,13,2944494,2950507,2946773.0,2947132.0,360.0,360.0,2186.3,867.2,2249.0,1269.0,Object_Land_Solid_Large,11.953673499985598,17.966109792003408,3.0,Object_Land_Solid_Large,2.0,,,,,,,,,,,
encoding,value,13,2944494,2950507,2947150.0,2947338.0,189.0,189.0,2147.6,950.8,2249.0,1269.0,Object_Land_Solid_Large,11.953673499985598,17.966109792003408,3.0,Object_Land_Solid_Large,2.0,,,,,,,,,,,
encoding,value,13,2944494,2950507,2947357.0,2948306.0,950.0,950.0,2183.3,848.0,2249.0,1269.0,Object_Land_Solid_Large,11.953673499985598,17.966109792003408,3.0,Object_Land_Solid_Large,2.0,,,,,,,,,,,
encoding,value,13,2944494,2950507,2948464.0,2948487.0,24.0,24.0,2148.9,1004.3,2249.0,1269.0,Object_Land_Solid_Large,11.953673499985598,17.966109792003408,3.0,Object_Land_Solid_Large,2.0,,,,,,,,,,,
encoding,value,13,2944494,2950507,2948527.0,2948619.0,93.0,93.0,2155.8,929.4000000000001,2249.0,1269.0,Object_Land_Solid_Large,11.953673499985598,17.966109792003408,3.0,Object_Land_Solid_Large,2.0,,,,,,,,,,,
encoding,value,13,2944494,2950507,2948637.0,2948860.0,224.0,224.0,2199.9,846.0,2249.0,1269.0,Object_Land_Solid_Large,11.953673499985598,17.966109792003408,3.0,Object_Land_Solid_Large,2.0,,,,,,,,,,,
encoding,value,13,2944494,2950507,2948874.0,2949148.0,275.0,275.0,2143.5,883.7,2249.0,1269.0,Object_Land_Solid_Large,11.953673499985598,17.966109792003408,3.0,Object_Land_Solid_Large,2.0,,,,,,,,,,,
encoding,value,13,2944494,2950507,2949167.0,2949472.0,306.0,306.0,2222.6,810.9000000000001,2249.0,1269.0,Object_Land_Solid_Large,11.953673499985598,17.966109792003408,3.0,Object_Land_Solid_Large,2.0,,,,,,,,,,,
encoding,value,13,2944494,2950507,2949600.0,2949814.0,215.0,215.0,2191.7,918.0,2249.0,1269.0,Object_Land_Solid_Large,11.953673499985598,17.966109792003408,3.0,Object_Land_Solid_Large,2.0,,,,,,,,,,,
encoding,value,13,2944494,2950507,2949823.0,2950748.0,926.0,684.0,2208.2,858.7,2249.0,1269.0,Object_Land_Solid_Large,11.953673499985598,17.966109792003408,3.0,Object_Land_Solid_Large,2.0,,,,,,,,,,,
encoding,attention,13,2950507,2953527,2950760.0,2951596.0,837.0,837.0,2253.7,813.0999999999999,2249.0,1269.0,Object_Land_Solid_Large,17.96624374995008,20.9858522079885,3.0,Object_Land_Solid_Large,2.0,2.0,1.0,0.8352462919428945,,,,,,,,
encoding,attention,13,2950507,2953527,2951833.0,2952005.0,173.0,173.0,2213.7,905.4000000000001,2249.0,1269.0,Object_Land_Solid_Large,17.96624374995008,20.9858522079885,3.0,Object_Land_Solid_Large,2.0,2.0,1.0,0.8352462919428945,,,,,,,,
encoding,attention,13,2950507,2953527,2952024.0,2952504.0,481.0,481.0,2301.1,770.7,2249.0,1269.0,Object_Land_Solid_Large,17.96624374995008,20.9858522079885,3.0,Object_Land_Solid_Large,2.0,2.0,1.0,0.8352462919428945,,,,,,,,
encoding,attention,13,2950507,2953527,2952524.0,2952907.0,384.0,384.0,2216.7,858.9000000000001,2249.0,1269.0,Object_Land_Solid_Large,17.96624374995008,20.9858522079885,3.0,Object_Land_Solid_Large,2.0,2.0,1.0,0.8352462919428945,,,,,,,,
encoding,attention,13,2950507,2953527,2952917.0,2953238.0,322.0,322.0,2257.4,889.2,2249.0,1269.0,Object_Land_Solid_Large,17.96624374995008,20.9858522079885,3.0,Object_Land_Solid_Large,2.0,2.0,1.0,0.8352462919428945,,,,,,,,
encoding,fixation,14,2953527,2954282,2953595.0,2953758.0,164.0,164.0,2254.4,859.5,2249.0,1269.0,Object_Land_Solid_Large,20.985994625021704,21.740953291999176,3.0,Object_Sea_Pattern_Small,6.0,,,,,,,,,,,
encoding,fixation,14,2953527,2954282,2954011.0,2954137.0,127.0,127.0,2065.1,1180.1,2249.0,891.0,Animal_Land_Pattern_Small,20.985994625021704,21.740953291999176,3.0,Object_Sea_Pattern_Small,6.0,,,,,,,,,,,
encoding,image,14,2954282,2955293,2954546.0,2954569.0,24.0,24.0,787.1,1665.7,,,none,21.741045792005025,22.752158457995392,3.0,Object_Sea_Pattern_Small,6.0,,,,,,,,,,,
encoding,image,14,2954282,2955293,2954587.0,2954643.0,57.0,57.0,772.9,1614.5,,,none,21.741045792005025,22.752158457995392,3.0,Object_Sea_Pattern_Small,6.0,,,,,,,,,,,
encoding,image,14,2954282,2955293,2954708.0,2954835.0,128.0,128.0,1965.4,1392.0,1920.0,700.0,Object_Sea_Pattern_Small,21.741045792005025,22.752158457995392,3.0,Object_Sea_Pattern_Small,6.0,,,,,,,,,,,
encoding,image,14,2954282,2955293,2954858.0,2955525.0,668.0,435.0,1869.0,1485.0,1920.0,700.0,Object_Sea_Pattern_Small,21.741045792005025,22.752158457995392,3.0,Object_Sea_Pattern_Small,6.0,,,,,,,,,,,
encoding,value,14,2955293,2961305,2955547.0,2955955.0,409.0,409.0,1893.3,1350.1,1920.0,700.0,Object_Sea_Pattern_Small,22.752265707938932,28.764017625013366,3.0,Object_Sea_Pattern_Small,6.0,,,,,,,,,,,
encoding,value,14,2955293,2961305,2955976.0,2956364.0,389.0,389.0,1895.0,1480.2,1920.0,700.0,Object_Sea_Pattern_Small,22.752265707938932,28.764017625013366,3.0,Object_Sea_Pattern_Small,6.0,,,,,,,,,,,
encoding,value,14,2955293,2961305,2956385.0,2956882.0,498.0,498.0,1860.8,1366.3,1920.0,700.0,Object_Sea_Pattern_Small,22.752265707938932,28.764017625013366,3.0,Object_Sea_Pattern_Small,6.0,,,,,,,,,,,
encoding,value,14,2955293,2961305,2956902.0,2957124.0,223.0,223.0,1865.9,1493.8,1920.0,700.0,Object_Sea_Pattern_Small,22.752265707938932,28.764017625013366,3.0,Object_Sea_Pattern_Small,6.0,,,,,,,,,,,
encoding,value,14,2955293,2961305,2957303.0,2957769.0,467.0,467.0,1849.4,1417.7,1920.0,700.0,Object_Sea_Pattern_Small,22.752265707938932,28.764017625013366,3.0,Object_Sea_Pattern_Small,6.0,,,,,,,,,,,
encoding,value,14,2955293,2961305,2957789.0,2958174.0,386.0,386.0,1864.2,1509.7,1920.0,700.0,Object_Sea_Pattern_Small,22.752265707938932,28.764017625013366,3.0,Object_Sea_Pattern_Small,6.0,,,,,,,,,,,
encoding,value,14,2955293,2961305,2958185.0,2958463.0,279.0,279.0,1858.9,1436.8,1920.0,700.0,Object_Sea_Pattern_Small,22.752265707938932,28.764017625013366,3.0,Object_Sea_Pattern_Small,6.0,,,,,,,,,,,
encoding,value,14,2955293,2961305,2958473.0,2958753.0,281.0,281.0,1852.9,1385.2,1920.0,700.0,Object_Sea_Pattern_Small,22.752265707938932,28.764017625013366,3.0,Object_Sea_Pattern_Small,6.0,,,,,,,,,,,
encoding,value,14,2955293,2961305,2958774.0,2959004.0,231.0,231.0,1834.6,1509.1,1920.0,700.0,Object_Sea_Pattern_Small,22.752265707938932,28.764017625013366,3.0,Object_Sea_Pattern_Small,6.0,,,,,,,,,,,
encoding,value,14,2955293,2961305,2959027.0,2960131.0,1105.0,1105.0,1872.0,1394.7,1920.0,700.0,Object_Sea_Pattern_Small,22.752265707938932,28.764017625013366,3.0,Object_Sea_Pattern_Small,6.0,,,,,,,,,,,
encoding,value,14,2955293,2961305,2960144.0,2960535.0,392.0,392.0,1878.4,1464.8,1920.0,700.0,Object_Sea_Pattern_Small,22.752265707938932,28.764017625013366,3.0,Object_Sea_Pattern_Small,6.0,,,,,,,,,,,
encoding,value,14,2955293,2961305,2960551.0,2960790.0,240.0,240.0,1870.2,1527.0,1920.0,700.0,Object_Sea_Pattern_Small,22.752265707938932,28.764017625013366,3.0,Object_Sea_Pattern_Small,6.0,,,,,,,,,,,
encoding,value,14,2955293,2961305,2960811.0,2961043.0,233.0,233.0,1886.1,1396.5,1920.0,700.0,Object_Sea_Pattern_Small,22.752265707938932,28.764017625013366,3.0,Object_Sea_Pattern_Small,6.0,,,,,,,,,,,
encoding,value,14,2955293,2961305,2961064.0,2961559.0,496.0,241.0,1867.7,1495.3,1920.0,700.0,Object_Sea_Pattern_Small,22.752265707938932,28.764017625013366,3.0,Object_Sea_Pattern_Small,6.0,,,,,,,,,,,
encoding,attention,14,2961305,2964324,2961578.0,2961722.0,145.0,145.0,1837.6,1360.3,1920.0,700.0,Object_Sea_Pattern_Small,28.764153124997392,31.782604374922812,3.0,Object_Sea_Pattern_Small,6.0,6.0,1.0,0.9093766250880436,,,,,,,,
encoding,attention,14,2961305,2964324,2961735.0,2961896.0,162.0,162.0,1908.8,1365.7,1920.0,700.0,Object_Sea_Pattern_Small,28.764153124997392,31.782604374922812,3.0,Object_Sea_Pattern_Small,6.0,6.0,1.0,0.9093766250880436,,,,,,,,
encoding,attention,14,2961305,2964324,2961913.0,2962557.0,645.0,645.0,1817.1,1366.1,1920.0,700.0,Object_Sea_Pattern_Small,28.764153124997392,31.782604374922812,3.0,Object_Sea_Pattern_Small,6.0,6.0,1.0,0.9093766250880436,,,,,,,,
encoding,attention,14,2961305,2964324,2962569.0,2962829.0,261.0,261.0,1877.6,1384.5,1920.0,700.0,Object_Sea_Pattern_Small,28.764153124997392,31.782604374922812,3.0,Object_Sea_Pattern_Small,6.0,6.0,1.0,0.9093766250880436,,,,,,,,
encoding,attention,14,2961305,2964324,2962852.0,2963449.0,598.0,598.0,1878.9,1487.4,1920.0,700.0,Object_Sea_Pattern_Small,28.764153124997392,31.782604374922812,3.0,Object_Sea_Pattern_Small,6.0,6.0,1.0,0.9093766250880436,,,,,,,,
encoding,attention,14,2961305,2964324,2963468.0,2963702.0,235.0,235.0,1929.2,1412.8,1920.0,700.0,Object_Sea_Pattern_Small,28.764153124997392,31.782604374922812,3.0,Object_Sea_Pattern_Small,6.0,6.0,1.0,0.9093766250880436,,,,,,,,
encoding,fixation,15,2964324,2965829,2964764.0,2964899.0,136.0,136.0,1900.5,1091.7,1920.0,1080.0,fixation,31.78276620793622,33.287721999920905,3.0,Animal_Sea_Solid_Small,-9.0,,,,,,,,,,,
encoding,fixation,15,2964324,2965829,2965186.0,2965379.0,194.0,194.0,1957.7,1156.9,1920.0,700.0,Object_Sea_Pattern_Small,31.78276620793622,33.287721999920905,3.0,Animal_Sea_Solid_Small,-9.0,,,,,,,,,,,
encoding,fixation,15,2964324,2965829,2965395.0,2965532.0,138.0,138.0,1838.3,1111.7,1591.0,891.0,Object_Land_Pattern_Large,31.78276620793622,33.287721999920905,3.0,Animal_Sea_Solid_Small,-9.0,,,,,,,,,,,
encoding,fixation,15,2964324,2965829,2965545.0,2965994.0,450.0,284.0,1894.1,1072.0,1920.0,1080.0,fixation,31.78276620793622,33.287721999920905,3.0,Animal_Sea_Solid_Small,-9.0,,,,,,,,,,,
encoding,image,15,2965829,2966840,2966041.0,2966465.0,425.0,425.0,1575.8,884.4000000000001,1591.0,1269.0,Animal_Sea_Solid_Small,33.28782637498807,34.29894820798654,3.0,Animal_Sea_Solid_Small,-9.0,,,,,,,,,,,
encoding,image,15,2965829,2966840,2966498.0,2966780.0,283.0,283.0,1925.7,1023.2,1920.0,1080.0,fixation,33.28782637498807,34.29894820798654,3.0,Animal_Sea_Solid_Small,-9.0,,,,,,,,,,,
encoding,image,15,2965829,2966840,2966813.0,2967034.0,222.0,27.0,1553.0,845.7,1591.0,1269.0,Animal_Sea_Solid_Small,33.28782637498807,34.29894820798654,3.0,Animal_Sea_Solid_Small,-9.0,,,,,,,,,,,
encoding,value,15,2966840,2972853,2967053.0,2967494.0,442.0,442.0,1571.1,739.2,1591.0,1269.0,Animal_Sea_Solid_Small,34.29911641695071,40.31081574992277,3.0,Animal_Sea_Solid_Small,-9.0,,,,,,,,,,,
encoding,value,15,2966840,2972853,2967502.0,2967673.0,172.0,172.0,1578.3,807.5,1591.0,1269.0,Animal_Sea_Solid_Small,34.29911641695071,40.31081574992277,3.0,Animal_Sea_Solid_Small,-9.0,,,,,,,,,,,
encoding,value,15,2966840,2972853,2967854.0,2967879.0,26.0,26.0,1560.3,1007.0999999999999,1591.0,1269.0,Animal_Sea_Solid_Small,34.29911641695071,40.31081574992277,3.0,Animal_Sea_Solid_Small,-9.0,,,,,,,,,,,
encoding,value,15,2966840,2972853,2967907.0,2968075.0,169.0,169.0,1563.2,897.8,1591.0,1269.0,Animal_Sea_Solid_Small,34.29911641695071,40.31081574992277,3.0,Animal_Sea_Solid_Small,-9.0,,,,,,,,,,,
encoding,value,15,2966840,2972853,2968084.0,2968597.0,514.0,514.0,1579.8,864.0,1591.0,1269.0,Animal_Sea_Solid_Small,34.29911641695071,40.31081574992277,3.0,Animal_Sea_Solid_Small,-9.0,,,,,,,,,,,
encoding,value,15,2966840,2972853,2968615.0,2968894.0,280.0,280.0,1570.6,774.0,1591.0,1269.0,Animal_Sea_Solid_Small,34.29911641695071,40.31081574992277,3.0,Animal_Sea_Solid_Small,-9.0,,,,,,,,,,,
encoding,value,15,2966840,2972853,2968915.0,2969184.0,270.0,270.0,1569.3,889.8,1591.0,1269.0,Animal_Sea_Solid_Small,34.29911641695071,40.31081574992277,3.0,Animal_Sea_Solid_Small,-9.0,,,,,,,,,,,
encoding,value,15,2966840,2972853,2969206.0,2969433.0,228.0,228.0,1587.0,784.2,1591.0,1269.0,Animal_Sea_Solid_Small,34.29911641695071,40.31081574992277,3.0,Animal_Sea_Solid_Small,-9.0,,,,,,,,,,,
encoding,value,15,2966840,2972853,2969587.0,2969624.0,38.0,38.0,1547.0,943.5999999999999,1591.0,1269.0,Animal_Sea_Solid_Small,34.29911641695071,40.31081574992277,3.0,Animal_Sea_Solid_Small,-9.0,,,,,,,,,,,
encoding,value,15,2966840,2972853,2969665.0,2970883.0,1219.0,1219.0,1563.0,785.0,1591.0,1269.0,Animal_Sea_Solid_Small,34.29911641695071,40.31081574992277,3.0,Animal_Sea_Solid_Small,-9.0,,,,,,,,,,,
encoding,value,15,2966840,2972853,2971063.0,2971093.0,31.0,31.0,1566.9,960.5999999999999,1591.0,1269.0,Animal_Sea_Solid_Small,34.29911641695071,40.31081574992277,3.0,Animal_Sea_Solid_Small,-9.0,,,,,,,,,,,
encoding,value,15,2966840,2972853,2971165.0,2971464.0,300.0,300.0,1569.2,830.8,1591.0,1269.0,Animal_Sea_Solid_Small,34.29911641695071,40.31081574992277,3.0,Animal_Sea_Solid_Small,-9.0,,,,,,,,,,,
encoding,value,15,2966840,2972853,2971472.0,2971653.0,182.0,182.0,1579.3,773.3,1591.0,1269.0,Animal_Sea_Solid_Small,34.29911641695071,40.31081574992277,3.0,Animal_Sea_Solid_Small,-9.0,,,,,,,,,,,
encoding,value,15,2966840,2972853,2971674.0,2971858.0,185.0,185.0,1694.1,853.0,1591.0,1269.0,Animal_Sea_Solid_Small,34.29911641695071,40.31081574992277,3.0,Animal_Sea_Solid_Small,-9.0,,,,,,,,,,,
encoding,value,15,2966840,2972853,2971876.0,2972087.0,212.0,212.0,1572.0,860.0,1591.0,1269.0,Animal_Sea_Solid_Small,34.29911641695071,40.31081574992277,3.0,Animal_Sea_Solid_Small,-9.0,,,,,,,,,,,
encoding,value,15,2966840,2972853,2972336.0,2972381.0,46.0,46.0,1533.4,915.0999999999999,1591.0,1269.0,Animal_Sea_Solid_Small,34.29911641695071,40.31081574992277,3.0,Animal_Sea_Solid_Small,-9.0,,,,,,,,,,,
encoding,value,15,2966840,2972853,2972438.0,2972684.0,247.0,247.0,1580.5,781.4000000000001,1591.0,1269.0,Animal_Sea_Solid_Small,34.29911641695071,40.31081574992277,3.0,Animal_Sea_Solid_Small,-9.0,,,,,,,,,,,
encoding,value,15,2966840,2972853,2972701.0,2972936.0,236.0,152.0,1567.2,875.5999999999999,1591.0,1269.0,Animal_Sea_Solid_Small,34.29911641695071,40.31081574992277,3.0,Animal_Sea_Solid_Small,-9.0,,,,,,,,,,,
encoding,attention,15,2972853,2975870,2972972.0,2973100.0,129.0,129.0,1916.0,980.8,1920.0,1460.0,Animal_Sea_Solid_Large,40.310957332956605,43.328167791944,3.0,Animal_Sea_Solid_Small,-9.0,-9.0,1.0,1.0104107910301536,,,,,,,,
encoding,attention,15,2972853,2975870,2973143.0,2973305.0,163.0,163.0,1602.0,819.0999999999999,1591.0,1269.0,Animal_Sea_Solid_Small,40.310957332956605,43.328167791944,3.0,Animal_Sea_Solid_Small,-9.0,-9.0,1.0,1.0104107910301536,,,,,,,,
encoding,attention,15,2972853,2975870,2973317.0,2973736.0,420.0,420.0,1614.4,780.3,1591.0,1269.0,Animal_Sea_Solid_Small,40.310957332956605,43.328167791944,3.0,Animal_Sea_Solid_Small,-9.0,-9.0,1.0,1.0104107910301536,,,,,,,,
encoding,attention,15,2972853,2975870,2973747.0,2974074.0,328.0,328.0,1562.4,841.4000000000001,1591.0,1269.0,Animal_Sea_Solid_Small,40.310957332956605,43.328167791944,3.0,Animal_Sea_Solid_Small,-9.0,-9.0,1.0,1.0104107910301536,,,,,,,,
encoding,attention,15,2972853,2975870,2974088.0,2974191.0,104.0,104.0,1607.3,799.3,1591.0,1269.0,Animal_Sea_Solid_Small,40.310957332956605,43.328167791944,3.0,Animal_Sea_Solid_Small,-9.0,-9.0,1.0,1.0104107910301536,,,,,,,,
encoding,attention,15,2972853,2975870,2974451.0,2974490.0,40.0,40.0,1534.8,989.9000000000001,1591.0,1269.0,Animal_Sea_Solid_Small,40.310957332956605,43.328167791944,3.0,Animal_Sea_Solid_Small,-9.0,-9.0,1.0,1.0104107910301536,,,,,,,,
encoding,attention,15,2972853,2975870,2974554.0,2974639.0,86.0,86.0,1542.6,874.2,1591.0,1269.0,Animal_Sea_Solid_Small,40.310957332956605,43.328167791944,3.0,Animal_Sea_Solid_Small,-9.0,-9.0,1.0,1.0104107910301536,,,,,,,,
encoding,attention,15,2972853,2975870,2974680.0,2974890.0,211.0,211.0,1909.0,1039.7,1920.0,1080.0,fixation,40.310957332956605,43.328167791944,3.0,Animal_Sea_Solid_Small,-9.0,-9.0,1.0,1.0104107910301536,,,,,,,,
encoding,fixation,16,2975870,2976375,2975908.0,2976081.0,174.0,174.0,1586.5,873.5,1591.0,1269.0,Animal_Sea_Solid_Small,43.32831104192883,43.83336054196115,3.0,Animal_Land_Pattern_Small,6.0,,,,,,,,,,,
encoding,fixation,16,2975870,2976375,2976136.0,2976163.0,28.0,28.0,2018.9,1090.1,2249.0,891.0,Animal_Land_Pattern_Small,43.32831104192883,43.83336054196115,3.0,Animal_Land_Pattern_Small,6.0,,,,,,,,,,,
encoding,image,16,2976375,2977386,2976402.0,2976437.0,36.0,36.0,2542.0,1498.7,,,none,43.83347566693555,44.84443495795131,3.0,Animal_Land_Pattern_Small,6.0,,,,,,,,,,,
encoding,image,16,2976375,2977386,2976454.0,2976621.0,168.0,168.0,2519.2,1403.7,,,none,43.83347566693555,44.84443495795131,3.0,Animal_Land_Pattern_Small,6.0,,,,,,,,,,,
encoding,image,16,2976375,2977386,2976651.0,2976848.0,198.0,198.0,2192.4,1268.3,2249.0,891.0,Animal_Land_Pattern_Small,43.83347566693555,44.84443495795131,3.0,Animal_Land_Pattern_Small,6.0,,,,,,,,,,,
encoding,image,16,2976375,2977386,2976860.0,2977167.0,308.0,308.0,2215.2,1249.1,2249.0,891.0,Animal_Land_Pattern_Small,43.83347566693555,44.84443495795131,3.0,Animal_Land_Pattern_Small,6.0,,,,,,,,,,,
encoding,image,16,2976375,2977386,2977184.0,2977413.0,230.0,202.0,2071.4,1250.2,2249.0,891.0,Animal_Land_Pattern_Small,43.83347566693555,44.84443495795131,3.0,Animal_Land_Pattern_Small,6.0,,,,,,,,,,,
encoding,value,16,2977386,2983398,2977433.0,2977642.0,210.0,210.0,2211.9,1240.7,2249.0,891.0,Animal_Land_Pattern_Small,44.84456095797941,50.855512582929805,3.0,Animal_Land_Pattern_Small,6.0,,,,,,,,,,,
encoding,value,16,2977386,2983398,2977658.0,2977941.0,284.0,284.0,2192.3,1162.9,2249.0,891.0,Animal_Land_Pattern_Small,44.84456095797941,50.855512582929805,3.0,Animal_Land_Pattern_Small,6.0,,,,,,,,,,,
encoding,value,16,2977386,2983398,2978161.0,2978559.0,399.0,399.0,2201.9,1265.7,2249.0,891.0,Animal_Land_Pattern_Small,44.84456095797941,50.855512582929805,3.0,Animal_Land_Pattern_Small,6.0,,,,,,,,,,,
encoding,value,16,2977386,2983398,2978580.0,2978839.0,260.0,260.0,2139.8,1214.2,2249.0,891.0,Animal_Land_Pattern_Small,44.84456095797941,50.855512582929805,3.0,Animal_Land_Pattern_Small,6.0,,,,,,,,,,,
encoding,value,16,2977386,2983398,2978864.0,2979106.0,243.0,243.0,1945.5,1309.3,1920.0,700.0,Object_Sea_Pattern_Small,44.84456095797941,50.855512582929805,3.0,Animal_Land_Pattern_Small,6.0,,,,,,,,,,,
encoding,value,16,2977386,2983398,2979130.0,2979317.0,188.0,188.0,2216.3,1259.8,2249.0,891.0,Animal_Land_Pattern_Small,44.84456095797941,50.855512582929805,3.0,Animal_Land_Pattern_Small,6.0,,,,,,,,,,,
encoding,value,16,2977386,2983398,2979474.0,2979906.0,433.0,433.0,2204.9,1225.2,2249.0,891.0,Animal_Land_Pattern_Small,44.84456095797941,50.855512582929805,3.0,Animal_Land_Pattern_Small,6.0,,,,,,,,,,,
encoding,value,16,2977386,2983398,2979939.0,2980306.0,368.0,368.0,1947.1,1417.8,1920.0,700.0,Object_Sea_Pattern_Small,44.84456095797941,50.855512582929805,3.0,Animal_Land_Pattern_Small,6.0,,,,,,,,,,,
encoding,value,16,2977386,2983398,2980335.0,2981387.0,1053.0,1053.0,2187.2,1220.6,2249.0,891.0,Animal_Land_Pattern_Small,44.84456095797941,50.855512582929805,3.0,Animal_Land_Pattern_Small,6.0,,,,,,,,,,,
encoding,value,16,2977386,2983398,2981399.0,2981611.0,213.0,213.0,2209.7,1172.1,2249.0,891.0,Animal_Land_Pattern_Small,44.84456095797941,50.855512582929805,3.0,Animal_Land_Pattern_Small,6.0,,,,,,,,,,,
encoding,value,16,2977386,2983398,2981620.0,2982352.0,733.0,733.0,2169.6,1179.4,2249.0,891.0,Animal_Land_Pattern_Small,44.84456095797941,50.855512582929805,3.0,Animal_Land_Pattern_Small,6.0,,,,,,,,,,,
encoding,value,16,2977386,2983398,2982360.0,2983050.0,691.0,691.0,2192.7,1267.3,2249.0,891.0,Animal_Land_Pattern_Small,44.84456095797941,50.855512582929805,3.0,Animal_Land_Pattern_Small,6.0,,,,,,,,,,,
encoding,value,16,2977386,2983398,2983071.0,2983318.0,248.0,248.0,2158.3,1177.1,2249.0,891.0,Animal_Land_Pattern_Small,44.84456095797941,50.855512582929805,3.0,Animal_Land_Pattern_Small,6.0,,,,,,,,,,,
encoding,value,16,2977386,2983398,2983330.0,2983477.0,148.0,68.0,2221.8,1179.9,2249.0,891.0,Animal_Land_Pattern_Small,44.84456095797941,50.855512582929805,3.0,Animal_Land_Pattern_Small,6.0,,,,,,,,,,,
encoding,attention,16,2983398,2986409,2983604.0,2983976.0,373.0,373.0,2171.9,1207.0,2249.0,891.0,Animal_Land_Pattern_Small,50.85561450000387,53.86725516698789,3.0,Animal_Land_Pattern_Small,6.0,,,,,,,,,,,
encoding,attention,16,2983398,2986409,2983988.0,2984158.0,171.0,171.0,2224.3,1247.7,2249.0,891.0,Animal_Land_Pattern_Small,50.85561450000387,53.86725516698789,3.0,Animal_Land_Pattern_Small,6.0,,,,,,,,,,,
encoding,attention,16,2983398,2986409,2984368.0,2984619.0,252.0,252.0,2201.0,1259.6,2249.0,891.0,Animal_Land_Pattern_Small,50.85561450000387,53.86725516698789,3.0,Animal_Land_Pattern_Small,6.0,,,,,,,,,,,
encoding,attention,16,2983398,2986409,2984640.0,2984867.0,228.0,228.0,2136.2,1173.0,2249.0,891.0,Animal_Land_Pattern_Small,50.85561450000387,53.86725516698789,3.0,Animal_Land_Pattern_Small,6.0,,,,,,,,,,,
encoding,attention,16,2983398,2986409,2984885.0,2985156.0,272.0,272.0,2227.3,1242.5,2249.0,891.0,Animal_Land_Pattern_Small,50.85561450000387,53.86725516698789,3.0,Animal_Land_Pattern_Small,6.0,,,,,,,,,,,
encoding,attention,16,2983398,2986409,2985173.0,2985678.0,506.0,506.0,2185.1,1162.0,2249.0,891.0,Animal_Land_Pattern_Small,50.85561450000387,53.86725516698789,3.0,Animal_Land_Pattern_Small,6.0,,,,,,,,,,,
encoding,attention,16,2983398,2986409,2985696.0,2986144.0,449.0,449.0,2207.3,1280.8,2249.0,891.0,Animal_Land_Pattern_Small,50.85561450000387,53.86725516698789,3.0,Animal_Land_Pattern_Small,6.0,,,,,,,,,,,
encoding,attention,16,2983398,2986409,2986153.0,2986400.0,248.0,248.0,2159.7,1282.7,2249.0,891.0,Animal_Land_Pattern_Small,50.85561450000387,53.86725516698789,3.0,Animal_Land_Pattern_Small,6.0,,,,,,,,,,,
encoding,fixation,17,2986410,2987165,2986420.0,2986716.0,297.0,297.0,2173.2,1179.0,2249.0,891.0,Animal_Land_Pattern_Small,53.867432125029154,54.62285783293191,3.0,Object_Land_Pattern_Large,-9.0,,,,,,,,,,,
encoding,fixation,17,2986410,2987165,2986744.0,2986960.0,217.0,217.0,1847.8,1116.9,1591.0,891.0,Object_Land_Pattern_Large,53.867432125029154,54.62285783293191,3.0,Object_Land_Pattern_Large,-9.0,,,,,,,,,,,
encoding,fixation,17,2986410,2987165,2987094.0,2987323.0,230.0,71.0,2073.1,1184.3,2249.0,891.0,Animal_Land_Pattern_Small,53.867432125029154,54.62285783293191,3.0,Object_Land_Pattern_Large,-9.0,,,,,,,,,,,
encoding,image,17,2987165,2988178,2987366.0,2987790.0,425.0,425.0,1534.5,1300.2,1591.0,891.0,Object_Land_Pattern_Large,54.62299962493125,55.6356352919247,3.0,Object_Land_Pattern_Large,-9.0,,,,,,,,,,,
encoding,image,17,2987165,2988178,2987818.0,2988056.0,239.0,239.0,1789.3,1195.4,1591.0,891.0,Object_Land_Pattern_Large,54.62299962493125,55.6356352919247,3.0,Object_Land_Pattern_Large,-9.0,,,,,,,,,,,
encoding,image,17,2987165,2988178,2988092.0,2988256.0,165.0,86.0,1506.8,1281.5,1591.0,891.0,Object_Land_Pattern_Large,54.62299962493125,55.6356352919247,3.0,Object_Land_Pattern_Large,-9.0,,,,,,,,,,,
encoding,value,17,2988178,2994191,2988405.0,2988516.0,112.0,112.0,1499.5,1185.2,1591.0,891.0,Object_Land_Pattern_Large,55.63575416698586,61.64868441701401,3.0,Object_Land_Pattern_Large,-9.0,,,,,,,,,,,
encoding,value,17,2988178,2994191,2988526.0,2989544.0,1019.0,1019.0,1545.6,1170.0,1591.0,891.0,Object_Land_Pattern_Large,55.63575416698586,61.64868441701401,3.0,Object_Land_Pattern_Large,-9.0,,,,,,,,,,,
encoding,value,17,2988178,2994191,2989553.0,2989800.0,248.0,248.0,1517.5,1219.2,1591.0,891.0,Object_Land_Pattern_Large,55.63575416698586,61.64868441701401,3.0,Object_Land_Pattern_Large,-9.0,,,,,,,,,,,
encoding,value,17,2988178,2994191,2989807.0,2990619.0,813.0,813.0,1527.8,1189.8,1591.0,891.0,Object_Land_Pattern_Large,55.63575416698586,61.64868441701401,3.0,Object_Land_Pattern_Large,-9.0,,,,,,,,,,,
encoding,value,17,2988178,2994191,2990631.0,2991147.0,517.0,517.0,1544.9,1171.7,1591.0,891.0,Object_Land_Pattern_Large,55.63575416698586,61.64868441701401,3.0,Object_Land_Pattern_Large,-9.0,,,,,,,,,,,
encoding,value,17,2988178,2994191,2991156.0,2991407.0,252.0,252.0,1553.8,1204.6,1591.0,891.0,Object_Land_Pattern_Large,55.63575416698586,61.64868441701401,3.0,Object_Land_Pattern_Large,-9.0,,,,,,,,,,,
encoding,value,17,2988178,2994191,2991418.0,2991656.0,239.0,239.0,1511.9,1239.2,1591.0,891.0,Object_Land_Pattern_Large,55.63575416698586,61.64868441701401,3.0,Object_Land_Pattern_Large,-9.0,,,,,,,,,,,
encoding,value,17,2988178,2994191,2991673.0,2992118.0,446.0,446.0,1560.5,1171.9,1591.0,891.0,Object_Land_Pattern_Large,55.63575416698586,61.64868441701401,3.0,Object_Land_Pattern_Large,-9.0,,,,,,,,,,,
encoding,value,17,2988178,2994191,2992227.0,2992634.0,408.0,408.0,1565.4,1240.6,1591.0,891.0,Object_Land_Pattern_Large,55.63575416698586,61.64868441701401,3.0,Object_Land_Pattern_Large,-9.0,,,,,,,,,,,
encoding,value,17,2988178,2994191,2992824.0,2993032.0,209.0,209.0,1532.2,1175.9,1591.0,891.0,Object_Land_Pattern_Large,55.63575416698586,61.64868441701401,3.0,Object_Land_Pattern_Large,-9.0,,,,,,,,,,,
encoding,value,17,2988178,2994191,2993039.0,2993643.0,605.0,605.0,1560.5,1168.6,1591.0,891.0,Object_Land_Pattern_Large,55.63575416698586,61.64868441701401,3.0,Object_Land_Pattern_Large,-9.0,,,,,,,,,,,
encoding,value,17,2988178,2994191,2993657.0,2994000.0,344.0,344.0,1562.0,1133.5,1591.0,891.0,Object_Land_Pattern_Large,55.63575416698586,61.64868441701401,3.0,Object_Land_Pattern_Large,-9.0,,,,,,,,,,,
encoding,value,17,2988178,2994191,2994122.0,2994454.0,333.0,69.0,1570.7,1186.3,1591.0,891.0,Object_Land_Pattern_Large,55.63575416698586,61.64868441701401,3.0,Object_Land_Pattern_Large,-9.0,,,,,,,,,,,
encoding,attention,17,2994191,2997214,2994465.0,2994824.0,360.0,360.0,1610.6,1141.0,1591.0,891.0,Object_Land_Pattern_Large,61.64882687502541,64.67179945798125,3.0,Object_Land_Pattern_Large,-9.0,-9.0,1.0,0.8762346250005066,,,,,,,,
encoding,attention,17,2994191,2997214,2994839.0,2995049.0,211.0,211.0,1531.4,1177.6,1591.0,891.0,Object_Land_Pattern_Large,61.64882687502541,64.67179945798125,3.0,Object_Land_Pattern_Large,-9.0,-9.0,1.0,0.8762346250005066,,,,,,,,
encoding,attention,17,2994191,2997214,2995063.0,2995568.0,506.0,506.0,1607.8,1129.2,1591.0,891.0,Object_Land_Pattern_Large,61.64882687502541,64.67179945798125,3.0,Object_Land_Pattern_Large,-9.0,-9.0,1.0,0.8762346250005066,,,,,,,,
encoding,attention,17,2994191,2997214,2995588.0,2996585.0,998.0,998.0,1564.3,1233.0,1591.0,891.0,Object_Land_Pattern_Large,61.64882687502541,64.67179945798125,3.0,Object_Land_Pattern_Large,-9.0,-9.0,1.0,0.8762346250005066,,,,,,,,
encoding,attention,17,2994191,2997214,2996607.0,2996911.0,305.0,305.0,1732.8,1189.1,1591.0,891.0,Object_Land_Pattern_Large,61.64882687502541,64.67179945798125,3.0,Object_Land_Pattern_Large,-9.0,-9.0,1.0,0.8762346250005066,,,,,,,,
encoding,attention,17,2994191,2997214,2996934.0,2997125.0,192.0,192.0,1560.8,1235.1,1591.0,891.0,Object_Land_Pattern_Large,61.64882687502541,64.67179945798125,3.0,Object_Land_Pattern_Large,-9.0,-9.0,1.0,0.8762346250005066,,,,,,,,
encoding,fixation,18,2997214,2998470,2997524.0,2997653.0,130.0,130.0,1864.2,1074.5,1920.0,1080.0,fixation,64.67195241700392,65.9271368329646,3.0,Animal_Sea_Solid_Large,8.0,,,,,,,,,,,
encoding,fixation,18,2997214,2998470,2997818.0,2998128.0,311.0,311.0,2021.0,1167.1,2249.0,891.0,Animal_Land_Pattern_Small,64.67195241700392,65.9271368329646,3.0,Animal_Sea_Solid_Large,8.0,,,,,,,,,,,
encoding,fixation,18,2997214,2998470,2998148.0,2998375.0,228.0,228.0,1856.5,1089.8,1920.0,1080.0,fixation,64.67195241700392,65.9271368329646,3.0,Animal_Sea_Solid_Large,8.0,,,,,,,,,,,
encoding,fixation,18,2997214,2998470,2998385.0,2998647.0,263.0,85.0,1892.7,1059.1,1920.0,1080.0,fixation,64.67195241700392,65.9271368329646,3.0,Animal_Sea_Solid_Large,8.0,,,,,,,,,,,
encoding,image,18,2998470,2999481,2998691.0,2998886.0,196.0,196.0,1908.8,654.9000000000001,1920.0,1460.0,Animal_Sea_Solid_Large,65.92729562497698,66.93857837491669,3.0,Animal_Sea_Solid_Large,8.0,,,,,,,,,,,
encoding,image,18,2998470,2999481,2998898.0,2999420.0,523.0,523.0,1897.5,696.5999999999999,1920.0,1460.0,Animal_Sea_Solid_Large,65.92729562497698,66.93857837491669,3.0,Animal_Sea_Solid_Large,8.0,,,,,,,,,,,
encoding,image,18,2998470,2999481,2999455.0,2999638.0,184.0,26.0,1881.0,1042.5,1920.0,1080.0,fixation,65.92729562497698,66.93857837491669,3.0,Animal_Sea_Solid_Large,8.0,,,,,,,,,,,
encoding,value,18,2999481,3005494,2999690.0,3000103.0,414.0,414.0,1900.1,537.5,1920.0,1460.0,Animal_Sea_Solid_Large,66.93869624997023,72.95034712494817,3.0,Animal_Sea_Solid_Large,8.0,,,,,,,,,,,
encoding,value,18,2999481,3005494,3000127.0,3000727.0,601.0,601.0,1902.7,709.3,1920.0,1460.0,Animal_Sea_Solid_Large,66.93869624997023,72.95034712494817,3.0,Animal_Sea_Solid_Large,8.0,,,,,,,,,,,
encoding,value,18,2999481,3005494,3000977.0,3001081.0,105.0,105.0,1891.1,737.2,1920.0,1460.0,Animal_Sea_Solid_Large,66.93869624997023,72.95034712494817,3.0,Animal_Sea_Solid_Large,8.0,,,,,,,,,,,
encoding,value,18,2999481,3005494,3001089.0,3001339.0,251.0,251.0,1897.6,659.3,1920.0,1460.0,Animal_Sea_Solid_Large,66.93869624997023,72.95034712494817,3.0,Animal_Sea_Solid_Large,8.0,,,,,,,,,,,
encoding,value,18,2999481,3005494,3001349.0,3001581.0,233.0,233.0,1877.6,684.5999999999999,1920.0,1460.0,Animal_Sea_Solid_Large,66.93869624997023,72.95034712494817,3.0,Animal_Sea_Solid_Large,8.0,,,,,,,,,,,
encoding,value,18,2999481,3005494,3001599.0,3002302.0,704.0,704.0,1888.6,575.8,1920.0,1460.0,Animal_Sea_Solid_Large,66.93869624997023,72.95034712494817,3.0,Animal_Sea_Solid_Large,8.0,,,,,,,,,,,
encoding,value,18,2999481,3005494,3002499.0,3002583.0,85.0,85.0,1842.6,751.0999999999999,1920.0,1460.0,Animal_Sea_Solid_Large,66.93869624997023,72.95034712494817,3.0,Animal_Sea_Solid_Large,8.0,,,,,,,,,,,
encoding,value,18,2999481,3005494,3002595.0,3002626.0,32.0,32.0,1847.8,718.5,1920.0,1460.0,Animal_Sea_Solid_Large,66.93869624997023,72.95034712494817,3.0,Animal_Sea_Solid_Large,8.0,,,,,,,,,,,
encoding,value,18,2999481,3005494,3002637.0,3002661.0,25.0,25.0,1852.5,700.7,1920.0,1460.0,Animal_Sea_Solid_Large,66.93869624997023,72.95034712494817,3.0,Animal_Sea_Solid_Large,8.0,,,,,,,,,,,
encoding,value,18,2999481,3005494,3002674.0,3003617.0,944.0,944.0,1871.0,606.0999999999999,1920.0,1460.0,Animal_Sea_Solid_Large,66.93869624997023,72.95034712494817,3.0,Animal_Sea_Solid_Large,8.0,,,,,,,,,,,
encoding,value,18,2999481,3005494,3003628.0,3003943.0,316.0,316.0,1831.2,641.5,1920.0,1460.0,Animal_Sea_Solid_Large,66.93869624997023,72.95034712494817,3.0,Animal_Sea_Solid_Large,8.0,,,,,,,,,,,
encoding,value,18,2999481,3005494,3003952.0,3004193.0,242.0,242.0,1878.5,615.0999999999999,1920.0,1460.0,Animal_Sea_Solid_Large,66.93869624997023,72.95034712494817,3.0,Animal_Sea_Solid_Large,8.0,,,,,,,,,,,
encoding,value,18,2999481,3005494,3004204.0,3004458.0,255.0,255.0,1855.3,689.9000000000001,1920.0,1460.0,Animal_Sea_Solid_Large,66.93869624997023,72.95034712494817,3.0,Animal_Sea_Solid_Large,8.0,,,,,,,,,,,
encoding,value,18,2999481,3005494,3004477.0,3005066.0,590.0,590.0,1902.4,581.5999999999999,1920.0,1460.0,Animal_Sea_Solid_Large,66.93869624997023,72.95034712494817,3.0,Animal_Sea_Solid_Large,8.0,,,,,,,,,,,
encoding,value,18,2999481,3005494,3005088.0,3005380.0,293.0,293.0,1879.4,724.8,1920.0,1460.0,Animal_Sea_Solid_Large,66.93869624997023,72.95034712494817,3.0,Animal_Sea_Solid_Large,8.0,,,,,,,,,,,
encoding,attention,18,3005494,3008511,3005581.0,3005799.0,219.0,219.0,1867.7,710.0999999999999,1920.0,1460.0,Animal_Sea_Solid_Large,72.95049449999351,75.96834508294705,3.0,Animal_Sea_Solid_Large,8.0,8.0,1.0,0.6517495410516858,,,,,,,,
encoding,attention,18,3005494,3008511,3005814.0,3006016.0,203.0,203.0,1940.6,622.8,1920.0,1460.0,Animal_Sea_Solid_Large,72.95049449999351,75.96834508294705,3.0,Animal_Sea_Solid_Large,8.0,8.0,1.0,0.6517495410516858,,,,,,,,
encoding,attention,18,3005494,3008511,3006031.0,3006435.0,405.0,405.0,1838.3,624.0,1920.0,1460.0,Animal_Sea_Solid_Large,72.95049449999351,75.96834508294705,3.0,Animal_Sea_Solid_Large,8.0,8.0,1.0,0.6517495410516858,,,,,,,,
encoding,attention,18,3005494,3008511,3006678.0,3007013.0,336.0,336.0,1863.6,768.7,1920.0,1460.0,Animal_Sea_Solid_Large,72.95049449999351,75.96834508294705,3.0,Animal_Sea_Solid_Large,8.0,8.0,1.0,0.6517495410516858,,,,,,,,
encoding,attention,18,3005494,3008511,3007068.0,3007290.0,223.0,223.0,1729.5,1208.4,1591.0,891.0,Object_Land_Pattern_Large,72.95049449999351,75.96834508294705,3.0,Animal_Sea_Solid_Large,8.0,8.0,1.0,0.6517495410516858,,,,,,,,
encoding,attention,18,3005494,3008511,3007355.0,3007623.0,269.0,269.0,1942.6,681.0,1920.0,1460.0,Animal_Sea_Solid_Large,72.95049449999351,75.96834508294705,3.0,Animal_Sea_Solid_Large,8.0,8.0,1.0,0.6517495410516858,,,,,,,,
encoding,attention,18,3005494,3008511,3007634.0,3007914.0,281.0,281.0,1880.6,714.0,1920.0,1460.0,Animal_Sea_Solid_Large,72.95049449999351,75.96834508294705,3.0,Animal_Sea_Solid_Large,8.0,8.0,1.0,0.6517495410516858,,,,,,,,
encoding,attention,18,3005494,3008511,3007935.0,3008219.0,285.0,285.0,1932.2,600.4000000000001,1920.0,1460.0,Animal_Sea_Solid_Large,72.95049449999351,75.96834508294705,3.0,Animal_Sea_Solid_Large,8.0,8.0,1.0,0.6517495410516858,,,,,,,,
encoding,fixation,19,3412410,3412915,3412669.0,3412771.0,103.0,103.0,1839.2,1151.0,1591.0,891.0,Object_Land_Pattern_Large,6.675012208055705,7.1802613330073655,4.0,Animal_Land_Pattern_Large,8.0,,,,,,,,,,,
encoding,image,19,3412916,3413927,3412945.0,3412980.0,36.0,36.0,1958.8,1416.2,1920.0,700.0,Animal_Land_Pattern_Large,7.180449208011851,8.191993958083913,4.0,Animal_Land_Pattern_Large,8.0,,,,,,,,,,,
encoding,image,19,3412916,3413927,3412992.0,3413085.0,94.0,94.0,1960.1,1327.1,1920.0,700.0,Animal_Land_Pattern_Large,7.180449208011851,8.191993958083913,4.0,Animal_Land_Pattern_Large,8.0,,,,,,,,,,,
encoding,image,19,3412916,3413927,3413109.0,3413896.0,788.0,788.0,1826.2,1461.8,1920.0,700.0,Animal_Land_Pattern_Large,7.180449208011851,8.191993958083913,4.0,Animal_Land_Pattern_Large,8.0,,,,,,,,,,,
encoding,image,19,3412916,3413927,3413910.0,3414086.0,177.0,17.0,1906.0,1460.0,1920.0,700.0,Animal_Land_Pattern_Large,7.180449208011851,8.191993958083913,4.0,Animal_Land_Pattern_Large,8.0,,,,,,,,,,,
encoding,value,19,3413927,3419941,3414107.0,3414486.0,380.0,380.0,1876.9,1339.1,1920.0,700.0,Animal_Land_Pattern_Large,8.192103666020557,14.205983166000806,4.0,Animal_Land_Pattern_Large,8.0,,,,,,,,,,,
encoding,value,19,3413927,3419941,3414635.0,3415013.0,379.0,379.0,1876.0,1473.6,1920.0,700.0,Animal_Land_Pattern_Large,8.192103666020557,14.205983166000806,4.0,Animal_Land_Pattern_Large,8.0,,,,,,,,,,,
encoding,value,19,3413927,3419941,3415036.0,3415849.0,814.0,814.0,1871.0,1349.3,1920.0,700.0,Animal_Land_Pattern_Large,8.192103666020557,14.205983166000806,4.0,Animal_Land_Pattern_Large,8.0,,,,,,,,,,,
encoding,value,19,3413927,3419941,3415872.0,3416221.0,350.0,350.0,1823.7,1482.7,1920.0,700.0,Animal_Land_Pattern_Large,8.192103666020557,14.205983166000806,4.0,Animal_Land_Pattern_Large,8.0,,,,,,,,,,,
encoding,value,19,3413927,3419941,3416240.0,3416465.0,226.0,226.0,1868.5,1405.9,1920.0,700.0,Animal_Land_Pattern_Large,8.192103666020557,14.205983166000806,4.0,Animal_Land_Pattern_Large,8.0,,,,,,,,,,,
encoding,value,19,3413927,3419941,3416483.0,3416858.0,376.0,376.0,1815.2,1493.2,1920.0,700.0,Animal_Land_Pattern_Large,8.192103666020557,14.205983166000806,4.0,Animal_Land_Pattern_Large,8.0,,,,,,,,,,,
encoding,value,19,3413927,3419941,3416873.0,3417076.0,204.0,204.0,1909.3,1499.5,1920.0,700.0,Animal_Land_Pattern_Large,8.192103666020557,14.205983166000806,4.0,Animal_Land_Pattern_Large,8.0,,,,,,,,,,,
encoding,value,19,3413927,3419941,3417091.0,3417374.0,284.0,284.0,1816.8,1508.6,1920.0,700.0,Animal_Land_Pattern_Large,8.192103666020557,14.205983166000806,4.0,Animal_Land_Pattern_Large,8.0,,,,,,,,,,,
encoding,value,19,3413927,3419941,3417389.0,3417640.0,252.0,252.0,1901.3,1488.7,1920.0,700.0,Animal_Land_Pattern_Large,8.192103666020557,14.205983166000806,4.0,Animal_Land_Pattern_Large,8.0,,,,,,,,,,,
encoding,value,19,3413927,3419941,3417655.0,3417827.0,173.0,173.0,1811.2,1465.8,1920.0,700.0,Animal_Land_Pattern_Large,8.192103666020557,14.205983166000806,4.0,Animal_Land_Pattern_Large,8.0,,,,,,,,,,,
encoding,value,19,3413927,3419941,3417843.0,3418850.0,1008.0,1008.0,1860.3,1367.4,1920.0,700.0,Animal_Land_Pattern_Large,8.192103666020557,14.205983166000806,4.0,Animal_Land_Pattern_Large,8.0,,,,,,,,,,,
encoding,value,19,3413927,3419941,3418951.0,3418982.0,32.0,32.0,1865.7,1469.2,1920.0,700.0,Animal_Land_Pattern_Large,8.192103666020557,14.205983166000806,4.0,Animal_Land_Pattern_Large,8.0,,,,,,,,,,,
encoding,value,19,3413927,3419941,3419020.0,3419482.0,463.0,463.0,1871.5,1373.0,1920.0,700.0,Animal_Land_Pattern_Large,8.192103666020557,14.205983166000806,4.0,Animal_Land_Pattern_Large,8.0,,,,,,,,,,,
encoding,value,19,3413927,3419941,3419503.0,3420082.0,580.0,438.0,1848.5,1495.0,1920.0,700.0,Animal_Land_Pattern_Large,8.192103666020557,14.205983166000806,4.0,Animal_Land_Pattern_Large,8.0,,,,,,,,,,,
encoding,attention,19,3419942,3422960,3420091.0,3420242.0,152.0,152.0,1851.5,1442.0,1920.0,700.0,Animal_Land_Pattern_Large,14.20610829105135,17.224363291054033,4.0,Animal_Land_Pattern_Large,8.0,8.0,1.0,0.7655467500444502,,,,,,,,
encoding,attention,19,3419942,3422960,3420260.0,3420945.0,686.0,686.0,1921.0,1364.8,1920.0,700.0,Animal_Land_Pattern_Large,14.20610829105135,17.224363291054033,4.0,Animal_Land_Pattern_Large,8.0,8.0,1.0,0.7655467500444502,,,,,,,,
encoding,attention,19,3419942,3422960,3421157.0,3421367.0,211.0,211.0,1848.3,1366.2,1920.0,700.0,Animal_Land_Pattern_Large,14.20610829105135,17.224363291054033,4.0,Animal_Land_Pattern_Large,8.0,8.0,1.0,0.7655467500444502,,,,,,,,
encoding,attention,19,3419942,3422960,3421388.0,3421931.0,544.0,544.0,1854.6,1471.7,1920.0,700.0,Animal_Land_Pattern_Large,14.20610829105135,17.224363291054033,4.0,Animal_Land_Pattern_Large,8.0,8.0,1.0,0.7655467500444502,,,,,,,,
encoding,attention,19,3419942,3422960,3422095.0,3422272.0,178.0,178.0,1957.8,1354.2,1920.0,700.0,Animal_Land_Pattern_Large,14.20610829105135,17.224363291054033,4.0,Animal_Land_Pattern_Large,8.0,8.0,1.0,0.7655467500444502,,,,,,,,
encoding,attention,19,3419942,3422960,3422295.0,3422876.0,582.0,582.0,1838.7,1477.6,1920.0,700.0,Animal_Land_Pattern_Large,14.20610829105135,17.224363291054033,4.0,Animal_Land_Pattern_Large,8.0,8.0,1.0,0.7655467500444502,,,,,,,,
encoding,fixation,20,3422960,3423465,3423043.0,3423069.0,27.0,27.0,1904.3,1556.0,1920.0,700.0,Animal_Land_Pattern_Large,17.22451016609557,17.72970345802605,4.0,Object_Sea_Solid_Small,5.0,,,,,,,,,,,
encoding,fixation,20,3422960,3423465,3423108.0,3423242.0,135.0,135.0,1885.0,1457.5,1920.0,700.0,Animal_Land_Pattern_Large,17.22451016609557,17.72970345802605,4.0,Object_Sea_Solid_Small,5.0,,,,,,,,,,,
encoding,fixation,20,3422960,3423465,3423283.0,3423529.0,247.0,182.0,1912.3,1059.4,1920.0,1080.0,fixation,17.22451016609557,17.72970345802605,4.0,Object_Sea_Solid_Small,5.0,,,,,,,,,,,
encoding,image,20,3423465,3424476,3423566.0,3423762.0,197.0,197.0,2231.5,1315.3,2249.0,891.0,Object_Sea_Solid_Small,17.729807208059356,18.740420291083865,4.0,Object_Sea_Solid_Small,5.0,,,,,,,,,,,
encoding,image,20,3423465,3424476,3423774.0,3424310.0,537.0,537.0,2184.7,1272.2,2249.0,891.0,Object_Sea_Solid_Small,17.729807208059356,18.740420291083865,4.0,Object_Sea_Solid_Small,5.0,,,,,,,,,,,
encoding,value,20,3424476,3430488,3424523.0,3424562.0,40.0,40.0,2173.7,1369.8,2249.0,891.0,Object_Sea_Solid_Small,18.740525541012175,24.751791583024897,4.0,Object_Sea_Solid_Small,5.0,,,,,,,,,,,
encoding,value,20,3424476,3430488,3424571.0,3424664.0,94.0,94.0,2170.6,1287.4,2249.0,891.0,Object_Sea_Solid_Small,18.740525541012175,24.751791583024897,4.0,Object_Sea_Solid_Small,5.0,,,,,,,,,,,
encoding,value,20,3424476,3430488,3424686.0,3425154.0,469.0,469.0,2186.8,1160.8,2249.0,891.0,Object_Sea_Solid_Small,18.740525541012175,24.751791583024897,4.0,Object_Sea_Solid_Small,5.0,,,,,,,,,,,
encoding,value,20,3424476,3430488,3425175.0,3425518.0,344.0,344.0,2164.0,1266.0,2249.0,891.0,Object_Sea_Solid_Small,18.740525541012175,24.751791583024897,4.0,Object_Sea_Solid_Small,5.0,,,,,,,,,,,
encoding,value,20,3424476,3430488,3425723.0,3425762.0,40.0,40.0,2180.5,1422.6,2249.0,891.0,Object_Sea_Solid_Small,18.740525541012175,24.751791583024897,4.0,Object_Sea_Solid_Small,5.0,,,,,,,,,,,
encoding,value,20,3424476,3430488,3425769.0,3425881.0,113.0,113.0,2173.1,1343.4,2249.0,891.0,Object_Sea_Solid_Small,18.740525541012175,24.751791583024897,4.0,Object_Sea_Solid_Small,5.0,,,,,,,,,,,
encoding,value,20,3424476,3430488,3425890.0,3426543.0,654.0,654.0,2184.6,1297.2,2249.0,891.0,Object_Sea_Solid_Small,18.740525541012175,24.751791583024897,4.0,Object_Sea_Solid_Small,5.0,,,,,,,,,,,
encoding,value,20,3424476,3430488,3426559.0,3426976.0,418.0,418.0,2170.9,1217.5,2249.0,891.0,Object_Sea_Solid_Small,18.740525541012175,24.751791583024897,4.0,Object_Sea_Solid_Small,5.0,,,,,,,,,,,
encoding,value,20,3424476,3430488,3426992.0,3427236.0,245.0,245.0,2170.3,1295.4,2249.0,891.0,Object_Sea_Solid_Small,18.740525541012175,24.751791583024897,4.0,Object_Sea_Solid_Small,5.0,,,,,,,,,,,
encoding,value,20,3424476,3430488,3427255.0,3427569.0,315.0,315.0,2185.5,1195.2,2249.0,891.0,Object_Sea_Solid_Small,18.740525541012175,24.751791583024897,4.0,Object_Sea_Solid_Small,5.0,,,,,,,,,,,
encoding,value,20,3424476,3430488,3427589.0,3427801.0,213.0,213.0,2164.8,1302.5,2249.0,891.0,Object_Sea_Solid_Small,18.740525541012175,24.751791583024897,4.0,Object_Sea_Solid_Small,5.0,,,,,,,,,,,
encoding,value,20,3424476,3430488,3427990.0,3428029.0,40.0,40.0,2186.4,1423.6,2249.0,891.0,Object_Sea_Solid_Small,18.740525541012175,24.751791583024897,4.0,Object_Sea_Solid_Small,5.0,,,,,,,,,,,
encoding,value,20,3424476,3430488,3428043.0,3428472.0,430.0,430.0,2187.3,1340.1,2249.0,891.0,Object_Sea_Solid_Small,18.740525541012175,24.751791583024897,4.0,Object_Sea_Solid_Small,5.0,,,,,,,,,,,
encoding,value,20,3424476,3430488,3428492.0,3428764.0,273.0,273.0,2203.3,1226.7,2249.0,891.0,Object_Sea_Solid_Small,18.740525541012175,24.751791583024897,4.0,Object_Sea_Solid_Small,5.0,,,,,,,,,,,
encoding,value,20,3424476,3430488,3428785.0,3429055.0,271.0,271.0,2162.7,1346.8,2249.0,891.0,Object_Sea_Solid_Small,18.740525541012175,24.751791583024897,4.0,Object_Sea_Solid_Small,5.0,,,,,,,,,,,
encoding,value,20,3424476,3430488,3429066.0,3429395.0,330.0,330.0,2224.6,1332.5,2249.0,891.0,Object_Sea_Solid_Small,18.740525541012175,24.751791583024897,4.0,Object_Sea_Solid_Small,5.0,,,,,,,,,,,
encoding,value,20,3424476,3430488,3429415.0,3429752.0,338.0,338.0,2082.0,1405.0,1920.0,700.0,Animal_Land_Pattern_Large,18.740525541012175,24.751791583024897,4.0,Object_Sea_Solid_Small,5.0,,,,,,,,,,,
encoding,value,20,3424476,3430488,3429777.0,3429991.0,215.0,215.0,1845.4,1495.5,1920.0,700.0,Animal_Land_Pattern_Large,18.740525541012175,24.751791583024897,4.0,Object_Sea_Solid_Small,5.0,,,,,,,,,,,
encoding,value,20,3424476,3430488,3430025.0,3430354.0,330.0,330.0,2217.4,1286.4,2249.0,891.0,Object_Sea_Solid_Small,18.740525541012175,24.751791583024897,4.0,Object_Sea_Solid_Small,5.0,,,,,,,,,,,
encoding,value,20,3424476,3430488,3430367.0,3431448.0,1082.0,121.0,2157.2,1231.7,2249.0,891.0,Object_Sea_Solid_Small,18.740525541012175,24.751791583024897,4.0,Object_Sea_Solid_Small,5.0,,,,,,,,,,,
encoding,attention,20,3430488,3433506,3431467.0,3431842.0,376.0,376.0,2214.4,1301.0,2249.0,891.0,Object_Sea_Solid_Small,24.75190879101865,27.770297125098296,4.0,Object_Sea_Solid_Small,5.0,5.0,1.0,0.653410958009772,,,,,,,,
encoding,attention,20,3430488,3433506,3431851.0,3432182.0,332.0,332.0,2177.1,1275.1,2249.0,891.0,Object_Sea_Solid_Small,24.75190879101865,27.770297125098296,4.0,Object_Sea_Solid_Small,5.0,5.0,1.0,0.653410958009772,,,,,,,,
encoding,attention,20,3430488,3433506,3432192.0,3433031.0,840.0,840.0,2192.3,1299.3,2249.0,891.0,Object_Sea_Solid_Small,24.75190879101865,27.770297125098296,4.0,Object_Sea_Solid_Small,5.0,5.0,1.0,0.653410958009772,,,,,,,,
encoding,attention,20,3430488,3433506,3433043.0,3433447.0,405.0,405.0,2198.7,1323.6,2249.0,891.0,Object_Sea_Solid_Small,24.75190879101865,27.770297125098296,4.0,Object_Sea_Solid_Small,5.0,5.0,1.0,0.653410958009772,,,,,,,,
encoding,fixation,21,3433507,3434512,3433751.0,3433859.0,109.0,109.0,1863.8,1160.7,1591.0,891.0,Object_Land_Pattern_Large,27.77052633301355,28.775782375014387,4.0,Animal_Land_Solid_Small,-1.0,,,,,,,,,,,
encoding,fixation,21,3433507,3434512,3434038.0,3434188.0,151.0,151.0,1838.0,1184.3,1591.0,891.0,Object_Land_Pattern_Large,27.77052633301355,28.775782375014387,4.0,Animal_Land_Solid_Small,-1.0,,,,,,,,,,,
encoding,fixation,21,3433507,3434512,3434199.0,3434716.0,518.0,313.0,1887.4,1098.0,1920.0,1080.0,fixation,27.77052633301355,28.775782375014387,4.0,Animal_Land_Solid_Small,-1.0,,,,,,,,,,,
encoding,image,21,3434512,3435523,3434760.0,3435560.0,801.0,763.0,1934.2,715.8,1920.0,1460.0,Animal_Land_Solid_Small,28.775880916044116,29.78699333302211,4.0,Animal_Land_Solid_Small,-1.0,,,,,,,,,,,
encoding,value,21,3435523,3441536,3435803.0,3435841.0,39.0,39.0,1913.6,1072.8,1920.0,1080.0,fixation,29.787109333090484,35.79928270808887,4.0,Animal_Land_Solid_Small,-1.0,,,,,,,,,,,
encoding,value,21,3435523,3441536,3435883.0,3436045.0,163.0,163.0,1933.7,695.9000000000001,1920.0,1460.0,Animal_Land_Solid_Small,29.787109333090484,35.79928270808887,4.0,Animal_Land_Solid_Small,-1.0,,,,,,,,,,,
encoding,value,21,3435523,3441536,3436066.0,3436432.0,367.0,367.0,1898.4,572.3,1920.0,1460.0,Animal_Land_Solid_Small,29.787109333090484,35.79928270808887,4.0,Animal_Land_Solid_Small,-1.0,,,,,,,,,,,
encoding,value,21,3435523,3441536,3436457.0,3437089.0,633.0,633.0,1920.2,727.0,1920.0,1460.0,Animal_Land_Solid_Small,29.787109333090484,35.79928270808887,4.0,Animal_Land_Solid_Small,-1.0,,,,,,,,,,,
encoding,value,21,3435523,3441536,3437111.0,3437389.0,279.0,279.0,1888.9,557.5,1920.0,1460.0,Animal_Land_Solid_Small,29.787109333090484,35.79928270808887,4.0,Animal_Land_Solid_Small,-1.0,,,,,,,,,,,
encoding,value,21,3435523,3441536,3437415.0,3437640.0,226.0,226.0,1900.2,757.8,1920.0,1460.0,Animal_Land_Solid_Small,29.787109333090484,35.79928270808887,4.0,Animal_Land_Solid_Small,-1.0,,,,,,,,,,,
encoding,value,21,3435523,3441536,3437650.0,3437927.0,278.0,278.0,1909.2,709.4000000000001,1920.0,1460.0,Animal_Land_Solid_Small,29.787109333090484,35.79928270808887,4.0,Animal_Land_Solid_Small,-1.0,,,,,,,,,,,
encoding,value,21,3435523,3441536,3438193.0,3438226.0,34.0,34.0,1878.8,808.3,1920.0,1460.0,Animal_Land_Solid_Small,29.787109333090484,35.79928270808887,4.0,Animal_Land_Solid_Small,-1.0,,,,,,,,,,,
encoding,value,21,3435523,3441536,3438246.0,3438380.0,135.0,135.0,1871.6,745.4000000000001,1920.0,1460.0,Animal_Land_Solid_Small,29.787109333090484,35.79928270808887,4.0,Animal_Land_Solid_Small,-1.0,,,,,,,,,,,
encoding,value,21,3435523,3441536,3438392.0,3439166.0,775.0,775.0,1889.8,640.0999999999999,1920.0,1460.0,Animal_Land_Solid_Small,29.787109333090484,35.79928270808887,4.0,Animal_Land_Solid_Small,-1.0,,,,,,,,,,,
encoding,value,21,3435523,3441536,3439189.0,3440457.0,1269.0,1269.0,1920.3,713.5999999999999,1920.0,1460.0,Animal_Land_Solid_Small,29.787109333090484,35.79928270808887,4.0,Animal_Land_Solid_Small,-1.0,,,,,,,,,,,
encoding,value,21,3435523,3441536,3440467.0,3440802.0,336.0,336.0,1975.2,738.0999999999999,1920.0,1460.0,Animal_Land_Solid_Small,29.787109333090484,35.79928270808887,4.0,Animal_Land_Solid_Small,-1.0,,,,,,,,,,,
encoding,value,21,3435523,3441536,3440815.0,3441157.0,343.0,343.0,1887.8,729.5999999999999,1920.0,1460.0,Animal_Land_Solid_Small,29.787109333090484,35.79928270808887,4.0,Animal_Land_Solid_Small,-1.0,,,,,,,,,,,
encoding,value,21,3435523,3441536,3441164.0,3441928.0,765.0,372.0,1901.4,744.2,1920.0,1460.0,Animal_Land_Solid_Small,29.787109333090484,35.79928270808887,4.0,Animal_Land_Solid_Small,-1.0,,,,,,,,,,,
encoding,attention,21,3441536,3444552,3441950.0,3442222.0,273.0,273.0,1902.8,646.0,1920.0,1460.0,Animal_Land_Solid_Small,35.79939150006976,38.81582795805298,4.0,Animal_Land_Solid_Small,-1.0,-1.0,1.0,1.264675416983664,,,,,,,,
encoding,attention,21,3441536,3444552,3442236.0,3443231.0,996.0,996.0,1827.0,608.0,1920.0,1460.0,Animal_Land_Solid_Small,35.79939150006976,38.81582795805298,4.0,Animal_Land_Solid_Small,-1.0,-1.0,1.0,1.264675416983664,,,,,,,,
encoding,attention,21,3441536,3444552,3443256.0,3443702.0,447.0,447.0,1933.2,737.4000000000001,1920.0,1460.0,Animal_Land_Solid_Small,35.79939150006976,38.81582795805298,4.0,Animal_Land_Solid_Small,-1.0,-1.0,1.0,1.264675416983664,,,,,,,,
encoding,fixation,22,3444553,3446061,3444798.0,3445158.0,361.0,361.0,1898.9,1134.7,1920.0,1080.0,fixation,38.81597491609864,40.324075040989555,4.0,Object_Sea_Pattern_Large,-1.0,,,,,,,,,,,
encoding,fixation,22,3444553,3446061,3445173.0,3445466.0,294.0,294.0,1826.2,1095.3,1591.0,891.0,Object_Land_Pattern_Large,38.81597491609864,40.324075040989555,4.0,Object_Sea_Pattern_Large,-1.0,,,,,,,,,,,
encoding,fixation,22,3444553,3446061,3445476.0,3446249.0,774.0,585.0,1875.7,1056.7,1920.0,1080.0,fixation,38.81597491609864,40.324075040989555,4.0,Object_Sea_Pattern_Large,-1.0,,,,,,,,,,,
encoding,image,22,3446061,3447072,3446289.0,3447263.0,975.0,783.0,2224.4,847.0,2249.0,1269.0,Object_Sea_Pattern_Large,40.3241885000607,41.33563400001731,4.0,Object_Sea_Pattern_Large,-1.0,,,,,,,,,,,
encoding,value,22,3447072,3453084,3447273.0,3447637.0,365.0,365.0,2237.4,766.4000000000001,2249.0,1269.0,Object_Sea_Pattern_Large,41.335758375003934,47.34716712508816,4.0,Object_Sea_Pattern_Large,-1.0,,,,,,,,,,,
encoding,value,22,3447072,3453084,3447840.0,3448067.0,228.0,228.0,2230.5,930.3,2249.0,1269.0,Object_Sea_Pattern_Large,41.335758375003934,47.34716712508816,4.0,Object_Sea_Pattern_Large,-1.0,,,,,,,,,,,
encoding,value,22,3447072,3453084,3448084.0,3448715.0,632.0,632.0,2221.2,801.9000000000001,2249.0,1269.0,Object_Sea_Pattern_Large,41.335758375003934,47.34716712508816,4.0,Object_Sea_Pattern_Large,-1.0,,,,,,,,,,,
encoding,value,22,3447072,3453084,3448725.0,3449151.0,427.0,427.0,2189.4,823.5,2249.0,1269.0,Object_Sea_Pattern_Large,41.335758375003934,47.34716712508816,4.0,Object_Sea_Pattern_Large,-1.0,,,,,,,,,,,
encoding,value,22,3447072,3453084,3449163.0,3449409.0,247.0,247.0,2212.9,785.8,2249.0,1269.0,Object_Sea_Pattern_Large,41.335758375003934,47.34716712508816,4.0,Object_Sea_Pattern_Large,-1.0,,,,,,,,,,,
encoding,value,22,3447072,3453084,3449592.0,3449789.0,198.0,198.0,2174.4,889.0,2249.0,1269.0,Object_Sea_Pattern_Large,41.335758375003934,47.34716712508816,4.0,Object_Sea_Pattern_Large,-1.0,,,,,,,,,,,
encoding,value,22,3447072,3453084,3449799.0,3450110.0,312.0,312.0,2188.2,813.3,2249.0,1269.0,Object_Sea_Pattern_Large,41.335758375003934,47.34716712508816,4.0,Object_Sea_Pattern_Large,-1.0,,,,,,,,,,,
encoding,value,22,3447072,3453084,3450118.0,3450415.0,298.0,298.0,2163.8,854.4000000000001,2249.0,1269.0,Object_Sea_Pattern_Large,41.335758375003934,47.34716712508816,4.0,Object_Sea_Pattern_Large,-1.0,,,,,,,,,,,
encoding,value,22,3447072,3453084,3450431.0,3450649.0,219.0,219.0,2206.7,930.8,2249.0,1269.0,Object_Sea_Pattern_Large,41.335758375003934,47.34716712508816,4.0,Object_Sea_Pattern_Large,-1.0,,,,,,,,,,,
encoding,value,22,3447072,3453084,3450668.0,3450948.0,281.0,281.0,2169.4,829.0,2249.0,1269.0,Object_Sea_Pattern_Large,41.335758375003934,47.34716712508816,4.0,Object_Sea_Pattern_Large,-1.0,,,,,,,,,,,
encoding,value,22,3447072,3453084,3450955.0,3451190.0,236.0,236.0,2211.1,799.5,2249.0,1269.0,Object_Sea_Pattern_Large,41.335758375003934,47.34716712508816,4.0,Object_Sea_Pattern_Large,-1.0,,,,,,,,,,,
encoding,value,22,3447072,3453084,3451199.0,3451621.0,423.0,423.0,2187.9,828.3,2249.0,1269.0,Object_Sea_Pattern_Large,41.335758375003934,47.34716712508816,4.0,Object_Sea_Pattern_Large,-1.0,,,,,,,,,,,
encoding,value,22,3447072,3453084,3451628.0,3452437.0,810.0,810.0,2206.3,803.2,2249.0,1269.0,Object_Sea_Pattern_Large,41.335758375003934,47.34716712508816,4.0,Object_Sea_Pattern_Large,-1.0,,,,,,,,,,,
encoding,value,22,3447072,3453084,3452622.0,3452831.0,210.0,210.0,2190.2,900.5999999999999,2249.0,1269.0,Object_Sea_Pattern_Large,41.335758375003934,47.34716712508816,4.0,Object_Sea_Pattern_Large,-1.0,,,,,,,,,,,
encoding,value,22,3447072,3453084,3452842.0,3453403.0,562.0,242.0,2208.8,804.2,2249.0,1269.0,Object_Sea_Pattern_Large,41.335758375003934,47.34716712508816,4.0,Object_Sea_Pattern_Large,-1.0,,,,,,,,,,,
encoding,attention,22,3453084,3456102,3453415.0,3453568.0,154.0,154.0,2261.4,793.5,2249.0,1269.0,Object_Sea_Pattern_Large,47.34730274998583,50.36544754100032,4.0,Object_Sea_Pattern_Large,-1.0,-1.0,1.0,0.6708649169886485,,,,,,,,
encoding,attention,22,3453084,3456102,3453583.0,3453998.0,416.0,416.0,2152.3,807.9000000000001,2249.0,1269.0,Object_Sea_Pattern_Large,47.34730274998583,50.36544754100032,4.0,Object_Sea_Pattern_Large,-1.0,-1.0,1.0,0.6708649169886485,,,,,,,,
encoding,attention,22,3453084,3456102,3454060.0,3454484.0,425.0,425.0,1995.7,1195.6,2249.0,891.0,Object_Sea_Solid_Small,47.34730274998583,50.36544754100032,4.0,Object_Sea_Pattern_Large,-1.0,-1.0,1.0,0.6708649169886485,,,,,,,,
encoding,attention,22,3453084,3456102,3454507.0,3454864.0,358.0,358.0,2108.0,1384.3,2249.0,891.0,Object_Sea_Solid_Small,47.34730274998583,50.36544754100032,4.0,Object_Sea_Pattern_Large,-1.0,-1.0,1.0,0.6708649169886485,,,,,,,,
encoding,attention,22,3453084,3456102,3454887.0,3455110.0,224.0,224.0,2242.4,1403.6,2249.0,891.0,Object_Sea_Solid_Small,47.34730274998583,50.36544754100032,4.0,Object_Sea_Pattern_Large,-1.0,-1.0,1.0,0.6708649169886485,,,,,,,,
encoding,attention,22,3453084,3456102,3455132.0,3455429.0,298.0,298.0,2047.0,1437.8,1920.0,700.0,Animal_Land_Pattern_Large,47.34730274998583,50.36544754100032,4.0,Object_Sea_Pattern_Large,-1.0,-1.0,1.0,0.6708649169886485,,,,,,,,
encoding,attention,22,3453084,3456102,3455447.0,3455881.0,435.0,435.0,2157.5,1456.9,2249.0,891.0,Object_Sea_Solid_Small,47.34730274998583,50.36544754100032,4.0,Object_Sea_Pattern_Large,-1.0,-1.0,1.0,0.6708649169886485,,,,,,,,
encoding,attention,22,3453084,3456102,3455897.0,3456073.0,177.0,177.0,2085.7,1519.7,1920.0,700.0,Animal_Land_Pattern_Large,47.34730274998583,50.36544754100032,4.0,Object_Sea_Pattern_Large,-1.0,-1.0,1.0,0.6708649169886485,,,,,,,,
encoding,fixation,23,3456103,3456608,3456138.0,3456429.0,292.0,292.0,2152.2,876.3,2249.0,1269.0,Object_Sea_Pattern_Large,50.3656794159906,50.870934166014194,4.0,Animal_Sea_Solid_Small,-5.0,,,,,,,,,,,
encoding,image,23,3456608,3457620,3456659.0,3456871.0,213.0,213.0,2039.7,1179.8,2249.0,891.0,Object_Sea_Solid_Small,50.87103487504646,51.88275091606192,4.0,Animal_Sea_Solid_Small,-5.0,,,,,,,,,,,
encoding,image,23,3456608,3457620,3456913.0,3457091.0,179.0,179.0,1547.6,961.5,1591.0,1269.0,Animal_Sea_Solid_Small,50.87103487504646,51.88275091606192,4.0,Animal_Sea_Solid_Small,-5.0,,,,,,,,,,,
encoding,image,23,3456608,3457620,3457104.0,3457363.0,260.0,260.0,1553.3,916.9000000000001,1591.0,1269.0,Animal_Sea_Solid_Small,50.87103487504646,51.88275091606192,4.0,Animal_Sea_Solid_Small,-5.0,,,,,,,,,,,
encoding,image,23,3456608,3457620,3457370.0,3457584.0,215.0,215.0,1517.5,881.5999999999999,1591.0,1269.0,Animal_Sea_Solid_Small,50.87103487504646,51.88275091606192,4.0,Animal_Sea_Solid_Small,-5.0,,,,,,,,,,,
encoding,image,23,3456608,3457620,3457595.0,3458135.0,541.0,25.0,1558.5,801.4000000000001,1591.0,1269.0,Animal_Sea_Solid_Small,50.87103487504646,51.88275091606192,4.0,Animal_Sea_Solid_Small,-5.0,,,,,,,,,,,
encoding,value,23,3457620,3463632,3458401.0,3458525.0,125.0,125.0,1523.0,903.0,1591.0,1269.0,Animal_Sea_Solid_Small,51.88287487509661,57.894600916071795,4.0,Animal_Sea_Solid_Small,-5.0,,,,,,,,,,,
encoding,value,23,3457620,3463632,3458543.0,3458826.0,284.0,284.0,1560.9,817.9000000000001,1591.0,1269.0,Animal_Sea_Solid_Small,51.88287487509661,57.894600916071795,4.0,Animal_Sea_Solid_Small,-5.0,,,,,,,,,,,
encoding,value,23,3457620,3463632,3458840.0,3459216.0,377.0,377.0,1540.3,894.2,1591.0,1269.0,Animal_Sea_Solid_Small,51.88287487509661,57.894600916071795,4.0,Animal_Sea_Solid_Small,-5.0,,,,,,,,,,,
encoding,value,23,3457620,3463632,3459237.0,3459960.0,724.0,724.0,1561.5,788.0,1591.0,1269.0,Animal_Sea_Solid_Small,51.88287487509661,57.894600916071795,4.0,Animal_Sea_Solid_Small,-5.0,,,,,,,,,,,
encoding,value,23,3457620,3463632,3459982.0,3460309.0,328.0,328.0,1557.0,895.0999999999999,1591.0,1269.0,Animal_Sea_Solid_Small,51.88287487509661,57.894600916071795,4.0,Animal_Sea_Solid_Small,-5.0,,,,,,,,,,,
encoding,value,23,3457620,3463632,3460325.0,3460626.0,302.0,302.0,1598.3,800.9000000000001,1591.0,1269.0,Animal_Sea_Solid_Small,51.88287487509661,57.894600916071795,4.0,Animal_Sea_Solid_Small,-5.0,,,,,,,,,,,
encoding,value,23,3457620,3463632,3460639.0,3460907.0,269.0,269.0,1533.6,863.8,1591.0,1269.0,Animal_Sea_Solid_Small,51.88287487509661,57.894600916071795,4.0,Animal_Sea_Solid_Small,-5.0,,,,,,,,,,,
encoding,value,23,3457620,3463632,3460925.0,3461482.0,558.0,558.0,1577.7,778.5999999999999,1591.0,1269.0,Animal_Sea_Solid_Small,51.88287487509661,57.894600916071795,4.0,Animal_Sea_Solid_Small,-5.0,,,,,,,,,,,
encoding,value,23,3457620,3463632,3461497.0,3461760.0,264.0,264.0,1550.9,855.0999999999999,1591.0,1269.0,Animal_Sea_Solid_Small,51.88287487509661,57.894600916071795,4.0,Animal_Sea_Solid_Small,-5.0,,,,,,,,,,,
encoding,value,23,3457620,3463632,3461776.0,3462312.0,537.0,537.0,1572.2,783.2,1591.0,1269.0,Animal_Sea_Solid_Small,51.88287487509661,57.894600916071795,4.0,Animal_Sea_Solid_Small,-5.0,,,,,,,,,,,
encoding,value,23,3457620,3463632,3462329.0,3462590.0,262.0,262.0,1551.8,877.7,1591.0,1269.0,Animal_Sea_Solid_Small,51.88287487509661,57.894600916071795,4.0,Animal_Sea_Solid_Small,-5.0,,,,,,,,,,,
encoding,value,23,3457620,3463632,3462608.0,3462934.0,327.0,327.0,1598.7,792.9000000000001,1591.0,1269.0,Animal_Sea_Solid_Small,51.88287487509661,57.894600916071795,4.0,Animal_Sea_Solid_Small,-5.0,,,,,,,,,,,
encoding,value,23,3457620,3463632,3462941.0,3463109.0,169.0,169.0,1558.9,799.8,1591.0,1269.0,Animal_Sea_Solid_Small,51.88287487509661,57.894600916071795,4.0,Animal_Sea_Solid_Small,-5.0,,,,,,,,,,,
encoding,value,23,3457620,3463632,3463240.0,3463281.0,42.0,42.0,1541.9,964.5,1591.0,1269.0,Animal_Sea_Solid_Small,51.88287487509661,57.894600916071795,4.0,Animal_Sea_Solid_Small,-5.0,,,,,,,,,,,
encoding,value,23,3457620,3463632,3463359.0,3463517.0,159.0,159.0,1548.4,841.0,1591.0,1269.0,Animal_Sea_Solid_Small,51.88287487509661,57.894600916071795,4.0,Animal_Sea_Solid_Small,-5.0,,,,,,,,,,,
encoding,value,23,3457620,3463632,3463527.0,3464054.0,528.0,105.0,1587.7,787.0999999999999,1591.0,1269.0,Animal_Sea_Solid_Small,51.88287487509661,57.894600916071795,4.0,Animal_Sea_Solid_Small,-5.0,,,,,,,,,,,
encoding,attention,23,3463632,3466649,3464068.0,3464529.0,462.0,462.0,1509.1,799.0999999999999,1591.0,1269.0,Animal_Sea_Solid_Small,57.89471650007181,60.91115995799191,4.0,Animal_Sea_Solid_Small,-5.0,-5.0,1.0,0.6665762920165434,,,,,,,,
encoding,attention,23,3463632,3466649,3464592.0,3464833.0,242.0,242.0,2085.0,1183.9,2249.0,891.0,Object_Sea_Solid_Small,57.89471650007181,60.91115995799191,4.0,Animal_Sea_Solid_Small,-5.0,-5.0,1.0,0.6665762920165434,,,,,,,,
encoding,attention,23,3463632,3466649,3464880.0,3465469.0,590.0,590.0,1530.9,826.7,1591.0,1269.0,Animal_Sea_Solid_Small,57.89471650007181,60.91115995799191,4.0,Animal_Sea_Solid_Small,-5.0,-5.0,1.0,0.6665762920165434,,,,,,,,
encoding,attention,23,3463632,3466649,3465511.0,3465653.0,143.0,143.0,1869.1,1022.3,1591.0,1269.0,Animal_Sea_Solid_Small,57.89471650007181,60.91115995799191,4.0,Animal_Sea_Solid_Small,-5.0,-5.0,1.0,0.6665762920165434,,,,,,,,
encoding,attention,23,3463632,3466649,3465685.0,3466092.0,408.0,408.0,1517.7,869.5,1591.0,1269.0,Animal_Sea_Solid_Small,57.89471650007181,60.91115995799191,4.0,Animal_Sea_Solid_Small,-5.0,-5.0,1.0,0.6665762920165434,,,,,,,,
encoding,attention,23,3463632,3466649,3466136.0,3466371.0,236.0,236.0,1928.5,1055.2,1920.0,1080.0,fixation,57.89471650007181,60.91115995799191,4.0,Animal_Sea_Solid_Small,-5.0,-5.0,1.0,0.6665762920165434,,,,,,,,
encoding,fixation,24,3466649,3467404,3466864.0,3467059.0,196.0,196.0,1918.2,1061.0,1920.0,1080.0,fixation,60.91129950003233,61.66677512507886,4.0,Object_Land_Pattern_Large,-1.0,,,,,,,,,,,
