phase,event,onset,offset,trial_number,game,image,outcome,choice,correct,rt,letter,match,response,option,true_value,true_position,recalled_position,
encoding,fixation,7.906246958067641,8.672778791049495,1,1,Object_Sea_Solid_Large,2,,,,,,,,,,,
encoding,image,8.672906249994412,9.693989291088656,1,1,Object_Sea_Solid_Large,2,,,,,,,,,,,
encoding,value,9.694100624881685,15.710513124940917,1,1,Object_Sea_Solid_Large,2,,,,,,,,,,,
encoding,attention,15.710635290946811,18.731358791003004,1,1,Object_Sea_Solid_Large,2,+2,1,0.7063825000077486,,,,,,,,
encoding,fixation,18.731508957920596,19.237011624965817,2,1,Object_Land_Pattern_Large,-2,,,,,,,,,,,
encoding,image,19.237116750096902,20.24926425004378,2,1,Object_Land_Pattern_Large,-2,,,,,,,,,,,
encoding,value,20.24937962507829,26.263594333082438,2,1,Object_Land_Pattern_Large,-2,,,,,,,,,,,
encoding,attention,26.263752749888226,29.28522616601549,2,1,Object_Land_Pattern_Large,-2,-2,1,0.8524090419523418,,,,,,,,
encoding,fixation,29.285382915986702,29.791317415889353,3,1,Animal_Land_Pattern_Small,9,,,,,,,,,,,
encoding,image,29.791428040945902,30.80427529104054,3,1,Animal_Land_Pattern_Small,9,,,,,,,,,,,
encoding,value,30.804403875023127,36.81655683298595,3,1,Animal_Land_Pattern_Small,9,,,,,,,,,,,
encoding,attention,36.81670104106888,39.83360012504272,3,1,Animal_Land_Pattern_Small,9,+9,1,0.609294957946986,,,,,,,,
encoding,fixation,39.83375137508847,41.33859916590154,4,1,Object_Land_Solid_Large,-5,,,,,,,,,,,
encoding,image,41.338723374996334,42.3495387500152,4,1,Object_Land_Solid_Large,-5,,,,,,,,,,,
encoding,value,42.349642208078876,48.41158766602166,4,1,Object_Land_Solid_Large,-5,,,,,,,,,,,
encoding,attention,48.41177895804867,51.427935041021556,4,1,Object_Land_Solid_Large,-5,-5,1,0.6467159998137504,,,,,,,,
encoding,fixation,51.428078833036125,52.183189125033095,5,1,Animal_Sea_Solid_Small,2,,,,,,,,,,,
encoding,image,52.18329095793888,53.19409158290364,5,1,Animal_Sea_Solid_Small,2,,,,,,,,,,,
encoding,value,53.194216874893755,59.20624150009826,5,1,Animal_Sea_Solid_Small,2,,,,,,,,,,,
encoding,attention,59.206359833013266,62.22474595811218,5,1,Animal_Sea_Solid_Small,2,+2,1,0.5110167081002146,,,,,,,,
encoding,fixation,62.22490737494081,63.23021104093641,6,1,Animal_Sea_Pattern_Small,-9,,,,,,,,,,,
encoding,image,63.23034608294256,64.2417628748808,6,1,Animal_Sea_Pattern_Small,-9,,,,,,,,,,,
encoding,value,64.24188979109749,70.25458512501791,6,1,Animal_Sea_Pattern_Small,-9,,,,,,,,,,,
encoding,attention,70.25469304108992,73.27239683293737,6,1,Animal_Sea_Pattern_Small,-9,-9,1,0.7210541248787194,,,,,,,,
n-back,,,,1,1,,,,0,None,V,True,None,,,,,
n-back,,,,2,1,,,,0,None,V,True,None,,,,,
n-back,,,,3,1,,,,1,None,C,False,None,,,,,
n-back,,,,4,1,,,,1,0.6868172080721706,V,True,1,,,,,
n-back,,,,5,1,,,,1,None,V,False,None,,,,,
n-back,,,,6,1,,,,1,None,B,False,None,,,,,
n-back,,,,7,1,,,,1,None,C,False,None,,,,,
n-back,,,,8,1,,,,1,0.5788301250431687,B,True,1,,,,,
n-back,,,,9,1,,,,1,0.9413819168694317,C,True,1,,,,,
n-back,,,,10,1,,,,1,None,X,False,None,,,,,
n-back,,,,11,1,,,,1,None,N,False,None,,,,,
n-back,,,,12,1,,,,1,None,B,False,None,,,,,
n-back,,,,13,1,,,,1,None,Z,False,None,,,,,
n-back,,,,14,1,,,,1,1.0957124170381576,B,True,1,,,,,
n-back,,,,15,1,,,,1,None,X,False,None,,,,,
n-back,,,,16,1,,,,1,None,V,False,None,,,,,
n-back,,,,17,1,,,,1,0.5437104590237141,X,True,1,,,,,
n-back,,,,18,1,,,,1,None,B,False,None,,,,,
n-back,,,,19,1,,,,1,None,C,False,None,,,,,
n-back,,,,20,1,,,,1,None,Z,False,None,,,,,
n-back,,,,21,1,,,,1,0.8047509579919279,C,True,1,,,,,
n-back,,,,22,1,,,,1,None,V,False,None,,,,,
n-back,,,,23,1,,,,1,None,N,False,None,,,,,
n-back,,,,24,1,,,,1,None,Z,False,None,,,,,
n-back,,,,25,1,,,,1,None,B,False,None,,,,,
n-back,,,,26,1,,,,1,None,V,False,None,,,,,
n-back,,,,27,1,,,,1,0.9352254590485245,B,True,1,,,,,
n-back,,,,28,1,,,,1,0.9712224171962589,V,True,1,,,,,
n-back,,,,29,1,,,,1,None,X,False,None,,,,,
n-back,,,,30,1,,,,1,None,Z,False,None,,,,,
choice,fixation,150.17815295793116,150.68323354097083,1,1,,,,,,,,,Object,,,,
choice,option,150.6931249999907,151.9062205411028,1,1,,,,,,,,,Object,,,,
choice,choice,151.90633237501606,157.80071104108356,1,1,,,2,1,4.884646250167862,,,,Object,,,,
choice,fixation,157.80094758304767,158.3059813750442,2,1,,,,,,,,,Large,,,,
choice,option,158.3151129160542,159.34401070792228,2,1,,,,,,,,,Large,,,,
choice,choice,159.34413324994966,169.1454432499595,2,1,,,2,1,8.791384333046153,,,,Large,,,,
choice,fixation,169.14556412491947,169.90079545788467,3,1,,,,,,,,,Small,,,,
choice,option,169.9098452499602,170.93738429108635,3,1,,,,,,,,,Small,,,,
choice,choice,170.9375000828877,175.080284625059,3,1,,,1,1,3.1336015828419477,,,,Small,,,,
choice,fixation,175.08040716592222,175.83618191606365,4,1,,,,,,,,,Animal,,,,
choice,option,175.84535862505436,176.87224645796232,4,1,,,,,,,,,Animal,,,,
choice,choice,176.87237170804292,181.49609270808287,4,1,,,1,1,3.613859999924898,,,,Animal,,,,
choice,fixation,181.49621574999765,182.75328750000335,5,1,,,,,,,,,Land,,,,
choice,option,182.7620036660228,183.7894420409575,5,1,,,,,,,,,Land,,,,
choice,choice,183.78955816593952,189.7363955830224,5,1,,,1,1,4.936783249955624,,,,Land,,,,
choice,fixation,189.7365992080886,190.49174854089506,6,1,,,,,,,,,Pattern,,,,
choice,option,190.50086924992502,191.52770208311267,6,1,,,,,,,,,Pattern,,,,
choice,choice,191.52782229101285,197.67462020809762,6,1,,,2,1,5.137494917027652,,,,Pattern,,,,
choice,fixation,197.67475379095413,198.1795820828993,7,1,,,,,,,,,Solid,,,,
choice,option,198.1888766249176,199.2162397080101,7,1,,,,,,,,,Solid,,,,
choice,choice,199.2163637909107,206.400848290883,7,1,,,2,1,6.17442391696386,,,,Solid,,,,
choice,fixation,206.40097308298573,206.90576937492006,8,1,,,,,,,,,Sea,,,,
choice,option,206.91502545797266,207.9425374160055,8,1,,,,,,,,,Sea,,,,
choice,choice,207.94270391599275,212.5048516250681,8,1,,,2,1,3.5508880000561476,,,,Sea,,,,
memory,free_recall,260.4107562908903,276.31364504108205,0,1,,,,,,,,,,,,,
memory,value_recall,332.65368637489155,340.3858527499251,1,1,Animal_Land_Pattern_Small,,,,7.7284017079509795,,,,,9,,,
memory,value_recall,342.4335197079927,345.5941531660501,2,1,Object_Sea_Solid_Large,,,,3.1564347920939326,,,,,2,,,
memory,value_recall,347.1400068330113,350.4095746250823,3,1,Object_Land_Pattern_Large,,,,3.2654244590085,,,,,-2,,,
memory,value_recall,351.9560992079787,354.9232012908906,4,1,Animal_Sea_Pattern_Small,,,,2.963159834034741,,,,,-9,,,
memory,value_recall,356.72177337505855,359.8577810409479,5,1,Object_Land_Solid_Large,,,,3.132347207982093,,,,,-5,,,
memory,value_recall,361.6545350831002,366.55394395790063,6,1,Animal_Sea_Solid_Small,,,,4.89571920898743,,,,,2,,,
memory,spatial_recall,385.0991451248992,388.49581425008364,6,1,Object_Land_Solid_Large,,,1,3.392891790950671,,,,,,"[-329, -190]","[-329, -190]",
memory,spatial_recall,390.30853879102506,393.6085593330208,6,1,Animal_Land_Pattern_Small,,,1,3.295762750087306,,,,,,"[0, -380]","[0, -380]",
memory,spatial_recall,395.1691666250117,397.86156166600995,6,1,Object_Land_Pattern_Large,,,1,2.6885201658587903,,,,,,"[-329, 190]","[-329, 190]",
memory,spatial_recall,399.6768906249199,403.02488216594793,6,1,Animal_Sea_Pattern_Small,,,1,3.344098374946043,,,,,,"[329, 189]","[329, 189]",
memory,spatial_recall,404.8332952079363,406.97187304100953,6,1,Object_Sea_Solid_Large,,,1,2.1345854580868036,,,,,,"[0, 380]","[0, 380]",
memory,spatial_recall,408.7760200831108,412.0133252500091,6,1,Animal_Sea_Solid_Small,,,1,3.2331308340653777,,,,,,"[329, -190]","[329, -190]",
encoding,fixation,6.892855333862826,8.14905408397317,7,2,Animal_Sea_Pattern_Small,-8,,,,,,,,,,,
encoding,image,8.149163374910131,9.161488958867267,7,2,Animal_Sea_Pattern_Small,-8,,,,,,,,,,,
encoding,value,9.161591499811038,15.17554079182446,7,2,Animal_Sea_Pattern_Small,-8,,,,,,,,,,,
encoding,attention,15.175650708843023,18.194720417028293,7,2,Animal_Sea_Pattern_Small,-8,-8,1,0.7035109170246869,,,,,,,,
encoding,fixation,18.194885999895632,18.95052383397706,8,2,Animal_Land_Pattern_Large,9,,,,,,,,,,,
encoding,image,18.950634291861206,19.961272208951414,8,2,Animal_Land_Pattern_Large,9,,,,,,,,,,,
encoding,value,19.961370666977018,25.973307333886623,8,2,Animal_Land_Pattern_Large,9,,,,,,,,,,,
encoding,attention,25.973416124936193,28.991254166932777,8,2,Animal_Land_Pattern_Large,9,+9,1,0.9857765000779182,,,,,,,,
encoding,fixation,28.991429792018607,30.499842333840206,9,2,Animal_Sea_Solid_Large,7,,,,,,,,,,,
encoding,image,30.499943249858916,31.51157999993302,9,2,Animal_Sea_Solid_Large,7,,,,,,,,,,,
encoding,value,31.511692374944687,37.524567333981395,9,2,Animal_Sea_Solid_Large,7,,,,,,,,,,,
encoding,attention,37.524749874835834,40.5430661670398,9,2,Animal_Sea_Solid_Large,7,+7,1,0.7247170419432223,,,,,,,,
encoding,fixation,40.54330208385363,41.54876491683535,10,2,Object_Sea_Solid_Small,8,,,,,,,,,,,
encoding,image,41.54887758381665,42.55943795898929,10,2,Object_Sea_Solid_Small,8,,,,,,,,,,,
encoding,value,42.55955712497234,48.570458916947246,10,2,Object_Sea_Solid_Small,8,,,,,,,,,,,
encoding,attention,48.57056437502615,51.58701320900582,10,2,Object_Sea_Solid_Small,8,+8,1,0.9577704579569399,,,,,,,,
encoding,fixation,51.587159749818966,53.091736417030916,11,2,Object_Land_Pattern_Large,-2,,,,,,,,,,,
encoding,image,53.0918856668286,54.10363958403468,11,2,Object_Land_Pattern_Large,-2,,,,,,,,,,,
encoding,value,54.103750499896705,60.116260999813676,11,2,Object_Land_Pattern_Large,-2,,,,,,,,,,,
encoding,attention,60.11637504189275,63.136963333934546,11,2,Object_Land_Pattern_Large,-2,-2,1,0.8509196250233799,,,,,,,,
encoding,fixation,63.137121124891564,64.14260437502526,12,2,Object_Land_Solid_Small,-1,,,,,,,,,,,
encoding,image,64.14270745893009,65.15399591694586,12,2,Object_Land_Solid_Small,-1,,,,,,,,,,,
encoding,value,65.15411708387546,71.16702099982649,12,2,Object_Land_Solid_Small,-1,,,,,,,,,,,
encoding,attention,71.1671817919705,74.18833087501116,12,2,Object_Land_Solid_Small,-1,-1,1,0.8776658328715712,,,,,,,,
n-back,,,,31,2,,,,0,None,V,True,None,,,,,
n-back,,,,32,2,,,,1,None,N,False,None,,,,,
n-back,,,,33,2,,,,1,None,C,False,None,,,,,
n-back,,,,34,2,,,,1,None,V,False,None,,,,,
n-back,,,,35,2,,,,1,0.6641415420453995,C,True,1,,,,,
n-back,,,,36,2,,,,1,0.6436732080765069,V,True,1,,,,,
n-back,,,,37,2,,,,1,0.79326062486507,C,True,1,,,,,
n-back,,,,38,2,,,,1,0.5731366670224816,V,True,1,,,,,
n-back,,,,39,2,,,,1,None,Z,False,None,,,,,
n-back,,,,40,2,,,,1,None,C,False,None,,,,,
n-back,,,,41,2,,,,1,None,B,False,None,,,,,
n-back,,,,42,2,,,,1,None,B,False,None,,,,,
n-back,,,,43,2,,,,1,None,N,False,None,,,,,
n-back,,,,44,2,,,,1,0.8978109168820083,B,True,1,,,,,
n-back,,,,45,2,,,,1,None,C,False,None,,,,,
n-back,,,,46,2,,,,1,None,N,False,None,,,,,
n-back,,,,47,2,,,,1,None,X,False,None,,,,,
n-back,,,,48,2,,,,1,0.8710561660118401,N,True,1,,,,,
n-back,,,,49,2,,,,1,None,B,False,None,,,,,
n-back,,,,50,2,,,,1,0.9369078748859465,N,True,1,,,,,
n-back,,,,51,2,,,,1,None,C,False,None,,,,,
n-back,,,,52,2,,,,1,None,C,False,None,,,,,
n-back,,,,53,2,,,,1,None,B,False,None,,,,,
n-back,,,,54,2,,,,1,None,Z,False,None,,,,,
n-back,,,,55,2,,,,1,0.46634662500582635,B,True,1,,,,,
n-back,,,,56,2,,,,1,None,X,False,None,,,,,
n-back,,,,57,2,,,,1,0.6522446249146014,B,True,1,,,,,
n-back,,,,58,2,,,,1,None,N,False,None,,,,,
n-back,,,,59,2,,,,1,None,Z,False,None,,,,,
n-back,,,,60,2,,,,1,None,X,False,None,,,,,
choice,fixation,146.42963012494147,147.93556050001644,9,2,,,,,,,,,Sea,,,,
choice,option,147.9448870839551,149.1458255839534,9,2,,,,,,,,,Sea,,,,
choice,choice,149.14593633404002,154.09493549983017,9,2,,,1,1,3.9365715000312775,,,,Sea,,,,
choice,fixation,154.09507129201666,155.59990754188038,10,2,,,,,,,,,Animal,,,,
choice,option,155.61262908391654,156.63973612501286,10,2,,,,,,,,,Animal,,,,
choice,choice,156.63983929203823,160.3896513339132,10,2,,,1,1,2.7394821669440717,,,,Animal,,,,
choice,fixation,160.38979679183103,161.8946234169416,11,2,,,,,,,,,Large,,,,
choice,option,161.90410454198718,162.93384149996564,11,2,,,,,,,,,Large,,,,
choice,choice,162.93396275001578,170.17395908385515,11,2,,,1,1,6.2277843749616295,,,,Large,,,,
choice,fixation,170.17409933381714,170.93291500001214,12,2,,,,,,,,,Pattern,,,,
choice,option,170.9432323339861,171.9720934589859,12,2,,,,,,,,,Pattern,,,,
choice,choice,171.9722047499381,176.85638304194435,12,2,,,2,1,3.872032791841775,,,,Pattern,,,,
choice,fixation,176.8565125418827,177.86186516704038,13,2,,,,,,,,,Small,,,,
choice,option,177.87166216690093,178.90028574992903,13,2,,,,,,,,,Small,,,,
choice,choice,178.90039508393966,184.97994354180992,13,2,,,2,1,5.068718624999747,,,,Small,,,,
choice,fixation,184.98007749998942,185.9851469588466,14,2,,,,,,,,,Land,,,,
choice,option,185.99458624981344,187.02306420891546,14,2,,,,,,,,,Land,,,,
choice,choice,187.02317708381452,191.72221024986356,14,2,,,1,1,3.6883090829942375,,,,Land,,,,
choice,fixation,191.7223773750011,192.72739379201084,15,2,,,,,,,,,Solid,,,,
choice,option,192.73746370896697,193.7655282919295,15,2,,,,,,,,,Solid,,,,
choice,choice,193.76564429188147,199.81069679185748,15,2,,,1,1,5.034710000036284,,,,Solid,,,,
choice,fixation,199.81082124984823,200.31561412499286,16,2,,,,,,,,,Object,,,,
choice,option,200.3248012920376,201.35435020900331,16,2,,,,,,,,,Object,,,,
choice,choice,201.35447870893404,205.06853891699575,16,2,,,1,1,2.704654833069071,,,,Object,,,,
memory,free_recall,221.7077536249999,234.0644976249896,6,2,,,,,,,,,,,,,
memory,value_recall,244.03935716697015,247.32376995892264,7,2,Object_Land_Pattern_Large,,,,3.28107816609554,,,,,-2,,,
memory,value_recall,249.12159933382645,253.13988904189318,8,2,Object_Sea_Solid_Small,,,,4.014380415901542,,,,,8,,,
memory,value_recall,255.18544179201126,258.6756494590081,9,2,Animal_Sea_Pattern_Small,,,,3.4865254580508918,,,,,-8,,,
memory,value_recall,259.72421283391304,264.18801824981347,10,2,Animal_Land_Pattern_Large,,,,4.46072829188779,,,,,9,,,
memory,value_recall,265.9849856249057,269.755246500019,11,2,Animal_Sea_Solid_Large,,,,3.7665699168574065,,,,,7,,,
memory,value_recall,271.30178354191594,273.1879227918107,12,2,Object_Land_Solid_Small,,,,1.8824108748231083,,,,,-1,,,
memory,spatial_recall,277.5587797919288,281.89035841682926,12,2,Animal_Land_Pattern_Large,,,1,4.32677183393389,,,,,,"[329, -190]","[329, -190]",
memory,spatial_recall,282.95339574990794,284.20855237497017,12,2,Object_Sea_Solid_Small,,,1,1.2526306251529604,,,,,,"[0, 380]","[0, 380]",
memory,spatial_recall,285.51417412492447,287.33456762484275,12,2,Animal_Sea_Solid_Large,,,1,1.8158087499905378,,,,,,"[0, -380]","[0, -380]",
memory,spatial_recall,289.14429074991494,291.36745729180984,12,2,Object_Land_Pattern_Large,,,1,2.2185749169439077,,,,,,"[-329, 190]","[-329, 190]",
memory,spatial_recall,292.42276074993424,296.1396143748425,12,2,Object_Land_Solid_Small,,,1,3.7145480001345277,,,,,,"[-329, -190]","[-329, -190]",
memory,spatial_recall,297.70270041702315,300.73337604198605,12,2,Animal_Sea_Pattern_Small,,,1,3.026934790890664,,,,,,"[329, 189]","[329, 189]",
encoding,fixation,8.239028458017856,8.751584916142747,13,3,Object_Sea_Solid_Small,1,,,,,,,,,,,
encoding,image,8.751700916094705,9.764850750099868,13,3,Object_Sea_Solid_Small,1,,,,,,,,,,,
encoding,value,9.76496445806697,15.780890625203028,13,3,Object_Sea_Solid_Small,1,,,,,,,,,,,
encoding,attention,15.781017791014165,18.797726166201755,13,3,Object_Sea_Solid_Small,1,+1,1,0.6614394579082727,,,,,,,,
encoding,fixation,18.797881708014756,20.303310291143134,14,3,Animal_Land_Solid_Large,4,,,,,,,,,,,
encoding,image,20.30342233320698,21.315410500159487,14,3,Animal_Land_Solid_Large,4,,,,,,,,,,,
encoding,value,21.315513416193426,27.330238208174706,14,3,Animal_Land_Solid_Large,4,,,,,,,,,,,
encoding,attention,27.330387083115056,30.34894150006585,14,3,Animal_Land_Solid_Large,4,+4,1,0.7519855829887092,,,,,,,,
encoding,fixation,30.34908958314918,31.105396250030026,15,3,Animal_Sea_Pattern_Large,-6,,,,,,,,,,,
encoding,image,31.10552266612649,32.115595625014976,15,3,Animal_Sea_Pattern_Large,-6,,,,,,,,,,,
encoding,value,32.11571479099803,38.12716050003655,15,3,Animal_Sea_Pattern_Large,-6,,,,,,,,,,,
encoding,attention,38.12727245804854,41.143976708175614,15,3,Animal_Sea_Pattern_Large,-6,-6,1,0.7737814579159021,,,,,,,,
encoding,fixation,41.14416666608304,42.39963016612455,16,3,Object_Land_Solid_Small,-6,,,,,,,,,,,
encoding,image,42.39977104100399,43.41059275018051,16,3,Object_Land_Solid_Small,-6,,,,,,,,,,,
encoding,value,43.41072087502107,49.422085541067645,16,3,Object_Land_Solid_Small,-6,,,,,,,,,,,
encoding,attention,49.42219108319841,52.43895083316602,16,3,Object_Land_Solid_Small,-6,-6,1,0.9817951249424368,,,,,,,,
encoding,fixation,52.439109166152775,53.19417991605587,17,3,Animal_Land_Pattern_Large,3,,,,,,,,,,,
encoding,image,53.194341166177765,54.20589641621336,17,3,Animal_Land_Pattern_Large,3,,,,,,,,,,,
encoding,value,54.20600141608156,60.2182118750643,17,3,Animal_Land_Pattern_Large,3,,,,,,,,,,,
encoding,attention,60.218338458100334,63.23522137501277,17,3,Animal_Land_Pattern_Large,3,+3,1,0.7523040419910103,,,,,,,,
encoding,fixation,63.23537150002085,64.74067758303136,18,3,Object_Sea_Pattern_Small,4,,,,,,,,,,,
encoding,image,64.74081070814282,65.75164183299057,18,3,Object_Sea_Pattern_Small,4,,,,,,,,,,,
encoding,value,65.75181441614404,71.76441979105584,18,3,Object_Sea_Pattern_Small,4,,,,,,,,,,,
encoding,attention,71.7645451251883,74.78216570802033,18,3,Object_Sea_Pattern_Small,4,+4,1,0.6211877500172704,,,,,,,,
n-back,,,,61,3,,,,0,None,Z,True,None,,,,,
n-back,,,,62,3,,,,1,None,X,False,None,,,,,
n-back,,,,63,3,,,,1,0.593216999899596,Z,True,1,,,,,
n-back,,,,64,3,,,,1,None,N,False,None,,,,,
n-back,,,,65,3,,,,1,None,B,False,None,,,,,
n-back,,,,66,3,,,,1,None,V,False,None,,,,,
n-back,,,,67,3,,,,1,None,N,False,None,,,,,
n-back,,,,68,3,,,,1,None,Z,False,None,,,,,
n-back,,,,69,3,,,,1,1.006174165988341,N,True,1,,,,,
n-back,,,,70,3,,,,1,0.6997322500683367,Z,True,1,,,,,
n-back,,,,71,3,,,,1,0.5959998338948935,N,True,1,,,,,
n-back,,,,72,3,,,,1,0.5697652909439057,Z,True,1,,,,,
n-back,,,,73,3,,,,1,0.6453983339015394,N,True,1,,,,,
n-back,,,,74,3,,,,1,None,X,False,None,,,,,
n-back,,,,75,3,,,,1,None,B,False,None,,,,,
n-back,,,,76,3,,,,1,None,V,False,None,,,,,
n-back,,,,77,3,,,,1,0.7237205000128597,B,True,1,,,,,
n-back,,,,78,3,,,,1,None,X,False,None,,,,,
n-back,,,,79,3,,,,1,None,X,False,None,,,,,
n-back,,,,80,3,,,,1,None,N,False,None,,,,,
n-back,,,,81,3,,,,1,0.4743369580246508,X,True,1,,,,,
n-back,,,,82,3,,,,1,None,X,False,None,,,,,
n-back,,,,83,3,,,,1,None,B,False,None,,,,,
n-back,,,,84,3,,,,1,None,V,False,None,,,,,
n-back,,,,85,3,,,,1,0.58478270820342,B,True,1,,,,,
n-back,,,,86,3,,,,1,None,X,False,None,,,,,
n-back,,,,87,3,,,,1,None,V,False,None,,,,,
n-back,,,,88,3,,,,1,None,B,False,None,,,,,
n-back,,,,89,3,,,,1,None,B,False,None,,,,,
n-back,,,,90,3,,,,1,None,V,False,None,,,,,
choice,fixation,145.9127795000095,147.4161619162187,17,3,,,,,,,,,Sea,,,,
choice,option,147.42396675003693,148.4540275412146,17,3,,,,,,,,,Sea,,,,
choice,choice,148.45419241604395,155.3511987910606,17,3,,,2,1,5.885916457977146,,,,Sea,,,,
choice,fixation,155.3513206660282,156.1063417911064,18,3,,,,,,,,,Large,,,,
choice,option,156.11515079112723,157.14219279121608,18,3,,,,,,,,,Large,,,,
choice,choice,157.1422992500011,165.58089775010012,18,3,,,1,1,7.427313708001748,,,,Large,,,,
choice,fixation,165.58103470806964,166.08617916610092,19,3,,,,,,,,,Pattern,,,,
choice,option,166.0952525830362,167.122354791034,19,3,,,,,,,,,Pattern,,,,
choice,choice,167.12245720811188,173.10030145803466,19,3,,,1,1,4.968335958197713,,,,Pattern,,,,
choice,fixation,173.10042820801027,173.6054130832199,20,3,,,,,,,,,Animal,,,,
choice,option,173.61532350000925,174.64302441617474,20,3,,,,,,,,,Animal,,,,
choice,choice,174.6431256250944,181.41148841613904,20,3,,,1,1,5.7584940830711275,,,,Animal,,,,
choice,fixation,181.41161370812915,182.16639833315276,21,3,,,,,,,,,Object,,,,
choice,option,182.17606029100716,183.20285466616042,21,3,,,,,,,,,Object,,,,
choice,choice,183.20295566599816,187.95624575018883,21,3,,,2,1,3.7423772080801427,,,,Object,,,,
choice,fixation,187.95643866620958,188.96437450009398,22,3,,,,,,,,,Land,,,,
choice,option,188.9732252501417,190.00010695820674,22,3,,,,,,,,,Land,,,,
choice,choice,190.00026175007224,195.13292054110207,22,3,,,1,1,4.122959000058472,,,,Land,,,,
choice,fixation,195.13304500002414,196.63781179115176,23,3,,,,,,,,,Solid,,,,
choice,option,196.64725841605105,197.67397737503052,23,3,,,,,,,,,Solid,,,,
choice,choice,197.67410291614942,203.2269612501841,23,3,,,2,1,4.542070750147104,,,,Solid,,,,
choice,fixation,203.22710145800374,204.481916916091,24,3,,,,,,,,,Small,,,,
choice,option,204.4905415000394,205.51886825007387,24,3,,,,,,,,,Small,,,,
choice,choice,205.5189755000174,210.79744025017135,24,3,,,2,1,4.2672601249068975,,,,Small,,,,
memory,free_recall,219.91871254099533,231.93377158301882,12,3,,,,,,,,,,,,,
memory,value_recall,247.96434316621162,251.781399916159,13,3,Animal_Land_Solid_Large,,,,3.8132964170072228,,,,,4,,,
memory,value_recall,253.07654429110698,255.51326137501746,14,3,Object_Land_Solid_Small,,,,2.4325121250003576,,,,,-6,,,
memory,value_recall,257.55945025011897,259.8642643750645,15,3,Object_Sea_Solid_Small,,,,2.3010519579984248,,,,,1,,,
memory,value_recall,261.15988383302465,263.7195647500921,16,3,Animal_Sea_Pattern_Large,,,,2.5552802910096943,,,,,-6,,,
memory,value_recall,265.2643153332174,268.2222414580174,17,3,Animal_Land_Pattern_Large,,,,2.9537271670997143,,,,,3,,,
memory,value_recall,269.2679998332169,271.48674975009635,18,3,Object_Sea_Pattern_Small,,,,2.215274415910244,,,,,4,,,
memory,spatial_recall,276.3267617910169,277.6681097911205,18,3,Animal_Land_Pattern_Large,,,1,1.337628124980256,,,,,,"[329, -190]","[329, -190]",
memory,spatial_recall,278.9698211660143,281.9016009999905,18,3,Animal_Sea_Pattern_Large,,,1,2.9277823748998344,,,,,,"[-329, 190]","[-329, 190]",
memory,spatial_recall,283.95522745815106,286.3995158330072,18,3,Object_Sea_Solid_Small,,,1,2.439478209009394,,,,,,"[0, 380]","[0, 380]",
memory,spatial_recall,288.20743620814756,290.36685962509364,18,3,Animal_Land_Solid_Large,,,1,2.1543009160086513,,,,,,"[329, 189]","[329, 189]",
memory,spatial_recall,292.42150775017217,294.738174875034,18,3,Object_Sea_Pattern_Small,,,1,2.3124172911047935,,,,,,"[0, -380]","[0, -380]",
memory,spatial_recall,296.05185150005855,298.7717242911458,18,3,Object_Land_Solid_Small,,,1,2.7155545419082046,,,,,,"[-329, -190]","[-329, -190]",
encoding,fixation,6.169797417009249,6.925888624973595,19,4,Object_Land_Solid_Large,-1,,,,,,,,,,,
encoding,image,6.926021916791797,7.937065541977063,19,4,Object_Land_Solid_Large,-1,,,,,,,,,,,
encoding,value,7.937241791980341,13.949313499964774,19,4,Object_Land_Solid_Large,-1,,,,,,,,,,,
encoding,attention,13.949452041881159,16.965865291887894,19,4,Object_Land_Solid_Large,-1,-1,1,0.753628958016634,,,,,,,,
encoding,fixation,16.96605091681704,17.97140729194507,20,4,Animal_Sea_Pattern_Small,-6,,,,,,,,,,,
encoding,image,17.97152120899409,18.983602499822155,20,4,Animal_Sea_Pattern_Small,-6,,,,,,,,,,,
encoding,value,18.983718124916777,24.996003999840468,20,4,Animal_Sea_Pattern_Small,-6,,,,,,,,,,,
encoding,attention,24.99612691695802,28.01406841678545,20,4,Animal_Sea_Pattern_Small,-6,-6,1,1.3779157500248402,,,,,,,,
encoding,fixation,28.014272541971877,29.51957870880142,21,4,Object_Land_Pattern_Large,9,,,,,,,,,,,
encoding,image,29.51968516688794,30.533028999809176,21,4,Object_Land_Pattern_Large,9,,,,,,,,,,,
encoding,value,30.533158166799694,36.54607841698453,21,4,Object_Land_Pattern_Large,9,,,,,,,,,,,
encoding,attention,36.54619220900349,39.5652560419403,21,4,Object_Land_Pattern_Large,9,+9,1,0.577334042172879,,,,,,,,
encoding,fixation,39.56541412486695,40.32077008392662,22,4,Object_Sea_Solid_Large,-7,,,,,,,,,,,
encoding,image,40.320872583892196,41.33225195878185,22,4,Object_Sea_Solid_Large,-7,,,,,,,,,,,
encoding,value,41.33235845901072,47.34484920883551,22,4,Object_Sea_Solid_Large,-7,,,,,,,,,,,
encoding,attention,47.3449560420122,50.36431937478483,22,4,Object_Sea_Solid_Large,-7,-7,1,0.8838584581390023,,,,,,,,
encoding,fixation,50.364463166799396,51.11976512498222,23,4,Animal_Land_Pattern_Small,-5,,,,,,,,,,,
encoding,image,51.11990399984643,52.13230945891701,23,4,Animal_Land_Pattern_Small,-5,,,,,,,,,,,
encoding,value,52.13245204184204,58.143727958900854,23,4,Animal_Land_Pattern_Small,-5,,,,,,,,,,,
encoding,attention,58.143844541860744,61.16185854189098,23,4,Animal_Land_Pattern_Small,-5,-5,1,1.0536456669215113,,,,,,,,
encoding,fixation,61.16201466694474,62.417358208913356,24,4,Animal_Sea_Solid_Small,9,,,,,,,,,,,
encoding,image,62.417466084007174,63.42877708398737,24,4,Animal_Sea_Solid_Small,9,,,,,,,,,,,
encoding,value,63.428896041819826,69.4404947499279,24,4,Animal_Sea_Solid_Small,9,,,,,,,,,,,
encoding,attention,69.44063145900145,72.45844162488356,24,4,Animal_Sea_Solid_Small,9,+9,1,1.12806212506257,,,,,,,,
n-back,,,,91,4,,,,1,None,N,False,None,,,,,
n-back,,,,92,4,,,,1,None,V,False,None,,,,,
n-back,,,,93,4,,,,1,0.9016397499945015,N,True,1,,,,,
n-back,,,,94,4,,,,1,None,C,False,None,,,,,
n-back,,,,95,4,,,,1,0.5616872501559556,N,True,1,,,,,
n-back,,,,96,4,,,,1,None,X,False,None,,,,,
n-back,,,,97,4,,,,1,None,Z,False,None,,,,,
n-back,,,,98,4,,,,1,0.49508608295582235,X,True,1,,,,,
n-back,,,,99,4,,,,1,0.6390951659996063,Z,True,1,,,,,
n-back,,,,100,4,,,,1,None,N,False,None,,,,,
n-back,,,,101,4,,,,1,0.5196919168811291,Z,True,1,,,,,
n-back,,,,102,4,,,,1,None,V,False,None,,,,,
n-back,,,,103,4,,,,1,0.4470530420076102,Z,True,1,,,,,
n-back,,,,104,4,,,,1,None,X,False,None,,,,,
n-back,,,,105,4,,,,1,None,N,False,None,,,,,
n-back,,,,106,4,,,,1,None,V,False,None,,,,,
n-back,,,,107,4,,,,1,None,C,False,None,,,,,
n-back,,,,108,4,,,,1,None,N,False,None,,,,,
n-back,,,,109,4,,,,1,None,Z,False,None,,,,,
n-back,,,,110,4,,,,1,0.4396442079450935,N,True,1,,,,,
n-back,,,,111,4,,,,1,None,X,False,None,,,,,
n-back,,,,112,4,,,,1,None,Z,False,None,,,,,
n-back,,,,113,4,,,,1,None,B,False,None,,,,,
n-back,,,,114,4,,,,1,0.3183483330067247,Z,True,1,,,,,
n-back,,,,115,4,,,,1,None,C,False,None,,,,,
n-back,,,,116,4,,,,1,None,N,False,None,,,,,
n-back,,,,117,4,,,,1,None,B,False,None,,,,,
n-back,,,,118,4,,,,1,0.5153534167911857,N,True,1,,,,,
n-back,,,,119,4,,,,1,None,Z,False,None,,,,,
n-back,,,,120,4,,,,1,0.41963916597887874,N,True,1,,,,,
choice,fixation,140.65433024987578,142.1577305418905,25,4,,,,,,,,,Large,,,,
choice,option,142.16585879190825,143.19554599979892,25,4,,,,,,,,,Large,,,,
choice,choice,143.19565874990076,160.91304595884867,25,4,,,2,0,16.70624979119748,,,,Large,,,,
choice,fixation,160.91321758390404,161.6685144167859,26,4,,,,,,,,,Small,,,,
choice,option,161.6778993748594,162.70508049987257,26,4,,,,,,,,,Small,,,,
choice,choice,162.7052565838676,175.37668749992736,26,4,,,2,1,11.66052862512879,,,,Small,,,,
choice,fixation,175.37688362482004,176.63345658383332,27,4,,,,,,,,,Sea,,,,
choice,option,176.64178795879707,177.66828354191966,27,4,,,,,,,,,Sea,,,,
choice,choice,177.66840566694736,185.69604712491855,27,4,,,2,1,7.017659374978393,,,,Sea,,,,
choice,fixation,185.69618912483566,186.45111245894805,28,4,,,,,,,,,Solid,,,,
choice,option,186.46027191681787,187.48636545892805,28,4,,,,,,,,,Solid,,,,
choice,choice,187.48648441699333,195.07917495886795,28,4,,,1,1,6.583401417126879,,,,Solid,,,,
choice,fixation,195.07931933389045,196.5844184588641,29,4,,,,,,,,,Animal,,,,
choice,option,196.59352374984883,197.62072404194623,29,4,,,,,,,,,Animal,,,,
choice,choice,197.62086687493138,203.338077833876,29,4,,,2,1,4.707848584046587,,,,Animal,,,,
choice,fixation,203.3381997498218,204.09314512484707,30,4,,,,,,,,,Object,,,,
choice,option,204.10293695889413,205.13294549984857,30,4,,,,,,,,,Object,,,,
choice,choice,205.13305399985984,210.23911158391275,30,4,,,1,1,4.095937374979258,,,,Object,,,,
choice,fixation,210.2392338749487,211.74425929179415,31,4,,,,,,,,,Pattern,,,,
choice,option,211.75372304185294,212.78260862501338,31,4,,,,,,,,,Pattern,,,,
choice,choice,212.78273504180834,222.62029749993235,31,4,,,1,0,8.825845041079447,,,,Pattern,,,,
choice,fixation,222.6204340418335,223.12612716690637,32,4,,,,,,,,,Land,,,,
choice,option,223.13567362492904,224.162765749963,32,4,,,,,,,,,Land,,,,
choice,choice,224.16286491695791,236.17061291681603,32,4,,,1,1,10.997144958935678,,,,Land,,,,
memory,free_recall,249.54688645899296,264.6498907918576,18,4,,,,,,,,,,,,,
memory,value_recall,280.8823471670039,289.4659566669725,19,4,Animal_Sea_Pattern_Small,,,,8.579638208029792,,,,,-6,,,
memory,value_recall,291.2649894168135,293.4737484587822,20,4,Object_Land_Pattern_Large,,,,2.204944708151743,,,,,9,,,
memory,value_recall,294.52025083382614,296.8032706249505,21,4,Object_Land_Solid_Large,,,,2.2794983750209212,,,,,-1,,,
memory,value_recall,298.34995991690084,301.1485762919765,22,4,Object_Sea_Solid_Large,,,,2.794537999900058,,,,,-7,,,
memory,value_recall,302.4441073338967,304.5059461668134,23,4,Animal_Land_Pattern_Small,,,,2.057592875091359,,,,,-5,,,
memory,value_recall,306.05206849984825,308.8021573747974,24,4,Animal_Sea_Solid_Small,,,,2.7463514590635896,,,,,9,,,
memory,spatial_recall,313.0510453339666,315.52508937497623,24,4,Animal_Land_Pattern_Small,,,1,2.4704290421213955,,,,,,"[0, -380]","[0, -380]",
memory,spatial_recall,317.0921088748146,318.37528137490153,24,4,Object_Sea_Solid_Large,,,1,1.2769406251609325,,,,,,"[0, 380]","[0, 380]",
memory,spatial_recall,319.6830674998928,322.4069395000115,24,4,Animal_Sea_Solid_Small,,,1,2.7198632080107927,,,,,,"[329, -190]","[329, -190]",
memory,spatial_recall,324.46700545889325,326.0856756248977,24,4,Object_Land_Solid_Large,,,1,1.614509291946888,,,,,,"[-329, -190]","[-329, -190]",
memory,spatial_recall,327.404978874838,329.8737373747863,24,4,Animal_Sea_Pattern_Small,,,1,2.465127500006929,,,,,,"[329, 189]","[329, 189]",
memory,spatial_recall,330.93780579185113,333.37420104187913,24,4,Object_Land_Pattern_Large,,,1,2.4338604998774827,,,,,,"[-329, 190]","[-329, 190]",
encoding,fixation,4.683000250020996,5.689075291855261,25,5,Object_Land_Solid_Small,9,,,,,,,,,,,
encoding,image,5.689236416947097,6.701312958961353,25,5,Object_Land_Solid_Small,9,,,,,,,,,,,
encoding,value,6.701415708987042,12.714591250056401,25,5,Object_Land_Solid_Small,9,,,,,,,,,,,
encoding,attention,12.71475520893,15.734664584044367,25,5,Object_Land_Solid_Small,9,+9,1,0.6980627081356943,,,,,,,,
encoding,fixation,15.734804874984547,16.24076933390461,26,5,Animal_Sea_Solid_Large,-2,,,,,,,,,,,
encoding,image,16.24086912488565,17.251110541867092,26,5,Animal_Sea_Solid_Large,-2,,,,,,,,,,,
encoding,value,17.251227791886777,23.263493167003617,26,5,Animal_Sea_Solid_Large,-2,,,,,,,,,,,
encoding,attention,23.26359837502241,26.282998875016347,26,5,Animal_Sea_Solid_Large,-2,-2,1,0.6693688749801368,,,,,,,,
encoding,fixation,26.283231375040486,26.78852541698143,27,5,Animal_Sea_Pattern_Large,7,,,,,,,,,,,
encoding,image,26.788644291926175,27.798665958922356,27,5,Animal_Sea_Pattern_Large,7,,,,,,,,,,,
encoding,value,27.798790708882734,33.81012958404608,27,5,Animal_Sea_Pattern_Large,7,,,,,,,,,,,
encoding,attention,33.810252625029534,36.82741979183629,27,5,Animal_Sea_Pattern_Large,7,+7,1,0.7965119578875601,,,,,,,,
encoding,fixation,36.827592459041625,37.832936624996364,28,5,Object_Sea_Pattern_Large,-3,,,,,,,,,,,
encoding,image,37.833053374895826,38.84642520896159,28,5,Object_Sea_Pattern_Large,-3,,,,,,,,,,,
encoding,value,38.84654008387588,44.85858537489548,28,5,Object_Sea_Pattern_Large,-3,,,,,,,,,,,
encoding,attention,44.85869825002737,47.876465667039156,28,5,Object_Sea_Pattern_Large,-3,-3,1,1.4617882089223713,,,,,,,,
encoding,fixation,47.876628999831155,49.13165274984203,29,5,Animal_Land_Solid_Small,-6,,,,,,,,,,,
encoding,image,49.13176349992864,50.14313279185444,29,5,Animal_Land_Solid_Small,-6,,,,,,,,,,,
encoding,value,50.14325074991211,56.15480445884168,29,5,Animal_Land_Solid_Small,-6,,,,,,,,,,,
encoding,attention,56.15493883402087,59.1713589169085,29,5,Animal_Land_Solid_Small,-6,-6,1,0.7391775830183178,,,,,,,,
encoding,fixation,59.17151554184966,60.67729941685684,30,5,Object_Land_Pattern_Small,-7,,,,,,,,,,,
encoding,image,60.67739783390425,61.68876912491396,30,5,Object_Land_Pattern_Small,-7,,,,,,,,,,,
encoding,value,61.68887716694735,67.69988770899363,30,5,Object_Land_Pattern_Small,-7,,,,,,,,,,,
encoding,attention,67.70001000002958,70.71970474999398,30,5,Object_Land_Pattern_Small,-7,-7,1,1.7908037500455976,,,,,,,,
n-back,,,,121,5,,,,0,None,Z,True,None,,,,,
n-back,,,,122,5,,,,1,None,B,False,None,,,,,
n-back,,,,123,5,,,,1,None,X,False,None,,,,,
n-back,,,,124,5,,,,0,None,B,True,None,,,,,
n-back,,,,125,5,,,,1,None,Z,False,None,,,,,
n-back,,,,126,5,,,,1,0.5429881669115275,B,True,1,,,,,
n-back,,,,127,5,,,,1,None,X,False,None,,,,,
n-back,,,,128,5,,,,1,None,Z,False,None,,,,,
n-back,,,,129,5,,,,1,None,V,False,None,,,,,
n-back,,,,130,5,,,,1,None,X,False,None,,,,,
n-back,,,,131,5,,,,1,0.5937890838831663,V,True,1,,,,,
n-back,,,,132,5,,,,1,None,N,False,None,,,,,
n-back,,,,133,5,,,,1,0.49812945793382823,V,True,1,,,,,
n-back,,,,134,5,,,,1,0.7748732501640916,N,True,1,,,,,
n-back,,,,135,5,,,,1,None,N,False,None,,,,,
n-back,,,,136,5,,,,1,None,V,False,None,,,,,
n-back,,,,137,5,,,,1,None,C,False,None,,,,,
n-back,,,,138,5,,,,1,0.43850470893085003,V,True,1,,,,,
n-back,,,,139,5,,,,1,None,Z,False,None,,,,,
n-back,,,,140,5,,,,1,None,Z,False,None,,,,,
n-back,,,,141,5,,,,1,None,B,False,None,,,,,
n-back,,,,142,5,,,,1,None,X,False,None,,,,,
n-back,,,,143,5,,,,1,None,V,False,None,,,,,
n-back,,,,144,5,,,,1,None,C,False,None,,,,,
n-back,,,,145,5,,,,1,0.7916504167951643,V,True,1,,,,,
n-back,,,,146,5,,,,1,None,X,False,None,,,,,
n-back,,,,147,5,,,,1,None,X,False,None,,,,,
n-back,,,,148,5,,,,1,0.65061179199256,X,True,1,,,,,
n-back,,,,149,5,,,,1,0.7149926659185439,X,True,1,,,,,
n-back,,,,150,5,,,,1,None,N,False,None,,,,,
choice,fixation,145.82794520887546,147.33146691694856,33,5,,,,,,,,,Large,,,,
choice,option,147.33949841698632,148.3692677919753,33,5,,,,,,,,,Large,,,,
choice,choice,148.36937387497164,163.55970954196528,33,5,,,1,1,14.17936516692862,,,,Large,,,,
choice,fixation,163.55983854201622,164.06501370901242,34,5,,,,,,,,,Sea,,,,
choice,option,164.07358799991198,165.10128275002353,34,5,,,,,,,,,Sea,,,,
choice,choice,165.10138929192908,171.67984070884995,34,5,,,1,1,5.56780262500979,,,,Sea,,,,
choice,fixation,171.6799746248871,172.68485795892775,35,5,,,,,,,,,Small,,,,
choice,option,172.69369204202667,173.72094620903954,35,5,,,,,,,,,Small,,,,
choice,choice,173.72106304205954,181.98614541697316,35,5,,,2,1,7.255600541131571,,,,Small,,,,
choice,fixation,181.98627474997193,182.4913697920274,36,5,,,,,,,,,Land,,,,
choice,option,182.5000558339525,183.52986195893027,36,5,,,,,,,,,Land,,,,
choice,choice,183.52997499983758,190.45677791698836,36,5,,,2,1,5.916540834121406,,,,Land,,,,
choice,fixation,190.4569112919271,191.46355900005437,37,5,,,,,,,,,Object,,,,
choice,option,191.47295604203828,192.50019933399744,37,5,,,,,,,,,Object,,,,
choice,choice,192.50032120896503,201.73749904194847,37,5,,,2,1,8.226718041114509,,,,Object,,,,
choice,fixation,201.7376360418275,202.24251049989834,38,5,,,,,,,,,Pattern,,,,
choice,option,202.25165145890787,203.27990649989806,38,5,,,,,,,,,Pattern,,,,
choice,choice,203.28001833404414,209.9267827088479,38,5,,,2,1,5.63721154211089,,,,Pattern,,,,
choice,fixation,209.92692079185508,211.1817757920362,39,5,,,,,,,,,Solid,,,,
choice,option,211.19156174990349,212.2187727498822,39,5,,,,,,,,,Solid,,,,
choice,choice,212.21886841696687,220.51031062495895,39,5,,,1,1,7.282557874917984,,,,Solid,,,,
choice,fixation,220.51043904200196,221.76552854198962,40,5,,,,,,,,,Animal,,,,
choice,option,221.77434604195878,222.80174095905386,40,5,,,,,,,,,Animal,,,,
choice,choice,222.80184912495315,230.2066769588273,40,5,,,1,0,6.395128083182499,,,,Animal,,,,
memory,free_recall,241.4335098338779,254.8735128750559,24,5,,,,,,,,,,,,,
memory,value_recall,264.09403645899147,266.91437337500975,25,5,Object_Land_Solid_Small,,,,2.816274458076805,,,,,9,,,
memory,value_recall,268.2139112500008,273.1649573750328,26,5,Animal_Sea_Pattern_Large,,,,4.946850416017696,,,,,7,,,
memory,value_recall,275.21394879184663,278.24163770885207,27,5,Object_Land_Pattern_Small,,,,3.023620167048648,,,,,-7,,,
memory,value_recall,280.0374980419874,284.73113654204644,28,5,Animal_Land_Solid_Small,,,,4.689480000175536,,,,,-6,,,
memory,value_recall,285.77674174983986,288.4573480419349,29,5,Object_Sea_Pattern_Large,,,,2.677375708008185,,,,,-3,,,
memory,value_recall,289.5059858749155,292.09682954195887,30,5,Animal_Sea_Solid_Large,,,,2.5852930832188576,,,,,-2,,,
memory,spatial_recall,297.7841737919953,300.6514929588884,30,5,Object_Land_Solid_Small,,,1,2.8636233748402447,,,,,,"[-329, -190]","[-329, -190]",
memory,spatial_recall,302.71187279187143,305.0716972500086,30,5,Animal_Land_Solid_Small,,,1,2.3557883340399712,,,,,,"[0, 380]","[0, 380]",
memory,spatial_recall,306.1349741248414,307.7350966669619,30,5,Object_Land_Pattern_Small,,,1,1.5975883328355849,,,,,,"[329, -190]","[329, -190]",
memory,spatial_recall,309.0384058749769,311.071452958975,30,5,Animal_Sea_Pattern_Large,,,1,2.028944917023182,,,,,,"[-329, 190]","[-329, 190]",
memory,spatial_recall,312.63334787497297,314.5514779998921,30,5,Object_Sea_Pattern_Large,,,1,1.914498666068539,,,,,,"[329, 189]","[329, 189]",
memory,spatial_recall,315.8629782500211,317.25118925003335,30,5,Animal_Sea_Solid_Large,,,1,1.3842451248783618,,,,,,"[0, -380]","[0, -380]",
encoding,fixation,4.1776272498536855,5.6835791249759495,31,6,Object_Sea_Pattern_Small,3,,,,,,,,,,,
encoding,image,5.683763083070517,6.6967342919670045,31,6,Object_Sea_Pattern_Small,3,,,,,,,,,,,
encoding,value,6.696866082958877,12.710997458081692,31,6,Object_Sea_Pattern_Small,3,,,,,,,,,,,
encoding,attention,12.711104999994859,15.728917457861826,31,6,Object_Sea_Pattern_Small,3,+3,1,0.6436248340178281,,,,,,,,
encoding,fixation,15.729077416937798,16.23439750005491,32,6,Animal_Land_Pattern_Large,-6,,,,,,,,,,,
encoding,image,16.234500457998365,17.24657700001262,32,6,Animal_Land_Pattern_Large,-6,,,,,,,,,,,
encoding,value,17.246687249979004,23.258391875075176,32,6,Animal_Land_Pattern_Large,-6,,,,,,,,,,,
encoding,attention,23.258509832900017,26.275808125035837,32,6,Animal_Land_Pattern_Large,-6,-6,1,0.9074966248590499,,,,,,,,
encoding,fixation,26.27596545801498,27.781276041874662,33,6,Object_Land_Solid_Small,4,,,,,,,,,,,
encoding,image,27.781397917075083,28.793798292055726,33,6,Object_Land_Solid_Small,4,,,,,,,,,,,
encoding,value,28.793906749924645,34.80565662495792,33,6,Object_Land_Solid_Small,4,,,,,,,,,,,
encoding,attention,34.805767958052456,37.824191957945004,33,6,Object_Land_Solid_Small,4,+4,1,0.7971953330561519,,,,,,,,
encoding,fixation,37.824364207917824,39.07927258289419,34,6,Animal_Land_Solid_Large,1,,,,,,,,,,,
encoding,image,39.07939570792951,40.09073070785962,34,6,Animal_Land_Solid_Large,1,,,,,,,,,,,
encoding,value,40.09087825007737,46.10364908305928,34,6,Animal_Land_Solid_Large,1,,,,,,,,,,,
encoding,attention,46.10375404194929,49.12174137495458,34,6,Animal_Land_Solid_Large,1,+1,1,1.251073291990906,,,,,,,,
encoding,fixation,49.121890666894615,50.62724808300845,35,6,Object_Sea_Solid_Small,-8,,,,,,,,,,,
encoding,image,50.62737929192372,51.63792087486945,35,6,Object_Sea_Solid_Small,-8,,,,,,,,,,,
encoding,value,51.63803324988112,57.648942708037794,35,6,Object_Sea_Solid_Small,-8,,,,,,,,,,,
encoding,attention,57.649059207877144,60.66587783303112,35,6,Object_Sea_Solid_Small,-8,-8,1,0.523308957926929,,,,,,,,
encoding,fixation,60.666029250016436,61.92176237492822,36,6,Animal_Sea_Pattern_Large,4,,,,,,,,,,,
encoding,image,61.921869500074536,62.93230983288959,36,6,Animal_Sea_Pattern_Large,4,,,,,,,,,,,
encoding,value,62.93242891691625,68.9437357080169,36,6,Animal_Sea_Pattern_Large,4,,,,,,,,,,,
encoding,attention,68.94385616690852,71.96158558293246,36,6,Animal_Sea_Pattern_Large,4,+4,1,2.4904791659209877,,,,,,,,
n-back,,,,151,6,,,,1,None,Z,False,None,,,,,
n-back,,,,152,6,,,,1,None,N,False,None,,,,,
n-back,,,,153,6,,,,1,0.6300642499700189,Z,True,1,,,,,
n-back,,,,154,6,,,,1,None,Z,False,None,,,,,
n-back,,,,155,6,,,,1,0.46695895795710385,Z,True,1,,,,,
n-back,,,,156,6,,,,1,None,C,False,None,,,,,
n-back,,,,157,6,,,,1,None,N,False,None,,,,,
n-back,,,,158,6,,,,1,0.514070708071813,C,True,1,,,,,
n-back,,,,159,6,,,,1,None,C,False,None,,,,,
n-back,,,,160,6,,,,1,0.47758249985054135,C,True,1,,,,,
n-back,,,,161,6,,,,1,None,B,False,None,,,,,
n-back,,,,162,6,,,,1,None,V,False,None,,,,,
n-back,,,,163,6,,,,1,None,V,False,None,,,,,
n-back,,,,164,6,,,,1,None,X,False,None,,,,,
n-back,,,,165,6,,,,1,None,X,False,None,,,,,
n-back,,,,166,6,,,,1,0.4367784580681473,X,True,1,,,,,
n-back,,,,167,6,,,,1,1.0808293749578297,X,True,1,,,,,
n-back,,,,168,6,,,,1,None,N,False,None,,,,,
n-back,,,,169,6,,,,1,None,B,False,None,,,,,
n-back,,,,170,6,,,,1,0.4414102081209421,N,True,1,,,,,
n-back,,,,171,6,,,,1,None,X,False,None,,,,,
n-back,,,,172,6,,,,1,None,V,False,None,,,,,
n-back,,,,173,6,,,,1,None,Z,False,None,,,,,
n-back,,,,174,6,,,,1,0.5534368751104921,V,True,1,,,,,
n-back,,,,175,6,,,,1,0.7484255828894675,Z,True,1,,,,,
n-back,,,,176,6,,,,1,None,Z,False,None,,,,,
n-back,,,,177,6,,,,1,None,N,False,None,,,,,
n-back,,,,178,6,,,,1,None,B,False,None,,,,,
n-back,,,,179,6,,,,1,0.6849200408905745,N,True,1,,,,,
n-back,,,,180,6,,,,1,None,N,False,None,,,,,
choice,fixation,144.63130337488838,145.88454879191704,41,6,,,,,,,,,Land,,,,
choice,option,145.8927454580553,146.9217835420277,41,6,,,,,,,,,Land,,,,
choice,choice,146.92189541691914,158.4778271249961,41,6,,,2,1,10.544751583132893,,,,Land,,,,
choice,fixation,158.4779652080033,159.73304033302702,42,6,,,,,,,,,Solid,,,,
choice,option,159.74258624995127,160.76949508301914,42,6,,,,,,,,,Solid,,,,
choice,choice,160.76959745795466,170.83745624986477,42,6,,,2,1,9.058235583128408,,,,Solid,,,,
choice,fixation,170.8375948749017,171.84450075007044,43,6,,,,,,,,,Pattern,,,,
choice,option,171.85414166701958,172.88097937498242,43,6,,,,,,,,,Pattern,,,,
choice,choice,172.8810920000542,184.51269904198125,43,6,,,1,1,10.61822587507777,,,,Pattern,,,,
choice,fixation,184.51290287496522,186.0179083328694,44,6,,,,,,,,,Object,,,,
choice,option,186.02737554186024,187.05729354196228,44,6,,,,,,,,,Object,,,,
choice,choice,187.0574123749975,193.3891523750499,44,6,,,2,1,5.321380417095497,,,,Object,,,,
choice,fixation,193.3892838328611,194.39444558299147,45,6,,,,,,,,,Sea,,,,
choice,option,194.40285562491044,195.42907504201867,45,6,,,,,,,,,Sea,,,,
choice,choice,195.42918479186483,202.97275162488222,45,6,,,2,1,6.534153833985329,,,,Sea,,,,
choice,fixation,202.97289099986665,203.47810354200192,46,6,,,,,,,,,Animal,,,,
choice,option,203.48719833302312,204.5139526668936,46,6,,,,,,,,,Animal,,,,
choice,choice,204.5140740419738,211.51164529193193,46,6,,,2,1,5.985069541959092,,,,Animal,,,,
choice,fixation,211.51176979206502,212.5167278330773,47,6,,,,,,,,,Large,,,,
choice,option,212.52530708303675,213.5516439168714,47,6,,,,,,,,,Large,,,,
choice,choice,213.55177829205059,221.54910983308218,47,6,,,2,1,6.9875700830016285,,,,Large,,,,
choice,fixation,221.54923458304256,222.55406774999574,48,6,,,,,,,,,Small,,,,
choice,option,222.56363816699013,223.59024266689084,48,6,,,,,,,,,Small,,,,
choice,choice,223.5903681248892,228.74000429199077,48,6,,,2,1,4.138970334082842,,,,Small,,,,
memory,free_recall,236.0384271668736,248.5027110420633,30,6,,,,,,,,,,,,,
memory,value_recall,254.75138908298686,258.16786945797503,31,6,Animal_Sea_Pattern_Large,,,,3.41263529099524,,,,,4,,,
memory,value_recall,259.2123832919169,261.61476362496614,32,6,Object_Sea_Pattern_Small,,,,2.399895374896005,,,,,3,,,
memory,value_recall,263.6615867919754,266.62570920796134,33,6,Object_Sea_Solid_Small,,,,2.9599535840097815,,,,,-8,,,
memory,value_recall,267.9212520830333,270.4222514999565,34,6,Animal_Land_Solid_Large,,,,2.4966667499393225,,,,,1,,,
memory,value_recall,271.7188810000662,274.2312416669447,35,6,Object_Land_Solid_Small,,,,2.5085238749161363,,,,,4,,,
memory,value_recall,276.2784149169456,278.6702992080245,36,6,Animal_Land_Pattern_Large,,,,2.387864915886894,,,,,-6,,,
memory,spatial_recall,282.7897332080174,284.9855280830525,36,6,Animal_Land_Solid_Large,,,1,2.192464333958924,,,,,,"[329, 189]","[329, 189]",
memory,spatial_recall,286.3023487080354,287.5990328330081,36,6,Object_Land_Solid_Small,,,1,1.2925362498499453,,,,,,"[-329, -190]","[-329, -190]",
memory,spatial_recall,289.6536176248919,290.771378000034,36,6,Animal_Sea_Pattern_Large,,,1,1.110856207786128,,,,,,"[-329, 190]","[-329, 190]",
memory,spatial_recall,291.8276347499341,293.44895454193465,36,6,Object_Sea_Pattern_Small,,,1,1.618956624995917,,,,,,"[0, -380]","[0, -380]",
memory,spatial_recall,294.7540259170346,296.603651124984,36,6,Animal_Land_Pattern_Large,,,1,1.8440282919909805,,,,,,"[329, -190]","[329, -190]",
memory,spatial_recall,298.6623669578694,301.34980412502773,36,6,Object_Sea_Solid_Small,,,1,2.683441916014999,,,,,,"[0, 380]","[0, 380]",
encoding,fixation,7.402256709057838,8.91108695906587,37,7,Object_Land_Pattern_Large,5,,,,,,,,,,,
encoding,image,8.911204500123858,9.923663959139958,37,7,Object_Land_Pattern_Large,5,,,,,,,,,,,
encoding,value,9.923789542168379,15.937532167183235,37,7,Object_Land_Pattern_Large,5,,,,,,,,,,,
encoding,attention,15.937643542187288,18.956239459104836,37,7,Object_Land_Pattern_Large,5,+5,1,0.5636984161101282,,,,,,,,
encoding,fixation,18.956397334113717,19.96186716714874,38,7,Object_Sea_Solid_Large,-7,,,,,,,,,,,
encoding,image,19.9620008750353,20.9734622919932,38,7,Object_Sea_Solid_Large,-7,,,,,,,,,,,
encoding,value,20.97357550007291,26.985802666982636,38,7,Object_Sea_Solid_Large,-7,,,,,,,,,,,
encoding,attention,26.98594433418475,30.00520091713406,38,7,Object_Sea_Solid_Large,-7,-7,1,0.8213143339380622,,,,,,,,
encoding,fixation,30.005368208978325,31.260736291995272,39,7,Animal_Land_Pattern_Small,-4,,,,,,,,,,,
encoding,image,31.260838167043403,32.272385500138626,39,7,Animal_Land_Pattern_Small,-4,,,,,,,,,,,
encoding,value,32.27249879203737,38.28468366712332,39,7,Animal_Land_Pattern_Small,-4,,,,,,,,,,,
encoding,attention,38.2847900420893,41.30272745899856,39,7,Animal_Land_Pattern_Small,-4,-4,1,1.0574407908134162,,,,,,,,
encoding,fixation,41.3028770419769,42.05976066715084,40,7,Animal_Sea_Solid_Small,-1,,,,,,,,,,,
encoding,image,42.05987916700542,43.07130908407271,40,7,Animal_Sea_Solid_Small,-1,,,,,,,,,,,
encoding,value,43.071430209092796,49.0827903340105,40,7,Animal_Sea_Solid_Small,-1,,,,,,,,,,,
encoding,attention,49.0828972090967,52.0997428749688,40,7,Animal_Sea_Solid_Small,-1,-1,1,0.7876202908810228,,,,,,,,
encoding,fixation,52.0999002919998,53.10503587499261,41,7,Object_Land_Solid_Large,7,,,,,,,,,,,
encoding,image,53.10513983410783,54.11510341707617,41,7,Object_Land_Solid_Large,7,,,,,,,,,,,
encoding,value,54.11522479215637,60.12635158398189,41,7,Object_Land_Solid_Large,7,,,,,,,,,,,
encoding,attention,60.126467917114496,63.14411574997939,41,7,Object_Land_Solid_Large,7,+7,1,2.4490522919222713,,,,,,,,
encoding,fixation,63.14426958397962,63.89918783400208,42,7,Animal_Sea_Pattern_Small,9,,,,,,,,,,,
encoding,image,63.8993295840919,64.91069695912302,42,7,Animal_Sea_Pattern_Small,9,,,,,,,,,,,
encoding,value,64.9108142501209,70.92292137513869,42,7,Animal_Sea_Pattern_Small,9,,,,,,,,,,,
encoding,attention,70.92302650003694,73.93981645908207,42,7,Animal_Sea_Pattern_Small,9,+9,1,2.8268851249013096,,,,,,,,
n-back,,,,181,7,,,,0,None,V,True,None,,,,,
n-back,,,,182,7,,,,1,None,N,False,None,,,,,
n-back,,,,183,7,,,,1,None,Z,False,None,,,,,
n-back,,,,184,7,,,,1,None,X,False,None,,,,,
n-back,,,,185,7,,,,1,None,N,False,None,,,,,
n-back,,,,186,7,,,,1,None,N,False,None,,,,,
n-back,,,,187,7,,,,1,None,X,False,None,,,,,
n-back,,,,188,7,,,,1,None,C,False,None,,,,,
n-back,,,,189,7,,,,1,None,N,False,None,,,,,
n-back,,,,190,7,,,,1,None,X,False,None,,,,,
n-back,,,,191,7,,,,1,None,B,False,None,,,,,
n-back,,,,192,7,,,,1,0.45396904088556767,X,True,1,,,,,
n-back,,,,193,7,,,,1,None,X,False,None,,,,,
n-back,,,,194,7,,,,1,0.547903582919389,X,True,1,,,,,
n-back,,,,195,7,,,,1,None,N,False,None,,,,,
n-back,,,,196,7,,,,1,None,B,False,None,,,,,
n-back,,,,197,7,,,,1,0.3395811249502003,N,True,1,,,,,
n-back,,,,198,7,,,,1,None,V,False,None,,,,,
n-back,,,,199,7,,,,1,0.4435155410319567,N,True,1,,,,,
n-back,,,,200,7,,,,1,None,N,False,None,,,,,
n-back,,,,201,7,,,,1,None,Z,False,None,,,,,
n-back,,,,202,7,,,,1,None,Z,False,None,,,,,
n-back,,,,203,7,,,,1,None,N,False,None,,,,,
n-back,,,,204,7,,,,1,0.6252770000137389,Z,True,1,,,,,
n-back,,,,205,7,,,,1,0.9339802500326186,N,True,1,,,,,
n-back,,,,206,7,,,,1,0.8340242919512093,Z,True,1,,,,,
n-back,,,,207,7,,,,1,None,B,False,None,,,,,
n-back,,,,208,7,,,,1,0.6191345828119665,Z,True,1,,,,,
n-back,,,,209,7,,,,1,0.9247377088759094,B,True,1,,,,,
n-back,,,,210,7,,,,1,None,N,False,None,,,,,
choice,fixation,147.5248012500815,148.52834441699088,49,7,,,,,,,,,Object,,,,
choice,option,148.53712779213674,149.5662190420553,49,7,,,,,,,,,Object,,,,
choice,choice,149.56637670914643,174.79437416698784,49,7,,,1,1,24.21643029106781,,,,Object,,,,
choice,fixation,174.79451475013047,176.29941795906052,50,7,,,,,,,,,Pattern,,,,
choice,option,176.3092084999662,177.33716483414173,50,7,,,,,,,,,Pattern,,,,
choice,choice,177.33727083401754,186.27282912516966,50,7,,,1,1,7.9245004581753165,,,,Pattern,,,,
choice,fixation,186.27297316701151,187.77798779215664,51,7,,,,,,,,,Land,,,,
choice,option,187.7867985421326,188.81484375009313,51,7,,,,,,,,,Land,,,,
choice,choice,188.81494395900518,196.3211000841111,51,7,,,1,1,6.495992250042036,,,,Land,,,,
choice,fixation,196.3212589591276,197.5777503340505,52,7,,,,,,,,,Sea,,,,
choice,option,197.58745474996977,198.61441008397378,52,7,,,,,,,,,Sea,,,,
choice,choice,198.6145279170014,205.1532467501238,52,7,,,2,0,5.5287299999035895,,,,Sea,,,,
choice,fixation,205.1533773750998,206.41026079212315,53,7,,,,,,,,,Large,,,,
choice,option,206.50226350012235,207.53310537501238,53,7,,,,,,,,,Large,,,,
choice,choice,207.53323608404025,216.5134270421695,53,7,,,1,1,7.970217917114496,,,,Large,,,,
choice,fixation,216.51355833397247,217.51894824998453,54,7,,,,,,,,,Small,,,,
choice,option,217.52803450007923,218.55368400015868,54,7,,,,,,,,,Small,,,,
choice,choice,218.5538122500293,223.7995016251225,54,7,,,2,0,4.236487874994054,,,,Small,,,,
choice,fixation,223.79961804207414,224.80456658406183,55,7,,,,,,,,,Solid,,,,
choice,option,224.81387012498453,225.84084645914845,55,7,,,,,,,,,Solid,,,,
choice,choice,225.84096625004895,241.95376450009644,55,7,,,1,0,15.10181862511672,,,,Solid,,,,
choice,fixation,241.953890417004,243.46024270914495,56,7,,,,,,,,,Animal,,,,
choice,option,243.4696044169832,244.49739591707475,56,7,,,,,,,,,Animal,,,,
choice,choice,244.49751654197462,249.02413408411667,56,7,,,1,1,3.516985540976748,,,,Animal,,,,
memory,free_recall,257.314321000129,274.17181720910594,36,7,,,,,,,,,,,,,
memory,value_recall,281.2049163749907,285.9542870000005,37,7,Animal_Sea_Pattern_Small,,,,4.745219541946426,,,,,9,,,
memory,value_recall,287.50116283399984,289.5628745420836,38,7,Object_Land_Pattern_Large,,,,2.0572601668536663,,,,,5,,,
memory,value_recall,291.1114417500794,297.3961729169823,39,7,Object_Sea_Solid_Large,,,,6.280857915990055,,,,,-7,,,
memory,value_recall,298.69335533399135,301.3959349170327,40,7,Animal_Sea_Solid_Small,,,,2.6985431250650436,,,,,-1,,,
memory,value_recall,302.69327195896767,304.9961727501359,41,7,Animal_Land_Pattern_Small,,,,2.298582584131509,,,,,-4,,,
memory,value_recall,306.29282833402976,308.85064766719006,42,7,Object_Land_Solid_Large,,,,2.553075792035088,,,,,7,,,
memory,spatial_recall,312.8874253341928,315.60190766700543,42,7,Animal_Sea_Pattern_Small,,,1,2.7096253749914467,,,,,,"[329, 189]","[329, 189]",
memory,spatial_recall,317.1723603750579,319.5861413341481,42,7,Object_Land_Pattern_Large,,,1,2.4096707080025226,,,,,,"[-329, 190]","[-329, 190]",
memory,spatial_recall,321.6468306251336,324.0144297920633,42,7,Animal_Land_Pattern_Small,,,1,2.3636248749680817,,,,,,"[0, -380]","[0, -380]",
memory,spatial_recall,326.07698158407584,328.3835193749983,42,7,Object_Sea_Solid_Large,,,1,2.3024090419057757,,,,,,"[0, 380]","[0, 380]",
memory,spatial_recall,329.69303825008683,331.8486369170714,42,7,Object_Land_Solid_Large,,,1,2.151896750088781,,,,,,"[-329, -190]","[-329, -190]",
memory,spatial_recall,333.9061104590073,335.9343809999991,42,7,Animal_Sea_Solid_Small,,,1,2.023378500016406,,,,,,"[329, -190]","[329, -190]",
