phase,event,trial_number,eyetracker_onset,eyetracker_offset,fix_start,fix_end,fix_duration_full,fix_duration_bounded,fix_x,fix_y,roi_x,roi_y,roi_content,onset,offset,game,image,outcome,choice,correct,rt,letter,match,response,option,true_value,true_position,recalled_position,Unnamed: 18
encoding,fixation,1,3129722,3130489,3129961.0,3130174.0,214.0,214.0,1916.3,1077.8,1920.0,1080.0,fixation,7.906246958067641,8.672778791049495,1.0,Object_Sea_Solid_Large,2.0,,,,,,,,,,,
encoding,fixation,1,3129722,3130489,3130394.0,3130581.0,188.0,95.0,1909.4,1138.1,1920.0,1080.0,fixation,7.906246958067641,8.672778791049495,1.0,Object_Sea_Solid_Large,2.0,,,,,,,,,,,
encoding,image,1,3130489,3131510,3130605.0,3130629.0,25.0,25.0,1900.6,1154.6,1920.0,700.0,Object_Sea_Solid_Large,8.672906249994412,9.693989291088656,1.0,Object_Sea_Solid_Large,2.0,,,,,,,,,,,
encoding,image,1,3130489,3131510,3130654.0,3130676.0,23.0,23.0,1906.1,1140.0,1920.0,1080.0,fixation,8.672906249994412,9.693989291088656,1.0,Object_Sea_Solid_Large,2.0,,,,,,,,,,,
encoding,image,1,3130489,3131510,3130741.0,3130873.0,133.0,133.0,1929.0,1358.6,1920.0,700.0,Object_Sea_Solid_Large,8.672906249994412,9.693989291088656,1.0,Object_Sea_Solid_Large,2.0,,,,,,,,,,,
encoding,image,1,3130489,3131510,3130885.0,3131717.0,833.0,625.0,1946.8,1394.4,1920.0,700.0,Object_Sea_Solid_Large,8.672906249994412,9.693989291088656,1.0,Object_Sea_Solid_Large,2.0,,,,,,,,,,,
encoding,value,1,3131510,3137527,3131731.0,3131961.0,231.0,231.0,1931.0,1328.5,1920.0,700.0,Object_Sea_Solid_Large,9.694100624881685,15.710513124940915,1.0,Object_Sea_Solid_Large,2.0,,,,,,,,,,,
encoding,value,1,3131510,3137527,3131977.0,3132376.0,400.0,400.0,1941.9,1388.6,1920.0,700.0,Object_Sea_Solid_Large,9.694100624881685,15.710513124940915,1.0,Object_Sea_Solid_Large,2.0,,,,,,,,,,,
encoding,value,1,3131510,3137527,3132394.0,3134578.0,2185.0,2185.0,1927.4,1300.1,1920.0,700.0,Object_Sea_Solid_Large,9.694100624881685,15.710513124940915,1.0,Object_Sea_Solid_Large,2.0,,,,,,,,,,,
encoding,value,1,3131510,3137527,3134610.0,3134745.0,136.0,136.0,1917.7,1340.0,1920.0,700.0,Object_Sea_Solid_Large,9.694100624881685,15.710513124940915,1.0,Object_Sea_Solid_Large,2.0,,,,,,,,,,,
encoding,value,1,3131510,3137527,3134758.0,3134974.0,217.0,217.0,1916.6,1339.2,1920.0,700.0,Object_Sea_Solid_Large,9.694100624881685,15.710513124940915,1.0,Object_Sea_Solid_Large,2.0,,,,,,,,,,,
encoding,value,1,3131510,3137527,3134995.0,3137014.0,2020.0,2020.0,1939.3,1321.5,1920.0,700.0,Object_Sea_Solid_Large,9.694100624881685,15.710513124940915,1.0,Object_Sea_Solid_Large,2.0,,,,,,,,,,,
encoding,value,1,3131510,3137527,3137328.0,3137373.0,46.0,46.0,1934.9,1336.4,1920.0,700.0,Object_Sea_Solid_Large,9.694100624881685,15.710513124940915,1.0,Object_Sea_Solid_Large,2.0,,,,,,,,,,,
encoding,value,1,3131510,3137527,3137395.0,3137862.0,468.0,132.0,1951.6,1371.8,1920.0,700.0,Object_Sea_Solid_Large,9.694100624881685,15.710513124940915,1.0,Object_Sea_Solid_Large,2.0,,,,,,,,,,,
encoding,attention,1,3137527,3140548,3137873.0,3138494.0,622.0,622.0,1907.5,1312.8,1920.0,700.0,Object_Sea_Solid_Large,15.710635290946811,18.731358791003004,1.0,Object_Sea_Solid_Large,2.0,2.0,1.0,0.7063825000077486,,,,,,,,
encoding,attention,1,3137527,3140548,3138649.0,3138699.0,51.0,51.0,1913.1,1483.9,1920.0,700.0,Object_Sea_Solid_Large,15.710635290946811,18.731358791003004,1.0,Object_Sea_Solid_Large,2.0,2.0,1.0,0.7063825000077486,,,,,,,,
encoding,attention,1,3137527,3140548,3138739.0,3139939.0,1201.0,1201.0,1955.3,1387.7,1920.0,700.0,Object_Sea_Solid_Large,15.710635290946811,18.731358791003004,1.0,Object_Sea_Solid_Large,2.0,2.0,1.0,0.7063825000077486,,,,,,,,
encoding,attention,1,3137527,3140548,3139950.0,3140090.0,141.0,141.0,1979.1,1302.9,1920.0,700.0,Object_Sea_Solid_Large,15.710635290946811,18.731358791003004,1.0,Object_Sea_Solid_Large,2.0,2.0,1.0,0.7063825000077486,,,,,,,,
encoding,attention,1,3137527,3140548,3140283.0,3140342.0,60.0,60.0,1973.8,1379.8,1920.0,700.0,Object_Sea_Solid_Large,15.710635290946811,18.731358791003004,1.0,Object_Sea_Solid_Large,2.0,2.0,1.0,0.7063825000077486,,,,,,,,
encoding,fixation,2,3140548,3141054,3140548.0,3140590.0,43.0,43.0,1948.2,1438.1,1920.0,700.0,Object_Sea_Solid_Large,18.731508957920596,19.237011624965817,1.0,Object_Land_Pattern_Large,-2.0,,,,,,,,,,,
encoding,fixation,2,3140548,3141054,3140649.0,3140799.0,151.0,151.0,1962.4,1390.0,1920.0,700.0,Object_Sea_Solid_Large,18.731508957920596,19.237011624965817,1.0,Object_Land_Pattern_Large,-2.0,,,,,,,,,,,
encoding,fixation,2,3140548,3141054,3140843.0,3141255.0,413.0,211.0,1919.0,1095.9,1920.0,1080.0,fixation,18.731508957920596,19.237011624965817,1.0,Object_Land_Pattern_Large,-2.0,,,,,,,,,,,
encoding,image,2,3141054,3142066,3141289.0,3141345.0,57.0,57.0,1615.8,1293.0,1591.0,891.0,Object_Land_Pattern_Large,19.237116750096902,20.24926425004378,1.0,Object_Land_Pattern_Large,-2.0,,,,,,,,,,,
encoding,value,2,3142066,3148080,3142442.0,3142488.0,47.0,47.0,1612.6,1202.8,1591.0,891.0,Object_Land_Pattern_Large,20.24937962507829,26.26359433308244,1.0,Object_Land_Pattern_Large,-2.0,,,,,,,,,,,
encoding,value,2,3142066,3148080,3142532.0,3142626.0,95.0,95.0,1619.9,1192.0,1591.0,891.0,Object_Land_Pattern_Large,20.24937962507829,26.26359433308244,1.0,Object_Land_Pattern_Large,-2.0,,,,,,,,,,,
encoding,value,2,3142066,3148080,3142749.0,3142944.0,196.0,196.0,1615.4,1214.5,1591.0,891.0,Object_Land_Pattern_Large,20.24937962507829,26.26359433308244,1.0,Object_Land_Pattern_Large,-2.0,,,,,,,,,,,
encoding,value,2,3142066,3148080,3143226.0,3143616.0,391.0,391.0,1632.3,1173.8,1591.0,891.0,Object_Land_Pattern_Large,20.24937962507829,26.26359433308244,1.0,Object_Land_Pattern_Large,-2.0,,,,,,,,,,,
encoding,value,2,3142066,3148080,3143887.0,3143986.0,100.0,100.0,1634.0,1160.3,1591.0,891.0,Object_Land_Pattern_Large,20.24937962507829,26.26359433308244,1.0,Object_Land_Pattern_Large,-2.0,,,,,,,,,,,
encoding,value,2,3142066,3148080,3144009.0,3144230.0,222.0,222.0,1626.5,1182.4,1591.0,891.0,Object_Land_Pattern_Large,20.24937962507829,26.26359433308244,1.0,Object_Land_Pattern_Large,-2.0,,,,,,,,,,,
encoding,value,2,3142066,3148080,3144240.0,3144332.0,93.0,93.0,1631.7,1187.8,1591.0,891.0,Object_Land_Pattern_Large,20.24937962507829,26.26359433308244,1.0,Object_Land_Pattern_Large,-2.0,,,,,,,,,,,
encoding,value,2,3142066,3148080,3144347.0,3144467.0,121.0,121.0,1612.0,1264.3,1591.0,891.0,Object_Land_Pattern_Large,20.24937962507829,26.26359433308244,1.0,Object_Land_Pattern_Large,-2.0,,,,,,,,,,,
encoding,value,2,3142066,3148080,3144612.0,3144669.0,58.0,58.0,1616.5,1270.5,1591.0,891.0,Object_Land_Pattern_Large,20.24937962507829,26.26359433308244,1.0,Object_Land_Pattern_Large,-2.0,,,,,,,,,,,
encoding,value,2,3142066,3148080,3144737.0,3145272.0,536.0,536.0,1608.0,1218.0,1591.0,891.0,Object_Land_Pattern_Large,20.24937962507829,26.26359433308244,1.0,Object_Land_Pattern_Large,-2.0,,,,,,,,,,,
encoding,value,2,3142066,3148080,3145330.0,3145468.0,139.0,139.0,1598.2,1270.2,1591.0,891.0,Object_Land_Pattern_Large,20.24937962507829,26.26359433308244,1.0,Object_Land_Pattern_Large,-2.0,,,,,,,,,,,
encoding,value,2,3142066,3148080,3145475.0,3145545.0,71.0,71.0,1590.3,1273.2,1591.0,891.0,Object_Land_Pattern_Large,20.24937962507829,26.26359433308244,1.0,Object_Land_Pattern_Large,-2.0,,,,,,,,,,,
encoding,value,2,3142066,3148080,3145740.0,3145803.0,64.0,64.0,1603.8,1263.0,1591.0,891.0,Object_Land_Pattern_Large,20.24937962507829,26.26359433308244,1.0,Object_Land_Pattern_Large,-2.0,,,,,,,,,,,
encoding,value,2,3142066,3148080,3145861.0,3145951.0,91.0,91.0,1612.8,1254.2,1591.0,891.0,Object_Land_Pattern_Large,20.24937962507829,26.26359433308244,1.0,Object_Land_Pattern_Large,-2.0,,,,,,,,,,,
encoding,value,2,3142066,3148080,3146084.0,3146114.0,31.0,31.0,1625.7,1255.3,1591.0,891.0,Object_Land_Pattern_Large,20.24937962507829,26.26359433308244,1.0,Object_Land_Pattern_Large,-2.0,,,,,,,,,,,
encoding,value,2,3142066,3148080,3146204.0,3146253.0,50.0,50.0,1622.7,1239.3,1591.0,891.0,Object_Land_Pattern_Large,20.24937962507829,26.26359433308244,1.0,Object_Land_Pattern_Large,-2.0,,,,,,,,,,,
encoding,value,2,3142066,3148080,3146261.0,3146505.0,245.0,245.0,1607.3,1269.7,1591.0,891.0,Object_Land_Pattern_Large,20.24937962507829,26.26359433308244,1.0,Object_Land_Pattern_Large,-2.0,,,,,,,,,,,
encoding,value,2,3142066,3148080,3146907.0,3146994.0,88.0,88.0,1607.8,1274.9,1591.0,891.0,Object_Land_Pattern_Large,20.24937962507829,26.26359433308244,1.0,Object_Land_Pattern_Large,-2.0,,,,,,,,,,,
encoding,value,2,3142066,3148080,3147835.0,3147871.0,37.0,37.0,1571.9,1284.5,1591.0,891.0,Object_Land_Pattern_Large,20.24937962507829,26.26359433308244,1.0,Object_Land_Pattern_Large,-2.0,,,,,,,,,,,
encoding,value,2,3142066,3148080,3147921.0,3147986.0,66.0,66.0,1588.1,1279.4,1591.0,891.0,Object_Land_Pattern_Large,20.24937962507829,26.26359433308244,1.0,Object_Land_Pattern_Large,-2.0,,,,,,,,,,,
encoding,value,2,3142066,3148080,3148078.0,3148182.0,105.0,2.0,1591.3,1266.2,1591.0,891.0,Object_Land_Pattern_Large,20.24937962507829,26.26359433308244,1.0,Object_Land_Pattern_Large,-2.0,,,,,,,,,,,
encoding,attention,2,3148081,3151102,3148193.0,3148225.0,33.0,33.0,1610.5,1249.6,1591.0,891.0,Object_Land_Pattern_Large,26.263752749888223,29.28522616601549,1.0,Object_Land_Pattern_Large,-2.0,-2.0,1.0,0.8524090419523418,,,,,,,,
encoding,attention,2,3148081,3151102,3148315.0,3148476.0,162.0,162.0,1609.6,1225.9,1591.0,891.0,Object_Land_Pattern_Large,26.263752749888223,29.28522616601549,1.0,Object_Land_Pattern_Large,-2.0,-2.0,1.0,0.8524090419523418,,,,,,,,
encoding,attention,2,3148081,3151102,3148493.0,3149414.0,922.0,922.0,1612.5,1201.2,1591.0,891.0,Object_Land_Pattern_Large,26.263752749888223,29.28522616601549,1.0,Object_Land_Pattern_Large,-2.0,-2.0,1.0,0.8524090419523418,,,,,,,,
encoding,attention,2,3148081,3151102,3149443.0,3149716.0,274.0,274.0,1605.2,1217.0,1591.0,891.0,Object_Land_Pattern_Large,26.263752749888223,29.28522616601549,1.0,Object_Land_Pattern_Large,-2.0,-2.0,1.0,0.8524090419523418,,,,,,,,
encoding,attention,2,3148081,3151102,3150016.0,3150120.0,105.0,105.0,1610.5,1335.7,1591.0,891.0,Object_Land_Pattern_Large,26.263752749888223,29.28522616601549,1.0,Object_Land_Pattern_Large,-2.0,-2.0,1.0,0.8524090419523418,,,,,,,,
encoding,fixation,3,3151102,3151608,3151348.0,3152004.0,657.0,260.0,1929.3,1076.5,1920.0,1080.0,fixation,29.285382915986705,29.791317415889353,1.0,Animal_Land_Pattern_Small,9.0,,,,,,,,,,,
encoding,image,3,3151608,3152621,3152041.0,3152760.0,720.0,580.0,1900.0,713.2,1920.0,1460.0,Animal_Land_Pattern_Small,29.791428040945902,30.80427529104054,1.0,Animal_Land_Pattern_Small,9.0,,,,,,,,,,,
encoding,value,3,3152621,3158634,3152773.0,3153079.0,307.0,307.0,1909.0,725.7,1920.0,1460.0,Animal_Land_Pattern_Small,30.804403875023127,36.81655683298595,1.0,Animal_Land_Pattern_Small,9.0,,,,,,,,,,,
encoding,value,3,3152621,3158634,3153088.0,3153267.0,180.0,180.0,1915.7,633.2,1920.0,1460.0,Animal_Land_Pattern_Small,30.804403875023127,36.81655683298595,1.0,Animal_Land_Pattern_Small,9.0,,,,,,,,,,,
encoding,value,3,3152621,3158634,3153549.0,3153611.0,63.0,63.0,1914.2,736.0999999999999,1920.0,1460.0,Animal_Land_Pattern_Small,30.804403875023127,36.81655683298595,1.0,Animal_Land_Pattern_Small,9.0,,,,,,,,,,,
encoding,value,3,3152621,3158634,3153815.0,3154034.0,220.0,220.0,1909.9,761.0999999999999,1920.0,1460.0,Animal_Land_Pattern_Small,30.804403875023127,36.81655683298595,1.0,Animal_Land_Pattern_Small,9.0,,,,,,,,,,,
encoding,value,3,3152621,3158634,3154044.0,3154360.0,317.0,317.0,1890.9,830.2,1920.0,1460.0,Animal_Land_Pattern_Small,30.804403875023127,36.81655683298595,1.0,Animal_Land_Pattern_Small,9.0,,,,,,,,,,,
encoding,value,3,3152621,3158634,3154401.0,3154461.0,61.0,61.0,1895.1,826.5999999999999,1920.0,1460.0,Animal_Land_Pattern_Small,30.804403875023127,36.81655683298595,1.0,Animal_Land_Pattern_Small,9.0,,,,,,,,,,,
encoding,value,3,3152621,3158634,3156203.0,3156245.0,43.0,43.0,1899.6,773.3,1920.0,1460.0,Animal_Land_Pattern_Small,30.804403875023127,36.81655683298595,1.0,Animal_Land_Pattern_Small,9.0,,,,,,,,,,,
encoding,attention,3,3158634,3161651,3160574.0,3160768.0,195.0,195.0,1933.2,781.4000000000001,1920.0,1460.0,Animal_Land_Pattern_Small,36.81670104106888,39.83360012504272,1.0,Animal_Land_Pattern_Small,9.0,9.0,1.0,0.609294957946986,,,,,,,,
encoding,attention,3,3158634,3161651,3160806.0,3160877.0,72.0,72.0,1930.0,790.0999999999999,1920.0,1460.0,Animal_Land_Pattern_Small,36.81670104106888,39.83360012504272,1.0,Animal_Land_Pattern_Small,9.0,9.0,1.0,0.609294957946986,,,,,,,,
encoding,attention,3,3158634,3161651,3160901.0,3160942.0,42.0,42.0,1926.4,786.5999999999999,1920.0,1460.0,Animal_Land_Pattern_Small,36.81670104106888,39.83360012504272,1.0,Animal_Land_Pattern_Small,9.0,9.0,1.0,0.609294957946986,,,,,,,,
encoding,attention,3,3158634,3161651,3161067.0,3161089.0,23.0,23.0,1932.1,778.2,1920.0,1460.0,Animal_Land_Pattern_Small,36.81670104106888,39.83360012504272,1.0,Animal_Land_Pattern_Small,9.0,9.0,1.0,0.609294957946986,,,,,,,,
encoding,attention,3,3158634,3161651,3161184.0,3161219.0,36.0,36.0,1931.6,786.9000000000001,1920.0,1460.0,Animal_Land_Pattern_Small,36.81670104106888,39.83360012504272,1.0,Animal_Land_Pattern_Small,9.0,9.0,1.0,0.609294957946986,,,,,,,,
encoding,attention,3,3158634,3161651,3161244.0,3161577.0,334.0,334.0,1898.6,1064.8,1920.0,1080.0,fixation,36.81670104106888,39.83360012504272,1.0,Animal_Land_Pattern_Small,9.0,9.0,1.0,0.609294957946986,,,,,,,,
encoding,fixation,4,3161651,3163156,3161933.0,3162311.0,379.0,379.0,1923.0,1073.6,1920.0,1080.0,fixation,39.83375137508847,41.33859916590154,1.0,Object_Land_Solid_Large,-5.0,,,,,,,,,,,
encoding,fixation,4,3161651,3163156,3162317.0,3163312.0,996.0,839.0,1920.2,1068.5,1920.0,1080.0,fixation,39.83375137508847,41.33859916590154,1.0,Object_Land_Solid_Large,-5.0,,,,,,,,,,,
encoding,image,4,3163156,3164167,3163320.0,3163429.0,110.0,110.0,1922.3,1084.2,1920.0,1080.0,fixation,41.338723374996334,42.3495387500152,1.0,Object_Land_Solid_Large,-5.0,,,,,,,,,,,
encoding,image,4,3163156,3164167,3163491.0,3163531.0,41.0,41.0,1598.7,875.8,1591.0,1269.0,Object_Land_Solid_Large,41.338723374996334,42.3495387500152,1.0,Object_Land_Solid_Large,-5.0,,,,,,,,,,,
encoding,value,4,3164167,3170230,,,,,,,,,none,42.34964220807888,48.41158766602166,1.0,Object_Land_Solid_Large,-5.0,,,,,,,,,,,
encoding,attention,4,3170230,3173246,,,,,,,,,none,48.41177895804867,51.42793504102155,1.0,Object_Land_Solid_Large,-5.0,-5.0,1.0,0.6467159998137504,,,,,,,,
encoding,fixation,5,3173246,3174001,3173516.0,3174223.0,708.0,485.0,1916.1,1087.3,1920.0,1080.0,fixation,51.428078833036125,52.183189125033095,1.0,Animal_Sea_Solid_Small,2.0,,,,,,,,,,,
encoding,image,5,3174001,3175012,3174262.0,3175576.0,1315.0,750.0,2242.5,926.0999999999999,2249.0,1269.0,Animal_Sea_Solid_Small,52.18329095793888,53.19409158290364,1.0,Animal_Sea_Solid_Small,2.0,,,,,,,,,,,
encoding,value,5,3175012,3181025,3175594.0,3176672.0,1079.0,1079.0,2248.8,838.3,2249.0,1269.0,Animal_Sea_Solid_Small,53.194216874893755,59.20624150009826,1.0,Animal_Sea_Solid_Small,2.0,,,,,,,,,,,
encoding,value,5,3175012,3181025,3176683.0,3180362.0,3680.0,3680.0,2244.6,874.3,2249.0,1269.0,Animal_Sea_Solid_Small,53.194216874893755,59.20624150009826,1.0,Animal_Sea_Solid_Small,2.0,,,,,,,,,,,
encoding,value,5,3175012,3181025,3180562.0,3181830.0,1269.0,463.0,2230.1,828.4000000000001,2249.0,1269.0,Animal_Sea_Solid_Small,53.194216874893755,59.20624150009826,1.0,Animal_Sea_Solid_Small,2.0,,,,,,,,,,,
encoding,attention,5,3181025,3184043,3182102.0,3182740.0,639.0,639.0,2227.1,823.5999999999999,2249.0,1269.0,Animal_Sea_Solid_Small,59.206359833013266,62.22474595811218,1.0,Animal_Sea_Solid_Small,2.0,2.0,1.0,0.5110167081002146,,,,,,,,
encoding,attention,5,3181025,3184043,3182799.0,3183054.0,256.0,256.0,2216.4,790.2,2249.0,1269.0,Animal_Sea_Solid_Small,59.206359833013266,62.22474595811218,1.0,Animal_Sea_Solid_Small,2.0,2.0,1.0,0.5110167081002146,,,,,,,,
encoding,attention,5,3181025,3184043,3183064.0,3183804.0,741.0,741.0,2220.6,782.9000000000001,2249.0,1269.0,Animal_Sea_Solid_Small,59.206359833013266,62.22474595811218,1.0,Animal_Sea_Solid_Small,2.0,2.0,1.0,0.5110167081002146,,,,,,,,
encoding,attention,5,3181025,3184043,3183827.0,3184001.0,175.0,175.0,2218.1,762.3,2249.0,1269.0,Animal_Sea_Solid_Small,59.206359833013266,62.22474595811218,1.0,Animal_Sea_Solid_Small,2.0,2.0,1.0,0.5110167081002146,,,,,,,,
encoding,fixation,6,3184043,3185049,3184168.0,3184250.0,83.0,83.0,2224.1,753.2,2249.0,1269.0,Animal_Sea_Solid_Small,62.22490737494081,63.23021104093641,1.0,Animal_Sea_Pattern_Small,-9.0,,,,,,,,,,,
encoding,image,6,3185049,3186060,3185123.0,3185274.0,152.0,152.0,1926.4,1076.6,1920.0,1080.0,fixation,63.23034608294256,64.2417628748808,1.0,Animal_Sea_Pattern_Small,-9.0,,,,,,,,,,,
encoding,image,6,3185049,3186060,3185314.0,3185489.0,176.0,176.0,2260.1,1279.3,2249.0,891.0,Animal_Sea_Pattern_Small,63.23034608294256,64.2417628748808,1.0,Animal_Sea_Pattern_Small,-9.0,,,,,,,,,,,
encoding,image,6,3185049,3186060,3185680.0,3187197.0,1518.0,380.0,2295.9,1238.0,2249.0,891.0,Animal_Sea_Pattern_Small,63.23034608294256,64.2417628748808,1.0,Animal_Sea_Pattern_Small,-9.0,,,,,,,,,,,
encoding,value,6,3186060,3192073,3187387.0,3188154.0,768.0,768.0,2290.3,1239.0,2249.0,891.0,Animal_Sea_Pattern_Small,64.24188979109749,70.25458512501791,1.0,Animal_Sea_Pattern_Small,-9.0,,,,,,,,,,,
encoding,value,6,3186060,3192073,3188168.0,3189042.0,875.0,875.0,2261.9,1136.3,2249.0,891.0,Animal_Sea_Pattern_Small,64.24188979109749,70.25458512501791,1.0,Animal_Sea_Pattern_Small,-9.0,,,,,,,,,,,
encoding,value,6,3186060,3192073,3189057.0,3190092.0,1036.0,1036.0,2272.0,1182.2,2249.0,891.0,Animal_Sea_Pattern_Small,64.24188979109749,70.25458512501791,1.0,Animal_Sea_Pattern_Small,-9.0,,,,,,,,,,,
encoding,value,6,3186060,3192073,3190105.0,3192463.0,2359.0,1968.0,2270.6,1187.8,2249.0,891.0,Animal_Sea_Pattern_Small,64.24188979109749,70.25458512501791,1.0,Animal_Sea_Pattern_Small,-9.0,,,,,,,,,,,
encoding,attention,6,3192074,3195091,3192639.0,3193067.0,429.0,429.0,2231.7,1229.0,2249.0,891.0,Animal_Sea_Pattern_Small,70.25469304108992,73.27239683293737,1.0,Animal_Sea_Pattern_Small,-9.0,-9.0,1.0,0.7210541248787194,,,,,,,,
encoding,attention,6,3192074,3195091,3193126.0,3193221.0,96.0,96.0,2208.1,1190.8,2249.0,891.0,Animal_Sea_Pattern_Small,70.25469304108992,73.27239683293737,1.0,Animal_Sea_Pattern_Small,-9.0,-9.0,1.0,0.7210541248787194,,,,,,,,
encoding,attention,6,3192074,3195091,3193416.0,3194332.0,917.0,917.0,2273.5,1263.3,2249.0,891.0,Animal_Sea_Pattern_Small,70.25469304108992,73.27239683293737,1.0,Animal_Sea_Pattern_Small,-9.0,-9.0,1.0,0.7210541248787194,,,,,,,,
encoding,attention,6,3192074,3195091,3194361.0,3195064.0,704.0,704.0,2192.5,1181.2,2249.0,891.0,Animal_Sea_Pattern_Small,70.25469304108992,73.27239683293737,1.0,Animal_Sea_Pattern_Small,-9.0,-9.0,1.0,0.7210541248787194,,,,,,,,
encoding,fixation,7,3571567,3572823,3571783.0,3573036.0,1254.0,1040.0,1898.7,1080.8,1920.0,1080.0,fixation,6.892855333862826,8.14905408397317,2.0,Animal_Sea_Pattern_Small,-8.0,,,,,,,,,,,
encoding,image,7,3572823,3573835,3573073.0,3573271.0,199.0,199.0,2198.9,1245.5,2249.0,891.0,Animal_Sea_Pattern_Small,8.149163374910131,9.161488958867269,2.0,Animal_Sea_Pattern_Small,-8.0,,,,,,,,,,,
encoding,image,7,3572823,3573835,3573280.0,3574045.0,766.0,555.0,2267.8,1237.0,2249.0,891.0,Animal_Sea_Pattern_Small,8.149163374910131,9.161488958867269,2.0,Animal_Sea_Pattern_Small,-8.0,,,,,,,,,,,
encoding,value,7,3573836,3579850,3574059.0,3574293.0,235.0,235.0,2243.4,1167.9,2249.0,891.0,Animal_Sea_Pattern_Small,9.161591499811038,15.17554079182446,2.0,Animal_Sea_Pattern_Small,-8.0,,,,,,,,,,,
encoding,value,7,3573836,3579850,3574307.0,3580217.0,5911.0,5543.0,2279.6,1231.5,2249.0,891.0,Animal_Sea_Pattern_Small,9.161591499811038,15.17554079182446,2.0,Animal_Sea_Pattern_Small,-8.0,,,,,,,,,,,
encoding,attention,7,3579850,3582869,3580234.0,3580789.0,556.0,556.0,2193.7,1168.7,2249.0,891.0,Animal_Sea_Pattern_Small,15.175650708843024,18.194720417028293,2.0,Animal_Sea_Pattern_Small,-8.0,-8.0,1.0,0.7035109170246869,,,,,,,,
encoding,attention,7,3579850,3582869,3580984.0,3581134.0,151.0,151.0,2252.0,1209.9,2249.0,891.0,Animal_Sea_Pattern_Small,15.175650708843024,18.194720417028293,2.0,Animal_Sea_Pattern_Small,-8.0,-8.0,1.0,0.7035109170246869,,,,,,,,
encoding,attention,7,3579850,3582869,3581151.0,3581177.0,27.0,27.0,2252.8,1218.3,2249.0,891.0,Animal_Sea_Pattern_Small,15.175650708843024,18.194720417028293,2.0,Animal_Sea_Pattern_Small,-8.0,-8.0,1.0,0.7035109170246869,,,,,,,,
encoding,attention,7,3579850,3582869,3581191.0,3581212.0,22.0,22.0,2256.8,1247.5,2249.0,891.0,Animal_Sea_Pattern_Small,15.175650708843024,18.194720417028293,2.0,Animal_Sea_Pattern_Small,-8.0,-8.0,1.0,0.7035109170246869,,,,,,,,
encoding,fixation,8,3582869,3583625,3583141.0,3583839.0,699.0,484.0,1924.8,1072.5,1920.0,1080.0,fixation,18.194885999895632,18.95052383397706,2.0,Animal_Land_Pattern_Large,9.0,,,,,,,,,,,
encoding,image,8,3583625,3584636,3583875.0,3584546.0,672.0,672.0,2201.3,901.0999999999999,2249.0,1269.0,Animal_Land_Pattern_Large,18.950634291861206,19.961272208951417,2.0,Animal_Land_Pattern_Large,9.0,,,,,,,,,,,
encoding,image,8,3583625,3584636,3584561.0,3585128.0,568.0,75.0,2236.7,816.8,2249.0,1269.0,Animal_Land_Pattern_Large,18.950634291861206,19.961272208951417,2.0,Animal_Land_Pattern_Large,9.0,,,,,,,,,,,
encoding,value,8,3584636,3590648,3585153.0,3586126.0,974.0,974.0,2190.8,902.8,2249.0,1269.0,Animal_Land_Pattern_Large,19.961370666977015,25.973307333886623,2.0,Animal_Land_Pattern_Large,9.0,,,,,,,,,,,
encoding,value,8,3584636,3590648,3586164.0,3586188.0,25.0,25.0,2173.8,903.2,2249.0,1269.0,Animal_Land_Pattern_Large,19.961370666977015,25.973307333886623,2.0,Animal_Land_Pattern_Large,9.0,,,,,,,,,,,
encoding,value,8,3584636,3590648,3586204.0,3586243.0,40.0,40.0,2168.1,930.0999999999999,2249.0,1269.0,Animal_Land_Pattern_Large,19.961370666977015,25.973307333886623,2.0,Animal_Land_Pattern_Large,9.0,,,,,,,,,,,
encoding,value,8,3584636,3590648,3586479.0,3586508.0,30.0,30.0,2177.8,1068.3,2249.0,1269.0,Animal_Land_Pattern_Large,19.961370666977015,25.973307333886623,2.0,Animal_Land_Pattern_Large,9.0,,,,,,,,,,,
encoding,value,8,3584636,3590648,3586520.0,3586545.0,26.0,26.0,2179.0,1054.4,2249.0,1269.0,Animal_Land_Pattern_Large,19.961370666977015,25.973307333886623,2.0,Animal_Land_Pattern_Large,9.0,,,,,,,,,,,
encoding,value,8,3584636,3590648,3586716.0,3586758.0,43.0,43.0,2192.0,1050.4,2249.0,1269.0,Animal_Land_Pattern_Large,19.961370666977015,25.973307333886623,2.0,Animal_Land_Pattern_Large,9.0,,,,,,,,,,,
encoding,value,8,3584636,3590648,3586845.0,3587102.0,258.0,258.0,2200.3,947.0,2249.0,1269.0,Animal_Land_Pattern_Large,19.961370666977015,25.973307333886623,2.0,Animal_Land_Pattern_Large,9.0,,,,,,,,,,,
encoding,value,8,3584636,3590648,3587140.0,3587165.0,26.0,26.0,2179.7,959.5999999999999,2249.0,1269.0,Animal_Land_Pattern_Large,19.961370666977015,25.973307333886623,2.0,Animal_Land_Pattern_Large,9.0,,,,,,,,,,,
encoding,value,8,3584636,3590648,3587180.0,3587428.0,249.0,249.0,2174.8,958.9000000000001,2249.0,1269.0,Animal_Land_Pattern_Large,19.961370666977015,25.973307333886623,2.0,Animal_Land_Pattern_Large,9.0,,,,,,,,,,,
encoding,value,8,3584636,3590648,3587511.0,3587536.0,26.0,26.0,2165.7,968.9000000000001,2249.0,1269.0,Animal_Land_Pattern_Large,19.961370666977015,25.973307333886623,2.0,Animal_Land_Pattern_Large,9.0,,,,,,,,,,,
encoding,value,8,3584636,3590648,3587877.0,3587921.0,45.0,45.0,2193.6,955.8,2249.0,1269.0,Animal_Land_Pattern_Large,19.961370666977015,25.973307333886623,2.0,Animal_Land_Pattern_Large,9.0,,,,,,,,,,,
encoding,value,8,3584636,3590648,3587994.0,3587997.0,4.0,4.0,2195.4,950.8,2249.0,1269.0,Animal_Land_Pattern_Large,19.961370666977015,25.973307333886623,2.0,Animal_Land_Pattern_Large,9.0,,,,,,,,,,,
encoding,value,8,3584636,3590648,3588093.0,3588215.0,123.0,123.0,2196.6,960.4000000000001,2249.0,1269.0,Animal_Land_Pattern_Large,19.961370666977015,25.973307333886623,2.0,Animal_Land_Pattern_Large,9.0,,,,,,,,,,,
encoding,value,8,3584636,3590648,3588377.0,3588409.0,33.0,33.0,2210.2,948.5999999999999,2249.0,1269.0,Animal_Land_Pattern_Large,19.961370666977015,25.973307333886623,2.0,Animal_Land_Pattern_Large,9.0,,,,,,,,,,,
encoding,value,8,3584636,3590648,3588508.0,3588567.0,60.0,60.0,2210.7,960.7,2249.0,1269.0,Animal_Land_Pattern_Large,19.961370666977015,25.973307333886623,2.0,Animal_Land_Pattern_Large,9.0,,,,,,,,,,,
encoding,value,8,3584636,3590648,3588626.0,3588654.0,29.0,29.0,2210.1,954.2,2249.0,1269.0,Animal_Land_Pattern_Large,19.961370666977015,25.973307333886623,2.0,Animal_Land_Pattern_Large,9.0,,,,,,,,,,,
encoding,value,8,3584636,3590648,3588718.0,3589346.0,629.0,629.0,2210.0,952.0999999999999,2249.0,1269.0,Animal_Land_Pattern_Large,19.961370666977015,25.973307333886623,2.0,Animal_Land_Pattern_Large,9.0,,,,,,,,,,,
encoding,value,8,3584636,3590648,3589403.0,3589673.0,271.0,271.0,2203.5,952.0,2249.0,1269.0,Animal_Land_Pattern_Large,19.961370666977015,25.973307333886623,2.0,Animal_Land_Pattern_Large,9.0,,,,,,,,,,,
encoding,value,8,3584636,3590648,3589681.0,3589875.0,195.0,195.0,2206.9,948.2,2249.0,1269.0,Animal_Land_Pattern_Large,19.961370666977015,25.973307333886623,2.0,Animal_Land_Pattern_Large,9.0,,,,,,,,,,,
encoding,value,8,3584636,3590648,3589970.0,3589996.0,27.0,27.0,2201.5,941.4000000000001,2249.0,1269.0,Animal_Land_Pattern_Large,19.961370666977015,25.973307333886623,2.0,Animal_Land_Pattern_Large,9.0,,,,,,,,,,,
encoding,value,8,3584636,3590648,3590090.0,3590502.0,413.0,413.0,2208.2,937.0,2249.0,1269.0,Animal_Land_Pattern_Large,19.961370666977015,25.973307333886623,2.0,Animal_Land_Pattern_Large,9.0,,,,,,,,,,,
encoding,value,8,3584636,3590648,3590550.0,3590598.0,49.0,49.0,2204.4,953.8,2249.0,1269.0,Animal_Land_Pattern_Large,19.961370666977015,25.973307333886623,2.0,Animal_Land_Pattern_Large,9.0,,,,,,,,,,,
encoding,value,8,3584636,3590648,3590619.0,3590736.0,118.0,29.0,2205.1,946.0,2249.0,1269.0,Animal_Land_Pattern_Large,19.961370666977015,25.973307333886623,2.0,Animal_Land_Pattern_Large,9.0,,,,,,,,,,,
encoding,attention,8,3590648,3593666,3590804.0,3590951.0,148.0,148.0,2207.7,942.3,2249.0,1269.0,Animal_Land_Pattern_Large,25.973416124936193,28.991254166932777,2.0,Animal_Land_Pattern_Large,9.0,9.0,1.0,0.9857765000779182,,,,,,,,
encoding,attention,8,3590648,3593666,3591035.0,3591105.0,71.0,71.0,2208.7,942.0999999999999,2249.0,1269.0,Animal_Land_Pattern_Large,25.973416124936193,28.991254166932777,2.0,Animal_Land_Pattern_Large,9.0,9.0,1.0,0.9857765000779182,,,,,,,,
encoding,attention,8,3590648,3593666,3591127.0,3591878.0,752.0,752.0,2175.3,830.8,2249.0,1269.0,Animal_Land_Pattern_Large,25.973416124936193,28.991254166932777,2.0,Animal_Land_Pattern_Large,9.0,9.0,1.0,0.9857765000779182,,,,,,,,
encoding,attention,8,3590648,3593666,3592074.0,3592497.0,424.0,424.0,2178.4,951.5,2249.0,1269.0,Animal_Land_Pattern_Large,25.973416124936193,28.991254166932777,2.0,Animal_Land_Pattern_Large,9.0,9.0,1.0,0.9857765000779182,,,,,,,,
encoding,attention,8,3590648,3593666,3592537.0,3592731.0,195.0,195.0,2177.4,938.7,2249.0,1269.0,Animal_Land_Pattern_Large,25.973416124936193,28.991254166932777,2.0,Animal_Land_Pattern_Large,9.0,9.0,1.0,0.9857765000779182,,,,,,,,
encoding,attention,8,3590648,3593666,3592742.0,3592775.0,34.0,34.0,2182.3,899.5999999999999,2249.0,1269.0,Animal_Land_Pattern_Large,25.973416124936193,28.991254166932777,2.0,Animal_Land_Pattern_Large,9.0,9.0,1.0,0.9857765000779182,,,,,,,,
encoding,attention,8,3590648,3593666,3592788.0,3593137.0,350.0,350.0,2212.8,884.4000000000001,2249.0,1269.0,Animal_Land_Pattern_Large,25.973416124936193,28.991254166932777,2.0,Animal_Land_Pattern_Large,9.0,9.0,1.0,0.9857765000779182,,,,,,,,
encoding,attention,8,3590648,3593666,3593257.0,3593410.0,154.0,154.0,2179.4,912.7,2249.0,1269.0,Animal_Land_Pattern_Large,25.973416124936193,28.991254166932777,2.0,Animal_Land_Pattern_Large,9.0,9.0,1.0,0.9857765000779182,,,,,,,,
encoding,fixation,9,3593666,3595175,3593693.0,3593716.0,24.0,24.0,2169.8,941.0,2249.0,1269.0,Animal_Land_Pattern_Large,28.991429792018607,30.499842333840206,2.0,Animal_Sea_Solid_Large,7.0,,,,,,,,,,,
encoding,fixation,9,3593666,3595175,3593837.0,3593840.0,4.0,4.0,2169.9,918.4000000000001,2249.0,1269.0,Animal_Land_Pattern_Large,28.991429792018607,30.499842333840206,2.0,Animal_Sea_Solid_Large,7.0,,,,,,,,,,,
encoding,fixation,9,3593666,3595175,3593923.0,3593996.0,74.0,74.0,1930.3,1115.8,1920.0,1080.0,fixation,28.991429792018607,30.499842333840206,2.0,Animal_Sea_Solid_Large,7.0,,,,,,,,,,,
encoding,fixation,9,3593666,3595175,3594018.0,3594452.0,435.0,435.0,1915.9,1122.0,1920.0,1080.0,fixation,28.991429792018607,30.499842333840206,2.0,Animal_Sea_Solid_Large,7.0,,,,,,,,,,,
encoding,fixation,9,3593666,3595175,3594470.0,3594495.0,26.0,26.0,1908.6,1137.9,1920.0,1080.0,fixation,28.991429792018607,30.499842333840206,2.0,Animal_Sea_Solid_Large,7.0,,,,,,,,,,,
encoding,fixation,9,3593666,3595175,3594542.0,3594578.0,37.0,37.0,1911.9,1123.1,1920.0,1080.0,fixation,28.991429792018607,30.499842333840206,2.0,Animal_Sea_Solid_Large,7.0,,,,,,,,,,,
encoding,fixation,9,3593666,3595175,3594674.0,3594702.0,29.0,29.0,1913.3,1129.4,1920.0,1080.0,fixation,28.991429792018607,30.499842333840206,2.0,Animal_Sea_Solid_Large,7.0,,,,,,,,,,,
encoding,fixation,9,3593666,3595175,3594723.0,3594903.0,181.0,181.0,1908.6,1141.4,1920.0,1080.0,fixation,28.991429792018607,30.499842333840206,2.0,Animal_Sea_Solid_Large,7.0,,,,,,,,,,,
encoding,fixation,9,3593666,3595175,3594975.0,3595027.0,53.0,53.0,1907.9,1142.4,1920.0,1080.0,fixation,28.991429792018607,30.499842333840206,2.0,Animal_Sea_Solid_Large,7.0,,,,,,,,,,,
encoding,fixation,9,3593666,3595175,3595104.0,3595140.0,37.0,37.0,1906.8,1147.1,1920.0,1080.0,fixation,28.991429792018607,30.499842333840206,2.0,Animal_Sea_Solid_Large,7.0,,,,,,,,,,,
encoding,image,9,3595175,3596187,3595235.0,3595313.0,79.0,79.0,1901.6,1148.4,1920.0,700.0,Object_Sea_Solid_Small,30.499943249858916,31.51157999993302,2.0,Animal_Sea_Solid_Large,7.0,,,,,,,,,,,
encoding,image,9,3595175,3596187,3595323.0,3595424.0,102.0,102.0,1897.9,1150.6,1920.0,700.0,Object_Sea_Solid_Small,30.499943249858916,31.51157999993302,2.0,Animal_Sea_Solid_Large,7.0,,,,,,,,,,,
encoding,image,9,3595175,3596187,3595551.0,3595581.0,31.0,31.0,1872.4,801.3,1920.0,1460.0,Animal_Sea_Solid_Large,30.499943249858916,31.51157999993302,2.0,Animal_Sea_Solid_Large,7.0,,,,,,,,,,,
encoding,image,9,3595175,3596187,3595648.0,3595687.0,40.0,40.0,1891.3,794.4000000000001,1920.0,1460.0,Animal_Sea_Solid_Large,30.499943249858916,31.51157999993302,2.0,Animal_Sea_Solid_Large,7.0,,,,,,,,,,,
encoding,image,9,3595175,3596187,3595727.0,3595912.0,186.0,186.0,1893.7,789.2,1920.0,1460.0,Animal_Sea_Solid_Large,30.499943249858916,31.51157999993302,2.0,Animal_Sea_Solid_Large,7.0,,,,,,,,,,,
encoding,image,9,3595175,3596187,3595924.0,3595976.0,53.0,53.0,1897.3,786.9000000000001,1920.0,1460.0,Animal_Sea_Solid_Large,30.499943249858916,31.51157999993302,2.0,Animal_Sea_Solid_Large,7.0,,,,,,,,,,,
encoding,image,9,3595175,3596187,3595989.0,3596113.0,125.0,125.0,1903.3,792.0,1920.0,1460.0,Animal_Sea_Solid_Large,30.499943249858916,31.51157999993302,2.0,Animal_Sea_Solid_Large,7.0,,,,,,,,,,,
encoding,image,9,3595175,3596187,3596145.0,3596254.0,110.0,42.0,1900.6,788.0,1920.0,1460.0,Animal_Sea_Solid_Large,30.499943249858916,31.51157999993302,2.0,Animal_Sea_Solid_Large,7.0,,,,,,,,,,,
encoding,value,9,3596187,3602200,3597486.0,3597525.0,40.0,40.0,1908.3,720.5999999999999,1920.0,1460.0,Animal_Sea_Solid_Large,31.511692374944687,37.524567333981395,2.0,Animal_Sea_Solid_Large,7.0,,,,,,,,,,,
encoding,value,9,3596187,3602200,3597531.0,3597575.0,45.0,45.0,1909.5,722.4000000000001,1920.0,1460.0,Animal_Sea_Solid_Large,31.511692374944687,37.524567333981395,2.0,Animal_Sea_Solid_Large,7.0,,,,,,,,,,,
encoding,value,9,3596187,3602200,3597614.0,3597651.0,38.0,38.0,1907.1,730.0,1920.0,1460.0,Animal_Sea_Solid_Large,31.511692374944687,37.524567333981395,2.0,Animal_Sea_Solid_Large,7.0,,,,,,,,,,,
encoding,value,9,3596187,3602200,3597672.0,3597697.0,26.0,26.0,1912.9,729.2,1920.0,1460.0,Animal_Sea_Solid_Large,31.511692374944687,37.524567333981395,2.0,Animal_Sea_Solid_Large,7.0,,,,,,,,,,,
encoding,value,9,3596187,3602200,3598006.0,3598033.0,28.0,28.0,1916.0,738.4000000000001,1920.0,1460.0,Animal_Sea_Solid_Large,31.511692374944687,37.524567333981395,2.0,Animal_Sea_Solid_Large,7.0,,,,,,,,,,,
encoding,attention,9,3602200,3605218,,,,,,,,,none,37.524749874835834,40.5430661670398,2.0,Animal_Sea_Solid_Large,7.0,7.0,1.0,0.7247170419432223,,,,,,,,
encoding,fixation,10,3605219,3606224,3605519.0,3606487.0,969.0,705.0,1918.6,1105.7,1920.0,1080.0,fixation,40.54330208385363,41.54876491683535,2.0,Object_Sea_Solid_Small,8.0,,,,,,,,,,,
encoding,image,10,3606224,3607235,3606567.0,3607059.0,493.0,493.0,1943.0,1430.2,1920.0,700.0,Object_Sea_Solid_Small,41.54887758381665,42.55943795898929,2.0,Object_Sea_Solid_Small,8.0,,,,,,,,,,,
encoding,value,10,3607235,3613246,3607274.0,3607353.0,80.0,80.0,1950.1,1407.0,1920.0,700.0,Object_Sea_Solid_Small,42.55955712497234,48.570458916947246,2.0,Object_Sea_Solid_Small,8.0,,,,,,,,,,,
encoding,value,10,3607235,3613246,3610332.0,3610373.0,42.0,42.0,1939.9,1434.4,1920.0,700.0,Object_Sea_Solid_Small,42.55955712497234,48.570458916947246,2.0,Object_Sea_Solid_Small,8.0,,,,,,,,,,,
encoding,attention,10,3613246,3616263,3613925.0,3613957.0,33.0,33.0,1888.7,1481.4,1920.0,700.0,Object_Sea_Solid_Small,48.57056437502615,51.58701320900582,2.0,Object_Sea_Solid_Small,8.0,8.0,1.0,0.95777045795694,,,,,,,,
encoding,attention,10,3613246,3616263,3614668.0,3615008.0,341.0,341.0,1930.1,1477.7,1920.0,700.0,Object_Sea_Solid_Small,48.57056437502615,51.58701320900582,2.0,Object_Sea_Solid_Small,8.0,8.0,1.0,0.95777045795694,,,,,,,,
encoding,attention,10,3613246,3616263,3615033.0,3615661.0,629.0,629.0,1904.0,1293.8,1920.0,700.0,Object_Sea_Solid_Small,48.57056437502615,51.58701320900582,2.0,Object_Sea_Solid_Small,8.0,8.0,1.0,0.95777045795694,,,,,,,,
encoding,attention,10,3613246,3616263,3615746.0,3615776.0,31.0,31.0,1924.9,1479.1,1920.0,700.0,Object_Sea_Solid_Small,48.57056437502615,51.58701320900582,2.0,Object_Sea_Solid_Small,8.0,8.0,1.0,0.95777045795694,,,,,,,,
encoding,fixation,11,3616263,3617768,3616536.0,3616726.0,191.0,191.0,1899.3,1054.8,1920.0,1080.0,fixation,51.587159749818966,53.09173641703091,2.0,Object_Land_Pattern_Large,-2.0,,,,,,,,,,,
encoding,fixation,11,3616263,3617768,3616780.0,3616845.0,66.0,66.0,1896.4,1052.9,1920.0,1080.0,fixation,51.587159749818966,53.09173641703091,2.0,Object_Land_Pattern_Large,-2.0,,,,,,,,,,,
encoding,fixation,11,3616263,3617768,3616867.0,3617843.0,977.0,901.0,1890.2,1025.5,1920.0,1080.0,fixation,51.587159749818966,53.09173641703091,2.0,Object_Land_Pattern_Large,-2.0,,,,,,,,,,,
encoding,image,11,3617768,3618780,3618557.0,3619012.0,456.0,223.0,1584.9,1104.1,1591.0,891.0,Object_Land_Pattern_Large,53.0918856668286,54.10363958403468,2.0,Object_Land_Pattern_Large,-2.0,,,,,,,,,,,
encoding,value,11,3618780,3624792,3619030.0,3619206.0,177.0,177.0,1597.9,1100.3,1591.0,891.0,Object_Land_Pattern_Large,54.103750499896705,60.11626099981368,2.0,Object_Land_Pattern_Large,-2.0,,,,,,,,,,,
encoding,value,11,3618780,3624792,3619429.0,3619480.0,52.0,52.0,1628.4,1298.3,1591.0,891.0,Object_Land_Pattern_Large,54.103750499896705,60.11626099981368,2.0,Object_Land_Pattern_Large,-2.0,,,,,,,,,,,
encoding,value,11,3618780,3624792,3620167.0,3620279.0,113.0,113.0,1590.9,1276.4,1591.0,891.0,Object_Land_Pattern_Large,54.103750499896705,60.11626099981368,2.0,Object_Land_Pattern_Large,-2.0,,,,,,,,,,,
encoding,value,11,3618780,3624792,3621172.0,3621334.0,163.0,163.0,1608.5,1310.2,1591.0,891.0,Object_Land_Pattern_Large,54.103750499896705,60.11626099981368,2.0,Object_Land_Pattern_Large,-2.0,,,,,,,,,,,
encoding,value,11,3618780,3624792,3621446.0,3621477.0,32.0,32.0,1605.4,1218.3,1591.0,891.0,Object_Land_Pattern_Large,54.103750499896705,60.11626099981368,2.0,Object_Land_Pattern_Large,-2.0,,,,,,,,,,,
encoding,value,11,3618780,3624792,3621556.0,3621610.0,55.0,55.0,1616.2,1200.1,1591.0,891.0,Object_Land_Pattern_Large,54.103750499896705,60.11626099981368,2.0,Object_Land_Pattern_Large,-2.0,,,,,,,,,,,
encoding,value,11,3618780,3624792,3622750.0,3622770.0,21.0,21.0,1613.0,1111.7,1591.0,891.0,Object_Land_Pattern_Large,54.103750499896705,60.11626099981368,2.0,Object_Land_Pattern_Large,-2.0,,,,,,,,,,,
encoding,value,11,3618780,3624792,3623077.0,3623323.0,247.0,247.0,1599.9,1141.1,1591.0,891.0,Object_Land_Pattern_Large,54.103750499896705,60.11626099981368,2.0,Object_Land_Pattern_Large,-2.0,,,,,,,,,,,
encoding,value,11,3618780,3624792,3623412.0,3623452.0,41.0,41.0,1546.8,1352.7,1591.0,891.0,Object_Land_Pattern_Large,54.103750499896705,60.11626099981368,2.0,Object_Land_Pattern_Large,-2.0,,,,,,,,,,,
encoding,value,11,3618780,3624792,3623480.0,3623507.0,28.0,28.0,1537.3,1345.6,1591.0,891.0,Object_Land_Pattern_Large,54.103750499896705,60.11626099981368,2.0,Object_Land_Pattern_Large,-2.0,,,,,,,,,,,
encoding,value,11,3618780,3624792,3623726.0,3623763.0,38.0,38.0,1563.5,1206.0,1591.0,891.0,Object_Land_Pattern_Large,54.103750499896705,60.11626099981368,2.0,Object_Land_Pattern_Large,-2.0,,,,,,,,,,,
encoding,value,11,3618780,3624792,3624119.0,3624288.0,170.0,170.0,1576.0,1152.9,1591.0,891.0,Object_Land_Pattern_Large,54.103750499896705,60.11626099981368,2.0,Object_Land_Pattern_Large,-2.0,,,,,,,,,,,
encoding,value,11,3618780,3624792,3624480.0,3624532.0,53.0,53.0,1596.6,1183.8,1591.0,891.0,Object_Land_Pattern_Large,54.103750499896705,60.11626099981368,2.0,Object_Land_Pattern_Large,-2.0,,,,,,,,,,,
encoding,attention,11,3624792,3627813,3625122.0,3625154.0,33.0,33.0,1559.6,1196.9,1591.0,891.0,Object_Land_Pattern_Large,60.11637504189275,63.136963333934546,2.0,Object_Land_Pattern_Large,-2.0,-2.0,1.0,0.8509196250233799,,,,,,,,
encoding,attention,11,3624792,3627813,3625660.0,3625699.0,40.0,40.0,1529.2,1185.9,1591.0,891.0,Object_Land_Pattern_Large,60.11637504189275,63.136963333934546,2.0,Object_Land_Pattern_Large,-2.0,-2.0,1.0,0.8509196250233799,,,,,,,,
encoding,attention,11,3624792,3627813,3625897.0,3625929.0,33.0,33.0,1553.4,1126.4,1591.0,891.0,Object_Land_Pattern_Large,60.11637504189275,63.136963333934546,2.0,Object_Land_Pattern_Large,-2.0,-2.0,1.0,0.8509196250233799,,,,,,,,
encoding,attention,11,3624792,3627813,3626496.0,3626772.0,277.0,277.0,1904.1,1081.7,1920.0,1080.0,fixation,60.11637504189275,63.136963333934546,2.0,Object_Land_Pattern_Large,-2.0,-2.0,1.0,0.8509196250233799,,,,,,,,
encoding,attention,11,3624792,3627813,3626799.0,3626840.0,42.0,42.0,1646.8,1175.3,1591.0,891.0,Object_Land_Pattern_Large,60.11637504189275,63.136963333934546,2.0,Object_Land_Pattern_Large,-2.0,-2.0,1.0,0.8509196250233799,,,,,,,,
encoding,attention,11,3624792,3627813,3627199.0,3627223.0,25.0,25.0,1885.3,1341.0,1920.0,700.0,Object_Sea_Solid_Small,60.11637504189275,63.136963333934546,2.0,Object_Land_Pattern_Large,-2.0,-2.0,1.0,0.8509196250233799,,,,,,,,
encoding,fixation,12,3627813,3628819,3628762.0,3628814.0,53.0,53.0,1886.1,1319.8,1920.0,700.0,Object_Sea_Solid_Small,63.13712112489157,64.14260437502526,2.0,Object_Land_Solid_Small,-1.0,,,,,,,,,,,
encoding,image,12,3628819,3629830,3628850.0,3628911.0,62.0,62.0,1885.1,1323.4,1920.0,700.0,Object_Sea_Solid_Small,64.14270745893009,65.15399591694586,2.0,Object_Land_Solid_Small,-1.0,,,,,,,,,,,
encoding,image,12,3628819,3629830,3629575.0,3629600.0,26.0,26.0,1552.8,938.5999999999999,1591.0,1269.0,Object_Land_Solid_Small,64.14270745893009,65.15399591694586,2.0,Object_Land_Solid_Small,-1.0,,,,,,,,,,,
encoding,image,12,3628819,3629830,3629646.0,3629699.0,54.0,54.0,1545.2,958.4000000000001,1591.0,1269.0,Object_Land_Solid_Small,64.14270745893009,65.15399591694586,2.0,Object_Land_Solid_Small,-1.0,,,,,,,,,,,
encoding,image,12,3628819,3629830,3629795.0,3629864.0,70.0,35.0,1558.0,962.2,1591.0,1269.0,Object_Land_Solid_Small,64.14270745893009,65.15399591694586,2.0,Object_Land_Solid_Small,-1.0,,,,,,,,,,,
encoding,value,12,3629830,3635844,3629884.0,3629914.0,31.0,31.0,1560.3,943.0999999999999,1591.0,1269.0,Object_Land_Solid_Small,65.15411708387546,71.16702099982649,2.0,Object_Land_Solid_Small,-1.0,,,,,,,,,,,
encoding,value,12,3629830,3635844,3630005.0,3630111.0,107.0,107.0,1556.7,952.0,1591.0,1269.0,Object_Land_Solid_Small,65.15411708387546,71.16702099982649,2.0,Object_Land_Solid_Small,-1.0,,,,,,,,,,,
encoding,value,12,3629830,3635844,3630128.0,3630205.0,78.0,78.0,1565.3,941.7,1591.0,1269.0,Object_Land_Solid_Small,65.15411708387546,71.16702099982649,2.0,Object_Land_Solid_Small,-1.0,,,,,,,,,,,
encoding,value,12,3629830,3635844,3630223.0,3630249.0,27.0,27.0,1563.2,932.3,1591.0,1269.0,Object_Land_Solid_Small,65.15411708387546,71.16702099982649,2.0,Object_Land_Solid_Small,-1.0,,,,,,,,,,,
encoding,value,12,3629830,3635844,3630263.0,3630298.0,36.0,36.0,1561.9,870.4000000000001,1591.0,1269.0,Object_Land_Solid_Small,65.15411708387546,71.16702099982649,2.0,Object_Land_Solid_Small,-1.0,,,,,,,,,,,
encoding,value,12,3629830,3635844,3630396.0,3630465.0,70.0,70.0,1559.8,859.0,1591.0,1269.0,Object_Land_Solid_Small,65.15411708387546,71.16702099982649,2.0,Object_Land_Solid_Small,-1.0,,,,,,,,,,,
encoding,value,12,3629830,3635844,3634566.0,3634777.0,212.0,212.0,1830.0,1228.2,1591.0,891.0,Object_Land_Pattern_Large,65.15411708387546,71.16702099982649,2.0,Object_Land_Solid_Small,-1.0,,,,,,,,,,,
encoding,value,12,3629830,3635844,3634882.0,3634917.0,36.0,36.0,1555.5,937.4000000000001,1591.0,1269.0,Object_Land_Solid_Small,65.15411708387546,71.16702099982649,2.0,Object_Land_Solid_Small,-1.0,,,,,,,,,,,
encoding,value,12,3629830,3635844,3634977.0,3635021.0,45.0,45.0,1571.5,940.0999999999999,1591.0,1269.0,Object_Land_Solid_Small,65.15411708387546,71.16702099982649,2.0,Object_Land_Solid_Small,-1.0,,,,,,,,,,,
encoding,value,12,3629830,3635844,3635127.0,3635167.0,41.0,41.0,1564.5,943.0,1591.0,1269.0,Object_Land_Solid_Small,65.15411708387546,71.16702099982649,2.0,Object_Land_Solid_Small,-1.0,,,,,,,,,,,
encoding,value,12,3629830,3635844,3635185.0,3635236.0,52.0,52.0,1561.0,944.9000000000001,1591.0,1269.0,Object_Land_Solid_Small,65.15411708387546,71.16702099982649,2.0,Object_Land_Solid_Small,-1.0,,,,,,,,,,,
encoding,value,12,3629830,3635844,3635249.0,3635367.0,119.0,119.0,1576.5,885.3,1591.0,1269.0,Object_Land_Solid_Small,65.15411708387546,71.16702099982649,2.0,Object_Land_Solid_Small,-1.0,,,,,,,,,,,
encoding,value,12,3629830,3635844,3635391.0,3635423.0,33.0,33.0,1577.8,878.0999999999999,1591.0,1269.0,Object_Land_Solid_Small,65.15411708387546,71.16702099982649,2.0,Object_Land_Solid_Small,-1.0,,,,,,,,,,,
encoding,value,12,3629830,3635844,3635473.0,3635748.0,276.0,276.0,1564.1,827.0,1591.0,1269.0,Object_Land_Solid_Small,65.15411708387546,71.16702099982649,2.0,Object_Land_Solid_Small,-1.0,,,,,,,,,,,
encoding,attention,12,3635844,3638865,3637625.0,3637703.0,79.0,79.0,1931.3,1077.7,1920.0,1080.0,fixation,71.1671817919705,74.18833087501116,2.0,Object_Land_Solid_Small,-1.0,-1.0,1.0,0.8776658328715712,,,,,,,,
encoding,attention,12,3635844,3638865,3637748.0,3637775.0,28.0,28.0,1917.2,1103.3,1920.0,1080.0,fixation,71.1671817919705,74.18833087501116,2.0,Object_Land_Solid_Small,-1.0,-1.0,1.0,0.8776658328715712,,,,,,,,
encoding,attention,12,3635844,3638865,3638378.0,3638398.0,21.0,21.0,1889.8,1102.9,1920.0,1080.0,fixation,71.1671817919705,74.18833087501116,2.0,Object_Land_Solid_Small,-1.0,-1.0,1.0,0.8776658328715712,,,,,,,,
encoding,fixation,13,3909445,3909958,3909718.0,3910166.0,449.0,240.0,1929.8,1110.8,1920.0,1080.0,fixation,8.239028458017856,8.751584916142747,3.0,Object_Sea_Solid_Small,1.0,,,,,,,,,,,
encoding,image,13,3909958,3910971,3910200.0,3911451.0,1252.0,771.0,1968.9,1373.3,1920.0,700.0,Object_Sea_Solid_Small,8.751700916094705,9.764850750099868,3.0,Object_Sea_Solid_Small,1.0,,,,,,,,,,,
encoding,value,13,3910971,3916988,3911467.0,3911708.0,242.0,242.0,1951.2,1295.9,1920.0,700.0,Object_Sea_Solid_Small,9.76496445806697,15.780890625203028,3.0,Object_Sea_Solid_Small,1.0,,,,,,,,,,,
encoding,value,13,3910971,3916988,3911725.0,3912007.0,283.0,283.0,1951.3,1387.2,1920.0,700.0,Object_Sea_Solid_Small,9.76496445806697,15.780890625203028,3.0,Object_Sea_Solid_Small,1.0,,,,,,,,,,,
encoding,value,13,3910971,3916988,3912021.0,3912156.0,136.0,136.0,1945.2,1305.5,1920.0,700.0,Object_Sea_Solid_Small,9.76496445806697,15.780890625203028,3.0,Object_Sea_Solid_Small,1.0,,,,,,,,,,,
encoding,value,13,3910971,3916988,3912294.0,3914009.0,1716.0,1716.0,1954.2,1316.0,1920.0,700.0,Object_Sea_Solid_Small,9.76496445806697,15.780890625203028,3.0,Object_Sea_Solid_Small,1.0,,,,,,,,,,,
encoding,value,13,3910971,3916988,3914048.0,3914302.0,255.0,255.0,1924.6,1369.2,1920.0,700.0,Object_Sea_Solid_Small,9.76496445806697,15.780890625203028,3.0,Object_Sea_Solid_Small,1.0,,,,,,,,,,,
encoding,value,13,3910971,3916988,3914312.0,3915887.0,1576.0,1576.0,1928.2,1301.6,1920.0,700.0,Object_Sea_Solid_Small,9.76496445806697,15.780890625203028,3.0,Object_Sea_Solid_Small,1.0,,,,,,,,,,,
encoding,value,13,3910971,3916988,3915897.0,3916123.0,227.0,227.0,1937.1,1355.2,1920.0,700.0,Object_Sea_Solid_Small,9.76496445806697,15.780890625203028,3.0,Object_Sea_Solid_Small,1.0,,,,,,,,,,,
encoding,value,13,3910971,3916988,3916133.0,3916238.0,106.0,106.0,1938.7,1298.4,1920.0,700.0,Object_Sea_Solid_Small,9.76496445806697,15.780890625203028,3.0,Object_Sea_Solid_Small,1.0,,,,,,,,,,,
encoding,value,13,3910971,3916988,3916356.0,3916610.0,255.0,255.0,1950.9,1333.1,1920.0,700.0,Object_Sea_Solid_Small,9.76496445806697,15.780890625203028,3.0,Object_Sea_Solid_Small,1.0,,,,,,,,,,,
encoding,value,13,3910971,3916988,3916800.0,3917433.0,634.0,188.0,1939.1,1280.6,1920.0,700.0,Object_Sea_Solid_Small,9.76496445806697,15.780890625203028,3.0,Object_Sea_Solid_Small,1.0,,,,,,,,,,,
encoding,attention,13,3916988,3920005,3917444.0,3917903.0,460.0,460.0,1896.3,1282.7,1920.0,700.0,Object_Sea_Solid_Small,15.781017791014165,18.797726166201755,3.0,Object_Sea_Solid_Small,1.0,1.0,1.0,0.6614394579082727,,,,,,,,
encoding,attention,13,3916988,3920005,3917924.0,3919785.0,1862.0,1862.0,1942.4,1375.3,1920.0,700.0,Object_Sea_Solid_Small,15.781017791014165,18.797726166201755,3.0,Object_Sea_Solid_Small,1.0,1.0,1.0,0.6614394579082727,,,,,,,,
encoding,fixation,14,3920005,3921510,3920019.0,3920992.0,974.0,974.0,1932.7,1363.7,1920.0,700.0,Object_Sea_Solid_Small,18.797881708014756,20.303310291143134,3.0,Animal_Land_Solid_Large,4.0,,,,,,,,,,,
encoding,fixation,14,3920005,3921510,3921025.0,3921698.0,674.0,485.0,1912.9,1077.1,1920.0,1080.0,fixation,18.797881708014756,20.303310291143134,3.0,Animal_Land_Solid_Large,4.0,,,,,,,,,,,
encoding,image,14,3921510,3922522,3921734.0,3922407.0,674.0,674.0,2291.2,1236.3,2249.0,891.0,Animal_Land_Solid_Large,20.30342233320698,21.315410500159487,3.0,Animal_Land_Solid_Large,4.0,,,,,,,,,,,
encoding,value,14,3922522,3928537,3922557.0,3922739.0,183.0,183.0,2309.6,1206.6,2249.0,891.0,Animal_Land_Solid_Large,21.315513416193426,27.330238208174706,3.0,Animal_Land_Solid_Large,4.0,,,,,,,,,,,
encoding,value,14,3922522,3928537,3922752.0,3922924.0,173.0,173.0,2276.8,1150.2,2249.0,891.0,Animal_Land_Solid_Large,21.315513416193426,27.330238208174706,3.0,Animal_Land_Solid_Large,4.0,,,,,,,,,,,
encoding,value,14,3922522,3928537,3922939.0,3923182.0,244.0,244.0,2300.6,1226.2,2249.0,891.0,Animal_Land_Solid_Large,21.315513416193426,27.330238208174706,3.0,Animal_Land_Solid_Large,4.0,,,,,,,,,,,
encoding,value,14,3922522,3928537,3923380.0,3924312.0,933.0,933.0,2296.4,1233.6,2249.0,891.0,Animal_Land_Solid_Large,21.315513416193426,27.330238208174706,3.0,Animal_Land_Solid_Large,4.0,,,,,,,,,,,
encoding,value,14,3922522,3928537,3924460.0,3929557.0,5098.0,4077.0,2293.9,1229.2,2249.0,891.0,Animal_Land_Solid_Large,21.315513416193426,27.330238208174706,3.0,Animal_Land_Solid_Large,4.0,,,,,,,,,,,
encoding,attention,14,3928538,3931556,,,,,,,,,none,27.330387083115056,30.34894150006585,3.0,Animal_Land_Solid_Large,4.0,4.0,1.0,0.7519855829887092,,,,,,,,
encoding,fixation,15,3931556,3932313,3931995.0,3932495.0,501.0,318.0,2063.8,1174.9,2249.0,891.0,Animal_Land_Solid_Large,30.34908958314918,31.105396250030022,3.0,Animal_Sea_Pattern_Large,-6.0,,,,,,,,,,,
encoding,image,15,3932313,3933323,3932538.0,3932636.0,99.0,99.0,1617.8,1237.8,1591.0,891.0,Animal_Sea_Pattern_Large,31.10552266612649,32.115595625014976,3.0,Animal_Sea_Pattern_Large,-6.0,,,,,,,,,,,
encoding,image,15,3932313,3933323,3932651.0,3932703.0,53.0,53.0,1619.8,1236.6,1591.0,891.0,Animal_Sea_Pattern_Large,31.10552266612649,32.115595625014976,3.0,Animal_Sea_Pattern_Large,-6.0,,,,,,,,,,,
encoding,image,15,3932313,3933323,3932712.0,3932843.0,132.0,132.0,1617.9,1243.0,1591.0,891.0,Animal_Sea_Pattern_Large,31.10552266612649,32.115595625014976,3.0,Animal_Sea_Pattern_Large,-6.0,,,,,,,,,,,
encoding,image,15,3932313,3933323,3932875.0,3932921.0,47.0,47.0,1613.1,1244.0,1591.0,891.0,Animal_Sea_Pattern_Large,31.10552266612649,32.115595625014976,3.0,Animal_Sea_Pattern_Large,-6.0,,,,,,,,,,,
encoding,image,15,3932313,3933323,3932940.0,3932977.0,38.0,38.0,1609.0,1255.0,1591.0,891.0,Animal_Sea_Pattern_Large,31.10552266612649,32.115595625014976,3.0,Animal_Sea_Pattern_Large,-6.0,,,,,,,,,,,
encoding,image,15,3932313,3933323,3933009.0,3933144.0,136.0,136.0,1614.9,1233.3,1591.0,891.0,Animal_Sea_Pattern_Large,31.10552266612649,32.115595625014976,3.0,Animal_Sea_Pattern_Large,-6.0,,,,,,,,,,,
encoding,image,15,3932313,3933323,3933164.0,3933273.0,110.0,110.0,1628.6,1199.4,1591.0,891.0,Animal_Sea_Pattern_Large,31.10552266612649,32.115595625014976,3.0,Animal_Sea_Pattern_Large,-6.0,,,,,,,,,,,
encoding,value,15,3933323,3939335,3933541.0,3933753.0,213.0,213.0,1614.9,1185.3,1591.0,891.0,Animal_Sea_Pattern_Large,32.11571479099803,38.12716050003655,3.0,Animal_Sea_Pattern_Large,-6.0,,,,,,,,,,,
encoding,value,15,3933323,3939335,3933762.0,3934904.0,1143.0,1143.0,1614.5,1204.6,1591.0,891.0,Animal_Sea_Pattern_Large,32.11571479099803,38.12716050003655,3.0,Animal_Sea_Pattern_Large,-6.0,,,,,,,,,,,
encoding,value,15,3933323,3939335,3934922.0,3934998.0,77.0,77.0,1611.1,1224.3,1591.0,891.0,Animal_Sea_Pattern_Large,32.11571479099803,38.12716050003655,3.0,Animal_Sea_Pattern_Large,-6.0,,,,,,,,,,,
encoding,value,15,3933323,3939335,3935009.0,3935244.0,236.0,236.0,1597.7,1240.0,1591.0,891.0,Animal_Sea_Pattern_Large,32.11571479099803,38.12716050003655,3.0,Animal_Sea_Pattern_Large,-6.0,,,,,,,,,,,
encoding,value,15,3933323,3939335,3935282.0,3935693.0,412.0,412.0,1613.6,1220.1,1591.0,891.0,Animal_Sea_Pattern_Large,32.11571479099803,38.12716050003655,3.0,Animal_Sea_Pattern_Large,-6.0,,,,,,,,,,,
encoding,value,15,3933323,3939335,3935736.0,3936194.0,459.0,459.0,1787.2,1229.9,1591.0,891.0,Animal_Sea_Pattern_Large,32.11571479099803,38.12716050003655,3.0,Animal_Sea_Pattern_Large,-6.0,,,,,,,,,,,
encoding,value,15,3933323,3939335,3936215.0,3936499.0,285.0,285.0,1631.5,1213.7,1591.0,891.0,Animal_Sea_Pattern_Large,32.11571479099803,38.12716050003655,3.0,Animal_Sea_Pattern_Large,-6.0,,,,,,,,,,,
encoding,value,15,3933323,3939335,3936507.0,3936656.0,150.0,150.0,1596.0,1220.9,1591.0,891.0,Animal_Sea_Pattern_Large,32.11571479099803,38.12716050003655,3.0,Animal_Sea_Pattern_Large,-6.0,,,,,,,,,,,
encoding,value,15,3933323,3939335,3936684.0,3936849.0,166.0,166.0,1587.0,1231.8,1591.0,891.0,Animal_Sea_Pattern_Large,32.11571479099803,38.12716050003655,3.0,Animal_Sea_Pattern_Large,-6.0,,,,,,,,,,,
encoding,value,15,3933323,3939335,3936889.0,3937272.0,384.0,384.0,1589.2,1232.3,1591.0,891.0,Animal_Sea_Pattern_Large,32.11571479099803,38.12716050003655,3.0,Animal_Sea_Pattern_Large,-6.0,,,,,,,,,,,
encoding,value,15,3933323,3939335,3937278.0,3937576.0,299.0,299.0,1599.2,1246.4,1591.0,891.0,Animal_Sea_Pattern_Large,32.11571479099803,38.12716050003655,3.0,Animal_Sea_Pattern_Large,-6.0,,,,,,,,,,,
encoding,value,15,3933323,3939335,3937628.0,3938087.0,460.0,460.0,2274.9,1197.8,2249.0,891.0,Animal_Land_Solid_Large,32.11571479099803,38.12716050003655,3.0,Animal_Sea_Pattern_Large,-6.0,,,,,,,,,,,
encoding,value,15,3933323,3939335,3938107.0,3938400.0,294.0,294.0,2124.0,1217.5,2249.0,891.0,Animal_Land_Solid_Large,32.11571479099803,38.12716050003655,3.0,Animal_Sea_Pattern_Large,-6.0,,,,,,,,,,,
encoding,value,15,3933323,3939335,3938429.0,3938641.0,213.0,213.0,1763.9,1201.3,1591.0,891.0,Animal_Sea_Pattern_Large,32.11571479099803,38.12716050003655,3.0,Animal_Sea_Pattern_Large,-6.0,,,,,,,,,,,
encoding,value,15,3933323,3939335,3938659.0,3938838.0,180.0,180.0,1621.1,1196.0,1591.0,891.0,Animal_Sea_Pattern_Large,32.11571479099803,38.12716050003655,3.0,Animal_Sea_Pattern_Large,-6.0,,,,,,,,,,,
encoding,value,15,3933323,3939335,3938857.0,3939719.0,863.0,478.0,1627.4,1201.4,1591.0,891.0,Animal_Sea_Pattern_Large,32.11571479099803,38.12716050003655,3.0,Animal_Sea_Pattern_Large,-6.0,,,,,,,,,,,
encoding,attention,15,3939335,3942352,3939725.0,3939849.0,125.0,125.0,1604.2,1149.7,1591.0,891.0,Animal_Sea_Pattern_Large,38.12727245804854,41.143976708175614,3.0,Animal_Sea_Pattern_Large,-6.0,-6.0,1.0,0.7737814579159021,,,,,,,,
encoding,attention,15,3939335,3942352,3939864.0,3939974.0,111.0,111.0,1585.7,1144.3,1591.0,891.0,Animal_Sea_Pattern_Large,38.12727245804854,41.143976708175614,3.0,Animal_Sea_Pattern_Large,-6.0,-6.0,1.0,0.7737814579159021,,,,,,,,
encoding,attention,15,3939335,3942352,3939985.0,3940350.0,366.0,366.0,1676.8,1137.6,1591.0,891.0,Animal_Sea_Pattern_Large,38.12727245804854,41.143976708175614,3.0,Animal_Sea_Pattern_Large,-6.0,-6.0,1.0,0.7737814579159021,,,,,,,,
encoding,attention,15,3939335,3942352,3940551.0,3941335.0,785.0,785.0,1610.3,1216.4,1591.0,891.0,Animal_Sea_Pattern_Large,38.12727245804854,41.143976708175614,3.0,Animal_Sea_Pattern_Large,-6.0,-6.0,1.0,0.7737814579159021,,,,,,,,
encoding,attention,15,3939335,3942352,3941360.0,3941413.0,54.0,54.0,1593.0,1227.8,1591.0,891.0,Animal_Sea_Pattern_Large,38.12727245804854,41.143976708175614,3.0,Animal_Sea_Pattern_Large,-6.0,-6.0,1.0,0.7737814579159021,,,,,,,,
encoding,attention,15,3939335,3942352,3941432.0,3941775.0,344.0,344.0,1668.0,1164.6,1591.0,891.0,Animal_Sea_Pattern_Large,38.12727245804854,41.143976708175614,3.0,Animal_Sea_Pattern_Large,-6.0,-6.0,1.0,0.7737814579159021,,,,,,,,
encoding,attention,15,3939335,3942352,3941797.0,3941878.0,82.0,82.0,1657.1,1168.8,1591.0,891.0,Animal_Sea_Pattern_Large,38.12727245804854,41.143976708175614,3.0,Animal_Sea_Pattern_Large,-6.0,-6.0,1.0,0.7737814579159021,,,,,,,,
encoding,attention,15,3939335,3942352,3941896.0,3941928.0,33.0,33.0,1657.7,1173.4,1591.0,891.0,Animal_Sea_Pattern_Large,38.12727245804854,41.143976708175614,3.0,Animal_Sea_Pattern_Large,-6.0,-6.0,1.0,0.7737814579159021,,,,,,,,
encoding,fixation,16,3942352,3943608,3942565.0,3943794.0,1230.0,1043.0,1924.0,1080.0,1920.0,1080.0,fixation,41.14416666608304,42.39963016612455,3.0,Object_Land_Solid_Small,-6.0,,,,,,,,,,,
encoding,image,16,3943608,3944618,3943833.0,3945168.0,1336.0,785.0,1597.5,839.8,1591.0,1269.0,Object_Land_Solid_Small,42.39977104100399,43.41059275018051,3.0,Object_Land_Solid_Small,-6.0,,,,,,,,,,,
encoding,value,16,3944619,3950630,3945185.0,3945549.0,365.0,365.0,1598.0,868.4000000000001,1591.0,1269.0,Object_Land_Solid_Small,43.41072087502107,49.422085541067645,3.0,Object_Land_Solid_Small,-6.0,,,,,,,,,,,
encoding,value,16,3944619,3950630,3945784.0,3946939.0,1156.0,1156.0,1610.6,856.3,1591.0,1269.0,Object_Land_Solid_Small,43.41072087502107,49.422085541067645,3.0,Object_Land_Solid_Small,-6.0,,,,,,,,,,,
encoding,value,16,3944619,3950630,3947198.0,3948143.0,946.0,946.0,1614.5,789.5999999999999,1591.0,1269.0,Object_Land_Solid_Small,43.41072087502107,49.422085541067645,3.0,Object_Land_Solid_Small,-6.0,,,,,,,,,,,
encoding,value,16,3944619,3950630,3948156.0,3951038.0,2883.0,2474.0,1610.0,854.4000000000001,1591.0,1269.0,Object_Land_Solid_Small,43.41072087502107,49.422085541067645,3.0,Object_Land_Solid_Small,-6.0,,,,,,,,,,,
encoding,attention,16,3950630,3953647,3951055.0,3951623.0,569.0,569.0,1617.4,750.5,1591.0,1269.0,Object_Land_Solid_Small,49.42219108319841,52.43895083316602,3.0,Object_Land_Solid_Small,-6.0,-6.0,1.0,0.9817951249424368,,,,,,,,
encoding,attention,16,3950630,3953647,3951645.0,3951692.0,48.0,48.0,1645.3,746.3,1591.0,1269.0,Object_Land_Solid_Small,49.42219108319841,52.43895083316602,3.0,Object_Land_Solid_Small,-6.0,-6.0,1.0,0.9817951249424368,,,,,,,,
encoding,attention,16,3950630,3953647,3951719.0,3951784.0,66.0,66.0,1643.2,749.3,1591.0,1269.0,Object_Land_Solid_Small,49.42219108319841,52.43895083316602,3.0,Object_Land_Solid_Small,-6.0,-6.0,1.0,0.9817951249424368,,,,,,,,
encoding,attention,16,3950630,3953647,3951827.0,3951886.0,60.0,60.0,1641.4,753.5999999999999,1591.0,1269.0,Object_Land_Solid_Small,49.42219108319841,52.43895083316602,3.0,Object_Land_Solid_Small,-6.0,-6.0,1.0,0.9817951249424368,,,,,,,,
encoding,attention,16,3950630,3953647,3951896.0,3952480.0,585.0,585.0,1640.7,769.5,1591.0,1269.0,Object_Land_Solid_Small,49.42219108319841,52.43895083316602,3.0,Object_Land_Solid_Small,-6.0,-6.0,1.0,0.9817951249424368,,,,,,,,
encoding,fixation,17,3953647,3954402,3953875.0,3954626.0,752.0,527.0,1922.4,1034.7,1920.0,1080.0,fixation,52.439109166152775,53.19417991605587,3.0,Animal_Land_Pattern_Large,3.0,,,,,,,,,,,
encoding,image,17,3954403,3955414,3954660.0,3955209.0,550.0,550.0,2198.1,914.9000000000001,2249.0,1269.0,Animal_Land_Pattern_Large,53.194341166177765,54.20589641621336,3.0,Animal_Land_Pattern_Large,3.0,,,,,,,,,,,
encoding,image,17,3954403,3955414,3955219.0,3955837.0,619.0,195.0,2234.8,812.9000000000001,2249.0,1269.0,Animal_Land_Pattern_Large,53.194341166177765,54.20589641621336,3.0,Animal_Land_Pattern_Large,3.0,,,,,,,,,,,
encoding,value,17,3955414,3961427,3955854.0,3956297.0,444.0,444.0,2196.0,902.9000000000001,2249.0,1269.0,Animal_Land_Pattern_Large,54.20600141608156,60.2182118750643,3.0,Animal_Land_Pattern_Large,3.0,,,,,,,,,,,
encoding,value,17,3955414,3961427,3956538.0,3961896.0,5359.0,4889.0,2202.8,896.9000000000001,2249.0,1269.0,Animal_Land_Pattern_Large,54.20600141608156,60.2182118750643,3.0,Animal_Land_Pattern_Large,3.0,,,,,,,,,,,
encoding,attention,17,3961427,3964444,3961915.0,3963333.0,1419.0,1419.0,2180.9,788.0999999999999,2249.0,1269.0,Animal_Land_Pattern_Large,60.218338458100334,63.23522137501277,3.0,Animal_Land_Pattern_Large,3.0,3.0,1.0,0.7523040419910103,,,,,,,,
encoding,attention,17,3961427,3964444,3963357.0,3963640.0,284.0,284.0,2032.4,889.5,2249.0,1269.0,Animal_Land_Pattern_Large,60.218338458100334,63.23522137501277,3.0,Animal_Land_Pattern_Large,3.0,3.0,1.0,0.7523040419910103,,,,,,,,
encoding,attention,17,3961427,3964444,3963659.0,3963888.0,230.0,230.0,2154.4,804.5999999999999,2249.0,1269.0,Animal_Land_Pattern_Large,60.218338458100334,63.23522137501277,3.0,Animal_Land_Pattern_Large,3.0,3.0,1.0,0.7523040419910103,,,,,,,,
encoding,fixation,18,3964444,3965950,3964699.0,3964850.0,152.0,152.0,1956.3,1087.7,1920.0,1080.0,fixation,63.23537150002085,64.74067758303136,3.0,Object_Sea_Pattern_Small,4.0,,,,,,,,,,,
encoding,fixation,18,3964444,3965950,3964859.0,3966077.0,1219.0,1091.0,1922.6,1082.6,1920.0,1080.0,fixation,63.23537150002085,64.74067758303136,3.0,Object_Sea_Pattern_Small,4.0,,,,,,,,,,,
encoding,image,18,3965950,3966961,3966095.0,3966263.0,169.0,169.0,1942.1,988.2,1920.0,1460.0,Object_Sea_Pattern_Small,64.74081070814282,65.75164183299057,3.0,Object_Sea_Pattern_Small,4.0,,,,,,,,,,,
encoding,image,18,3965950,3966961,3966294.0,3967186.0,893.0,667.0,1899.9,734.5999999999999,1920.0,1460.0,Object_Sea_Pattern_Small,64.74081070814282,65.75164183299057,3.0,Object_Sea_Pattern_Small,4.0,,,,,,,,,,,
encoding,value,18,3966961,3972973,3967204.0,3967416.0,213.0,213.0,1900.6,614.0,1920.0,1460.0,Object_Sea_Pattern_Small,65.75181441614404,71.76441979105584,3.0,Object_Sea_Pattern_Small,4.0,,,,,,,,,,,
encoding,value,18,3966961,3972973,3967436.0,3969027.0,1592.0,1592.0,1906.2,719.5999999999999,1920.0,1460.0,Object_Sea_Pattern_Small,65.75181441614404,71.76441979105584,3.0,Object_Sea_Pattern_Small,4.0,,,,,,,,,,,
encoding,value,18,3966961,3972973,3969248.0,3975959.0,6712.0,3725.0,1909.8,692.2,1920.0,1460.0,Object_Sea_Pattern_Small,65.75181441614404,71.76441979105584,3.0,Object_Sea_Pattern_Small,4.0,,,,,,,,,,,
encoding,attention,18,3972974,3975991,,,,,,,,,none,71.7645451251883,74.78216570802033,3.0,Object_Sea_Pattern_Small,4.0,4.0,1.0,0.6211877500172704,,,,,,,,
encoding,fixation,19,4237322,4238078,4237585.0,4238354.0,770.0,493.0,1913.4,1081.9,1920.0,1080.0,fixation,6.169797417009249,6.925888624973595,4.0,Object_Land_Solid_Large,-1.0,,,,,,,,,,,
encoding,image,19,4238078,4239090,4238414.0,4238852.0,439.0,439.0,1606.8,916.2,1591.0,1269.0,Object_Land_Solid_Large,6.926021916791797,7.937065541977063,4.0,Object_Land_Solid_Large,-1.0,,,,,,,,,,,
encoding,image,19,4238078,4239090,4238903.0,4239687.0,785.0,187.0,1594.3,862.2,1591.0,1269.0,Object_Land_Solid_Large,6.926021916791797,7.937065541977063,4.0,Object_Land_Solid_Large,-1.0,,,,,,,,,,,
encoding,value,19,4239090,4245102,4239877.0,4243417.0,3541.0,3541.0,1600.7,856.5999999999999,1591.0,1269.0,Object_Land_Solid_Large,7.937241791980341,13.949313499964774,4.0,Object_Land_Solid_Large,-1.0,,,,,,,,,,,
encoding,value,19,4239090,4245102,4243574.0,4245345.0,1772.0,1528.0,1594.5,812.0999999999999,1591.0,1269.0,Object_Land_Solid_Large,7.937241791980341,13.949313499964774,4.0,Object_Land_Solid_Large,-1.0,,,,,,,,,,,
encoding,attention,19,4245102,4248119,4245354.0,4246124.0,771.0,771.0,1548.6,768.0999999999999,1591.0,1269.0,Object_Land_Solid_Large,13.94945204188116,16.965865291887894,4.0,Object_Land_Solid_Large,-1.0,-1.0,1.0,0.753628958016634,,,,,,,,
encoding,fixation,20,4248119,4249124,4248358.0,4249306.0,949.0,766.0,1923.6,1060.7,1920.0,1080.0,fixation,16.96605091681704,17.97140729194507,4.0,Animal_Sea_Pattern_Small,-6.0,,,,,,,,,,,
encoding,image,20,4249124,4250137,4249345.0,4250162.0,818.0,792.0,2277.8,1238.2,2249.0,891.0,Animal_Sea_Pattern_Small,17.97152120899409,18.983602499822155,4.0,Animal_Sea_Pattern_Small,-6.0,,,,,,,,,,,
encoding,value,20,4250137,4256149,4250172.0,4251427.0,1256.0,1256.0,2251.3,1143.3,2249.0,891.0,Animal_Sea_Pattern_Small,18.983718124916777,24.996003999840468,4.0,Animal_Sea_Pattern_Small,-6.0,,,,,,,,,,,
encoding,value,20,4250137,4256149,4251603.0,4256588.0,4986.0,4546.0,2279.9,1228.8,2249.0,891.0,Animal_Sea_Pattern_Small,18.983718124916777,24.996003999840468,4.0,Animal_Sea_Pattern_Small,-6.0,,,,,,,,,,,
encoding,attention,20,4256149,4259167,4256602.0,4256844.0,243.0,243.0,2202.8,1154.4,2249.0,891.0,Animal_Sea_Pattern_Small,24.99612691695802,28.01406841678545,4.0,Animal_Sea_Pattern_Small,-6.0,-6.0,1.0,1.3779157500248402,,,,,,,,
encoding,attention,20,4256149,4259167,4256860.0,4257773.0,914.0,914.0,2292.5,1138.6,2249.0,891.0,Animal_Sea_Pattern_Small,24.99612691695802,28.01406841678545,4.0,Animal_Sea_Pattern_Small,-6.0,-6.0,1.0,1.3779157500248402,,,,,,,,
encoding,attention,20,4256149,4259167,4257969.0,4258208.0,240.0,240.0,2278.2,1180.5,2249.0,891.0,Animal_Sea_Pattern_Small,24.99612691695802,28.01406841678545,4.0,Animal_Sea_Pattern_Small,-6.0,-6.0,1.0,1.3779157500248402,,,,,,,,
encoding,fixation,21,4259168,4260673,4259586.0,4260857.0,1272.0,1087.0,1918.9,1072.2,1920.0,1080.0,fixation,28.014272541971877,29.51957870880142,4.0,Object_Land_Pattern_Large,9.0,,,,,,,,,,,
encoding,image,21,4260673,4261687,4260893.0,4261235.0,343.0,343.0,1606.9,1216.4,1591.0,891.0,Object_Land_Pattern_Large,29.51968516688794,30.533028999809176,4.0,Object_Land_Pattern_Large,9.0,,,,,,,,,,,
encoding,image,21,4260673,4261687,4261420.0,4262076.0,657.0,267.0,1605.9,1177.7,1591.0,891.0,Object_Land_Pattern_Large,29.51968516688794,30.533028999809176,4.0,Object_Land_Pattern_Large,9.0,,,,,,,,,,,
encoding,value,21,4261687,4267700,4262092.0,4262474.0,383.0,383.0,1637.3,1226.7,1591.0,891.0,Object_Land_Pattern_Large,30.533158166799694,36.54607841698453,4.0,Object_Land_Pattern_Large,9.0,,,,,,,,,,,
encoding,value,21,4261687,4267700,4262482.0,4262607.0,126.0,126.0,1641.9,1222.3,1591.0,891.0,Object_Land_Pattern_Large,30.533158166799694,36.54607841698453,4.0,Object_Land_Pattern_Large,9.0,,,,,,,,,,,
encoding,value,21,4261687,4267700,4262625.0,4262834.0,210.0,210.0,1644.4,1127.7,1591.0,891.0,Object_Land_Pattern_Large,30.533158166799694,36.54607841698453,4.0,Object_Land_Pattern_Large,9.0,,,,,,,,,,,
encoding,value,21,4261687,4267700,4262856.0,4262880.0,25.0,25.0,1644.3,1132.2,1591.0,891.0,Object_Land_Pattern_Large,30.533158166799694,36.54607841698453,4.0,Object_Land_Pattern_Large,9.0,,,,,,,,,,,
encoding,value,21,4261687,4267700,4262889.0,4263303.0,415.0,415.0,1633.7,1091.2,1591.0,891.0,Object_Land_Pattern_Large,30.533158166799694,36.54607841698453,4.0,Object_Land_Pattern_Large,9.0,,,,,,,,,,,
encoding,value,21,4261687,4267700,4263324.0,4263497.0,174.0,174.0,1595.5,881.4000000000001,1591.0,1269.0,Object_Land_Solid_Large,30.533158166799694,36.54607841698453,4.0,Object_Land_Pattern_Large,9.0,,,,,,,,,,,
encoding,value,21,4261687,4267700,4263525.0,4263755.0,231.0,231.0,1635.7,1154.4,1591.0,891.0,Object_Land_Pattern_Large,30.533158166799694,36.54607841698453,4.0,Object_Land_Pattern_Large,9.0,,,,,,,,,,,
encoding,value,21,4261687,4267700,4263811.0,4264054.0,244.0,244.0,2101.7,1205.6,2249.0,891.0,Animal_Sea_Pattern_Small,30.533158166799694,36.54607841698453,4.0,Object_Land_Pattern_Large,9.0,,,,,,,,,,,
encoding,value,21,4261687,4267700,4264098.0,4264918.0,821.0,821.0,1634.1,1199.8,1591.0,891.0,Object_Land_Pattern_Large,30.533158166799694,36.54607841698453,4.0,Object_Land_Pattern_Large,9.0,,,,,,,,,,,
encoding,value,21,4261687,4267700,4264972.0,4265176.0,205.0,205.0,1634.0,1208.0,1591.0,891.0,Object_Land_Pattern_Large,30.533158166799694,36.54607841698453,4.0,Object_Land_Pattern_Large,9.0,,,,,,,,,,,
encoding,value,21,4261687,4267700,4265198.0,4265234.0,37.0,37.0,1629.9,1104.8,1591.0,891.0,Object_Land_Pattern_Large,30.533158166799694,36.54607841698453,4.0,Object_Land_Pattern_Large,9.0,,,,,,,,,,,
encoding,value,21,4261687,4267700,4265252.0,4265729.0,478.0,478.0,1636.6,1106.6,1591.0,891.0,Object_Land_Pattern_Large,30.533158166799694,36.54607841698453,4.0,Object_Land_Pattern_Large,9.0,,,,,,,,,,,
encoding,value,21,4261687,4267700,4265757.0,4265790.0,34.0,34.0,1641.7,1164.1,1591.0,891.0,Object_Land_Pattern_Large,30.533158166799694,36.54607841698453,4.0,Object_Land_Pattern_Large,9.0,,,,,,,,,,,
encoding,value,21,4261687,4267700,4265797.0,4265849.0,53.0,53.0,1640.5,1169.8,1591.0,891.0,Object_Land_Pattern_Large,30.533158166799694,36.54607841698453,4.0,Object_Land_Pattern_Large,9.0,,,,,,,,,,,
encoding,value,21,4261687,4267700,4265903.0,4267118.0,1216.0,1216.0,1635.0,1134.0,1591.0,891.0,Object_Land_Pattern_Large,30.533158166799694,36.54607841698453,4.0,Object_Land_Pattern_Large,9.0,,,,,,,,,,,
encoding,value,21,4261687,4267700,4267139.0,4267177.0,39.0,39.0,1625.2,1146.3,1591.0,891.0,Object_Land_Pattern_Large,30.533158166799694,36.54607841698453,4.0,Object_Land_Pattern_Large,9.0,,,,,,,,,,,
encoding,value,21,4261687,4267700,4267233.0,4267808.0,576.0,467.0,1645.9,1167.3,1591.0,891.0,Object_Land_Pattern_Large,30.533158166799694,36.54607841698453,4.0,Object_Land_Pattern_Large,9.0,,,,,,,,,,,
encoding,attention,21,4267700,4270719,4267838.0,4268014.0,177.0,177.0,1635.3,1125.1,1591.0,891.0,Object_Land_Pattern_Large,36.54619220900349,39.5652560419403,4.0,Object_Land_Pattern_Large,9.0,9.0,1.0,0.577334042172879,,,,,,,,
encoding,attention,21,4267700,4270719,4268052.0,4268224.0,173.0,173.0,1568.4,1108.5,1591.0,891.0,Object_Land_Pattern_Large,36.54619220900349,39.5652560419403,4.0,Object_Land_Pattern_Large,9.0,9.0,1.0,0.577334042172879,,,,,,,,
encoding,attention,21,4267700,4270719,4268246.0,4268330.0,85.0,85.0,1563.2,1108.1,1591.0,891.0,Object_Land_Pattern_Large,36.54619220900349,39.5652560419403,4.0,Object_Land_Pattern_Large,9.0,9.0,1.0,0.577334042172879,,,,,,,,
encoding,attention,21,4267700,4270719,4268339.0,4268535.0,197.0,197.0,1568.9,1097.2,1591.0,891.0,Object_Land_Pattern_Large,36.54619220900349,39.5652560419403,4.0,Object_Land_Pattern_Large,9.0,9.0,1.0,0.577334042172879,,,,,,,,
encoding,attention,21,4267700,4270719,4268548.0,4269137.0,590.0,590.0,1628.2,1204.1,1591.0,891.0,Object_Land_Pattern_Large,36.54619220900349,39.5652560419403,4.0,Object_Land_Pattern_Large,9.0,9.0,1.0,0.577334042172879,,,,,,,,
encoding,attention,21,4267700,4270719,4269329.0,4270319.0,991.0,991.0,1623.7,1208.8,1591.0,891.0,Object_Land_Pattern_Large,36.54619220900349,39.5652560419403,4.0,Object_Land_Pattern_Large,9.0,9.0,1.0,0.577334042172879,,,,,,,,
encoding,attention,21,4267700,4270719,4270360.0,4270490.0,131.0,131.0,1734.2,1161.2,1591.0,891.0,Object_Land_Pattern_Large,36.54619220900349,39.5652560419403,4.0,Object_Land_Pattern_Large,9.0,9.0,1.0,0.577334042172879,,,,,,,,
encoding,fixation,22,4270719,4271475,4271036.0,4271639.0,604.0,439.0,1919.1,1062.7,1920.0,1080.0,fixation,39.56541412486695,40.32077008392662,4.0,Object_Sea_Solid_Large,-7.0,,,,,,,,,,,
encoding,image,22,4271475,4272486,4271672.0,4271799.0,128.0,128.0,1974.2,1280.7,1920.0,700.0,Object_Sea_Solid_Large,40.32087258389219,41.33225195878185,4.0,Object_Sea_Solid_Large,-7.0,,,,,,,,,,,
encoding,image,22,4271475,4272486,4271820.0,4272147.0,328.0,328.0,1982.3,1345.1,1920.0,700.0,Object_Sea_Solid_Large,40.32087258389219,41.33225195878185,4.0,Object_Sea_Solid_Large,-7.0,,,,,,,,,,,
encoding,image,22,4271475,4272486,4272310.0,4273193.0,884.0,176.0,1967.0,1294.2,1920.0,700.0,Object_Sea_Solid_Large,40.32087258389219,41.33225195878185,4.0,Object_Sea_Solid_Large,-7.0,,,,,,,,,,,
encoding,value,22,4272486,4278499,4273208.0,4273446.0,239.0,239.0,1975.1,1325.4,1920.0,700.0,Object_Sea_Solid_Large,41.33235845901072,47.34484920883551,4.0,Object_Sea_Solid_Large,-7.0,,,,,,,,,,,
encoding,value,22,4272486,4278499,4273614.0,4274142.0,529.0,529.0,1952.1,1258.8,1920.0,700.0,Object_Sea_Solid_Large,41.33235845901072,47.34484920883551,4.0,Object_Sea_Solid_Large,-7.0,,,,,,,,,,,
encoding,value,22,4272486,4278499,4274157.0,4276775.0,2619.0,2619.0,1964.2,1295.0,1920.0,700.0,Object_Sea_Solid_Large,41.33235845901072,47.34484920883551,4.0,Object_Sea_Solid_Large,-7.0,,,,,,,,,,,
encoding,value,22,4272486,4278499,4276956.0,4279088.0,2133.0,1543.0,1964.2,1282.3,1920.0,700.0,Object_Sea_Solid_Large,41.33235845901072,47.34484920883551,4.0,Object_Sea_Solid_Large,-7.0,,,,,,,,,,,
encoding,attention,22,4278499,4281519,,,,,,,,,none,47.3449560420122,50.36431937478483,4.0,Object_Sea_Solid_Large,-7.0,-7.0,1.0,0.8838584581390023,,,,,,,,
encoding,fixation,23,4281519,4282274,4281836.0,4282472.0,637.0,438.0,1915.9,1059.4,1920.0,1080.0,fixation,50.36446316679939,51.11976512498222,4.0,Animal_Land_Pattern_Small,-5.0,,,,,,,,,,,
encoding,image,23,4282274,4283287,4282509.0,4282952.0,444.0,444.0,1889.3,676.2,1920.0,1460.0,Animal_Land_Pattern_Small,51.11990399984643,52.13230945891701,4.0,Animal_Land_Pattern_Small,-5.0,,,,,,,,,,,
encoding,image,23,4282274,4283287,4282963.0,4283523.0,561.0,324.0,1879.8,722.8,1920.0,1460.0,Animal_Land_Pattern_Small,51.11990399984643,52.13230945891701,4.0,Animal_Land_Pattern_Small,-5.0,,,,,,,,,,,
encoding,value,23,4283287,4289298,4283545.0,4283862.0,318.0,318.0,1900.5,567.0,1920.0,1460.0,Animal_Land_Pattern_Small,52.13245204184204,58.143727958900854,4.0,Animal_Land_Pattern_Small,-5.0,,,,,,,,,,,
encoding,value,23,4283287,4289298,4283874.0,4284365.0,492.0,492.0,1910.3,657.5999999999999,1920.0,1460.0,Animal_Land_Pattern_Small,52.13245204184204,58.143727958900854,4.0,Animal_Land_Pattern_Small,-5.0,,,,,,,,,,,
encoding,value,23,4283287,4289298,4284387.0,4284537.0,151.0,151.0,1944.8,819.2,1920.0,1460.0,Animal_Land_Pattern_Small,52.13245204184204,58.143727958900854,4.0,Animal_Land_Pattern_Small,-5.0,,,,,,,,,,,
encoding,value,23,4283287,4289298,4284767.0,4285002.0,236.0,236.0,1919.5,680.5,1920.0,1460.0,Animal_Land_Pattern_Small,52.13245204184204,58.143727958900854,4.0,Animal_Land_Pattern_Small,-5.0,,,,,,,,,,,
encoding,value,23,4283287,4289298,4285029.0,4285234.0,206.0,206.0,1856.1,933.9000000000001,1920.0,1460.0,Animal_Land_Pattern_Small,52.13245204184204,58.143727958900854,4.0,Animal_Land_Pattern_Small,-5.0,,,,,,,,,,,
encoding,value,23,4283287,4289298,4285253.0,4285427.0,175.0,175.0,1907.8,1060.2,1920.0,1080.0,fixation,52.13245204184204,58.143727958900854,4.0,Animal_Land_Pattern_Small,-5.0,,,,,,,,,,,
encoding,value,23,4283287,4289298,4285471.0,4285829.0,359.0,359.0,1888.3,713.0,1920.0,1460.0,Animal_Land_Pattern_Small,52.13245204184204,58.143727958900854,4.0,Animal_Land_Pattern_Small,-5.0,,,,,,,,,,,
encoding,value,23,4283287,4289298,4285843.0,4289688.0,3846.0,3455.0,1911.4,663.0,1920.0,1460.0,Animal_Land_Pattern_Small,52.13245204184204,58.143727958900854,4.0,Animal_Land_Pattern_Small,-5.0,,,,,,,,,,,
encoding,attention,23,4289299,4292317,4289731.0,4290046.0,316.0,316.0,1919.5,535.5999999999999,1920.0,1460.0,Animal_Land_Pattern_Small,58.143844541860744,61.16185854189098,4.0,Animal_Land_Pattern_Small,-5.0,-5.0,1.0,1.0536456669215113,,,,,,,,
encoding,attention,23,4289299,4292317,4290063.0,4290445.0,383.0,383.0,1973.8,469.0999999999999,,,none,58.143844541860744,61.16185854189098,4.0,Animal_Land_Pattern_Small,-5.0,-5.0,1.0,1.0536456669215113,,,,,,,,
encoding,attention,23,4289299,4292317,4290468.0,4290499.0,32.0,32.0,1983.2,448.29999999999995,,,none,58.143844541860744,61.16185854189098,4.0,Animal_Land_Pattern_Small,-5.0,-5.0,1.0,1.0536456669215113,,,,,,,,
encoding,attention,23,4289299,4292317,4290593.0,4290614.0,22.0,22.0,1973.4,478.20000000000005,,,none,58.143844541860744,61.16185854189098,4.0,Animal_Land_Pattern_Small,-5.0,-5.0,1.0,1.0536456669215113,,,,,,,,
encoding,fixation,24,4292317,4293572,4292458.0,4292606.0,149.0,149.0,1962.0,852.7,1920.0,1460.0,Animal_Land_Pattern_Small,61.16201466694474,62.41735820891336,4.0,Animal_Sea_Solid_Small,9.0,,,,,,,,,,,
encoding,fixation,24,4292317,4293572,4292629.0,4293055.0,427.0,427.0,1916.8,1074.4,1920.0,1080.0,fixation,61.16201466694474,62.41735820891336,4.0,Animal_Sea_Solid_Small,9.0,,,,,,,,,,,
encoding,fixation,24,4292317,4293572,4293064.0,4293865.0,802.0,508.0,1927.8,1144.0,1920.0,1080.0,fixation,61.16201466694474,62.41735820891336,4.0,Animal_Sea_Solid_Small,9.0,,,,,,,,,,,
encoding,image,24,4293572,4294584,4293903.0,4294118.0,216.0,216.0,2199.9,885.7,2249.0,1269.0,Animal_Sea_Solid_Small,62.417466084007174,63.42877708398737,4.0,Animal_Sea_Solid_Small,9.0,,,,,,,,,,,
encoding,image,24,4293572,4294584,4294130.0,4294384.0,255.0,255.0,2263.4,860.0999999999999,2249.0,1269.0,Animal_Sea_Solid_Small,62.417466084007174,63.42877708398737,4.0,Animal_Sea_Solid_Small,9.0,,,,,,,,,,,
encoding,image,24,4293572,4294584,4294397.0,4295026.0,630.0,187.0,2251.7,781.0,2249.0,1269.0,Animal_Sea_Solid_Small,62.417466084007174,63.42877708398737,4.0,Animal_Sea_Solid_Small,9.0,,,,,,,,,,,
encoding,value,24,4294584,4300596,4295048.0,4295518.0,471.0,471.0,2247.8,873.9000000000001,2249.0,1269.0,Animal_Sea_Solid_Small,63.428896041819826,69.4404947499279,4.0,Animal_Sea_Solid_Small,9.0,,,,,,,,,,,
encoding,value,24,4294584,4300596,4295557.0,4295752.0,196.0,196.0,1938.2,1000.8,1920.0,1460.0,Animal_Land_Pattern_Small,63.428896041819826,69.4404947499279,4.0,Animal_Sea_Solid_Small,9.0,,,,,,,,,,,
encoding,value,24,4294584,4300596,4295765.0,4296029.0,265.0,265.0,1878.8,1062.7,1920.0,1080.0,fixation,63.428896041819826,69.4404947499279,4.0,Animal_Sea_Solid_Small,9.0,,,,,,,,,,,
encoding,value,24,4294584,4300596,4296050.0,4296264.0,215.0,215.0,1815.9,1160.8,1591.0,891.0,Object_Land_Pattern_Large,63.428896041819826,69.4404947499279,4.0,Animal_Sea_Solid_Small,9.0,,,,,,,,,,,
encoding,value,24,4294584,4300596,4296482.0,4297562.0,1081.0,1081.0,2244.7,872.8,2249.0,1269.0,Animal_Sea_Solid_Small,63.428896041819826,69.4404947499279,4.0,Animal_Sea_Solid_Small,9.0,,,,,,,,,,,
encoding,value,24,4294584,4300596,4297582.0,4299734.0,2153.0,2153.0,2250.0,793.5999999999999,2249.0,1269.0,Animal_Sea_Solid_Small,63.428896041819826,69.4404947499279,4.0,Animal_Sea_Solid_Small,9.0,,,,,,,,,,,
encoding,value,24,4294584,4300596,4299743.0,4300060.0,318.0,318.0,2239.3,852.8,2249.0,1269.0,Animal_Sea_Solid_Small,63.428896041819826,69.4404947499279,4.0,Animal_Sea_Solid_Small,9.0,,,,,,,,,,,
encoding,value,24,4294584,4300596,4300070.0,4302013.0,1944.0,526.0,2203.7,791.5,2249.0,1269.0,Animal_Sea_Solid_Small,63.428896041819826,69.4404947499279,4.0,Animal_Sea_Solid_Small,9.0,,,,,,,,,,,
encoding,attention,24,4300596,4303614,4302037.0,4302400.0,364.0,364.0,1903.8,733.5999999999999,1920.0,1460.0,Animal_Land_Pattern_Small,69.44063145900145,72.45844162488356,4.0,Animal_Sea_Solid_Small,9.0,9.0,1.0,1.12806212506257,,,,,,,,
encoding,attention,24,4300596,4303614,4302436.0,4302874.0,439.0,439.0,2182.7,802.8,2249.0,1269.0,Animal_Sea_Solid_Small,69.44063145900145,72.45844162488356,4.0,Animal_Sea_Solid_Small,9.0,9.0,1.0,1.12806212506257,,,,,,,,
encoding,attention,24,4300596,4303614,4302897.0,4303055.0,159.0,159.0,2152.6,935.8,2249.0,1269.0,Animal_Sea_Solid_Small,69.44063145900145,72.45844162488356,4.0,Animal_Sea_Solid_Small,9.0,9.0,1.0,1.12806212506257,,,,,,,,
encoding,attention,24,4300596,4303614,4303085.0,4303504.0,420.0,420.0,2105.9,1301.8,2249.0,891.0,Animal_Sea_Pattern_Small,69.44063145900145,72.45844162488356,4.0,Animal_Sea_Solid_Small,9.0,9.0,1.0,1.12806212506257,,,,,,,,
encoding,fixation,25,4616221,4617226,4616460.0,4617433.0,974.0,766.0,1914.4,1079.3,1920.0,1080.0,fixation,4.683000250020996,5.689075291855261,5.0,Object_Land_Solid_Small,9.0,,,,,,,,,,,
encoding,image,25,4617227,4618239,4617467.0,4618460.0,994.0,772.0,1575.0,893.3,1591.0,1269.0,Object_Land_Solid_Small,5.689236416947097,6.701312958961353,5.0,Object_Land_Solid_Small,9.0,,,,,,,,,,,
encoding,value,25,4618239,4624252,4618475.0,4618679.0,205.0,205.0,1571.8,811.8,1591.0,1269.0,Object_Land_Solid_Small,6.701415708987042,12.7145912500564,5.0,Object_Land_Solid_Small,9.0,,,,,,,,,,,
encoding,value,25,4618239,4624252,4618695.0,4622163.0,3469.0,3469.0,1579.6,870.5,1591.0,1269.0,Object_Land_Solid_Small,6.701415708987042,12.7145912500564,5.0,Object_Land_Solid_Small,9.0,,,,,,,,,,,
encoding,value,25,4618239,4624252,4622177.0,4623940.0,1764.0,1764.0,1596.6,814.9000000000001,1591.0,1269.0,Object_Land_Solid_Small,6.701415708987042,12.7145912500564,5.0,Object_Land_Solid_Small,9.0,,,,,,,,,,,
encoding,value,25,4618239,4624252,4623961.0,4624225.0,265.0,265.0,1588.3,774.5,1591.0,1269.0,Object_Land_Solid_Small,6.701415708987042,12.7145912500564,5.0,Object_Land_Solid_Small,9.0,,,,,,,,,,,
encoding,value,25,4618239,4624252,4624247.0,4624457.0,211.0,5.0,1592.3,890.5999999999999,1591.0,1269.0,Object_Land_Solid_Small,6.701415708987042,12.7145912500564,5.0,Object_Land_Solid_Small,9.0,,,,,,,,,,,
encoding,attention,25,4624253,4627273,4624473.0,4624857.0,385.0,385.0,1593.5,794.5,1591.0,1269.0,Object_Land_Solid_Small,12.71475520893,15.734664584044369,5.0,Object_Land_Solid_Small,9.0,9.0,1.0,0.6980627081356943,,,,,,,,
encoding,attention,25,4624253,4627273,4624865.0,4625206.0,342.0,342.0,1615.6,781.0999999999999,1591.0,1269.0,Object_Land_Solid_Small,12.71475520893,15.734664584044369,5.0,Object_Land_Solid_Small,9.0,9.0,1.0,0.6980627081356943,,,,,,,,
encoding,attention,25,4624253,4627273,4625408.0,4625616.0,209.0,209.0,1594.6,885.0999999999999,1591.0,1269.0,Object_Land_Solid_Small,12.71475520893,15.734664584044369,5.0,Object_Land_Solid_Small,9.0,9.0,1.0,0.6980627081356943,,,,,,,,
encoding,attention,25,4624253,4627273,4625649.0,4625996.0,348.0,348.0,1889.5,1045.1,1920.0,1080.0,fixation,12.71475520893,15.734664584044369,5.0,Object_Land_Solid_Small,9.0,9.0,1.0,0.6980627081356943,,,,,,,,
encoding,attention,25,4624253,4627273,4626025.0,4626793.0,769.0,769.0,1614.6,900.0999999999999,1591.0,1269.0,Object_Land_Solid_Small,12.71475520893,15.734664584044369,5.0,Object_Land_Solid_Small,9.0,9.0,1.0,0.6980627081356943,,,,,,,,
encoding,attention,25,4624253,4627273,4626844.0,4627113.0,270.0,270.0,1614.8,893.8,1591.0,1269.0,Object_Land_Solid_Small,12.71475520893,15.734664584044369,5.0,Object_Land_Solid_Small,9.0,9.0,1.0,0.6980627081356943,,,,,,,,
encoding,fixation,26,4627273,4627779,4627536.0,4628067.0,532.0,243.0,1925.5,1063.1,1920.0,1080.0,fixation,15.734804874984547,16.24076933390461,5.0,Animal_Sea_Solid_Large,-2.0,,,,,,,,,,,
encoding,image,26,4627779,4628789,4628103.0,4629387.0,1285.0,686.0,1907.3,728.9000000000001,1920.0,1460.0,Animal_Sea_Solid_Large,16.24086912488565,17.251110541867092,5.0,Animal_Sea_Solid_Large,-2.0,,,,,,,,,,,
encoding,value,26,4628789,4634802,4629406.0,4633742.0,4337.0,4337.0,1907.2,725.3,1920.0,1460.0,Animal_Sea_Solid_Large,17.251227791886777,23.263493167003617,5.0,Animal_Sea_Solid_Large,-2.0,,,,,,,,,,,
encoding,value,26,4628789,4634802,4633768.0,4634604.0,837.0,837.0,1899.3,600.5,1920.0,1460.0,Animal_Sea_Solid_Large,17.251227791886777,23.263493167003617,5.0,Animal_Sea_Solid_Large,-2.0,,,,,,,,,,,
encoding,value,26,4628789,4634802,4634621.0,4634849.0,229.0,181.0,1901.6,685.7,1920.0,1460.0,Animal_Sea_Solid_Large,17.251227791886777,23.263493167003617,5.0,Animal_Sea_Solid_Large,-2.0,,,,,,,,,,,
encoding,attention,26,4634802,4637821,4634860.0,4635798.0,939.0,939.0,1919.5,593.5999999999999,1920.0,1460.0,Animal_Sea_Solid_Large,23.26359837502241,26.282998875016347,5.0,Animal_Sea_Solid_Large,-2.0,-2.0,1.0,0.6693688749801368,,,,,,,,
encoding,fixation,27,4637822,4638327,4638068.0,4638566.0,499.0,259.0,1925.1,1043.7,1920.0,1080.0,fixation,26.283231375040486,26.78852541698143,5.0,Animal_Sea_Pattern_Large,7.0,,,,,,,,,,,
encoding,image,27,4638327,4639337,4638596.0,4638792.0,197.0,197.0,1620.2,1239.4,1591.0,891.0,Animal_Sea_Pattern_Large,26.788644291926175,27.798665958922356,5.0,Animal_Sea_Pattern_Large,7.0,,,,,,,,,,,
encoding,image,27,4638327,4639337,4638800.0,4639176.0,377.0,377.0,1570.5,1226.9,1591.0,891.0,Animal_Sea_Pattern_Large,26.788644291926175,27.798665958922356,5.0,Animal_Sea_Pattern_Large,7.0,,,,,,,,,,,
encoding,image,27,4638327,4639337,4639189.0,4639869.0,681.0,148.0,1582.4,1168.7,1591.0,891.0,Animal_Sea_Pattern_Large,26.788644291926175,27.798665958922356,5.0,Animal_Sea_Pattern_Large,7.0,,,,,,,,,,,
encoding,value,27,4639337,4645349,4639881.0,4640853.0,973.0,973.0,1597.1,1201.5,1591.0,891.0,Animal_Sea_Pattern_Large,27.798790708882738,33.81012958404608,5.0,Animal_Sea_Pattern_Large,7.0,,,,,,,,,,,
encoding,value,27,4639337,4645349,4640873.0,4642290.0,1418.0,1418.0,1597.0,1202.2,1591.0,891.0,Animal_Sea_Pattern_Large,27.798790708882738,33.81012958404608,5.0,Animal_Sea_Pattern_Large,7.0,,,,,,,,,,,
encoding,value,27,4639337,4645349,4642302.0,4642366.0,65.0,65.0,1614.2,1195.7,1591.0,891.0,Animal_Sea_Pattern_Large,27.798790708882738,33.81012958404608,5.0,Animal_Sea_Pattern_Large,7.0,,,,,,,,,,,
encoding,value,27,4639337,4645349,4642448.0,4642844.0,397.0,397.0,1604.7,1175.4,1591.0,891.0,Animal_Sea_Pattern_Large,27.798790708882738,33.81012958404608,5.0,Animal_Sea_Pattern_Large,7.0,,,,,,,,,,,
encoding,value,27,4639337,4645349,4642858.0,4642970.0,113.0,113.0,1611.6,1181.9,1591.0,891.0,Animal_Sea_Pattern_Large,27.798790708882738,33.81012958404608,5.0,Animal_Sea_Pattern_Large,7.0,,,,,,,,,,,
encoding,value,27,4639337,4645349,4642987.0,4644026.0,1040.0,1040.0,1613.6,1190.3,1591.0,891.0,Animal_Sea_Pattern_Large,27.798790708882738,33.81012958404608,5.0,Animal_Sea_Pattern_Large,7.0,,,,,,,,,,,
encoding,value,27,4639337,4645349,4644044.0,4645817.0,1774.0,1305.0,1615.5,1186.2,1591.0,891.0,Animal_Sea_Pattern_Large,27.798790708882738,33.81012958404608,5.0,Animal_Sea_Pattern_Large,7.0,,,,,,,,,,,
encoding,attention,27,4645349,4648366,4645834.0,4645896.0,63.0,63.0,1540.9,1177.5,1591.0,891.0,Animal_Sea_Pattern_Large,33.810252625029534,36.82741979183629,5.0,Animal_Sea_Pattern_Large,7.0,7.0,1.0,0.7965119578875601,,,,,,,,
encoding,attention,27,4645349,4648366,4645915.0,4645946.0,32.0,32.0,1541.1,1189.7,1591.0,891.0,Animal_Sea_Pattern_Large,33.810252625029534,36.82741979183629,5.0,Animal_Sea_Pattern_Large,7.0,7.0,1.0,0.7965119578875601,,,,,,,,
encoding,attention,27,4645349,4648366,4645959.0,4645998.0,40.0,40.0,1538.4,1197.0,1591.0,891.0,Animal_Sea_Pattern_Large,33.810252625029534,36.82741979183629,5.0,Animal_Sea_Pattern_Large,7.0,7.0,1.0,0.7965119578875601,,,,,,,,
encoding,attention,27,4645349,4648366,4646046.0,4646182.0,137.0,137.0,1543.1,1204.9,1591.0,891.0,Animal_Sea_Pattern_Large,33.810252625029534,36.82741979183629,5.0,Animal_Sea_Pattern_Large,7.0,7.0,1.0,0.7965119578875601,,,,,,,,
encoding,attention,27,4645349,4648366,4646199.0,4646278.0,80.0,80.0,1542.5,1195.8,1591.0,891.0,Animal_Sea_Pattern_Large,33.810252625029534,36.82741979183629,5.0,Animal_Sea_Pattern_Large,7.0,7.0,1.0,0.7965119578875601,,,,,,,,
encoding,attention,27,4645349,4648366,4646303.0,4646339.0,37.0,37.0,1547.1,1187.1,1591.0,891.0,Animal_Sea_Pattern_Large,33.810252625029534,36.82741979183629,5.0,Animal_Sea_Pattern_Large,7.0,7.0,1.0,0.7965119578875601,,,,,,,,
encoding,attention,27,4645349,4648366,4646382.0,4646407.0,26.0,26.0,1572.1,1171.3,1591.0,891.0,Animal_Sea_Pattern_Large,33.810252625029534,36.82741979183629,5.0,Animal_Sea_Pattern_Large,7.0,7.0,1.0,0.7965119578875601,,,,,,,,
encoding,attention,27,4645349,4648366,4646564.0,4646793.0,230.0,230.0,1577.3,1172.4,1591.0,891.0,Animal_Sea_Pattern_Large,33.810252625029534,36.82741979183629,5.0,Animal_Sea_Pattern_Large,7.0,7.0,1.0,0.7965119578875601,,,,,,,,
encoding,attention,27,4645349,4648366,4646817.0,4646840.0,24.0,24.0,1577.3,1178.3,1591.0,891.0,Animal_Sea_Pattern_Large,33.810252625029534,36.82741979183629,5.0,Animal_Sea_Pattern_Large,7.0,7.0,1.0,0.7965119578875601,,,,,,,,
encoding,attention,27,4645349,4648366,4647042.0,4648298.0,1257.0,1257.0,1569.5,1202.2,1591.0,891.0,Animal_Sea_Pattern_Large,33.810252625029534,36.82741979183629,5.0,Animal_Sea_Pattern_Large,7.0,7.0,1.0,0.7965119578875601,,,,,,,,
encoding,fixation,28,4648366,4649372,4648588.0,4649562.0,975.0,784.0,1907.6,1051.5,1920.0,1080.0,fixation,36.827592459041625,37.83293662499637,5.0,Object_Sea_Pattern_Large,-3.0,,,,,,,,,,,
encoding,image,28,4649372,4650385,4649605.0,4649818.0,214.0,214.0,2320.3,1234.4,2249.0,891.0,Object_Sea_Pattern_Large,37.833053374895826,38.84642520896159,5.0,Object_Sea_Pattern_Large,-3.0,,,,,,,,,,,
encoding,image,28,4649372,4650385,4649829.0,4651380.0,1552.0,556.0,2272.6,1178.5,2249.0,891.0,Object_Sea_Pattern_Large,37.833053374895826,38.84642520896159,5.0,Object_Sea_Pattern_Large,-3.0,,,,,,,,,,,
encoding,value,28,4650385,4656398,4651534.0,4656931.0,5398.0,4864.0,2266.9,1139.3,2249.0,891.0,Object_Sea_Pattern_Large,38.84654008387588,44.85858537489548,5.0,Object_Sea_Pattern_Large,-3.0,,,,,,,,,,,
encoding,attention,28,4656398,4659416,4656945.0,4658145.0,1201.0,1201.0,2310.6,1115.5,2249.0,891.0,Object_Sea_Pattern_Large,44.85869825002737,47.87646566703915,5.0,Object_Sea_Pattern_Large,-3.0,-3.0,1.0,1.4617882089223713,,,,,,,,
encoding,attention,28,4656398,4659416,4658170.0,4658371.0,202.0,202.0,2041.7,1020.3,2249.0,1269.0,Object_Land_Pattern_Small,44.85869825002737,47.87646566703915,5.0,Object_Sea_Pattern_Large,-3.0,-3.0,1.0,1.4617882089223713,,,,,,,,
encoding,attention,28,4656398,4659416,4658387.0,4658821.0,435.0,435.0,1921.3,1026.7,1920.0,1080.0,fixation,44.85869825002737,47.87646566703915,5.0,Object_Sea_Pattern_Large,-3.0,-3.0,1.0,1.4617882089223713,,,,,,,,
encoding,fixation,29,4659416,4660671,4659825.0,4660418.0,594.0,594.0,1835.2,1162.9,1591.0,891.0,Animal_Sea_Pattern_Large,47.876628999831155,49.13165274984203,5.0,Animal_Land_Solid_Small,-6.0,,,,,,,,,,,
encoding,fixation,29,4659416,4660671,4660441.0,4660745.0,305.0,230.0,1627.0,1187.9,1591.0,891.0,Animal_Sea_Pattern_Large,47.876628999831155,49.13165274984203,5.0,Animal_Land_Solid_Small,-6.0,,,,,,,,,,,
encoding,image,29,4660671,4661682,4660777.0,4660920.0,144.0,144.0,1870.3,1064.3,1920.0,1080.0,fixation,49.13176349992864,50.14313279185444,5.0,Animal_Land_Solid_Small,-6.0,,,,,,,,,,,
encoding,image,29,4660671,4661682,4660955.0,4661327.0,373.0,373.0,1846.7,1275.1,1920.0,700.0,Animal_Land_Solid_Small,49.13176349992864,50.14313279185444,5.0,Animal_Land_Solid_Small,-6.0,,,,,,,,,,,
encoding,image,29,4660671,4661682,4661341.0,4661752.0,412.0,341.0,1892.6,1221.5,1920.0,700.0,Animal_Land_Solid_Small,49.13176349992864,50.14313279185444,5.0,Animal_Land_Solid_Small,-6.0,,,,,,,,,,,
encoding,value,29,4661683,4667695,4661767.0,4662334.0,568.0,568.0,1874.6,1284.6,1920.0,700.0,Animal_Land_Solid_Small,50.14325074991211,56.15480445884168,5.0,Animal_Land_Solid_Small,-6.0,,,,,,,,,,,
encoding,value,29,4661683,4667695,4662482.0,4662901.0,420.0,420.0,1904.1,1364.5,1920.0,700.0,Animal_Land_Solid_Small,50.14325074991211,56.15480445884168,5.0,Animal_Land_Solid_Small,-6.0,,,,,,,,,,,
encoding,value,29,4661683,4667695,4662922.0,4663527.0,606.0,606.0,1872.6,1261.2,1920.0,700.0,Animal_Land_Solid_Small,50.14325074991211,56.15480445884168,5.0,Animal_Land_Solid_Small,-6.0,,,,,,,,,,,
encoding,value,29,4661683,4667695,4663548.0,4664310.0,763.0,763.0,1682.7,1204.5,1591.0,891.0,Animal_Sea_Pattern_Large,50.14325074991211,56.15480445884168,5.0,Animal_Land_Solid_Small,-6.0,,,,,,,,,,,
encoding,value,29,4661683,4667695,4664339.0,4668239.0,3901.0,3356.0,1880.1,1270.2,1920.0,700.0,Animal_Land_Solid_Small,50.14325074991211,56.15480445884168,5.0,Animal_Land_Solid_Small,-6.0,,,,,,,,,,,
encoding,attention,29,4667695,4670711,4668254.0,4668722.0,469.0,469.0,1900.5,1265.7,1920.0,700.0,Animal_Land_Solid_Small,56.15493883402087,59.1713589169085,5.0,Animal_Land_Solid_Small,-6.0,-6.0,1.0,0.7391775830183178,,,,,,,,
encoding,fixation,30,4670711,4672217,4671027.0,4672417.0,1391.0,1190.0,1915.7,1067.6,1920.0,1080.0,fixation,59.17151554184966,60.67729941685684,5.0,Object_Land_Pattern_Small,-7.0,,,,,,,,,,,
encoding,image,30,4672217,4673229,4672453.0,4673456.0,1004.0,776.0,2234.6,850.8,2249.0,1269.0,Object_Land_Pattern_Small,60.67739783390425,61.68876912491396,5.0,Object_Land_Pattern_Small,-7.0,,,,,,,,,,,
encoding,value,30,4673229,4679240,4673468.0,4673809.0,342.0,342.0,2246.5,752.5,2249.0,1269.0,Object_Land_Pattern_Small,61.68887716694735,67.69988770899363,5.0,Object_Land_Pattern_Small,-7.0,,,,,,,,,,,
encoding,value,30,4673229,4679240,4673830.0,4674662.0,833.0,833.0,2218.7,850.4000000000001,2249.0,1269.0,Object_Land_Pattern_Small,61.68887716694735,67.69988770899363,5.0,Object_Land_Pattern_Small,-7.0,,,,,,,,,,,
encoding,value,30,4673229,4679240,4674686.0,4676844.0,2159.0,2159.0,1957.2,884.3,1920.0,1460.0,Animal_Sea_Solid_Large,61.68887716694735,67.69988770899363,5.0,Object_Land_Pattern_Small,-7.0,,,,,,,,,,,
encoding,value,30,4673229,4679240,4677022.0,4677672.0,651.0,651.0,1868.2,1032.0,1591.0,1269.0,Object_Land_Solid_Small,61.68887716694735,67.69988770899363,5.0,Object_Land_Pattern_Small,-7.0,,,,,,,,,,,
encoding,attention,30,4679240,4682260,,,,,,,,,none,67.70001000002958,70.71970474999398,5.0,Object_Land_Pattern_Small,-7.0,-7.0,1.0,1.7908037500455976,,,,,,,,
encoding,fixation,31,4982934,4984440,4983206.0,4984688.0,1483.0,1234.0,1936.0,1072.5,1920.0,1080.0,fixation,4.1776272498536855,5.6835791249759495,6.0,Object_Sea_Pattern_Small,3.0,,,,,,,,,,,
encoding,image,31,4984440,4985453,4984737.0,4985879.0,1143.0,716.0,1897.9,723.8,1920.0,1460.0,Object_Sea_Pattern_Small,5.683763083070517,6.6967342919670045,6.0,Object_Sea_Pattern_Small,3.0,,,,,,,,,,,
encoding,value,31,4985453,4991467,4985891.0,4986208.0,318.0,318.0,1901.2,729.2,1920.0,1460.0,Object_Sea_Pattern_Small,6.696866082958877,12.710997458081692,6.0,Object_Sea_Pattern_Small,3.0,,,,,,,,,,,
encoding,value,31,4985453,4991467,4986387.0,4991674.0,5288.0,5080.0,1902.7,711.7,1920.0,1460.0,Object_Sea_Pattern_Small,6.696866082958877,12.710997458081692,6.0,Object_Sea_Pattern_Small,3.0,,,,,,,,,,,
encoding,attention,31,4991467,4994486,4991690.0,4992485.0,796.0,796.0,1934.1,618.0,1920.0,1460.0,Object_Sea_Pattern_Small,12.71110499999486,15.728917457861826,6.0,Object_Sea_Pattern_Small,3.0,3.0,1.0,0.6436248340178281,,,,,,,,
encoding,fixation,32,4994486,4994991,4994735.0,4995220.0,486.0,256.0,1929.8,1069.8,1920.0,1080.0,fixation,15.729077416937798,16.23439750005491,6.0,Animal_Land_Pattern_Large,-6.0,,,,,,,,,,,
encoding,image,32,4994991,4996003,4995255.0,4995784.0,530.0,530.0,2220.2,899.3,2249.0,1269.0,Animal_Land_Pattern_Large,16.234500457998365,17.24657700001262,6.0,Animal_Land_Pattern_Large,-6.0,,,,,,,,,,,
encoding,image,32,4994991,4996003,4995802.0,4996429.0,628.0,201.0,2244.8,787.9000000000001,2249.0,1269.0,Animal_Land_Pattern_Large,16.234500457998365,17.24657700001262,6.0,Animal_Land_Pattern_Large,-6.0,,,,,,,,,,,
encoding,value,32,4996003,5002015,4996452.0,4996685.0,234.0,234.0,2211.1,889.5999999999999,2249.0,1269.0,Animal_Land_Pattern_Large,17.246687249979004,23.258391875075176,6.0,Animal_Land_Pattern_Large,-6.0,,,,,,,,,,,
encoding,value,32,4996003,5002015,4996874.0,5002418.0,5545.0,5141.0,2198.8,893.9000000000001,2249.0,1269.0,Animal_Land_Pattern_Large,17.246687249979004,23.258391875075176,6.0,Animal_Land_Pattern_Large,-6.0,,,,,,,,,,,
encoding,attention,32,5002015,5005033,5002438.0,5002690.0,253.0,253.0,2260.8,809.5,2249.0,1269.0,Animal_Land_Pattern_Large,23.258509832900017,26.275808125035837,6.0,Animal_Land_Pattern_Large,-6.0,-6.0,1.0,0.90749662485905,,,,,,,,
encoding,attention,32,5002015,5005033,5002704.0,5003252.0,549.0,549.0,2190.2,775.3,2249.0,1269.0,Animal_Land_Pattern_Large,23.258509832900017,26.275808125035837,6.0,Animal_Land_Pattern_Large,-6.0,-6.0,1.0,0.90749662485905,,,,,,,,
encoding,attention,32,5002015,5005033,5003270.0,5003572.0,303.0,303.0,2038.2,798.9000000000001,1920.0,1460.0,Object_Sea_Pattern_Small,23.258509832900017,26.275808125035837,6.0,Animal_Land_Pattern_Large,-6.0,-6.0,1.0,0.90749662485905,,,,,,,,
encoding,attention,32,5002015,5005033,5003602.0,5003768.0,167.0,167.0,1995.5,671.5999999999999,1920.0,1460.0,Object_Sea_Pattern_Small,23.258509832900017,26.275808125035837,6.0,Animal_Land_Pattern_Large,-6.0,-6.0,1.0,0.90749662485905,,,,,,,,
encoding,fixation,33,5005033,5006538,5005398.0,5006559.0,1162.0,1140.0,1937.9,1044.6,1920.0,1080.0,fixation,26.27596545801498,27.781276041874666,6.0,Object_Land_Solid_Small,4.0,,,,,,,,,,,
encoding,image,33,5006538,5007551,5006567.0,5006763.0,197.0,197.0,1933.5,992.5999999999999,1920.0,1460.0,Object_Sea_Pattern_Small,27.781397917075083,28.79379829205573,6.0,Object_Land_Solid_Small,4.0,,,,,,,,,,,
encoding,image,33,5006538,5007551,5006813.0,5006861.0,49.0,49.0,1603.0,883.9000000000001,1591.0,1269.0,Object_Land_Solid_Small,27.781397917075083,28.79379829205573,6.0,Object_Land_Solid_Small,4.0,,,,,,,,,,,
encoding,image,33,5006538,5007551,5006967.0,5007024.0,58.0,58.0,1615.6,895.9000000000001,1591.0,1269.0,Object_Land_Solid_Small,27.781397917075083,28.79379829205573,6.0,Object_Land_Solid_Small,4.0,,,,,,,,,,,
encoding,image,33,5006538,5007551,5007056.0,5007102.0,47.0,47.0,1614.3,908.5999999999999,1591.0,1269.0,Object_Land_Solid_Small,27.781397917075083,28.79379829205573,6.0,Object_Land_Solid_Small,4.0,,,,,,,,,,,
encoding,image,33,5006538,5007551,5007119.0,5007149.0,31.0,31.0,1622.7,891.7,1591.0,1269.0,Object_Land_Solid_Small,27.781397917075083,28.79379829205573,6.0,Object_Land_Solid_Small,4.0,,,,,,,,,,,
encoding,image,33,5006538,5007551,5007396.0,5007427.0,32.0,32.0,1689.6,862.0,1591.0,1269.0,Object_Land_Solid_Small,27.781397917075083,28.79379829205573,6.0,Object_Land_Solid_Small,4.0,,,,,,,,,,,
encoding,image,33,5006538,5007551,5007449.0,5007758.0,310.0,102.0,1858.7,851.0,1920.0,1460.0,Object_Sea_Pattern_Small,27.781397917075083,28.79379829205573,6.0,Object_Land_Solid_Small,4.0,,,,,,,,,,,
encoding,value,33,5007551,5013563,5007788.0,5008650.0,863.0,863.0,1602.7,776.7,1591.0,1269.0,Object_Land_Solid_Small,28.793906749924645,34.80565662495792,6.0,Object_Land_Solid_Small,4.0,,,,,,,,,,,
encoding,value,33,5007551,5013563,5008809.0,5008855.0,47.0,47.0,1612.2,848.0,1591.0,1269.0,Object_Land_Solid_Small,28.793906749924645,34.80565662495792,6.0,Object_Land_Solid_Small,4.0,,,,,,,,,,,
encoding,value,33,5007551,5013563,5008925.0,5009625.0,701.0,701.0,1615.1,805.3,1591.0,1269.0,Object_Land_Solid_Small,28.793906749924645,34.80565662495792,6.0,Object_Land_Solid_Small,4.0,,,,,,,,,,,
encoding,value,33,5007551,5013563,5009631.0,5009995.0,365.0,365.0,1668.9,788.0,1591.0,1269.0,Object_Land_Solid_Small,28.793906749924645,34.80565662495792,6.0,Object_Land_Solid_Small,4.0,,,,,,,,,,,
encoding,value,33,5007551,5013563,5010003.0,5011213.0,1211.0,1211.0,1610.5,801.5999999999999,1591.0,1269.0,Object_Land_Solid_Small,28.793906749924645,34.80565662495792,6.0,Object_Land_Solid_Small,4.0,,,,,,,,,,,
encoding,value,33,5007551,5013563,5011247.0,5011932.0,686.0,686.0,1942.4,916.7,1920.0,1460.0,Object_Sea_Pattern_Small,28.793906749924645,34.80565662495792,6.0,Object_Land_Solid_Small,4.0,,,,,,,,,,,
encoding,value,33,5007551,5013563,5011958.0,5012163.0,206.0,206.0,1611.7,876.0,1591.0,1269.0,Object_Land_Solid_Small,28.793906749924645,34.80565662495792,6.0,Object_Land_Solid_Small,4.0,,,,,,,,,,,
encoding,value,33,5007551,5013563,5012307.0,5012347.0,41.0,41.0,1602.7,856.2,1591.0,1269.0,Object_Land_Solid_Small,28.793906749924645,34.80565662495792,6.0,Object_Land_Solid_Small,4.0,,,,,,,,,,,
encoding,value,33,5007551,5013563,5012762.0,5012792.0,31.0,31.0,1602.3,855.0999999999999,1591.0,1269.0,Object_Land_Solid_Small,28.793906749924645,34.80565662495792,6.0,Object_Land_Solid_Small,4.0,,,,,,,,,,,
encoding,value,33,5007551,5013563,5013245.0,5013655.0,411.0,318.0,1604.9,846.0,1591.0,1269.0,Object_Land_Solid_Small,28.793906749924645,34.80565662495792,6.0,Object_Land_Solid_Small,4.0,,,,,,,,,,,
encoding,attention,33,5013563,5016582,5013696.0,5013757.0,62.0,62.0,1602.9,849.8,1591.0,1269.0,Object_Land_Solid_Small,34.805767958052456,37.82419195794501,6.0,Object_Land_Solid_Small,4.0,4.0,1.0,0.7971953330561519,,,,,,,,
encoding,attention,33,5013563,5016582,5013784.0,5014699.0,916.0,916.0,1569.1,763.9000000000001,1591.0,1269.0,Object_Land_Solid_Small,34.805767958052456,37.82419195794501,6.0,Object_Land_Solid_Small,4.0,4.0,1.0,0.7971953330561519,,,,,,,,
encoding,attention,33,5013563,5016582,5014708.0,5015000.0,293.0,293.0,1620.2,853.2,1591.0,1269.0,Object_Land_Solid_Small,34.805767958052456,37.82419195794501,6.0,Object_Land_Solid_Small,4.0,4.0,1.0,0.7971953330561519,,,,,,,,
encoding,attention,33,5013563,5016582,5016254.0,5016297.0,44.0,44.0,1659.3,922.9000000000001,1591.0,1269.0,Object_Land_Solid_Small,34.805767958052456,37.82419195794501,6.0,Object_Land_Solid_Small,4.0,4.0,1.0,0.7971953330561519,,,,,,,,
encoding,attention,33,5013563,5016582,5016411.0,5016443.0,33.0,33.0,1656.7,933.0999999999999,1591.0,1269.0,Object_Land_Solid_Small,34.805767958052456,37.82419195794501,6.0,Object_Land_Solid_Small,4.0,4.0,1.0,0.7971953330561519,,,,,,,,
encoding,attention,33,5013563,5016582,5016499.0,5016551.0,53.0,53.0,1872.5,1028.4,1591.0,1269.0,Object_Land_Solid_Small,34.805767958052456,37.82419195794501,6.0,Object_Land_Solid_Small,4.0,4.0,1.0,0.7971953330561519,,,,,,,,
encoding,fixation,34,5016582,5017837,5016632.0,5016696.0,65.0,65.0,1870.0,1027.2,1591.0,1269.0,Object_Land_Solid_Small,37.824364207917824,39.07927258289419,6.0,Animal_Land_Solid_Large,1.0,,,,,,,,,,,
encoding,fixation,34,5016582,5017837,5016706.0,5016765.0,60.0,60.0,1934.3,1060.5,1920.0,1080.0,fixation,37.824364207917824,39.07927258289419,6.0,Animal_Land_Solid_Large,1.0,,,,,,,,,,,
encoding,fixation,34,5016582,5017837,5016812.0,5016884.0,73.0,73.0,1928.0,1066.4,1920.0,1080.0,fixation,37.824364207917824,39.07927258289419,6.0,Animal_Land_Solid_Large,1.0,,,,,,,,,,,
encoding,fixation,34,5016582,5017837,5016910.0,5016935.0,26.0,26.0,1923.6,1087.2,1920.0,1080.0,fixation,37.824364207917824,39.07927258289419,6.0,Animal_Land_Solid_Large,1.0,,,,,,,,,,,
encoding,fixation,34,5016582,5017837,5016963.0,5017104.0,142.0,142.0,1919.0,1091.9,1920.0,1080.0,fixation,37.824364207917824,39.07927258289419,6.0,Animal_Land_Solid_Large,1.0,,,,,,,,,,,
encoding,fixation,34,5016582,5017837,5017222.0,5017321.0,100.0,100.0,1948.7,1046.3,1920.0,1080.0,fixation,37.824364207917824,39.07927258289419,6.0,Animal_Land_Solid_Large,1.0,,,,,,,,,,,
encoding,fixation,34,5016582,5017837,5017333.0,5017420.0,88.0,88.0,1958.2,1027.8,1920.0,1080.0,fixation,37.824364207917824,39.07927258289419,6.0,Animal_Land_Solid_Large,1.0,,,,,,,,,,,
encoding,fixation,34,5016582,5017837,5017439.0,5017530.0,92.0,92.0,1958.3,1033.4,1920.0,1080.0,fixation,37.824364207917824,39.07927258289419,6.0,Animal_Land_Solid_Large,1.0,,,,,,,,,,,
encoding,fixation,34,5016582,5017837,5017562.0,5017787.0,226.0,226.0,1959.7,1034.5,1920.0,1080.0,fixation,37.824364207917824,39.07927258289419,6.0,Animal_Land_Solid_Large,1.0,,,,,,,,,,,
encoding,image,34,5017837,5018848,5017844.0,5017909.0,66.0,66.0,1958.7,1041.0,1920.0,1080.0,fixation,39.07939570792951,40.09073070785962,6.0,Animal_Land_Solid_Large,1.0,,,,,,,,,,,
