subject,phase,event,trial_number,game,option,choice,rt,roi_content,item_index,is_relevant,fix_start,fix_end,fix_duration_bounded
123,choice,choice,1,1.0,Object,2.0,26.477677040966228,Object_Land_Pattern_Large,0,1,17239642.0,17239735.0,93.0
123,choice,choice,1,1.0,Object,2.0,26.477677040966228,Object_Sea_Pattern_Large,1,1,17240069.0,17240647.0,578.0
123,choice,choice,1,1.0,Object,2.0,26.477677040966228,Animal_Land_Solid_Small,2,0,17243102.0,17243289.0,187.0
123,choice,choice,1,1.0,Object,2.0,26.477677040966228,Animal_Sea_Solid_Small,3,0,17243894.0,17243999.0,105.0
123,choice,choice,1,1.0,Object,2.0,26.477677040966228,Object_Land_Pattern_Large,0,1,17244390.0,17244530.0,140.0
123,choice,choice,1,1.0,Object,2.0,26.477677040966228,Object_Sea_Pattern_Large,1,1,17246950.0,17247263.0,313.0
123,choice,choice,1,1.0,Object,2.0,26.477677040966228,Object_Land_Pattern_Large,0,1,17248180.0,17248309.0,129.0
123,choice,choice,1,1.0,Object,2.0,26.477677040966228,Object_Sea_Pattern_Large,1,1,17248630.0,17248812.0,182.0
123,choice,choice,1,1.0,Object,2.0,26.477677040966228,Animal_Sea_Solid_Small,3,0,17249395.0,17249721.0,326.0
123,choice,choice,1,1.0,Object,2.0,26.477677040966228,Object_Land_Solid_Small,4,1,17251861.0,17252086.0,225.0
123,choice,choice,1,1.0,Object,2.0,26.477677040966228,Object_Land_Pattern_Large,0,1,17254603.0,17254665.0,62.0
123,choice,choice,1,1.0,Object,2.0,26.477677040966228,Animal_Sea_Solid_Small,3,0,17254946.0,17255043.0,97.0
123,choice,choice,1,1.0,Object,2.0,26.477677040966228,Object_Land_Solid_Small,4,1,17257178.0,17257567.0,389.0
123,choice,choice,1,1.0,Object,2.0,26.477677040966228,Animal_Sea_Pattern_Large,5,0,17260904.0,17260943.0,39.0
123,choice,choice,1,1.0,Object,2.0,26.477677040966228,Object_Land_Solid_Small,4,1,17261119.0,17261442.0,323.0
123,choice,choice,1,1.0,Object,2.0,26.477677040966228,Animal_Land_Solid_Small,2,0,17262680.0,17263065.0,385.0
123,choice,choice,1,1.0,Object,2.0,26.477677040966228,Animal_Sea_Pattern_Large,5,0,17263796.0,17264102.0,306.0
123,choice,choice,1,1.0,Object,2.0,26.477677040966228,Object_Land_Solid_Small,4,1,17264118.0,17264305.0,187.0
123,choice,choice,2,1.0,Solid,2.0,14.206396458903328,Object_Land_Solid_Small,4,1,17277135.0,17277376.0,241.0
123,choice,choice,2,1.0,Solid,2.0,14.206396458903328,Object_Sea_Pattern_Large,1,0,17277390.0,17278481.0,1091.0
123,choice,choice,2,1.0,Solid,2.0,14.206396458903328,Object_Land_Pattern_Large,0,0,17279946.0,17280271.0,325.0
123,choice,choice,2,1.0,Solid,2.0,14.206396458903328,Object_Land_Solid_Small,4,1,17281047.0,17281257.0,210.0
123,choice,choice,2,1.0,Solid,2.0,14.206396458903328,Animal_Sea_Pattern_Large,5,0,17281341.0,17281440.0,99.0
123,choice,choice,2,1.0,Solid,2.0,14.206396458903328,Object_Land_Pattern_Large,0,0,17281899.0,17282062.0,163.0
123,choice,choice,3,1.0,Small,2.0,19.23182424996048,Animal_Sea_Pattern_Large,5,0,17287201.0,17287427.0,226.0
123,choice,choice,3,1.0,Small,2.0,19.23182424996048,Animal_Land_Solid_Small,2,1,17288121.0,17288216.0,95.0
123,choice,choice,3,1.0,Small,2.0,19.23182424996048,Object_Sea_Pattern_Large,1,0,17288856.0,17288998.0,142.0
123,choice,choice,3,1.0,Small,2.0,19.23182424996048,Object_Land_Pattern_Large,0,0,17289436.0,17289512.0,76.0
123,choice,choice,3,1.0,Small,2.0,19.23182424996048,Object_Sea_Pattern_Large,1,0,17289748.0,17290125.0,377.0
123,choice,choice,3,1.0,Small,2.0,19.23182424996048,Object_Land_Solid_Small,4,1,17292559.0,17295131.0,2572.0
123,choice,choice,3,1.0,Small,2.0,19.23182424996048,Animal_Sea_Pattern_Large,5,0,17298527.0,17298754.0,227.0
123,choice,choice,3,1.0,Small,2.0,19.23182424996048,Object_Land_Solid_Small,4,1,17298768.0,17299173.0,405.0
123,choice,choice,3,1.0,Small,2.0,19.23182424996048,Animal_Sea_Solid_Small,3,1,17300263.0,17300462.0,199.0
123,choice,choice,3,1.0,Small,2.0,19.23182424996048,Object_Land_Solid_Small,4,1,17301410.0,17303015.0,1605.0
123,choice,choice,4,1.0,Sea,2.0,15.666507042013109,Animal_Sea_Pattern_Large,5,1,17311013.0,17311108.0,95.0
123,choice,choice,4,1.0,Sea,2.0,15.666507042013109,Object_Sea_Pattern_Large,1,1,17313170.0,17314227.0,1057.0
123,choice,choice,4,1.0,Sea,2.0,15.666507042013109,Animal_Land_Solid_Small,2,0,17319744.0,17320751.0,1007.0
123,choice,choice,4,1.0,Sea,2.0,15.666507042013109,Object_Land_Pattern_Large,0,0,17322499.0,17322658.0,159.0
123,choice,choice,4,1.0,Sea,2.0,15.666507042013109,Animal_Land_Solid_Small,2,0,17322677.0,17322953.0,276.0
123,choice,choice,5,1.0,Animal,1.0,3.4547302920836955,Animal_Land_Solid_Small,2,1,17328044.0,17328156.0,112.0
123,choice,choice,5,1.0,Animal,1.0,3.4547302920836955,Object_Sea_Pattern_Large,1,0,17328738.0,17328918.0,180.0
123,choice,choice,5,1.0,Animal,1.0,3.4547302920836955,Object_Land_Solid_Small,4,0,17328936.0,17329088.0,152.0
123,choice,choice,6,1.0,Large,1.0,6.95364566706121,Object_Land_Solid_Small,4,0,17334304.0,17334589.0,285.0
123,choice,choice,6,1.0,Large,1.0,6.95364566706121,Animal_Sea_Pattern_Large,5,1,17334790.0,17334908.0,118.0
123,choice,choice,6,1.0,Large,1.0,6.95364566706121,Object_Land_Pattern_Large,0,1,17335482.0,17335579.0,97.0
123,choice,choice,6,1.0,Large,1.0,6.95364566706121,Object_Sea_Pattern_Large,1,1,17336211.0,17336317.0,106.0
123,choice,choice,6,1.0,Large,1.0,6.95364566706121,Object_Land_Solid_Small,4,0,17336770.0,17336914.0,144.0
123,choice,choice,6,1.0,Large,1.0,6.95364566706121,Object_Sea_Pattern_Large,1,1,17337468.0,17337563.0,95.0
123,choice,choice,6,1.0,Large,1.0,6.95364566706121,Object_Land_Pattern_Large,0,1,17337967.0,17338707.0,740.0
123,choice,choice,6,1.0,Large,1.0,6.95364566706121,Animal_Land_Solid_Small,2,0,17339474.0,17339652.0,178.0
123,choice,choice,7,1.0,Pattern,1.0,10.950462999986485,Animal_Sea_Pattern_Large,5,1,17343917.0,17344356.0,439.0
123,choice,choice,7,1.0,Pattern,1.0,10.950462999986485,Object_Land_Solid_Small,4,0,17344403.0,17347908.0,3505.0
123,choice,choice,7,1.0,Pattern,1.0,10.950462999986485,Animal_Sea_Pattern_Large,5,1,17348586.0,17348793.0,207.0
123,choice,choice,7,1.0,Pattern,1.0,10.950462999986485,Object_Land_Solid_Small,4,0,17348805.0,17350618.0,1813.0
123,choice,choice,7,1.0,Pattern,1.0,10.950462999986485,Animal_Sea_Pattern_Large,5,1,17350931.0,17351432.0,501.0
123,choice,choice,7,1.0,Pattern,1.0,10.950462999986485,Animal_Land_Solid_Small,2,0,17352014.0,17352083.0,69.0
123,choice,choice,7,1.0,Pattern,1.0,10.950462999986485,Animal_Sea_Pattern_Large,5,1,17352378.0,17352440.0,62.0
123,choice,choice,7,1.0,Pattern,1.0,10.950462999986485,Animal_Land_Solid_Small,2,0,17353321.0,17353454.0,133.0
123,choice,choice,8,1.0,Land,1.0,7.036587374983355,Object_Land_Pattern_Large,0,1,17360256.0,17360438.0,182.0
123,choice,choice,8,1.0,Land,1.0,7.036587374983355,Animal_Land_Solid_Small,2,1,17361418.0,17361792.0,374.0
123,choice,choice,8,1.0,Land,1.0,7.036587374983355,Object_Sea_Pattern_Large,1,0,17362897.0,17363140.0,243.0
123,choice,choice,8,1.0,Land,1.0,7.036587374983355,Object_Land_Solid_Small,4,1,17363159.0,17363325.0,166.0
123,choice,choice,8,1.0,Land,1.0,7.036587374983355,Object_Sea_Pattern_Large,1,0,17363341.0,17363523.0,182.0
123,choice,choice,8,1.0,Land,1.0,7.036587374983355,Object_Land_Solid_Small,4,1,17363558.0,17364148.0,590.0
123,choice,choice,9,2.0,Sea,1.0,41.02251833397895,Object_Sea_Pattern_Small,0,1,17731702.0,17731824.0,122.0
123,choice,choice,9,2.0,Sea,1.0,41.02251833397895,Animal_Sea_Pattern_Large,1,1,17732373.0,17732798.0,425.0
123,choice,choice,9,2.0,Sea,1.0,41.02251833397895,Object_Land_Solid_Small,2,0,17733101.0,17733445.0,344.0
123,choice,choice,9,2.0,Sea,1.0,41.02251833397895,Object_Sea_Pattern_Small,0,1,17734286.0,17736270.0,1984.0
123,choice,choice,9,2.0,Sea,1.0,41.02251833397895,Object_Land_Solid_Large,3,0,17743045.0,17743304.0,259.0
123,choice,choice,9,2.0,Sea,1.0,41.02251833397895,Animal_Land_Solid_Large,4,0,17745911.0,17746032.0,121.0
123,choice,choice,9,2.0,Sea,1.0,41.02251833397895,Object_Sea_Pattern_Small,0,1,17746543.0,17746616.0,73.0
123,choice,choice,9,2.0,Sea,1.0,41.02251833397895,Object_Land_Solid_Small,2,0,17748053.0,17748152.0,99.0
123,choice,choice,9,2.0,Sea,1.0,41.02251833397895,Animal_Sea_Pattern_Large,1,1,17751843.0,17751955.0,112.0
123,choice,choice,9,2.0,Sea,1.0,41.02251833397895,Animal_Land_Solid_Large,4,0,17752691.0,17753139.0,448.0
123,choice,choice,9,2.0,Sea,1.0,41.02251833397895,Object_Sea_Pattern_Small,0,1,17754001.0,17754567.0,566.0
123,choice,choice,9,2.0,Sea,1.0,41.02251833397895,Animal_Land_Solid_Large,4,0,17757818.0,17757943.0,125.0
123,choice,choice,9,2.0,Sea,1.0,41.02251833397895,Object_Sea_Pattern_Small,0,1,17759082.0,17759765.0,683.0
123,choice,choice,9,2.0,Sea,1.0,41.02251833397895,Animal_Sea_Pattern_Large,1,1,17761676.0,17762130.0,454.0
123,choice,choice,9,2.0,Sea,1.0,41.02251833397895,Object_Sea_Pattern_Small,0,1,17763100.0,17764044.0,944.0
123,choice,choice,9,2.0,Sea,1.0,41.02251833397895,Animal_Sea_Pattern_Small,5,1,17768605.0,17768762.0,157.0
123,choice,choice,9,2.0,Sea,1.0,41.02251833397895,Object_Sea_Pattern_Small,0,1,17769123.0,17769369.0,246.0
123,choice,choice,9,2.0,Sea,1.0,41.02251833397895,Animal_Sea_Pattern_Large,1,1,17769382.0,17769582.0,200.0
123,choice,choice,9,2.0,Sea,1.0,41.02251833397895,Animal_Land_Solid_Large,4,0,17770354.0,17770506.0,152.0
123,choice,choice,9,2.0,Sea,1.0,41.02251833397895,Object_Sea_Pattern_Small,0,1,17771578.0,17772085.0,507.0
123,choice,choice,10,2.0,Small,1.0,14.927677457919344,Animal_Sea_Pattern_Large,1,0,17776560.0,17776603.0,43.0
123,choice,choice,10,2.0,Small,1.0,14.927677457919344,Animal_Land_Solid_Large,4,0,17778778.0,17778934.0,156.0
123,choice,choice,10,2.0,Small,1.0,14.927677457919344,Object_Land_Solid_Large,3,0,17783012.0,17783091.0,79.0
123,choice,choice,10,2.0,Small,1.0,14.927677457919344,Animal_Land_Solid_Large,4,0,17783313.0,17783465.0,152.0
123,choice,choice,10,2.0,Small,1.0,14.927677457919344,Animal_Sea_Pattern_Large,1,0,17784346.0,17784590.0,244.0
123,choice,choice,10,2.0,Small,1.0,14.927677457919344,Object_Land_Solid_Small,2,1,17784796.0,17786075.0,1279.0
123,choice,choice,10,2.0,Small,1.0,14.927677457919344,Animal_Sea_Pattern_Large,1,0,17787481.0,17788279.0,798.0
123,choice,choice,10,2.0,Small,1.0,14.927677457919344,Animal_Land_Solid_Large,4,0,17788897.0,17789163.0,266.0
123,choice,choice,10,2.0,Small,1.0,14.927677457919344,Animal_Sea_Pattern_Small,5,1,17789602.0,17789774.0,172.0
123,choice,choice,10,2.0,Small,1.0,14.927677457919344,Object_Land_Solid_Small,2,1,17791034.0,17791198.0,164.0
123,choice,choice,11,2.0,Animal,1.0,7.5742546250112355,Animal_Sea_Pattern_Large,1,1,17794434.0,17794654.0,220.0
123,choice,choice,11,2.0,Animal,1.0,7.5742546250112355,Animal_Land_Solid_Large,4,1,17794677.0,17795149.0,472.0
123,choice,choice,11,2.0,Animal,1.0,7.5742546250112355,Object_Land_Solid_Small,2,0,17795298.0,17795457.0,159.0
123,choice,choice,11,2.0,Animal,1.0,7.5742546250112355,Animal_Sea_Pattern_Small,5,1,17795939.0,17796257.0,318.0
123,choice,choice,11,2.0,Animal,1.0,7.5742546250112355,Animal_Land_Solid_Large,4,1,17797054.0,17797399.0,345.0
123,choice,choice,11,2.0,Animal,1.0,7.5742546250112355,Object_Land_Solid_Large,3,0,17798320.0,17798412.0,92.0
123,choice,choice,11,2.0,Animal,1.0,7.5742546250112355,Object_Land_Solid_Small,2,0,17798862.0,17799114.0,252.0
123,choice,choice,11,2.0,Animal,1.0,7.5742546250112355,Object_Sea_Pattern_Small,0,0,17799137.0,17799506.0,369.0
123,choice,choice,12,2.0,Land,1.0,18.315085959155113,Object_Land_Solid_Small,2,1,17804767.0,17805781.0,1014.0
123,choice,choice,12,2.0,Land,1.0,18.315085959155113,Animal_Land_Solid_Large,4,1,17809582.0,17809698.0,116.0
123,choice,choice,12,2.0,Land,1.0,18.315085959155113,Object_Land_Solid_Large,3,1,17811667.0,17811742.0,75.0
123,choice,choice,12,2.0,Land,1.0,18.315085959155113,Animal_Land_Solid_Large,4,1,17813813.0,17814042.0,229.0
123,choice,choice,12,2.0,Land,1.0,18.315085959155113,Object_Land_Solid_Small,2,1,17814079.0,17814276.0,197.0
123,choice,choice,12,2.0,Land,1.0,18.315085959155113,Object_Land_Solid_Large,3,1,17816950.0,17817055.0,105.0
123,choice,choice,12,2.0,Land,1.0,18.315085959155113,Object_Land_Solid_Small,2,1,17817945.0,17818376.0,431.0
123,choice,choice,12,2.0,Land,1.0,18.315085959155113,Animal_Land_Solid_Large,4,1,17818415.0,17819225.0,810.0
123,choice,choice,12,2.0,Land,1.0,18.315085959155113,Animal_Sea_Pattern_Large,1,0,17820501.0,17820908.0,407.0
123,choice,choice,12,2.0,Land,1.0,18.315085959155113,Object_Land_Solid_Small,2,1,17820938.0,17821101.0,163.0
123,choice,choice,12,2.0,Land,1.0,18.315085959155113,Object_Sea_Pattern_Small,0,0,17821833.0,17822586.0,753.0
123,choice,choice,13,2.0,Solid,1.0,17.716699542012066,Object_Land_Solid_Small,2,1,17826072.0,17826371.0,299.0
123,choice,choice,13,2.0,Solid,1.0,17.716699542012066,Animal_Sea_Pattern_Large,1,0,17827705.0,17827825.0,120.0
123,choice,choice,13,2.0,Solid,1.0,17.716699542012066,Object_Land_Solid_Small,2,1,17828377.0,17829181.0,804.0
123,choice,choice,13,2.0,Solid,1.0,17.716699542012066,Animal_Land_Solid_Large,4,1,17829885.0,17830004.0,119.0
123,choice,choice,13,2.0,Solid,1.0,17.716699542012066,Object_Sea_Pattern_Small,0,0,17830743.0,17832023.0,1280.0
123,choice,choice,13,2.0,Solid,1.0,17.716699542012066,Animal_Sea_Pattern_Small,5,0,17837163.0,17837285.0,122.0
123,choice,choice,13,2.0,Solid,1.0,17.716699542012066,Animal_Land_Solid_Large,4,1,17838143.0,17838408.0,265.0
123,choice,choice,13,2.0,Solid,1.0,17.716699542012066,Object_Land_Solid_Small,2,1,17838425.0,17838557.0,132.0
123,choice,choice,13,2.0,Solid,1.0,17.716699542012066,Animal_Land_Solid_Large,4,1,17838579.0,17839141.0,562.0
123,choice,choice,13,2.0,Solid,1.0,17.716699542012066,Object_Land_Solid_Small,2,1,17839156.0,17839953.0,797.0
123,choice,choice,13,2.0,Solid,1.0,17.716699542012066,Object_Sea_Pattern_Small,0,0,17841287.0,17841395.0,108.0
123,choice,choice,13,2.0,Solid,1.0,17.716699542012066,Object_Land_Solid_Large,3,1,17841414.0,17841550.0,136.0
123,choice,choice,13,2.0,Solid,1.0,17.716699542012066,Object_Land_Solid_Small,2,1,17841680.0,17842031.0,351.0
123,choice,choice,13,2.0,Solid,1.0,17.716699542012066,Animal_Land_Solid_Large,4,1,17842067.0,17842267.0,200.0
123,choice,choice,13,2.0,Solid,1.0,17.716699542012066,Animal_Sea_Pattern_Large,1,0,17842308.0,17842684.0,376.0
123,choice,choice,13,2.0,Solid,1.0,17.716699542012066,Object_Land_Solid_Small,2,1,17843588.0,17843719.0,131.0
123,choice,choice,14,2.0,Large,2.0,12.110065459040923,Object_Land_Solid_Small,2,0,17846871.0,17847113.0,242.0
123,choice,choice,14,2.0,Large,2.0,12.110065459040923,Animal_Sea_Pattern_Large,1,1,17847247.0,17847511.0,264.0
123,choice,choice,14,2.0,Large,2.0,12.110065459040923,Object_Land_Solid_Small,2,0,17847685.0,17848701.0,1016.0
123,choice,choice,14,2.0,Large,2.0,12.110065459040923,Object_Sea_Pattern_Small,0,0,17849434.0,17849557.0,123.0
123,choice,choice,14,2.0,Large,2.0,12.110065459040923,Animal_Sea_Pattern_Large,1,1,17851807.0,17851931.0,124.0
123,choice,choice,14,2.0,Large,2.0,12.110065459040923,Animal_Land_Solid_Large,4,1,17851957.0,17852148.0,191.0
123,choice,choice,14,2.0,Large,2.0,12.110065459040923,Animal_Sea_Pattern_Small,5,0,17852169.0,17852571.0,402.0
123,choice,choice,14,2.0,Large,2.0,12.110065459040923,Object_Sea_Pattern_Small,0,0,17852789.0,17852880.0,91.0
123,choice,choice,14,2.0,Large,2.0,12.110065459040923,Object_Land_Solid_Small,2,0,17852910.0,17853496.0,586.0
123,choice,choice,14,2.0,Large,2.0,12.110065459040923,Animal_Sea_Pattern_Large,1,1,17855732.0,17856341.0,609.0
123,choice,choice,14,2.0,Large,2.0,12.110065459040923,Animal_Land_Solid_Large,4,1,17856435.0,17856620.0,185.0
123,choice,choice,14,2.0,Large,2.0,12.110065459040923,Object_Land_Solid_Small,2,0,17856644.0,17856815.0,171.0
123,choice,choice,15,2.0,Pattern,1.0,13.744707208825275,Object_Land_Solid_Small,2,0,17861931.0,17862319.0,388.0
123,choice,choice,15,2.0,Pattern,1.0,13.744707208825275,Animal_Sea_Pattern_Large,1,1,17862519.0,17862735.0,216.0
123,choice,choice,15,2.0,Pattern,1.0,13.744707208825275,Animal_Land_Solid_Large,4,0,17862759.0,17862989.0,230.0
123,choice,choice,15,2.0,Pattern,1.0,13.744707208825275,Animal_Sea_Pattern_Small,5,1,17863807.0,17863900.0,93.0
123,choice,choice,15,2.0,Pattern,1.0,13.744707208825275,Object_Sea_Pattern_Small,0,1,17866193.0,17866841.0,648.0
123,choice,choice,15,2.0,Pattern,1.0,13.744707208825275,Animal_Sea_Pattern_Large,1,1,17870739.0,17870991.0,252.0
123,choice,choice,15,2.0,Pattern,1.0,13.744707208825275,Object_Sea_Pattern_Small,0,1,17872108.0,17872210.0,102.0
123,choice,choice,15,2.0,Pattern,1.0,13.744707208825275,Animal_Sea_Pattern_Large,1,1,17872424.0,17872545.0,121.0
123,choice,choice,15,2.0,Pattern,1.0,13.744707208825275,Object_Sea_Pattern_Small,0,1,17872557.0,17872698.0,141.0
123,choice,choice,15,2.0,Pattern,1.0,13.744707208825275,Animal_Sea_Pattern_Small,5,1,17873667.0,17873843.0,176.0
123,choice,choice,15,2.0,Pattern,1.0,13.744707208825275,Object_Sea_Pattern_Small,0,1,17874283.0,17874828.0,545.0
123,choice,choice,16,2.0,Object,1.0,11.688576250104234,Animal_Land_Solid_Large,4,0,17879071.0,17879806.0,735.0
123,choice,choice,16,2.0,Object,1.0,11.688576250104234,Animal_Sea_Pattern_Large,1,0,17880293.0,17880768.0,475.0
123,choice,choice,16,2.0,Object,1.0,11.688576250104234,Object_Land_Solid_Small,2,1,17880927.0,17881731.0,804.0
123,choice,choice,16,2.0,Object,1.0,11.688576250104234,Animal_Sea_Pattern_Large,1,0,17883814.0,17883997.0,183.0
123,choice,choice,16,2.0,Object,1.0,11.688576250104234,Object_Sea_Pattern_Small,0,1,17884423.0,17884550.0,127.0
123,choice,choice,16,2.0,Object,1.0,11.688576250104234,Animal_Land_Solid_Large,4,0,17885030.0,17885166.0,136.0
123,choice,choice,16,2.0,Object,1.0,11.688576250104234,Object_Land_Solid_Small,2,1,17885494.0,17885761.0,267.0
123,choice,choice,16,2.0,Object,1.0,11.688576250104234,Object_Land_Solid_Large,3,1,17885806.0,17885980.0,174.0
123,choice,choice,16,2.0,Object,1.0,11.688576250104234,Object_Sea_Pattern_Small,0,1,17886610.0,17887002.0,392.0
123,choice,choice,16,2.0,Object,1.0,11.688576250104234,Object_Land_Solid_Small,2,1,17887689.0,17888181.0,492.0
123,choice,choice,16,2.0,Object,1.0,11.688576250104234,Object_Sea_Pattern_Small,0,1,17889788.0,17889972.0,184.0
123,choice,choice,17,3.0,Land,2.0,12.51398149994202,Object_Sea_Solid_Small,0,0,18182509.0,18183496.0,987.0
123,choice,choice,17,3.0,Land,2.0,12.51398149994202,Animal_Sea_Pattern_Large,1,0,18183892.0,18184158.0,266.0
123,choice,choice,17,3.0,Land,2.0,12.51398149994202,Animal_Land_Solid_Small,2,1,18184664.0,18184798.0,134.0
123,choice,choice,17,3.0,Land,2.0,12.51398149994202,Object_Land_Pattern_Small,3,1,18185613.0,18185776.0,163.0
123,choice,choice,17,3.0,Land,2.0,12.51398149994202,Animal_Land_Pattern_Large,4,1,18188957.0,18189091.0,134.0
123,choice,choice,17,3.0,Land,2.0,12.51398149994202,Object_Land_Pattern_Small,3,1,18189420.0,18189606.0,186.0
123,choice,choice,17,3.0,Land,2.0,12.51398149994202,Animal_Land_Solid_Small,2,1,18189961.0,18190787.0,826.0
123,choice,choice,17,3.0,Land,2.0,12.51398149994202,Animal_Land_Pattern_Large,4,1,18191187.0,18191503.0,316.0
123,choice,choice,17,3.0,Land,2.0,12.51398149994202,Object_Sea_Solid_Large,5,0,18192920.0,18193004.0,84.0
123,choice,choice,18,3.0,Large,2.0,19.294112917035815,Animal_Land_Pattern_Large,4,1,18198268.0,18198401.0,133.0
123,choice,choice,18,3.0,Large,2.0,19.294112917035815,Object_Sea_Solid_Large,5,1,18198865.0,18199161.0,296.0
123,choice,choice,18,3.0,Large,2.0,19.294112917035815,Animal_Land_Solid_Small,2,0,18202366.0,18202446.0,80.0
123,choice,choice,18,3.0,Large,2.0,19.294112917035815,Animal_Sea_Pattern_Large,1,1,18202611.0,18202761.0,150.0
123,choice,choice,18,3.0,Large,2.0,19.294112917035815,Animal_Land_Solid_Small,2,0,18203342.0,18203509.0,167.0
123,choice,choice,18,3.0,Large,2.0,19.294112917035815,Animal_Land_Pattern_Large,4,1,18204205.0,18204291.0,86.0
123,choice,choice,18,3.0,Large,2.0,19.294112917035815,Object_Sea_Solid_Small,0,0,18205005.0,18206010.0,1005.0
123,choice,choice,18,3.0,Large,2.0,19.294112917035815,Animal_Land_Pattern_Large,4,1,18206201.0,18206456.0,255.0
123,choice,choice,18,3.0,Large,2.0,19.294112917035815,Object_Land_Pattern_Small,3,0,18207259.0,18207953.0,694.0
123,choice,choice,18,3.0,Large,2.0,19.294112917035815,Animal_Land_Solid_Small,2,0,18210283.0,18210448.0,165.0
123,choice,choice,18,3.0,Large,2.0,19.294112917035815,Object_Sea_Solid_Small,0,0,18210612.0,18210811.0,199.0
123,choice,choice,18,3.0,Large,2.0,19.294112917035815,Animal_Sea_Pattern_Large,1,1,18210827.0,18210933.0,106.0
123,choice,choice,18,3.0,Large,2.0,19.294112917035815,Object_Sea_Solid_Small,0,0,18211101.0,18212442.0,1341.0
123,choice,choice,18,3.0,Large,2.0,19.294112917035815,Animal_Land_Solid_Small,2,0,18215225.0,18215487.0,262.0
123,choice,choice,18,3.0,Large,2.0,19.294112917035815,Object_Land_Pattern_Small,3,0,18215532.0,18215740.0,208.0
123,choice,choice,19,3.0,Animal,2.0,14.129019957967104,Object_Sea_Solid_Small,0,0,18219908.0,18220037.0,129.0
123,choice,choice,19,3.0,Animal,2.0,14.129019957967104,Animal_Land_Pattern_Large,4,1,18220051.0,18220700.0,649.0
123,choice,choice,19,3.0,Animal,2.0,14.129019957967104,Object_Sea_Solid_Small,0,0,18220729.0,18221242.0,513.0
123,choice,choice,19,3.0,Animal,2.0,14.129019957967104,Animal_Land_Solid_Small,2,1,18225352.0,18225600.0,248.0
123,choice,choice,19,3.0,Animal,2.0,14.129019957967104,Animal_Land_Pattern_Large,4,1,18228153.0,18228501.0,348.0
123,choice,choice,19,3.0,Animal,2.0,14.129019957967104,Object_Sea_Solid_Small,0,0,18228963.0,18229087.0,124.0
123,choice,choice,19,3.0,Animal,2.0,14.129019957967104,Animal_Land_Pattern_Large,4,1,18229664.0,18229920.0,256.0
123,choice,choice,19,3.0,Animal,2.0,14.129019957967104,Animal_Sea_Pattern_Large,1,1,18230480.0,18231006.0,526.0
123,choice,choice,19,3.0,Animal,2.0,14.129019957967104,Object_Sea_Solid_Large,5,0,18233144.0,18233261.0,117.0
123,choice,choice,19,3.0,Animal,2.0,14.129019957967104,Object_Sea_Solid_Small,0,0,18233824.0,18233905.0,81.0
123,choice,choice,20,3.0,Object,2.0,8.99879812519066,Animal_Sea_Pattern_Large,1,0,18238142.0,18238710.0,568.0
123,choice,choice,20,3.0,Object,2.0,8.99879812519066,Animal_Land_Pattern_Large,4,0,18239686.0,18240368.0,682.0
123,choice,choice,20,3.0,Object,2.0,8.99879812519066,Object_Land_Pattern_Small,3,1,18240818.0,18241104.0,286.0
123,choice,choice,20,3.0,Object,2.0,8.99879812519066,Object_Sea_Solid_Small,0,1,18242271.0,18242613.0,342.0
123,choice,choice,20,3.0,Object,2.0,8.99879812519066,Animal_Land_Pattern_Large,4,0,18242631.0,18242820.0,189.0
123,choice,choice,20,3.0,Object,2.0,8.99879812519066,Object_Land_Pattern_Small,3,1,18242839.0,18243987.0,1148.0
123,choice,choice,21,3.0,Small,2.0,12.789615083951505,Object_Land_Pattern_Small,3,1,18248694.0,18248757.0,63.0
123,choice,choice,21,3.0,Small,2.0,12.789615083951505,Object_Sea_Solid_Small,0,1,18249299.0,18250139.0,840.0
123,choice,choice,21,3.0,Small,2.0,12.789615083951505,Animal_Land_Pattern_Large,4,0,18250191.0,18251188.0,997.0
123,choice,choice,21,3.0,Small,2.0,12.789615083951505,Object_Sea_Solid_Small,0,1,18251373.0,18251523.0,150.0
123,choice,choice,21,3.0,Small,2.0,12.789615083951505,Animal_Land_Pattern_Large,4,0,18252123.0,18252873.0,750.0
123,choice,choice,21,3.0,Small,2.0,12.789615083951505,Object_Land_Pattern_Small,3,1,18254921.0,18255221.0,300.0
123,choice,choice,21,3.0,Small,2.0,12.789615083951505,Animal_Land_Pattern_Large,4,0,18255767.0,18256250.0,483.0
123,choice,choice,21,3.0,Small,2.0,12.789615083951505,Animal_Land_Solid_Small,2,1,18258782.0,18258990.0,208.0
123,choice,choice,21,3.0,Small,2.0,12.789615083951505,Animal_Sea_Pattern_Large,1,0,18260277.0,18260570.0,293.0
123,choice,choice,22,3.0,Pattern,1.0,8.352114291861653,Animal_Land_Pattern_Large,4,1,18265204.0,18266045.0,841.0
123,choice,choice,22,3.0,Pattern,1.0,8.352114291861653,Object_Sea_Solid_Small,0,0,18267381.0,18267757.0,376.0
123,choice,choice,22,3.0,Pattern,1.0,8.352114291861653,Object_Land_Pattern_Small,3,1,18268301.0,18268426.0,125.0
123,choice,choice,22,3.0,Pattern,1.0,8.352114291861653,Object_Sea_Solid_Large,5,0,18270347.0,18270573.0,226.0
123,choice,choice,22,3.0,Pattern,1.0,8.352114291861653,Animal_Land_Solid_Small,2,0,18271967.0,18272204.0,237.0
123,choice,choice,23,3.0,Sea,1.0,5.418852708069608,Animal_Sea_Pattern_Large,1,1,18275029.0,18275421.0,392.0
123,choice,choice,23,3.0,Sea,1.0,5.418852708069608,Object_Sea_Solid_Small,0,1,18275450.0,18276132.0,682.0
123,choice,choice,23,3.0,Sea,1.0,5.418852708069608,Object_Land_Pattern_Small,3,0,18277486.0,18277684.0,198.0
123,choice,choice,23,3.0,Sea,1.0,5.418852708069608,Animal_Land_Pattern_Large,4,0,18278013.0,18278131.0,118.0
123,choice,choice,23,3.0,Sea,1.0,5.418852708069608,Object_Sea_Solid_Large,5,1,18278717.0,18278839.0,122.0
123,choice,choice,23,3.0,Sea,1.0,5.418852708069608,Object_Sea_Solid_Small,0,1,18279491.0,18279838.0,347.0
123,choice,choice,23,3.0,Sea,1.0,5.418852708069608,Animal_Land_Solid_Small,2,0,18280265.0,18280428.0,163.0
123,choice,choice,24,3.0,Solid,2.0,9.72890654206276,Object_Sea_Solid_Small,0,1,18283937.0,18284164.0,227.0
123,choice,choice,24,3.0,Solid,2.0,9.72890654206276,Animal_Sea_Pattern_Large,1,0,18284176.0,18284531.0,355.0
123,choice,choice,24,3.0,Solid,2.0,9.72890654206276,Object_Sea_Solid_Small,0,1,18284984.0,18285299.0,315.0
123,choice,choice,24,3.0,Solid,2.0,9.72890654206276,Animal_Land_Solid_Small,2,1,18286546.0,18286824.0,278.0
123,choice,choice,24,3.0,Solid,2.0,9.72890654206276,Animal_Land_Pattern_Large,4,0,18287610.0,18288225.0,615.0
123,choice,choice,24,3.0,Solid,2.0,9.72890654206276,Object_Sea_Solid_Small,0,1,18288601.0,18288837.0,236.0
123,choice,choice,24,3.0,Solid,2.0,9.72890654206276,Animal_Land_Pattern_Large,4,0,18289148.0,18290354.0,1206.0
123,choice,choice,24,3.0,Solid,2.0,9.72890654206276,Object_Sea_Solid_Small,0,1,18291759.0,18292113.0,354.0
123,choice,choice,24,3.0,Solid,2.0,9.72890654206276,Animal_Land_Solid_Small,2,1,18292650.0,18292828.0,178.0
123,choice,choice,25,4.0,Sea,2.0,23.368734083138406,Object_Land_Solid_Small,0,0,18582810.0,18583195.0,385.0
123,choice,choice,25,4.0,Sea,2.0,23.368734083138406,Animal_Sea_Pattern_Large,1,1,18584655.0,18584894.0,239.0
123,choice,choice,25,4.0,Sea,2.0,23.368734083138406,Animal_Land_Solid_Small,2,0,18585869.0,18586409.0,540.0
123,choice,choice,25,4.0,Sea,2.0,23.368734083138406,Object_Land_Pattern_Large,3,0,18586867.0,18587084.0,217.0
123,choice,choice,25,4.0,Sea,2.0,23.368734083138406,Animal_Land_Solid_Small,2,0,18589626.0,18589880.0,254.0
123,choice,choice,25,4.0,Sea,2.0,23.368734083138406,Object_Sea_Pattern_Large,4,1,18590511.0,18591516.0,1005.0
123,choice,choice,25,4.0,Sea,2.0,23.368734083138406,Animal_Sea_Solid_Small,5,1,18598017.0,18598131.0,114.0
123,choice,choice,25,4.0,Sea,2.0,23.368734083138406,Animal_Land_Solid_Small,2,0,18598981.0,18599055.0,74.0
123,choice,choice,25,4.0,Sea,2.0,23.368734083138406,Object_Land_Solid_Small,0,0,18599639.0,18599981.0,342.0
123,choice,choice,25,4.0,Sea,2.0,23.368734083138406,Object_Land_Pattern_Large,3,0,18600212.0,18600838.0,626.0
123,choice,choice,25,4.0,Sea,2.0,23.368734083138406,Object_Land_Solid_Small,0,0,18602137.0,18602861.0,724.0
123,choice,choice,25,4.0,Sea,2.0,23.368734083138406,Animal_Land_Solid_Small,2,0,18603110.0,18603657.0,547.0
123,choice,choice,25,4.0,Sea,2.0,23.368734083138406,Animal_Sea_Pattern_Large,1,1,18605481.0,18605564.0,83.0
123,choice,choice,26,4.0,Land,1.0,13.750884958077222,Object_Land_Solid_Small,0,1,18610599.0,18610941.0,342.0
123,choice,choice,26,4.0,Land,1.0,13.750884958077222,Object_Sea_Pattern_Large,4,0,18612429.0,18612594.0,165.0
123,choice,choice,26,4.0,Land,1.0,13.750884958077222,Animal_Land_Solid_Small,2,1,18613301.0,18614149.0,848.0
123,choice,choice,26,4.0,Land,1.0,13.750884958077222,Object_Land_Pattern_Large,3,1,18617475.0,18617832.0,357.0
123,choice,choice,26,4.0,Land,1.0,13.750884958077222,Animal_Land_Solid_Small,2,1,18618067.0,18618311.0,244.0
123,choice,choice,26,4.0,Land,1.0,13.750884958077222,Object_Land_Solid_Small,0,1,18618869.0,18619786.0,917.0
123,choice,choice,26,4.0,Land,1.0,13.750884958077222,Animal_Sea_Pattern_Large,1,0,18620440.0,18620712.0,272.0
123,choice,choice,26,4.0,Land,1.0,13.750884958077222,Object_Land_Solid_Small,0,1,18620720.0,18621026.0,306.0
123,choice,choice,26,4.0,Land,1.0,13.750884958077222,Object_Sea_Pattern_Large,4,0,18621066.0,18621454.0,388.0
123,choice,choice,26,4.0,Land,1.0,13.750884958077222,Object_Land_Pattern_Large,3,1,18621861.0,18622310.0,449.0
123,choice,choice,26,4.0,Land,1.0,13.750884958077222,Animal_Land_Solid_Small,2,1,18623211.0,18623291.0,80.0
123,choice,choice,27,4.0,Pattern,1.0,12.650485333055258,Animal_Sea_Pattern_Large,1,1,18626303.0,18626606.0,303.0
123,choice,choice,27,4.0,Pattern,1.0,12.650485333055258,Object_Land_Solid_Small,0,0,18627624.0,18628647.0,1023.0
123,choice,choice,27,4.0,Pattern,1.0,12.650485333055258,Object_Sea_Pattern_Large,4,1,18628890.0,18629886.0,996.0
123,choice,choice,27,4.0,Pattern,1.0,12.650485333055258,Animal_Sea_Pattern_Large,1,1,18630244.0,18630528.0,284.0
123,choice,choice,27,4.0,Pattern,1.0,12.650485333055258,Animal_Land_Solid_Small,2,0,18632006.0,18632478.0,472.0
123,choice,choice,27,4.0,Pattern,1.0,12.650485333055258,Object_Land_Pattern_Large,3,1,18633894.0,18634408.0,514.0
123,choice,choice,27,4.0,Pattern,1.0,12.650485333055258,Animal_Land_Solid_Small,2,0,18638059.0,18638499.0,440.0
123,choice,choice,28,4.0,Object,2.0,11.569143375148997,Object_Land_Solid_Small,0,1,18641664.0,18642465.0,801.0
123,choice,choice,28,4.0,Object,2.0,11.569143375148997,Object_Sea_Pattern_Large,4,1,18643479.0,18644019.0,540.0
123,choice,choice,28,4.0,Object,2.0,11.569143375148997,Object_Land_Pattern_Large,3,1,18645262.0,18645697.0,435.0
123,choice,choice,28,4.0,Object,2.0,11.569143375148997,Object_Sea_Pattern_Large,4,1,18646887.0,18647035.0,148.0
123,choice,choice,28,4.0,Object,2.0,11.569143375148997,Object_Land_Solid_Small,0,1,18648312.0,18648343.0,31.0
123,choice,choice,28,4.0,Object,2.0,11.569143375148997,Object_Sea_Pattern_Large,4,1,18648356.0,18648517.0,161.0
123,choice,choice,28,4.0,Object,2.0,11.569143375148997,Animal_Sea_Solid_Small,5,0,18650193.0,18650290.0,97.0
123,choice,choice,28,4.0,Object,2.0,11.569143375148997,Animal_Land_Solid_Small,2,0,18651090.0,18651932.0,842.0
123,choice,choice,29,4.0,Solid,1.0,6.104094041045755,Object_Land_Solid_Small,0,1,18656724.0,18657794.0,1070.0
123,choice,choice,29,4.0,Solid,1.0,6.104094041045755,Object_Sea_Pattern_Large,4,0,18657869.0,18658337.0,468.0
123,choice,choice,29,4.0,Solid,1.0,6.104094041045755,Object_Land_Pattern_Large,3,0,18658392.0,18658596.0,204.0
123,choice,choice,29,4.0,Solid,1.0,6.104094041045755,Animal_Sea_Solid_Small,5,1,18659356.0,18659806.0,450.0
123,choice,choice,29,4.0,Solid,1.0,6.104094041045755,Animal_Land_Solid_Small,2,1,18660579.0,18661477.0,898.0
123,choice,choice,29,4.0,Solid,1.0,6.104094041045755,Animal_Sea_Pattern_Large,1,0,18661507.0,18662170.0,663.0
123,choice,choice,29,4.0,Solid,1.0,6.104094041045755,Animal_Land_Solid_Small,2,1,18662591.0,18662772.0,181.0
123,choice,choice,30,4.0,Animal,1.0,6.313363959081471,Animal_Sea_Pattern_Large,1,1,18665862.0,18666318.0,456.0
123,choice,choice,30,4.0,Animal,1.0,6.313363959081471,Object_Sea_Pattern_Large,4,0,18666538.0,18666803.0,265.0
123,choice,choice,30,4.0,Animal,1.0,6.313363959081471,Object_Land_Solid_Small,0,0,18667304.0,18667644.0,340.0
123,choice,choice,30,4.0,Animal,1.0,6.313363959081471,Object_Sea_Pattern_Large,4,0,18667864.0,18668438.0,574.0
123,choice,choice,30,4.0,Animal,1.0,6.313363959081471,Object_Land_Pattern_Large,3,0,18668899.0,18668960.0,61.0
123,choice,choice,30,4.0,Animal,1.0,6.313363959081471,Animal_Land_Solid_Small,2,1,18669859.0,18670905.0,1046.0
123,choice,choice,30,4.0,Animal,1.0,6.313363959081471,Animal_Sea_Solid_Small,5,1,18671646.0,18671813.0,167.0
123,choice,choice,30,4.0,Animal,1.0,6.313363959081471,Animal_Land_Solid_Small,2,1,18671837.0,18672149.0,312.0
123,choice,choice,31,4.0,Small,1.0,6.069152166834101,Animal_Land_Solid_Small,2,1,18675218.0,18675365.0,147.0
123,choice,choice,31,4.0,Small,1.0,6.069152166834101,Animal_Sea_Pattern_Large,1,0,18675591.0,18675816.0,225.0
123,choice,choice,31,4.0,Small,1.0,6.069152166834101,Animal_Land_Solid_Small,2,1,18675826.0,18676213.0,387.0
123,choice,choice,31,4.0,Small,1.0,6.069152166834101,Object_Land_Solid_Small,0,1,18676671.0,18676821.0,150.0
123,choice,choice,31,4.0,Small,1.0,6.069152166834101,Object_Land_Pattern_Large,3,0,18677249.0,18677413.0,164.0
123,choice,choice,31,4.0,Small,1.0,6.069152166834101,Object_Sea_Pattern_Large,4,0,18677737.0,18678051.0,314.0
123,choice,choice,31,4.0,Small,1.0,6.069152166834101,Object_Land_Solid_Small,0,1,18678463.0,18679896.0,1433.0
123,choice,choice,31,4.0,Small,1.0,6.069152166834101,Object_Sea_Pattern_Large,4,0,18680192.0,18680372.0,180.0
123,choice,choice,31,4.0,Small,1.0,6.069152166834101,Object_Land_Solid_Small,0,1,18680392.0,18680615.0,223.0
123,choice,choice,32,4.0,Large,1.0,7.088504125131294,Animal_Sea_Pattern_Large,1,1,18684797.0,18685203.0,406.0
123,choice,choice,32,4.0,Large,1.0,7.088504125131294,Object_Land_Solid_Small,0,0,18686383.0,18686577.0,194.0
123,choice,choice,32,4.0,Large,1.0,7.088504125131294,Object_Sea_Pattern_Large,4,1,18686591.0,18687207.0,616.0
123,choice,choice,32,4.0,Large,1.0,7.088504125131294,Object_Land_Solid_Small,0,0,18687254.0,18687562.0,308.0
123,choice,choice,32,4.0,Large,1.0,7.088504125131294,Object_Sea_Pattern_Large,4,1,18687740.0,18687984.0,244.0
123,choice,choice,32,4.0,Large,1.0,7.088504125131294,Object_Land_Pattern_Large,3,1,18688406.0,18688785.0,379.0
123,choice,choice,32,4.0,Large,1.0,7.088504125131294,Animal_Land_Solid_Small,2,0,18689681.0,18690387.0,706.0
123,choice,choice,33,5.0,Pattern,2.0,14.129086249973623,Animal_Sea_Solid_Large,0,0,18979879.0,18980296.0,417.0
123,choice,choice,33,5.0,Pattern,2.0,14.129086249973623,Animal_Land_Solid_Large,1,0,18982210.0,18982549.0,339.0
123,choice,choice,33,5.0,Pattern,2.0,14.129086249973623,Object_Land_Pattern_Small,2,1,18982757.0,18983311.0,554.0
123,choice,choice,33,5.0,Pattern,2.0,14.129086249973623,Animal_Land_Solid_Large,1,0,18984040.0,18984233.0,193.0
123,choice,choice,33,5.0,Pattern,2.0,14.129086249973623,Object_Land_Pattern_Small,2,1,18984998.0,18985129.0,131.0
123,choice,choice,33,5.0,Pattern,2.0,14.129086249973623,Animal_Land_Pattern_Small,3,1,18986690.0,18986922.0,232.0
123,choice,choice,33,5.0,Pattern,2.0,14.129086249973623,Object_Sea_Pattern_Small,4,1,18987098.0,18987655.0,557.0
123,choice,choice,33,5.0,Pattern,2.0,14.129086249973623,Object_Sea_Solid_Large,5,0,18990829.0,18991234.0,405.0
123,choice,choice,33,5.0,Pattern,2.0,14.129086249973623,Object_Sea_Pattern_Small,4,1,18993377.0,18993532.0,155.0
123,choice,choice,34,5.0,Small,1.0,17.026475749909878,Animal_Land_Pattern_Small,3,1,18998167.0,18998407.0,240.0
123,choice,choice,34,5.0,Small,1.0,17.026475749909878,Animal_Sea_Solid_Large,0,0,18998615.0,18998728.0,113.0
123,choice,choice,34,5.0,Small,1.0,17.026475749909878,Animal_Land_Pattern_Small,3,1,18998902.0,18999107.0,205.0
123,choice,choice,34,5.0,Small,1.0,17.026475749909878,Animal_Sea_Solid_Large,0,0,18999126.0,18999357.0,231.0
123,choice,choice,34,5.0,Small,1.0,17.026475749909878,Object_Sea_Pattern_Small,4,1,18999731.0,19000498.0,767.0
123,choice,choice,34,5.0,Small,1.0,17.026475749909878,Animal_Sea_Solid_Large,0,0,19002931.0,19003827.0,896.0
123,choice,choice,34,5.0,Small,1.0,17.026475749909878,Animal_Land_Solid_Large,1,0,19004252.0,19004724.0,472.0
123,choice,choice,34,5.0,Small,1.0,17.026475749909878,Animal_Sea_Solid_Large,0,0,19006081.0,19006238.0,157.0
123,choice,choice,34,5.0,Small,1.0,17.026475749909878,Animal_Land_Solid_Large,1,0,19006269.0,19006618.0,349.0
123,choice,choice,34,5.0,Small,1.0,17.026475749909878,Object_Sea_Solid_Large,5,0,19008056.0,19008599.0,543.0
123,choice,choice,34,5.0,Small,1.0,17.026475749909878,Object_Land_Pattern_Small,2,1,19011599.0,19011760.0,161.0
123,choice,choice,34,5.0,Small,1.0,17.026475749909878,Animal_Land_Pattern_Small,3,1,19012957.0,19013174.0,217.0
123,choice,choice,35,5.0,Solid,1.0,10.396418625023216,Animal_Land_Pattern_Small,3,0,19017886.0,19018019.0,133.0
123,choice,choice,35,5.0,Solid,1.0,10.396418625023216,Object_Sea_Pattern_Small,4,0,19018768.0,19020471.0,1703.0
123,choice,choice,35,5.0,Solid,1.0,10.396418625023216,Animal_Land_Pattern_Small,3,0,19021737.0,19021939.0,202.0
123,choice,choice,35,5.0,Solid,1.0,10.396418625023216,Animal_Sea_Solid_Large,0,1,19021954.0,19022145.0,191.0
123,choice,choice,35,5.0,Solid,1.0,10.396418625023216,Animal_Land_Pattern_Small,3,0,19022164.0,19022377.0,213.0
123,choice,choice,35,5.0,Solid,1.0,10.396418625023216,Animal_Sea_Solid_Large,0,1,19022394.0,19022759.0,365.0
123,choice,choice,35,5.0,Solid,1.0,10.396418625023216,Animal_Land_Solid_Large,1,1,19022796.0,19022881.0,85.0
123,choice,choice,35,5.0,Solid,1.0,10.396418625023216,Animal_Sea_Solid_Large,0,1,19022902.0,19024021.0,1119.0
123,choice,choice,35,5.0,Solid,1.0,10.396418625023216,Animal_Land_Solid_Large,1,1,19025047.0,19025239.0,192.0
123,choice,choice,35,5.0,Solid,1.0,10.396418625023216,Object_Land_Pattern_Small,2,0,19026176.0,19026507.0,331.0
123,choice,choice,36,5.0,Land,2.0,4.477957875002176,Animal_Land_Solid_Large,1,1,19030525.0,19030749.0,224.0
123,choice,choice,36,5.0,Land,2.0,4.477957875002176,Object_Sea_Pattern_Small,4,0,19031262.0,19031349.0,87.0
123,choice,choice,36,5.0,Land,2.0,4.477957875002176,Object_Land_Pattern_Small,2,1,19031925.0,19032425.0,500.0
123,choice,choice,36,5.0,Land,2.0,4.477957875002176,Animal_Land_Pattern_Small,3,1,19032782.0,19033087.0,305.0
123,choice,choice,36,5.0,Land,2.0,4.477957875002176,Object_Sea_Pattern_Small,4,0,19034586.0,19034764.0,178.0
123,choice,choice,37,5.0,Animal,1.0,6.257346959086135,Animal_Land_Pattern_Small,3,1,19039079.0,19039420.0,341.0
123,choice,choice,37,5.0,Animal,1.0,6.257346959086135,Animal_Sea_Solid_Large,0,1,19039596.0,19040180.0,584.0
123,choice,choice,37,5.0,Animal,1.0,6.257346959086135,Animal_Land_Pattern_Small,3,1,19040539.0,19041128.0,589.0
123,choice,choice,38,5.0,Object,2.0,6.542368207825348,Animal_Sea_Solid_Large,0,0,19047116.0,19047327.0,211.0
123,choice,choice,38,5.0,Object,2.0,6.542368207825348,Animal_Land_Pattern_Small,3,0,19047512.0,19047719.0,207.0
123,choice,choice,38,5.0,Object,2.0,6.542368207825348,Object_Sea_Pattern_Small,4,1,19047739.0,19047995.0,256.0
123,choice,choice,38,5.0,Object,2.0,6.542368207825348,Animal_Sea_Solid_Large,0,0,19048020.0,19049071.0,1051.0
123,choice,choice,38,5.0,Object,2.0,6.542368207825348,Animal_Land_Solid_Large,1,0,19049285.0,19049425.0,140.0
123,choice,choice,38,5.0,Object,2.0,6.542368207825348,Object_Land_Pattern_Small,2,1,19049460.0,19049714.0,254.0
123,choice,choice,38,5.0,Object,2.0,6.542368207825348,Object_Sea_Solid_Large,5,1,19050289.0,19050388.0,99.0
123,choice,choice,38,5.0,Object,2.0,6.542368207825348,Object_Sea_Pattern_Small,4,1,19051463.0,19051800.0,337.0
123,choice,choice,38,5.0,Object,2.0,6.542368207825348,Animal_Land_Pattern_Small,3,0,19052008.0,19052483.0,475.0
123,choice,choice,39,5.0,Sea,1.0,4.416044584009796,Animal_Land_Pattern_Small,3,0,19056763.0,19056875.0,112.0
123,choice,choice,39,5.0,Sea,1.0,4.416044584009796,Animal_Sea_Solid_Large,0,1,19056900.0,19057581.0,681.0
123,choice,choice,39,5.0,Sea,1.0,4.416044584009796,Animal_Land_Solid_Large,1,0,19057902.0,19058076.0,174.0
123,choice,choice,39,5.0,Sea,1.0,4.416044584009796,Animal_Land_Pattern_Small,3,0,19059568.0,19060493.0,925.0
123,choice,choice,39,5.0,Sea,1.0,4.416044584009796,Animal_Sea_Solid_Large,0,1,19060732.0,19060916.0,184.0
123,choice,choice,39,5.0,Sea,1.0,4.416044584009796,Animal_Land_Pattern_Small,3,0,19060934.0,19060972.0,38.0
123,choice,choice,40,5.0,Large,2.0,8.392031749943271,Animal_Sea_Solid_Large,0,1,19064367.0,19065350.0,983.0
123,choice,choice,40,5.0,Large,2.0,8.392031749943271,Animal_Land_Solid_Large,1,1,19065908.0,19066203.0,295.0
123,choice,choice,40,5.0,Large,2.0,8.392031749943271,Animal_Land_Pattern_Small,3,0,19068232.0,19068709.0,477.0
123,choice,choice,40,5.0,Large,2.0,8.392031749943271,Object_Sea_Pattern_Small,4,0,19068739.0,19069149.0,410.0
123,choice,choice,40,5.0,Large,2.0,8.392031749943271,Animal_Land_Pattern_Small,3,0,19069165.0,19069287.0,122.0
123,choice,choice,40,5.0,Large,2.0,8.392031749943271,Object_Sea_Pattern_Small,4,0,19069933.0,19070047.0,114.0
123,choice,choice,40,5.0,Large,2.0,8.392031749943271,Animal_Land_Pattern_Small,3,0,19070751.0,19071270.0,519.0
123,choice,choice,40,5.0,Large,2.0,8.392031749943271,Object_Sea_Pattern_Small,4,0,19071307.0,19071692.0,385.0
123,choice,choice,41,6.0,Pattern,2.0,7.784880542196333,Animal_Land_Pattern_Small,0,1,19383154.0,19383532.0,378.0
123,choice,choice,41,6.0,Pattern,2.0,7.784880542196333,Animal_Sea_Solid_Large,1,0,19383693.0,19384479.0,786.0
123,choice,choice,41,6.0,Pattern,2.0,7.784880542196333,Object_Sea_Pattern_Large,2,1,19384521.0,19384943.0,422.0
123,choice,choice,41,6.0,Pattern,2.0,7.784880542196333,Object_Land_Pattern_Small,3,1,19386729.0,19387071.0,342.0
123,choice,choice,41,6.0,Pattern,2.0,7.784880542196333,Animal_Land_Solid_Small,4,0,19387485.0,19387610.0,125.0
123,choice,choice,41,6.0,Pattern,2.0,7.784880542196333,Animal_Land_Pattern_Small,0,1,19387958.0,19388144.0,186.0
123,choice,choice,41,6.0,Pattern,2.0,7.784880542196333,Object_Sea_Solid_Large,5,0,19388706.0,19388827.0,121.0
123,choice,choice,41,6.0,Pattern,2.0,7.784880542196333,Animal_Land_Solid_Small,4,0,19389279.0,19389700.0,421.0
123,choice,choice,42,6.0,Object,1.0,8.912348916986957,Animal_Land_Pattern_Small,0,0,19393506.0,19393788.0,282.0
123,choice,choice,42,6.0,Object,1.0,8.912348916986957,Object_Sea_Pattern_Large,2,1,19393986.0,19395043.0,1057.0
123,choice,choice,42,6.0,Object,1.0,8.912348916986957,Object_Sea_Solid_Large,5,1,19396800.0,19397279.0,479.0
123,choice,choice,42,6.0,Object,1.0,8.912348916986957,Animal_Land_Solid_Small,4,0,19398280.0,19399987.0,1707.0
123,choice,choice,42,6.0,Object,1.0,8.912348916986957,Object_Sea_Solid_Large,5,1,19401990.0,19402190.0,200.0
123,choice,choice,42,6.0,Object,1.0,8.912348916986957,Animal_Land_Solid_Small,4,0,19402207.0,19402268.0,61.0
123,choice,choice,43,6.0,Solid,1.0,9.715371249942107,Animal_Sea_Solid_Large,1,1,19405854.0,19406138.0,284.0
123,choice,choice,43,6.0,Solid,1.0,9.715371249942107,Object_Land_Pattern_Small,3,0,19407746.0,19407832.0,86.0
123,choice,choice,43,6.0,Solid,1.0,9.715371249942107,Animal_Land_Solid_Small,4,1,19409090.0,19410090.0,1000.0
123,choice,choice,43,6.0,Solid,1.0,9.715371249942107,Animal_Land_Pattern_Small,0,0,19411329.0,19411521.0,192.0
123,choice,choice,43,6.0,Solid,1.0,9.715371249942107,Animal_Sea_Solid_Large,1,1,19412227.0,19413052.0,825.0
123,choice,choice,43,6.0,Solid,1.0,9.715371249942107,Animal_Land_Pattern_Small,0,0,19414495.0,19415355.0,860.0
123,choice,choice,44,6.0,Land,2.0,8.319504375103861,Animal_Sea_Solid_Large,1,0,19418623.0,19418827.0,204.0
123,choice,choice,44,6.0,Land,2.0,8.319504375103861,Animal_Land_Pattern_Small,0,1,19418845.0,19419592.0,747.0
123,choice,choice,44,6.0,Land,2.0,8.319504375103861,Animal_Land_Solid_Small,4,1,19420038.0,19420309.0,271.0
123,choice,choice,44,6.0,Land,2.0,8.319504375103861,Object_Sea_Pattern_Large,2,0,19420365.0,19421165.0,800.0
123,choice,choice,44,6.0,Land,2.0,8.319504375103861,Object_Land_Pattern_Small,3,1,19422668.0,19423145.0,477.0
123,choice,choice,44,6.0,Land,2.0,8.319504375103861,Animal_Land_Solid_Small,4,1,19425235.0,19425525.0,290.0
123,choice,choice,44,6.0,Land,2.0,8.319504375103861,Object_Sea_Solid_Large,5,0,19426302.0,19426562.0,260.0
123,choice,choice,44,6.0,Land,2.0,8.319504375103861,Animal_Land_Solid_Small,4,1,19426582.0,19426916.0,334.0
123,choice,choice,45,6.0,Sea,2.0,9.366123208077624,Animal_Land_Pattern_Small,0,0,19430854.0,19431215.0,361.0
123,choice,choice,45,6.0,Sea,2.0,9.366123208077624,Animal_Sea_Solid_Large,1,1,19433366.0,19434217.0,851.0
123,choice,choice,45,6.0,Sea,2.0,9.366123208077624,Object_Sea_Pattern_Large,2,1,19434757.0,19434919.0,162.0
123,choice,choice,45,6.0,Sea,2.0,9.366123208077624,Object_Land_Pattern_Small,3,0,19435394.0,19435643.0,249.0
123,choice,choice,45,6.0,Sea,2.0,9.366123208077624,Animal_Sea_Solid_Large,1,1,19436628.0,19436737.0,109.0
123,choice,choice,45,6.0,Sea,2.0,9.366123208077624,Animal_Land_Pattern_Small,0,0,19436967.0,19437102.0,135.0
123,choice,choice,45,6.0,Sea,2.0,9.366123208077624,Animal_Sea_Solid_Large,1,1,19437118.0,19437370.0,252.0
123,choice,choice,45,6.0,Sea,2.0,9.366123208077624,Animal_Land_Solid_Small,4,0,19438032.0,19438715.0,683.0
123,choice,choice,46,6.0,Animal,2.0,5.585863874992356,Animal_Sea_Solid_Large,1,1,19442995.0,19443404.0,409.0
123,choice,choice,46,6.0,Animal,2.0,5.585863874992356,Animal_Land_Pattern_Small,0,1,19443664.0,19443947.0,283.0
123,choice,choice,46,6.0,Animal,2.0,5.585863874992356,Animal_Sea_Solid_Large,1,1,19443973.0,19444159.0,186.0
123,choice,choice,46,6.0,Animal,2.0,5.585863874992356,Object_Sea_Pattern_Large,2,0,19444174.0,19445576.0,1402.0
123,choice,choice,46,6.0,Animal,2.0,5.585863874992356,Object_Sea_Solid_Large,5,0,19446357.0,19446502.0,145.0
123,choice,choice,46,6.0,Animal,2.0,5.585863874992356,Animal_Land_Pattern_Small,0,1,19447761.0,19447888.0,127.0
123,choice,choice,46,6.0,Animal,2.0,5.585863874992356,Animal_Land_Solid_Small,4,1,19448120.0,19448402.0,282.0
123,choice,choice,47,6.0,Small,1.0,5.654553625034168,Animal_Sea_Solid_Large,1,0,19452239.0,19452747.0,508.0
123,choice,choice,47,6.0,Small,1.0,5.654553625034168,Object_Sea_Pattern_Large,2,0,19452923.0,19453670.0,747.0
123,choice,choice,47,6.0,Small,1.0,5.654553625034168,Object_Land_Pattern_Small,3,1,19453730.0,19453947.0,217.0
123,choice,choice,47,6.0,Small,1.0,5.654553625034168,Animal_Land_Solid_Small,4,1,19455502.0,19455817.0,315.0
123,choice,choice,47,6.0,Small,1.0,5.654553625034168,Animal_Land_Pattern_Small,0,1,19455827.0,19456560.0,733.0
123,choice,choice,48,6.0,Large,2.0,6.761225667083636,Animal_Land_Pattern_Small,0,0,19460492.0,19460971.0,479.0
123,choice,choice,48,6.0,Large,2.0,6.761225667083636,Animal_Sea_Solid_Large,1,1,19461183.0,19461704.0,521.0
123,choice,choice,48,6.0,Large,2.0,6.761225667083636,Object_Sea_Pattern_Large,2,1,19461930.0,19462548.0,618.0
123,choice,choice,48,6.0,Large,2.0,6.761225667083636,Object_Land_Pattern_Small,3,0,19462817.0,19463170.0,353.0
123,choice,choice,48,6.0,Large,2.0,6.761225667083636,Animal_Sea_Solid_Large,1,1,19465452.0,19465858.0,406.0
123,choice,choice,48,6.0,Large,2.0,6.761225667083636,Object_Sea_Pattern_Large,2,1,19466218.0,19466425.0,207.0
123,choice,choice,48,6.0,Large,2.0,6.761225667083636,Animal_Land_Solid_Small,4,0,19466480.0,19466707.0,227.0
123,choice,choice,48,6.0,Large,2.0,6.761225667083636,Object_Sea_Solid_Large,5,1,19466725.0,19467001.0,276.0
123,choice,choice,49,7.0,Solid,2.0,15.696771249873564,Animal_Land_Pattern_Small,0,0,19752237.0,19754330.0,2093.0
123,choice,choice,49,7.0,Solid,2.0,15.696771249873564,Animal_Sea_Solid_Large,1,1,19755272.0,19755931.0,659.0
123,choice,choice,49,7.0,Solid,2.0,15.696771249873564,Animal_Land_Solid_Large,2,1,19758135.0,19758177.0,42.0
123,choice,choice,49,7.0,Solid,2.0,15.696771249873564,Animal_Sea_Solid_Large,1,1,19758517.0,19758914.0,397.0
123,choice,choice,49,7.0,Solid,2.0,15.696771249873564,Animal_Land_Solid_Large,2,1,19759298.0,19760194.0,896.0
123,choice,choice,49,7.0,Solid,2.0,15.696771249873564,Object_Land_Pattern_Small,3,0,19761028.0,19761479.0,451.0
123,choice,choice,49,7.0,Solid,2.0,15.696771249873564,Animal_Sea_Solid_Large,1,1,19764759.0,19764962.0,203.0
123,choice,choice,49,7.0,Solid,2.0,15.696771249873564,Object_Sea_Pattern_Small,4,0,19765402.0,19765541.0,139.0
123,choice,choice,50,7.0,Pattern,2.0,9.955158083001152,Animal_Land_Pattern_Small,0,1,19771621.0,19771811.0,190.0
123,choice,choice,50,7.0,Pattern,2.0,9.955158083001152,Animal_Land_Solid_Large,2,0,19771991.0,19772504.0,513.0
123,choice,choice,50,7.0,Pattern,2.0,9.955158083001152,Object_Land_Pattern_Small,3,1,19772737.0,19772898.0,161.0
123,choice,choice,50,7.0,Pattern,2.0,9.955158083001152,Object_Sea_Pattern_Small,4,1,19773622.0,19774066.0,444.0
123,choice,choice,50,7.0,Pattern,2.0,9.955158083001152,Animal_Land_Solid_Large,2,0,19777132.0,19777250.0,118.0
123,choice,choice,50,7.0,Pattern,2.0,9.955158083001152,Animal_Land_Pattern_Small,0,1,19779088.0,19779191.0,103.0
123,choice,choice,50,7.0,Pattern,2.0,9.955158083001152,Object_Sea_Pattern_Small,4,1,19781144.0,19781173.0,29.0
123,choice,choice,51,7.0,Object,2.0,5.556648875121027,Animal_Sea_Solid_Large,1,0,19784762.0,19785175.0,413.0
123,choice,choice,51,7.0,Object,2.0,5.556648875121027,Animal_Land_Solid_Large,2,0,19785381.0,19785704.0,323.0
123,choice,choice,51,7.0,Object,2.0,5.556648875121027,Object_Land_Pattern_Small,3,1,19786397.0,19786611.0,214.0
123,choice,choice,51,7.0,Object,2.0,5.556648875121027,Object_Sea_Solid_Large,5,1,19787180.0,19787273.0,93.0
123,choice,choice,51,7.0,Object,2.0,5.556648875121027,Object_Sea_Pattern_Small,4,1,19788322.0,19788499.0,177.0
123,choice,choice,51,7.0,Object,2.0,5.556648875121027,Animal_Land_Pattern_Small,0,0,19788514.0,19788884.0,370.0
123,choice,choice,51,7.0,Object,2.0,5.556648875121027,Object_Sea_Pattern_Small,4,1,19789337.0,19789498.0,161.0
123,choice,choice,52,7.0,Small,1.0,8.735018665902317,Animal_Sea_Solid_Large,1,0,19793077.0,19793856.0,779.0
123,choice,choice,52,7.0,Small,1.0,8.735018665902317,Animal_Land_Solid_Large,2,0,19793889.0,19794699.0,810.0
123,choice,choice,52,7.0,Small,1.0,8.735018665902317,Object_Sea_Solid_Large,5,0,19795006.0,19795112.0,106.0
123,choice,choice,52,7.0,Small,1.0,8.735018665902317,Object_Sea_Pattern_Small,4,1,19795873.0,19796110.0,237.0
123,choice,choice,52,7.0,Small,1.0,8.735018665902317,Animal_Land_Pattern_Small,0,1,19796439.0,19796722.0,283.0
123,choice,choice,52,7.0,Small,1.0,8.735018665902317,Animal_Sea_Solid_Large,1,0,19798900.0,19799947.0,1047.0
123,choice,choice,52,7.0,Small,1.0,8.735018665902317,Animal_Land_Solid_Large,2,0,19800386.0,19801055.0,669.0
123,choice,choice,53,7.0,Large,2.0,7.0773467919789255,Animal_Land_Solid_Large,2,1,19804996.0,19805614.0,618.0
123,choice,choice,53,7.0,Large,2.0,7.0773467919789255,Object_Sea_Pattern_Small,4,0,19806083.0,19806263.0,180.0
123,choice,choice,53,7.0,Large,2.0,7.0773467919789255,Animal_Land_Solid_Large,2,1,19807638.0,19807681.0,43.0
123,choice,choice,53,7.0,Large,2.0,7.0773467919789255,Animal_Land_Pattern_Small,0,0,19810976.0,19811146.0,170.0
123,choice,choice,53,7.0,Large,2.0,7.0773467919789255,Animal_Sea_Solid_Large,1,1,19811169.0,19811384.0,215.0
123,choice,choice,54,7.0,Animal,2.0,4.421282749855891,Animal_Land_Solid_Large,2,1,19815081.0,19815296.0,215.0
123,choice,choice,54,7.0,Animal,2.0,4.421282749855891,Object_Land_Pattern_Small,3,0,19816914.0,19817425.0,511.0
123,choice,choice,54,7.0,Animal,2.0,4.421282749855891,Object_Sea_Solid_Large,5,0,19817465.0,19817660.0,195.0
123,choice,choice,55,7.0,Sea,2.0,6.476491458946839,Animal_Sea_Solid_Large,1,1,19821852.0,19822357.0,505.0
123,choice,choice,55,7.0,Sea,2.0,6.476491458946839,Animal_Land_Solid_Large,2,0,19823528.0,19823941.0,413.0
123,choice,choice,55,7.0,Sea,2.0,6.476491458946839,Object_Sea_Pattern_Small,4,1,19824499.0,19824638.0,139.0
123,choice,choice,55,7.0,Sea,2.0,6.476491458946839,Animal_Sea_Solid_Large,1,1,19825471.0,19825558.0,87.0
123,choice,choice,55,7.0,Sea,2.0,6.476491458946839,Animal_Land_Pattern_Small,0,0,19825577.0,19825793.0,216.0
123,choice,choice,55,7.0,Sea,2.0,6.476491458946839,Animal_Sea_Solid_Large,1,1,19825816.0,19826032.0,216.0
123,choice,choice,55,7.0,Sea,2.0,6.476491458946839,Animal_Land_Solid_Large,2,0,19826053.0,19826686.0,633.0
123,choice,choice,55,7.0,Sea,2.0,6.476491458946839,Object_Land_Pattern_Small,3,0,19826710.0,19827429.0,719.0
123,choice,choice,55,7.0,Sea,2.0,6.476491458946839,Animal_Land_Solid_Large,2,0,19827453.0,19828072.0,619.0
123,choice,choice,55,7.0,Sea,2.0,6.476491458946839,Object_Land_Pattern_Small,3,0,19828089.0,19828118.0,29.0
123,choice,choice,56,7.0,Land,2.0,5.274215249810368,Animal_Land_Solid_Large,2,1,19831920.0,19832214.0,294.0
123,choice,choice,56,7.0,Land,2.0,5.274215249810368,Animal_Land_Pattern_Small,0,1,19832964.0,19833136.0,172.0
123,choice,choice,56,7.0,Land,2.0,5.274215249810368,Object_Land_Pattern_Small,3,1,19834740.0,19834897.0,157.0
123,choice,choice,56,7.0,Land,2.0,5.274215249810368,Object_Sea_Pattern_Small,4,0,19836150.0,19836841.0,691.0
