phase,event,onset,offset,trial_number,game,image,outcome,choice,correct,rt,letter,match,response,option,true_value,true_position,recalled_position,
encoding,fixation,8.498822416877374,9.510207541985437,1,1,Animal_Sea_Pattern_Large,9,,,,,,,,,,,
encoding,image,9.510342207970098,10.527942499844357,1,1,Animal_Sea_Pattern_Large,9,,,,,,,,,,,
encoding,value,10.528131749946624,16.54370812489651,1,1,Animal_Sea_Pattern_Large,9,,,,,,,,,,,
encoding,attention,16.54386741691269,19.560981082962826,1,1,Animal_Sea_Pattern_Large,9,+9,1,0.9486130001023412,,,,,,,,
encoding,fixation,19.56114595802501,20.066227667033672,2,1,Object_Land_Pattern_Large,-2,,,,,,,,,,,
encoding,image,20.066344207851216,21.078205083031207,2,1,Object_Land_Pattern_Large,-2,,,,,,,,,,,
encoding,value,21.078318333020434,27.094450624892488,2,1,Object_Land_Pattern_Large,-2,,,,,,,,,,,
encoding,attention,27.09456416685134,30.11441283300519,2,1,Object_Land_Pattern_Large,-2,-2,1,1.0386088339146227,,,,,,,,
encoding,fixation,30.114549499936402,31.12021075002849,3,1,Object_Land_Solid_Small,6,,,,,,,,,,,
encoding,image,31.120325041934848,32.13146441685967,3,1,Object_Land_Solid_Small,6,,,,,,,,,,,
encoding,value,32.131585666909814,38.14360633282922,3,1,Object_Land_Solid_Small,6,,,,,,,,,,,
encoding,attention,38.14378579193726,41.16142537491396,3,1,Object_Land_Solid_Small,6,+6,1,0.8062106671277434,,,,,,,,
encoding,fixation,41.16159237502143,42.416855291929096,4,1,Object_Sea_Pattern_Large,-6,,,,,,,,,,,
encoding,image,42.41695766686462,43.42842845781706,4,1,Object_Sea_Pattern_Large,-6,,,,,,,,,,,
encoding,value,43.428552666911855,49.440470832865685,4,1,Object_Sea_Pattern_Large,-6,,,,,,,,,,,
encoding,attention,49.4405892919749,52.45771912485361,4,1,Object_Sea_Pattern_Large,-6,-6,1,0.8410745409782976,,,,,,,,
encoding,fixation,52.45787779195234,53.21313479193486,5,1,Animal_Land_Solid_Small,2,,,,,,,,,,,
encoding,image,53.2132389168255,54.22595754195936,5,1,Animal_Land_Solid_Small,2,,,,,,,,,,,
encoding,value,54.22610054188408,60.23697624984197,5,1,Animal_Land_Solid_Small,2,,,,,,,,,,,
encoding,attention,60.23709233291447,63.2996692918241,5,1,Animal_Land_Solid_Small,2,+2,1,1.1651345419231802,,,,,,,,
encoding,fixation,63.299832166871056,64.30450758291408,6,1,Animal_Sea_Solid_Small,-9,,,,,,,,,,,
encoding,image,64.304606749909,65.31597070791759,6,1,Animal_Sea_Solid_Small,-9,,,,,,,,,,,
encoding,value,65.31607866683044,71.32760683284141,6,1,Animal_Sea_Solid_Small,-9,,,,,,,,,,,
encoding,attention,71.32776170782745,74.3450840418227,6,1,Animal_Sea_Solid_Small,-9,-9,1,1.2409221248235554,,,,,,,,
n-back,,,,1,1,,,,1,None,B,False,None,,,,,
n-back,,,,2,1,,,,0,None,X,True,None,,,,,
n-back,,,,3,1,,,,1,0.46726720896549523,B,True,1,,,,,
n-back,,,,4,1,,,,1,None,V,False,None,,,,,
n-back,,,,5,1,,,,1,0.5326707081403583,B,True,1,,,,,
n-back,,,,6,1,,,,1,None,B,False,None,,,,,
n-back,,,,7,1,,,,1,0.44248866685666144,B,True,1,,,,,
n-back,,,,8,1,,,,1,None,N,False,None,,,,,
n-back,,,,9,1,,,,1,0.3672470001038164,B,True,1,,,,,
n-back,,,,10,1,,,,1,None,X,False,None,,,,,
n-back,,,,11,1,,,,1,None,X,False,None,,,,,
n-back,,,,12,1,,,,1,None,B,False,None,,,,,
n-back,,,,13,1,,,,1,None,Z,False,None,,,,,
n-back,,,,14,1,,,,1,0.9499456251505762,B,True,1,,,,,
n-back,,,,15,1,,,,1,None,N,False,None,,,,,
n-back,,,,16,1,,,,1,None,V,False,None,,,,,
n-back,,,,17,1,,,,1,0.46230458398349583,N,True,1,,,,,
n-back,,,,18,1,,,,1,1.0299547500908375,V,True,1,,,,,
n-back,,,,19,1,,,,1,None,Z,False,None,,,,,
n-back,,,,20,1,,,,1,0.4739400001708418,V,True,1,,,,,
n-back,,,,21,1,,,,1,None,B,False,None,,,,,
n-back,,,,22,1,,,,1,None,Z,False,None,,,,,
n-back,,,,23,1,,,,1,None,N,False,None,,,,,
n-back,,,,24,1,,,,1,None,X,False,None,,,,,
n-back,,,,25,1,,,,1,0.7533622090704739,N,True,1,,,,,
n-back,,,,26,1,,,,1,None,C,False,None,,,,,
n-back,,,,27,1,,,,1,None,Z,False,None,,,,,
n-back,,,,28,1,,,,1,None,V,False,None,,,,,
n-back,,,,29,1,,,,1,None,N,False,None,,,,,
n-back,,,,30,1,,,,1,None,C,False,None,,,,,
choice,fixation,158.11012733285315,159.11662679188885,1,1,,,,,,,,,Object,,,,
choice,option,159.12692445795983,160.25063670799136,1,1,,,,,,,,,Object,,,,
choice,choice,160.2507514168974,187.74002112494782,1,1,,,2,1,26.477677040966228,,,,Object,,,,
choice,fixation,187.74015837488696,189.2453032080084,2,1,,,,,,,,,Solid,,,,
choice,option,189.25495237484574,190.28338874992914,2,1,,,,,,,,,Solid,,,,
choice,choice,190.28350008302368,205.5005627919454,2,1,,,2,1,14.206396458903328,,,,Solid,,,,
choice,fixation,205.5006999168545,206.5060980420094,3,1,,,,,,,,,Small,,,,
choice,option,206.51499579194933,207.54330766689964,3,1,,,,,,,,,Small,,,,
choice,choice,207.54346133302897,227.78629620792344,3,1,,,2,1,19.231824249960482,,,,Small,,,,
choice,fixation,227.786429541884,228.54464579187334,4,1,,,,,,,,,Sea,,,,
choice,option,228.55350529192947,229.5809173330199,4,1,,,,,,,,,Sea,,,,
choice,choice,229.58103254181333,246.25832329201512,4,1,,,2,1,15.666507042013109,,,,Sea,,,,
choice,fixation,246.25845158286393,247.7634622079786,5,1,,,,,,,,,Animal,,,,
choice,option,247.7730826670304,248.80112429196015,5,1,,,,,,,,,Animal,,,,
choice,choice,248.80123262503184,253.26539154187776,5,1,,,1,1,3.4547302920836955,,,,Animal,,,,
choice,fixation,253.26550874998793,254.52084370795637,6,1,,,,,,,,,Large,,,,
choice,option,254.5296915420331,255.5572868748568,6,1,,,,,,,,,Large,,,,
choice,choice,255.55739600001834,263.52078029187396,6,1,,,1,1,6.95364566706121,,,,Large,,,,
choice,fixation,263.52090941695496,264.27632820792496,7,1,,,,,,,,,Pattern,,,,
choice,option,264.2858036670368,265.3136227920186,7,1,,,,,,,,,Pattern,,,,
choice,choice,265.3137460828293,277.27763337502256,7,1,,,1,1,10.950462999986485,,,,Pattern,,,,
choice,fixation,277.27774824993685,278.7827929579653,8,1,,,,,,,,,Land,,,,
choice,option,278.79168158280663,279.81893891701475,8,1,,,,,,,,,Land,,,,
choice,choice,279.8190539579373,287.86589458282106,8,1,,,1,1,7.036587374983355,,,,Land,,,,
memory,free_recall,348.53052512486465,358.89970537484623,0,1,,,,,,,,,,,,,
memory,value_recall,400.1104782919865,403.53187504201196,1,1,Object_Land_Pattern_Large,,,,3.4181897919625044,,,,,-2,,,
memory,value_recall,404.57743641687557,407.0437226248905,2,1,Object_Land_Solid_Small,,,,2.4635477499105036,,,,,6,,,
memory,value_recall,408.83977449988015,410.5715105419513,3,1,Animal_Sea_Solid_Small,,,,1.7275473328772932,,,,,-9,,,
memory,value_recall,411.86754554184154,413.74206358287483,4,1,Animal_Land_Solid_Small,,,,1.8703666250221431,,,,,2,,,
memory,value_recall,415.78808362502605,417.7243464579806,5,1,Object_Sea_Pattern_Large,,,,1.9310074159875512,,,,,-6,,,
memory,value_recall,419.52193445782177,421.06785741681233,6,1,Animal_Sea_Pattern_Large,,,,1.5416833339259028,,,,,9,,,
memory,spatial_recall,436.50958683295175,440.87104574986733,6,1,Object_Land_Solid_Small,,,1,4.357452584197745,,,,,,"[0, 380]","[0, 380]",
memory,spatial_recall,442.68615262489766,448.5030546670314,6,1,Object_Sea_Pattern_Large,,,1,5.809819542104378,,,,,,"[329, 189]","[329, 189]",
memory,spatial_recall,450.31689654197544,452.9339678748511,6,1,Animal_Sea_Solid_Small,,,1,2.6130507921334356,,,,,,"[0, -380]","[0, -380]",
memory,spatial_recall,454.7450095419772,456.5543242499698,6,1,Object_Land_Pattern_Large,,,1,1.8052743750158697,,,,,,"[329, -190]","[329, -190]",
memory,spatial_recall,458.1134942499921,459.2545568328351,6,1,Animal_Sea_Pattern_Large,,,1,1.137128375004977,,,,,,"[-329, 190]","[-329, 190]",
memory,spatial_recall,460.5553919579834,461.63324724999256,6,1,Animal_Land_Solid_Small,,,1,1.0740963749121875,,,,,,"[-329, -190]","[-329, -190]",
encoding,fixation,13.62606787495315,14.881726208142936,7,2,Object_Land_Solid_Large,-1,,,,,,,,,,,
encoding,image,14.881836083019152,15.893143541179597,7,2,Object_Land_Solid_Large,-1,,,,,,,,,,,
encoding,value,15.893259458011016,21.90605341596529,7,2,Object_Land_Solid_Large,-1,,,,,,,,,,,
encoding,attention,21.906152290990576,24.924001208040863,7,2,Object_Land_Solid_Large,-1,-1,1,0.7227150001563132,,,,,,,,
encoding,fixation,24.924175083171576,25.42930050007999,8,2,Animal_Sea_Pattern_Small,9,,,,,,,,,,,
encoding,image,25.42941345809959,26.440650874981657,8,2,Animal_Sea_Pattern_Small,9,,,,,,,,,,,
encoding,value,26.440753375180066,32.456018458120525,8,2,Animal_Sea_Pattern_Small,9,,,,,,,,,,,
encoding,attention,32.456133665982634,35.47413595812395,8,2,Animal_Sea_Pattern_Small,9,+9,1,0.9200431669596583,,,,,,,,
encoding,fixation,35.474305500043556,36.22945295809768,9,2,Object_Sea_Pattern_Small,7,,,,,,,,,,,
encoding,image,36.22957312501967,37.24018937512301,9,2,Object_Sea_Pattern_Small,7,,,,,,,,,,,
encoding,value,37.240377250127494,43.25215175002813,9,2,Object_Sea_Pattern_Small,7,,,,,,,,,,,
encoding,attention,43.25226925010793,46.269108874956146,9,2,Object_Sea_Pattern_Small,7,+7,1,0.6505493749864399,,,,,,,,
encoding,fixation,46.26924983295612,47.02437958307564,10,2,Animal_Land_Solid_Large,8,,,,,,,,,,,
encoding,image,47.024479957995936,48.03611170803197,10,2,Animal_Land_Solid_Large,8,,,,,,,,,,,
encoding,value,48.03621600009501,54.04885462508537,10,2,Animal_Land_Solid_Large,8,,,,,,,,,,,
encoding,attention,54.04896270809695,57.06706079095602,10,2,Animal_Land_Solid_Large,8,+8,1,1.235318292165175,,,,,,,,
encoding,fixation,57.06725233304314,58.072811583057046,11,2,Animal_Sea_Pattern_Large,-9,,,,,,,,,,,
encoding,image,58.07293254113756,59.08369908295572,11,2,Animal_Sea_Pattern_Large,-9,,,,,,,,,,,
encoding,value,59.08384208311327,65.0950470410753,11,2,Animal_Sea_Pattern_Large,-9,,,,,,,,,,,
encoding,attention,65.09514850005507,68.10656287497841,11,2,Animal_Sea_Pattern_Large,-9,None,None,None,,,,,,,,
encoding,fixation,68.10669404105283,69.61177958315238,12,2,Object_Land_Solid_Small,-3,,,,,,,,,,,
encoding,image,69.61188745801337,70.62304345797747,12,2,Object_Land_Solid_Small,-3,,,,,,,,,,,
encoding,value,70.62317545805126,76.63515170803294,12,2,Object_Land_Solid_Small,-3,,,,,,,,,,,
encoding,attention,76.63527458300814,79.65331312501803,12,2,Object_Land_Solid_Small,-3,-3,1,0.817904083058238,,,,,,,,
n-back,,,,31,2,,,,1,None,X,False,None,,,,,
n-back,,,,32,2,,,,1,None,B,False,None,,,,,
n-back,,,,33,2,,,,1,None,N,False,None,,,,,
n-back,,,,34,2,,,,1,None,V,False,None,,,,,
n-back,,,,35,2,,,,1,None,C,False,None,,,,,
n-back,,,,36,2,,,,1,None,C,False,None,,,,,
n-back,,,,37,2,,,,1,0.4028442499693483,C,True,1,,,,,
n-back,,,,38,2,,,,1,1.0939540001563728,C,True,1,,,,,
n-back,,,,39,2,,,,1,None,B,False,None,,,,,
n-back,,,,40,2,,,,1,0.34345320891588926,C,True,1,,,,,
n-back,,,,41,2,,,,1,0.45165516599081457,B,True,1,,,,,
n-back,,,,42,2,,,,1,None,V,False,None,,,,,
n-back,,,,43,2,,,,1,None,V,False,None,,,,,
n-back,,,,44,2,,,,1,None,X,False,None,,,,,
n-back,,,,45,2,,,,1,None,C,False,None,,,,,
n-back,,,,46,2,,,,1,None,V,False,None,,,,,
n-back,,,,47,2,,,,1,0.35812229197472334,C,True,1,,,,,
n-back,,,,48,2,,,,1,None,B,False,None,,,,,
n-back,,,,49,2,,,,0,None,C,True,None,,,,,
n-back,,,,50,2,,,,1,0.8069342079106718,B,True,1,,,,,
n-back,,,,51,2,,,,1,0.911318166879937,C,True,1,,,,,
n-back,,,,52,2,,,,1,None,X,False,None,,,,,
n-back,,,,53,2,,,,1,None,B,False,None,,,,,
n-back,,,,54,2,,,,1,None,N,False,None,,,,,
n-back,,,,55,2,,,,1,None,Z,False,None,,,,,
n-back,,,,56,2,,,,1,None,Z,False,None,,,,,
n-back,,,,57,2,,,,1,0.36149241612292826,Z,True,1,,,,,
n-back,,,,58,2,,,,1,0.676554957870394,Z,True,1,,,,,
n-back,,,,59,2,,,,1,None,V,False,None,,,,,
n-back,,,,60,2,,,,1,None,B,False,None,,,,,
choice,fixation,154.47302387515083,155.72651854110882,9,2,,,,,,,,,Sea,,,,
choice,option,155.73451179102995,156.76554891606793,9,2,,,,,,,,,Sea,,,,
choice,choice,156.765650666086,198.7988397909794,9,2,,,1,1,41.02251833397895,,,,Sea,,,,
choice,fixation,198.79897550004534,200.3066190830432,10,2,,,,,,,,,Small,,,,
choice,option,200.31558529101312,201.34261783305556,10,2,,,,,,,,,Small,,,,
choice,choice,201.34272325015627,217.28113929112442,10,2,,,1,1,14.927677457919344,,,,Small,,,,
choice,fixation,217.28129391605034,218.28938991599716,11,2,,,,,,,,,Animal,,,,
choice,option,218.29854312515818,219.32540458301082,11,2,,,,,,,,,Animal,,,,
choice,choice,219.3255987081211,227.91021741600707,11,2,,,1,1,7.5742546250112355,,,,Animal,,,,
choice,fixation,227.91032925015315,228.6653005410917,12,2,,,,,,,,,Land,,,,
choice,option,228.67411262495443,229.70116795809008,12,2,,,,,,,,,Land,,,,
choice,choice,229.70127366599627,249.02754145814106,12,2,,,1,1,18.315085959155113,,,,Land,,,,
choice,fixation,249.02767154108733,250.0331953749992,13,2,,,,,,,,,Solid,,,,
choice,option,250.04324658308178,251.0720977501478,13,2,,,,,,,,,Solid,,,,
choice,choice,251.07222804101184,269.7994661661796,13,2,,,1,1,17.716699542012066,,,,Solid,,,,
choice,fixation,269.79959150007926,270.5553589579649,14,2,,,,,,,,,Large,,,,
choice,option,270.5643430000637,271.5923522079829,14,2,,,,,,,,,Large,,,,
choice,choice,271.592497457983,284.71321962517686,14,2,,,2,1,12.110065459040925,,,,Large,,,,
choice,fixation,284.7133580830414,285.7186041660607,15,2,,,,,,,,,Pattern,,,,
choice,option,285.7281873750035,286.7564647910185,15,2,,,,,,,,,Pattern,,,,
choice,choice,286.7565969580319,301.5119455831591,15,2,,,1,1,13.744707208825275,,,,Pattern,,,,
choice,fixation,301.51206300011836,302.51728370808996,16,2,,,,,,,,,Object,,,,
choice,option,302.5270917501766,303.555844000075,16,2,,,,,,,,,Object,,,,
choice,choice,303.55595320812427,316.2564567499794,16,2,,,1,1,11.688576250104234,,,,Object,,,,
memory,free_recall,347.2193510001525,356.39318333310075,6,2,,,,,,,,,,,,,
memory,value_recall,361.2452287080232,364.73892954108305,7,2,Object_Sea_Pattern_Small,,,,3.489384667016566,,,,,7,,,
memory,value_recall,365.78590749995783,367.5625624160748,8,2,Object_Land_Solid_Large,,,,1.7731787080410868,,,,,-1,,,
memory,value_recall,369.6083394580055,371.3619677501265,9,2,Object_Land_Solid_Small,,,,1.7496161670424044,,,,,-3,,,
memory,value_recall,372.40882554114796,373.8667156251613,10,2,Animal_Land_Solid_Large,,,,1.4553882498294115,,,,,8,,,
memory,value_recall,375.4144669161178,376.85869333310984,11,2,Animal_Sea_Pattern_Small,,,,1.4400500408373773,,,,,9,,,
memory,value_recall,378.15576991601847,379.8250745830592,12,2,Animal_Sea_Pattern_Large,,,,1.6650397500488907,,,,,-9,,,
memory,spatial_recall,383.98213229095563,385.49253979115747,12,2,Object_Land_Solid_Small,,,1,1.5045588330831379,,,,,,"[0, 380]","[0, 380]",
memory,spatial_recall,387.0549480409827,388.2936474161688,12,2,Animal_Sea_Pattern_Small,,,1,1.2345939590595663,,,,,,"[329, -190]","[329, -190]",
memory,spatial_recall,390.3498132911045,391.54933637497015,12,2,Object_Sea_Pattern_Small,,,1,1.1934612079057842,,,,,,"[-329, -190]","[-329, -190]",
memory,spatial_recall,392.6091803330928,393.38206729106605,12,2,Animal_Land_Solid_Large,,,1,0.770428708055988,,,,,,"[329, 189]","[329, 189]",
memory,spatial_recall,394.68944962508976,395.94241704116575,12,2,Object_Land_Solid_Large,,,1,1.248808000003919,,,,,,"[0, -380]","[0, -380]",
memory,spatial_recall,397.2384800000582,398.1830619999673,12,2,Animal_Sea_Pattern_Large,,,1,0.9405186250805855,,,,,,"[-329, 190]","[-329, 190]",
encoding,fixation,3.3707813329529017,4.126851957989857,13,3,Animal_Sea_Pattern_Large,9,,,,,,,,,,,
encoding,image,4.126959499903023,5.1394065408967435,13,3,Animal_Sea_Pattern_Large,9,,,,,,,,,,,
encoding,value,5.139521874953061,11.152059665881097,13,3,Animal_Sea_Pattern_Large,9,,,,,,,,,,,
encoding,attention,11.152180874953046,14.172799499938264,13,3,Animal_Sea_Pattern_Large,9,+9,1,1.3507588328793645,,,,,,,,
encoding,fixation,14.1729452079162,14.928522374946624,14,3,Object_Sea_Solid_Large,-7,,,,,,,,,,,
encoding,image,14.928688749903813,15.940644540823996,14,3,Object_Sea_Solid_Large,-7,,,,,,,,,,,
encoding,value,15.940765499835834,21.956191665958613,14,3,Object_Sea_Solid_Large,-7,,,,,,,,,,,
encoding,attention,21.956297874916345,24.97451016586274,14,3,Object_Sea_Solid_Large,-7,-7,1,0.703826375072822,,,,,,,,
encoding,fixation,24.974649499868974,25.72956391586922,15,3,Animal_Land_Pattern_Large,-9,,,,,,,,,,,
encoding,image,25.72966779093258,26.741825374774635,15,3,Animal_Land_Pattern_Large,-9,,,,,,,,,,,
encoding,value,26.741937540937215,32.753283040830866,15,3,Animal_Land_Pattern_Large,-9,,,,,,,,,,,
encoding,attention,32.753422415815294,35.77416654094122,15,3,Animal_Land_Pattern_Large,-9,-9,1,0.7494607090484351,,,,,,,,
encoding,fixation,35.77435354096815,36.5297397908289,16,3,Animal_Land_Solid_Small,-9,,,,,,,,,,,
encoding,image,36.52983716595918,37.54111449979246,16,3,Animal_Land_Solid_Small,-9,,,,,,,,,,,
encoding,value,37.54122991580516,43.55288308300078,16,3,Animal_Land_Solid_Small,-9,,,,,,,,,,,
encoding,attention,43.5529968328774,46.56973037496209,16,3,Animal_Land_Solid_Small,-9,-9,1,0.4789872078690678,,,,,,,,
encoding,fixation,46.56987516582012,47.82524283300154,17,3,Object_Sea_Solid_Small,1,,,,,,,,,,,
encoding,image,47.82542658294551,48.836116374935955,17,3,Object_Sea_Solid_Small,1,,,,,,,,,,,
encoding,value,48.83623562497087,54.84705458278768,17,3,Object_Sea_Solid_Small,1,,,,,,,,,,,
encoding,attention,54.847199249779806,57.857610165840015,17,3,Object_Sea_Solid_Small,1,None,None,None,,,,,,,,
encoding,fixation,57.85773816588335,58.362934707896784,18,3,Object_Land_Pattern_Small,3,,,,,,,,,,,
encoding,image,58.36305841594003,59.3745615829248,18,3,Object_Land_Pattern_Small,3,,,,,,,,,,,
encoding,value,59.374683832982555,65.38864216580987,18,3,Object_Land_Pattern_Small,3,,,,,,,,,,,
encoding,attention,65.38881733291782,68.40634445799515,18,3,Object_Land_Pattern_Small,3,+3,1,0.9462666672188789,,,,,,,,
n-back,,,,61,3,,,,1,None,B,False,None,,,,,
n-back,,,,62,3,,,,1,None,N,False,None,,,,,
n-back,,,,63,3,,,,1,0.33912150003015995,B,True,1,,,,,
n-back,,,,64,3,,,,1,0.5081483752001077,N,True,1,,,,,
n-back,,,,65,3,,,,1,None,V,False,None,,,,,
n-back,,,,66,3,,,,1,None,V,False,None,,,,,
n-back,,,,67,3,,,,1,0.30684995790943503,V,True,1,,,,,
n-back,,,,68,3,,,,1,None,B,False,None,,,,,
n-back,,,,69,3,,,,1,None,N,False,None,,,,,
n-back,,,,70,3,,,,1,0.31778162508271635,B,True,1,,,,,
n-back,,,,71,3,,,,1,None,X,False,None,,,,,
n-back,,,,72,3,,,,1,0.9316907920874655,B,True,1,,,,,
n-back,,,,73,3,,,,1,None,Z,False,None,,,,,
n-back,,,,74,3,,,,1,None,C,False,None,,,,,
n-back,,,,75,3,,,,1,None,B,False,None,,,,,
n-back,,,,76,3,,,,1,None,N,False,None,,,,,
n-back,,,,77,3,,,,1,None,X,False,None,,,,,
n-back,,,,78,3,,,,1,0.45466704200953245,N,True,1,,,,,
n-back,,,,79,3,,,,1,None,B,False,None,,,,,
n-back,,,,80,3,,,,0,None,N,True,None,,,,,
n-back,,,,81,3,,,,1,None,X,False,None,,,,,
n-back,,,,82,3,,,,0,0.6239596251398325,B,False,1,,,,,
n-back,,,,83,3,,,,1,None,N,False,None,,,,,
n-back,,,,84,3,,,,0,None,B,True,None,,,,,
n-back,,,,85,3,,,,1,0.7318343750666827,N,True,1,,,,,
n-back,,,,86,3,,,,1,0.8937302080448717,B,True,1,,,,,
n-back,,,,87,3,,,,1,None,X,False,None,,,,,
n-back,,,,88,3,,,,1,None,Z,False,None,,,,,
n-back,,,,89,3,,,,1,None,Z,False,None,,,,,
n-back,,,,90,3,,,,1,None,V,False,None,,,,,
choice,fixation,142.37203837488778,143.1263909158297,17,3,,,,,,,,,Land,,,,
choice,option,143.13552766595967,144.16312504094094,17,3,,,,,,,,,Land,,,,
choice,choice,144.16322537488304,157.69013358280063,17,3,,,2,1,12.51398149994202,,,,Land,,,,
choice,fixation,157.69024591590278,159.1953648328781,18,3,,,,,,,,,Large,,,,
choice,option,159.20398749993183,160.23053429089487,18,3,,,,,,,,,Large,,,,
choice,choice,160.23063599993475,180.53620416577905,18,3,,,2,1,19.294112917035818,,,,Large,,,,
choice,fixation,180.53631154098548,181.79144270787947,19,3,,,,,,,,,Animal,,,,
choice,option,181.8012712500058,182.82835862482898,19,3,,,,,,,,,Animal,,,,
choice,choice,182.82849383284338,197.96897937497124,19,3,,,2,1,14.129019957967103,,,,Animal,,,,
choice,fixation,197.96909570787102,198.72427808283828,20,3,,,,,,,,,Object,,,,
choice,option,198.73376308288425,199.7600648747757,20,3,,,,,,,,,Object,,,,
choice,choice,199.7601678748615,209.76931495778263,20,3,,,2,1,8.99879812519066,,,,Object,,,,
choice,fixation,209.76947770779952,210.52463991590776,21,3,,,,,,,,,Small,,,,
choice,option,210.5344336659182,211.5617152499035,21,3,,,,,,,,,Small,,,,
choice,choice,211.56183466594666,225.3623521658592,21,3,,,2,1,12.789615083951503,,,,Small,,,,
choice,fixation,225.36246429081075,225.86736924992874,22,3,,,,,,,,,Pattern,,,,
choice,option,225.87667899997905,226.9030587079469,22,3,,,,,,,,,Pattern,,,,
choice,choice,226.90316204098053,236.26652808277868,22,3,,,1,1,8.352114291861653,,,,Pattern,,,,
choice,fixation,236.2666574579198,237.02446045796387,23,3,,,,,,,,,Sea,,,,
choice,option,237.03340504085645,238.0602889158763,23,3,,,,,,,,,Sea,,,,
choice,choice,238.06039504078217,244.48905791598372,23,3,,,1,1,5.418852708069608,,,,Sea,,,,
choice,fixation,244.48917908291332,245.74427383299917,24,3,,,,,,,,,Solid,,,,
choice,option,245.75368470791727,246.78065354097635,24,3,,,,,,,,,Solid,,,,
choice,choice,246.7807516248431,257.5202793329954,24,3,,,2,1,9.72890654206276,,,,Solid,,,,
memory,free_recall,277.6578621249646,289.7470150408335,12,3,,,,,,,,,,,,,
memory,value_recall,293.7925047909375,296.5054606657941,13,3,Object_Land_Pattern_Small,,,,2.7084987920243293,,,,,3,,,
memory,value_recall,298.3008997908328,300.29859824990854,14,3,Animal_Sea_Pattern_Large,,,,1.9924298329278827,,,,,9,,,
memory,value_recall,302.3492957078852,304.274966040859,15,3,Object_Sea_Solid_Small,,,,1.9203977501019835,,,,,1,,,
memory,value_recall,305.32246291590855,306.945566207869,16,3,Animal_Land_Solid_Small,,,,1.6197994579561055,,,,,-9,,,
memory,value_recall,308.743611165788,310.0263249159325,17,3,Animal_Land_Pattern_Large,,,,1.2782619998324662,,,,,-9,,,
memory,value_recall,311.31357108289376,312.7713047498837,18,3,Object_Sea_Solid_Large,,,,1.4537470419891179,,,,,-7,,,
memory,spatial_recall,316.692645332776,318.36321083293296,18,3,Animal_Land_Pattern_Large,,,1,1.6662897081114352,,,,,,"[329, 189]","[329, 189]",
memory,spatial_recall,320.4250081249047,322.5512093328871,18,3,Object_Land_Pattern_Small,,,1,2.1215833330061287,,,,,,"[329, -190]","[329, -190]",
memory,spatial_recall,324.60998683283105,326.22927229083143,18,3,Object_Sea_Solid_Small,,,1,1.6147845410741866,,,,,,"[0, 380]","[0, 380]",
memory,spatial_recall,328.28305308287963,329.3827899158932,18,3,Animal_Sea_Pattern_Large,,,1,1.0950467090588063,,,,,,"[-329, 190]","[-329, 190]",
memory,spatial_recall,331.4497574158013,333.6993537079543,18,3,Object_Sea_Solid_Large,,,1,2.244033958064392,,,,,,"[0, -380]","[0, -380]",
memory,spatial_recall,335.51178924995475,336.4629464999307,18,3,Animal_Land_Solid_Small,,,1,0.9471144168637693,,,,,,"[-329, -190]","[-329, -190]",
encoding,fixation,3.5831757918931544,4.088815791998059,19,4,Animal_Sea_Solid_Small,-6,,,,,,,,,,,
encoding,image,4.0889135838951916,5.1007193338591605,19,4,Animal_Sea_Solid_Small,-6,,,,,,,,,,,
encoding,value,5.100886791944504,11.114132374990731,19,4,Animal_Sea_Solid_Small,-6,,,,,,,,,,,
encoding,attention,11.1142469169572,14.131445958977565,19,4,Animal_Sea_Solid_Small,-6,-6,1,1.0671212498564273,,,,,,,,
encoding,fixation,14.131586750037968,14.636735749896616,20,4,Object_Land_Pattern_Large,-1,,,,,,,,,,,
encoding,image,14.636857583886012,15.649059583898634,20,4,Object_Land_Pattern_Large,-1,,,,,,,,,,,
encoding,value,15.649235124932602,21.663269291864708,20,4,Object_Land_Pattern_Large,-1,,,,,,,,,,,
encoding,attention,21.663390750065446,24.682782999938354,20,4,Object_Land_Pattern_Large,-1,-1,1,0.5722597080748528,,,,,,,,
encoding,fixation,24.68293591705151,25.438122709048912,21,4,Animal_Sea_Pattern_Large,9,,,,,,,,,,,
encoding,image,25.438304791925475,26.449078416917473,21,4,Animal_Sea_Pattern_Large,9,,,,,,,,,,,
encoding,value,26.449193709064275,32.461824249941856,21,4,Animal_Sea_Pattern_Large,9,,,,,,,,,,,
encoding,attention,32.46194904204458,35.47914099995978,21,4,Animal_Sea_Pattern_Large,9,+9,1,1.2332334578968585,,,,,,,,
encoding,fixation,35.479345167055726,36.485895042074844,22,4,Object_Land_Solid_Small,7,,,,,,,,,,,
encoding,image,36.48601608397439,37.497759209014475,22,4,Object_Land_Solid_Small,7,,,,,,,,,,,
encoding,value,37.49786483403295,43.50951329199597,22,4,Object_Land_Solid_Small,7,,,,,,,,,,,
encoding,attention,43.50962462485768,46.52893829206005,22,4,Object_Land_Solid_Small,7,+7,1,0.5898149579297751,,,,,,,,
encoding,fixation,46.52910374989733,48.03457995899953,23,4,Object_Sea_Pattern_Large,-7,,,,,,,,,,,
encoding,image,48.03468258399516,49.04588545905426,23,4,Object_Sea_Pattern_Large,-7,,,,,,,,,,,
encoding,value,49.046009209007025,55.05820916686207,23,4,Object_Sea_Pattern_Large,-7,,,,,,,,,,,
encoding,attention,55.05833383393474,58.06974545889534,23,4,Object_Sea_Pattern_Large,-7,None,None,None,,,,,,,,
encoding,fixation,58.06986995902844,59.57568604196422,24,4,Animal_Land_Solid_Small,-4,,,,,,,,,,,
encoding,image,59.575784750049934,60.58677316689864,24,4,Animal_Land_Solid_Small,-4,,,,,,,,,,,
encoding,value,60.5868910420686,66.59807383385487,24,4,Animal_Land_Solid_Small,-4,,,,,,,,,,,
encoding,attention,66.59819158399478,69.61520391702652,24,4,Animal_Land_Solid_Small,-4,-4,1,0.7257715831510723,,,,,,,,
n-back,,,,91,4,,,,1,None,B,False,None,,,,,
n-back,,,,92,4,,,,0,None,V,True,None,,,,,
n-back,,,,93,4,,,,1,0.5340262912213802,B,True,1,,,,,
n-back,,,,94,4,,,,1,None,N,False,None,,,,,
n-back,,,,95,4,,,,1,None,Z,False,None,,,,,
n-back,,,,96,4,,,,1,None,Z,False,None,,,,,
n-back,,,,97,4,,,,1,0.3285527089610696,Z,True,1,,,,,
n-back,,,,98,4,,,,1,None,C,False,None,,,,,
n-back,,,,99,4,,,,1,0.3938370421528816,Z,True,1,,,,,
n-back,,,,100,4,,,,1,None,V,False,None,,,,,
n-back,,,,101,4,,,,1,None,V,False,None,,,,,
n-back,,,,102,4,,,,1,None,X,False,None,,,,,
n-back,,,,103,4,,,,1,0.7302113329060376,V,True,1,,,,,
n-back,,,,104,4,,,,1,None,Z,False,None,,,,,
n-back,,,,105,4,,,,1,None,C,False,None,,,,,
n-back,,,,106,4,,,,1,None,C,False,None,,,,,
n-back,,,,107,4,,,,1,None,N,False,None,,,,,
n-back,,,,108,4,,,,1,None,V,False,None,,,,,
n-back,,,,109,4,,,,1,None,Z,False,None,,,,,
n-back,,,,110,4,,,,1,None,X,False,None,,,,,
n-back,,,,111,4,,,,1,None,C,False,None,,,,,
n-back,,,,112,4,,,,1,None,N,False,None,,,,,
n-back,,,,113,4,,,,1,None,V,False,None,,,,,
n-back,,,,114,4,,,,1,None,X,False,None,,,,,
n-back,,,,115,4,,,,1,0.3402832089923322,V,True,1,,,,,
n-back,,,,116,4,,,,0,None,X,True,None,,,,,
n-back,,,,117,4,,,,1,0.4184653339907527,V,True,1,,,,,
n-back,,,,118,4,,,,1,0.7918146250303835,X,True,1,,,,,
n-back,,,,119,4,,,,1,None,N,False,None,,,,,
n-back,,,,120,4,,,,1,0.36576291592791677,X,True,1,,,,,
choice,fixation,144.00953058386222,145.513113749912,25,4,,,,,,,,,Sea,,,,
choice,option,145.5211286249105,146.5500197499059,25,4,,,,,,,,,Sea,,,,
choice,choice,146.55014129192568,170.93398099998012,25,4,,,2,1,23.368734083138406,,,,Sea,,,,
choice,fixation,170.9340969589539,172.44151483406313,26,4,,,,,,,,,Land,,,,
choice,option,172.45022424985655,173.47787570906803,26,4,,,,,,,,,Land,,,,
choice,choice,173.47797916689888,188.24246341688558,26,4,,,1,1,13.750884958077222,,,,Land,,,,
choice,fixation,188.24259024998173,188.74764554202557,27,4,,,,,,,,,Pattern,,,,
choice,option,188.7570837920066,189.78416454186663,27,4,,,,,,,,,Pattern,,,,
choice,choice,189.78426379198208,203.4479103749618,27,4,,,1,1,12.650485333055258,,,,Pattern,,,,
choice,fixation,203.4480317919515,204.45308883395046,28,4,,,,,,,,,Object,,,,
choice,option,204.46269774995744,205.4911403749138,28,4,,,,,,,,,Object,,,,
choice,choice,205.49124350002967,218.07157554198056,28,4,,,2,1,11.569143375148997,,,,Object,,,,
choice,fixation,218.0717425418552,219.5768264590297,29,4,,,,,,,,,Solid,,,,
choice,option,219.58635641704313,220.61408308404498,29,4,,,,,,,,,Solid,,,,
choice,choice,220.61426508403383,227.728561792057,29,4,,,1,0,6.104094041045755,,,,Solid,,,,
choice,fixation,227.72868016688153,228.7341014589183,30,4,,,,,,,,,Animal,,,,
choice,option,228.744138417067,229.77109604189172,30,4,,,,,,,,,Animal,,,,
choice,choice,229.77120562503114,237.0950061250478,30,4,,,1,0,6.313363959081471,,,,Animal,,,,
choice,fixation,237.09512191684917,237.84935575001873,31,4,,,,,,,,,Small,,,,
choice,option,237.8589181669522,238.88615970895626,31,4,,,,,,,,,Small,,,,
choice,choice,238.88627595896833,245.96507404185832,31,4,,,1,0,6.069152166834101,,,,Small,,,,
choice,fixation,245.96520187496208,247.2205240840558,32,4,,,,,,,,,Large,,,,
choice,option,247.230262249941,248.25945808389224,32,4,,,,,,,,,Large,,,,
choice,choice,248.2595902918838,256.35852749994956,32,4,,,1,1,7.088504125131294,,,,Large,,,,
memory,free_recall,269.87223899993114,279.31159037491307,18,4,,,,,,,,,,,,,
memory,value_recall,282.375835709041,287.8398347920738,19,4,Object_Land_Pattern_Large,,,,5.4598632080014795,,,,,-1,,,
memory,value_recall,289.13560737506486,291.25766487489454,20,4,Animal_Sea_Solid_Small,,,,2.116682124789804,,,,,-6,,,
memory,value_recall,292.8032957499381,294.2889853748493,21,4,Animal_Land_Solid_Small,,,,1.4812822078820318,,,,,-4,,,
memory,value_recall,296.0870769589674,297.4320637919009,22,4,Object_Land_Solid_Small,,,,1.3403364170808345,,,,,7,,,
memory,value_recall,298.7208864588756,299.9124455838464,23,4,Object_Sea_Pattern_Large,,,,1.1872914580162615,,,,,-7,,,
memory,value_recall,301.9591451669112,303.1770170419477,24,4,Animal_Sea_Pattern_Large,,,,1.2134415830951184,,,,,9,,,
memory,spatial_recall,306.54510079184547,309.6282054998446,24,4,Animal_Land_Solid_Small,,,1,3.079038916155696,,,,,,"[-329, -190]","[-329, -190]",
memory,spatial_recall,310.6864085418638,311.9640432919841,24,4,Animal_Sea_Solid_Small,,,1,1.2735742500517517,,,,,,"[0, -380]","[0, -380]",
memory,spatial_recall,313.5199857088737,315.36419724998996,24,4,Object_Sea_Pattern_Large,,,1,1.8392934589646757,,,,,,"[329, 189]","[329, 189]",
memory,spatial_recall,316.4230646248907,317.5474278749898,24,4,Object_Land_Solid_Small,,,1,1.1218652501702309,,,,,,"[0, 380]","[0, 380]",
memory,spatial_recall,319.0976414999459,319.964203709038,24,4,Animal_Sea_Pattern_Large,,,1,0.8623035000637174,,,,,,"[-329, 190]","[-329, 190]",
memory,spatial_recall,321.26200395892374,322.083681124961,24,4,Object_Land_Pattern_Large,,,1,0.8177842500153929,,,,,,"[329, -190]","[329, -190]",
encoding,fixation,2.2279995412100106,2.733708541141823,25,5,Animal_Land_Solid_Large,-9,,,,,,,,,,,
encoding,image,2.7338352911174297,3.746397541137412,25,5,Animal_Land_Solid_Large,-9,,,,,,,,,,,
encoding,value,3.746511625126004,9.760678833117709,25,5,Animal_Land_Solid_Large,-9,,,,,,,,,,,
encoding,attention,9.760786000173539,12.77956441603601,25,5,Animal_Land_Solid_Large,-9,-9,1,0.7132577910088003,,,,,,,,
encoding,fixation,12.77969754114747,13.534902958199382,26,5,Animal_Land_Pattern_Small,4,,,,,,,,,,,
encoding,image,13.534995916066691,14.546680833213031,26,5,Animal_Land_Pattern_Small,4,,,,,,,,,,,
encoding,value,14.546783625148237,20.55948079121299,26,5,Animal_Land_Pattern_Small,4,,,,,,,,,,,
encoding,attention,20.559623500099406,23.577875333139673,26,5,Animal_Land_Pattern_Small,4,+4,1,1.2081632919143885,,,,,,,,
encoding,fixation,23.578027291223407,24.083325083134696,27,5,Object_Land_Pattern_Small,4,,,,,,,,,,,
encoding,image,24.083431916078553,25.095009583048522,27,5,Object_Land_Pattern_Small,4,,,,,,,,,,,
encoding,value,25.09511579107493,31.107110541081056,27,5,Object_Land_Pattern_Small,4,,,,,,,,,,,
encoding,attention,31.107213125098497,34.1269433752168,27,5,Object_Land_Pattern_Small,4,+4,1,0.8252525420393795,,,,,,,,
encoding,fixation,34.12707775016315,35.38238925021142,28,5,Object_Sea_Pattern_Small,-9,,,,,,,,,,,
encoding,image,35.38250570814125,36.3936231660191,28,5,Object_Sea_Pattern_Small,-9,,,,,,,,,,,
encoding,value,36.39371920819394,42.40465375012718,28,5,Object_Sea_Pattern_Small,-9,,,,,,,,,,,
encoding,attention,42.40477683302015,45.422030583024025,28,5,Object_Sea_Pattern_Small,-9,-9,1,0.8854905411135405,,,,,,,,
encoding,fixation,45.4222000411246,45.927582541015,29,5,Object_Sea_Solid_Large,4,,,,,,,,,,,
encoding,image,45.92769283312373,46.93908933317289,29,5,Object_Sea_Solid_Large,4,,,,,,,,,,,
encoding,value,46.93921137508005,52.95104533317499,29,5,Object_Sea_Solid_Large,4,,,,,,,,,,,
encoding,attention,52.951143875019625,55.96339645818807,29,5,Object_Sea_Solid_Large,4,None,None,None,,,,,,,,
encoding,fixation,55.96351741603576,57.46896508312784,30,5,Animal_Sea_Solid_Large,9,,,,,,,,,,,
encoding,image,57.469057250069454,58.480108958203346,30,5,Animal_Sea_Solid_Large,9,,,,,,,,,,,
encoding,value,58.48021650011651,64.49203570815735,30,5,Animal_Sea_Solid_Large,9,,,,,,,,,,,
encoding,attention,64.49219208303839,67.51067979121581,30,5,Animal_Sea_Solid_Large,9,+9,1,1.5345944170840085,,,,,,,,
n-back,,,,121,5,,,,1,None,B,False,None,,,,,
n-back,,,,122,5,,,,0,None,Z,True,None,,,,,
n-back,,,,123,5,,,,1,None,Z,False,None,,,,,
n-back,,,,124,5,,,,1,0.29429670819081366,Z,True,1,,,,,
n-back,,,,125,5,,,,1,None,V,False,None,,,,,
n-back,,,,126,5,,,,1,0.399790083989501,Z,True,1,,,,,
n-back,,,,127,5,,,,1,0.32543774996884167,V,True,1,,,,,
n-back,,,,128,5,,,,1,None,X,False,None,,,,,
n-back,,,,129,5,,,,1,None,X,False,None,,,,,
n-back,,,,130,5,,,,1,None,Z,False,None,,,,,
n-back,,,,131,5,,,,1,0.3678336248267442,X,True,1,,,,,
n-back,,,,132,5,,,,1,0.37099700001999736,Z,True,1,,,,,
n-back,,,,133,5,,,,1,None,N,False,None,,,,,
n-back,,,,134,5,,,,1,None,C,False,None,,,,,
n-back,,,,135,5,,,,1,None,V,False,None,,,,,
n-back,,,,136,5,,,,1,None,N,False,None,,,,,
n-back,,,,137,5,,,,1,None,Z,False,None,,,,,
n-back,,,,138,5,,,,1,None,C,False,None,,,,,
n-back,,,,139,5,,,,1,None,B,False,None,,,,,
n-back,,,,140,5,,,,1,None,N,False,None,,,,,
n-back,,,,141,5,,,,1,0.3561932079028338,B,True,1,,,,,
n-back,,,,142,5,,,,1,None,C,False,None,,,,,
n-back,,,,143,5,,,,1,None,V,False,None,,,,,
n-back,,,,144,5,,,,1,None,V,False,None,,,,,
n-back,,,,145,5,,,,1,0.30977637483738363,V,True,1,,,,,
n-back,,,,146,5,,,,1,None,X,False,None,,,,,
n-back,,,,147,5,,,,1,None,B,False,None,,,,,
n-back,,,,148,5,,,,1,0.47710187500342727,X,True,1,,,,,
n-back,,,,149,5,,,,1,None,X,False,None,,,,,
n-back,,,,150,5,,,,1,0.33762795804068446,X,True,1,,,,,
choice,fixation,138.89867358305492,139.65306691615842,33,5,,,,,,,,,Pattern,,,,
choice,option,139.661933750147,140.68817245820537,33,5,,,,,,,,,Pattern,,,,
choice,choice,140.68828412517905,155.8280624160543,33,5,,,2,1,14.129086249973625,,,,Pattern,,,,
choice,fixation,155.8281760001555,156.833761875052,34,5,,,,,,,,,Small,,,,
choice,option,156.84279012517072,157.87214595801197,34,5,,,,,,,,,Small,,,,
choice,choice,157.87226120801643,175.90963933314197,34,5,,,1,0,17.026475749909878,,,,Small,,,,
choice,fixation,175.90975716616958,177.41521283308975,35,5,,,,,,,,,Solid,,,,
choice,option,177.42462258320302,178.45146670821123,35,5,,,,,,,,,Solid,,,,
choice,choice,178.4516159160994,189.85971850017086,35,5,,,1,1,10.396418625023216,,,,Solid,,,,
choice,fixation,189.85986095806584,190.6147197082173,36,5,,,,,,,,,Land,,,,
choice,option,190.6233027500566,191.6501765830908,36,5,,,,,,,,,Land,,,,
choice,choice,191.6502919162158,197.13854558300227,36,5,,,2,1,4.477957875002176,,,,Land,,,,
choice,fixation,197.13868608302437,198.39370566606522,37,5,,,,,,,,,Animal,,,,
choice,option,198.40296033304185,199.43000508309342,37,5,,,,,,,,,Animal,,,,
choice,choice,199.43011191603728,206.69817937514745,37,5,,,1,1,6.257346959086135,,,,Animal,,,,
choice,fixation,206.69831729121506,207.2049361660611,38,5,,,,,,,,,Object,,,,
choice,option,207.2151342080906,208.24205862521194,38,5,,,,,,,,,Object,,,,
choice,choice,208.24216850008816,215.79443425009958,38,5,,,2,1,6.542368207825348,,,,Object,,,,
choice,fixation,215.79455391620286,216.79957516607828,39,5,,,,,,,,,Sea,,,,
choice,option,216.8082360001281,217.8385111661628,39,5,,,,,,,,,Sea,,,,
choice,choice,217.83863270818256,223.26490750000812,39,5,,,1,1,4.416044584009796,,,,Sea,,,,
choice,fixation,223.26505454117432,224.02269229106605,40,5,,,,,,,,,Large,,,,
choice,option,224.03133200015873,225.05806737509556,40,5,,,,,,,,,Large,,,,
choice,choice,225.05817762506194,234.46044116606936,40,5,,,2,0,8.392031749943271,,,,Large,,,,
memory,free_recall,246.77965491614304,257.3545795001555,24,5,,,,,,,,,,,,,
memory,value_recall,261.67699691606686,263.4117329160217,25,5,Animal_Sea_Solid_Large,,,,1.73030020785518,,,,,9,,,
memory,value_recall,265.20742049999535,266.50685954117216,26,5,Object_Land_Pattern_Small,,,,1.2953857500106096,,,,,4,,,
memory,value_recall,267.54219950013794,268.91485650022514,27,5,Animal_Land_Pattern_Small,,,,1.3690962078981102,,,,,4,,,
memory,value_recall,270.9614047501236,272.1725335000083,28,5,Animal_Land_Solid_Large,,,,1.2067225000355393,,,,,-9,,,
memory,value_recall,273.4568356249947,274.52353245811537,29,5,Object_Sea_Solid_Large,,,,1.0626348331570625,,,,,4,,,
memory,value_recall,276.059116166085,277.22216758318245,30,5,Object_Sea_Pattern_Small,,,,1.1589691250119358,,,,,-9,,,
memory,spatial_recall,280.03224508301355,282.69952741614543,30,5,Object_Land_Pattern_Small,,,1,2.663208333076909,,,,,,"[329, -190]","[329, -190]",
memory,spatial_recall,283.7646418751683,284.5261657910887,30,5,Object_Sea_Pattern_Small,,,1,0.7548952919896692,,,,,,"[-329, -190]","[-329, -190]",
memory,spatial_recall,286.58339562499896,287.29487991612405,30,5,Animal_Sea_Solid_Large,,,1,0.7074171667918563,,,,,,"[0, 380]","[0, 380]",
memory,spatial_recall,288.8422988750972,290.01652012509294,30,5,Animal_Land_Pattern_Small,,,1,1.1697654169984162,,,,,,"[-329, 190]","[-329, 190]",
memory,spatial_recall,291.57315325015225,293.0648565830197,30,5,Animal_Land_Solid_Large,,,1,1.4877534578554332,,,,,,"[329, 189]","[329, 189]",
memory,spatial_recall,294.3795655001886,296.59477987512946,30,5,Object_Sea_Solid_Large,,,1,2.210960542084649,,,,,,"[0, -380]","[0, -380]",
encoding,fixation,1.7226433749310672,2.977908458095044,31,6,Object_Land_Pattern_Small,-4,,,,,,,,,,,
encoding,image,2.978028625017032,3.9909814160782844,31,6,Object_Land_Pattern_Small,-4,,,,,,,,,,,
encoding,value,3.9910979580599815,10.004400958074257,31,6,Object_Land_Pattern_Small,-4,,,,,,,,,,,
encoding,attention,10.004557915963233,13.023938708007336,31,6,Object_Land_Pattern_Small,-4,-4,1,0.8236560421064496,,,,,,,,
encoding,fixation,13.024085625074804,13.530312875052914,32,6,Animal_Land_Pattern_Small,7,,,,,,,,,,,
encoding,image,13.530419250018895,14.54138575005345,32,6,Animal_Land_Pattern_Small,7,,,,,,,,,,,
encoding,value,14.541512374999002,20.554181666113436,32,6,Animal_Land_Pattern_Small,7,,,,,,,,,,,
encoding,attention,20.554290666012093,23.571727541042492,32,6,Animal_Land_Pattern_Small,7,+7,1,0.8016877500340343,,,,,,,,
encoding,fixation,23.57188458298333,24.577054624911398,33,6,Animal_Sea_Solid_Large,-7,,,,,,,,,,,
encoding,image,24.5771692909766,25.588398583000526,33,6,Animal_Sea_Solid_Large,-7,,,,,,,,,,,
encoding,value,25.588502832921222,31.600629915948957,33,6,Animal_Sea_Solid_Large,-7,,,,,,,,,,,
encoding,attention,31.600752915954217,34.61995341605507,33,6,Animal_Sea_Solid_Large,-7,-7,1,0.9170547500252724,,,,,,,,
encoding,fixation,34.620091875083745,35.125216083135456,34,6,Object_Sea_Pattern_Large,-4,,,,,,,,,,,
encoding,image,35.125329833012074,36.13637795811519,34,6,Object_Sea_Pattern_Large,-4,,,,,,,,,,,
encoding,value,36.13648033305071,42.147771457908675,34,6,Object_Sea_Pattern_Large,-4,,,,,,,,,,,
encoding,attention,42.14788004104048,45.16576941590756,34,6,Object_Sea_Pattern_Large,-4,-4,1,0.5917883750516921,,,,,,,,
encoding,fixation,45.1659143329598,45.92105395812541,35,6,Animal_Land_Solid_Small,-1,,,,,,,,,,,
encoding,image,45.921192875131965,46.93202283303253,35,6,Animal_Land_Solid_Small,-1,,,,,,,,,,,
encoding,value,46.93214466609061,52.94486033311114,35,6,Animal_Land_Solid_Small,-1,,,,,,,,,,,
encoding,attention,52.944966291077435,55.962209665915,35,6,Animal_Land_Solid_Small,-1,-1,1,1.5323788751848042,,,,,,,,
encoding,fixation,55.96236145799048,56.467386540956795,36,6,Object_Sea_Solid_Large,9,,,,,,,,,,,
encoding,image,56.46748058311641,57.48010120796971,36,6,Object_Sea_Solid_Large,9,,,,,,,,,,,
encoding,value,57.480216207914054,63.49319995800033,36,6,Object_Sea_Solid_Large,9,,,,,,,,,,,
encoding,attention,63.493381374981254,66.52389591606334,36,6,Object_Sea_Solid_Large,9,+9,1,0.6627192078158259,,,,,,,,
n-back,,,,151,6,,,,1,None,C,False,None,,,,,
n-back,,,,152,6,,,,1,None,X,False,None,,,,,
n-back,,,,153,6,,,,1,None,X,False,None,,,,,
n-back,,,,154,6,,,,1,None,C,False,None,,,,,
n-back,,,,155,6,,,,1,None,N,False,None,,,,,
n-back,,,,156,6,,,,1,None,N,False,None,,,,,
n-back,,,,157,6,,,,1,0.3489791660103947,N,True,1,,,,,
n-back,,,,158,6,,,,1,0.47081249998882413,N,True,1,,,,,
n-back,,,,159,6,,,,1,0.4357850418891758,N,True,1,,,,,
n-back,,,,160,6,,,,1,0.42572270799428225,N,True,1,,,,,
n-back,,,,161,6,,,,1,None,V,False,None,,,,,
n-back,,,,162,6,,,,1,None,X,False,None,,,,,
n-back,,,,163,6,,,,1,0.4686067912261933,V,True,1,,,,,
n-back,,,,164,6,,,,0,None,X,True,None,,,,,
n-back,,,,165,6,,,,1,None,C,False,None,,,,,
n-back,,,,166,6,,,,1,None,V,False,None,,,,,
n-back,,,,167,6,,,,1,None,N,False,None,,,,,
n-back,,,,168,6,,,,1,0.3128759160172194,V,True,1,,,,,
n-back,,,,169,6,,,,1,None,V,False,None,,,,,
n-back,,,,170,6,,,,1,None,N,False,None,,,,,
n-back,,,,171,6,,,,1,1.042124291881919,V,True,1,,,,,
n-back,,,,172,6,,,,1,None,B,False,None,,,,,
n-back,,,,173,6,,,,1,None,X,False,None,,,,,
n-back,,,,174,6,,,,1,None,C,False,None,,,,,
n-back,,,,175,6,,,,1,None,N,False,None,,,,,
n-back,,,,176,6,,,,1,None,Z,False,None,,,,,
n-back,,,,177,6,,,,1,None,Z,False,None,,,,,
n-back,,,,178,6,,,,1,None,C,False,None,,,,,
n-back,,,,179,6,,,,1,0.38383412500843406,Z,True,1,,,,,
n-back,,,,180,6,,,,1,0.630616958020255,C,True,1,,,,,
choice,fixation,139.38475879095495,140.13832183298655,41,6,,,,,,,,,Pattern,,,,
choice,option,140.14737712498754,141.175270000007,41,6,,,,,,,,,Pattern,,,,
choice,choice,141.17538254102692,149.97130112512968,41,6,,,2,1,7.784880542196333,,,,Pattern,,,,
choice,fixation,149.97150504100136,150.47684075008146,42,6,,,,,,,,,Object,,,,
choice,option,150.48647137498483,151.5152411251329,42,6,,,,,,,,,Object,,,,
choice,choice,151.51534629100934,161.43840175005607,42,6,,,1,1,8.912348916986957,,,,Object,,,,
choice,fixation,161.438524707919,162.9435175829567,43,6,,,,,,,,,Solid,,,,
choice,option,162.95317499991506,163.98411954101175,43,6,,,,,,,,,Solid,,,,
choice,choice,163.98424691613764,174.7123595410958,43,6,,,1,1,9.715371249942109,,,,Solid,,,,
choice,fixation,174.712575790938,175.71820091595873,44,6,,,,,,,,,Land,,,,
choice,option,175.72722374997102,176.75516120810062,44,6,,,,,,,,,Land,,,,
choice,choice,176.75527258310467,186.08582583302632,44,6,,,2,0,8.319504375103861,,,,Land,,,,
choice,fixation,186.0859645830933,187.34123766608536,45,6,,,,,,,,,Sea,,,,
choice,option,187.3509452501312,188.3783590409439,45,6,,,,,,,,,Sea,,,,
choice,choice,188.37845612503588,198.7561329160817,45,6,,,2,1,9.366123208077624,,,,Sea,,,,
choice,fixation,198.75626633292995,200.01198762492277,46,6,,,,,,,,,Animal,,,,
choice,option,200.02165370807052,201.04982195794582,46,6,,,,,,,,,Animal,,,,
choice,choice,201.04994212510064,207.64700875012204,46,6,,,2,1,5.585863874992356,,,,Animal,,,,
choice,fixation,207.64720200002193,209.15242583304644,47,6,,,,,,,,,Small,,,,
choice,option,209.161449624924,210.18918983312324,47,6,,,,,,,,,Small,,,,
choice,choice,210.18931420799345,216.85414858302101,47,6,,,1,1,5.654553625034168,,,,Small,,,,
choice,fixation,216.85425137495622,217.35947141610086,48,6,,,,,,,,,Large,,,,
choice,option,217.36841091606766,218.3968708331231,48,6,,,,,,,,,Large,,,,
choice,choice,218.39698679093271,226.16821112507023,48,6,,,2,1,6.761225667083636,,,,Large,,,,
memory,free_recall,232.81674320809543,251.03198262513615,30,6,,,,,,,,,,,,,
memory,value_recall,254.86849158303812,256.865705500124,31,6,Animal_Land_Solid_Small,,,,1.9931876249611378,,,,,-1,,,
memory,value_recall,258.6653212909587,261.62356362491846,32,6,Object_Sea_Pattern_Large,,,,2.9541156669147313,,,,,-4,,,
memory,value_recall,262.67392404098064,264.4725232080091,33,6,Animal_Sea_Solid_Large,,,,1.7954103329684585,,,,,-7,,,
memory,value_recall,265.7685404580552,267.68924987502396,34,6,Object_Land_Pattern_Small,,,,1.9164142080117017,,,,,-4,,,
memory,value_recall,269.23572050011717,270.90537954098545,35,6,Animal_Land_Pattern_Small,,,,1.6655145408585668,,,,,7,,,
memory,value_recall,272.451708791079,278.5954290830996,36,6,Object_Sea_Solid_Large,,,,6.139210707973689,,,,,9,,,
memory,spatial_recall,283.28397470805794,285.6368174580857,36,6,Object_Sea_Pattern_Large,,,1,2.348842208040878,,,,,,"[329, 189]","[329, 189]",
memory,spatial_recall,286.6963236250449,288.2258261661045,36,6,Animal_Sea_Solid_Large,,,1,1.5271403749939054,,,,,,"[0, 380]","[0, 380]",
memory,spatial_recall,289.5365432910621,290.5009634580929,36,6,Animal_Land_Pattern_Small,,,1,0.9602258338127285,,,,,,"[-329, 190]","[-329, 190]",
memory,spatial_recall,291.5507903750986,292.2704261250328,36,6,Animal_Land_Solid_Small,,,1,0.716847957810387,,,,,,"[-329, -190]","[-329, -190]",
memory,spatial_recall,293.82478604093194,295.0459689160343,36,6,Object_Sea_Solid_Large,,,1,1.2171529999468476,,,,,,"[0, -380]","[0, -380]",
memory,spatial_recall,297.10561979096383,298.1702993330546,36,6,Object_Land_Pattern_Small,,,1,1.0606864159926772,,,,,,"[329, -190]","[329, -190]",
encoding,fixation,1.562304416904226,3.0676132498774678,37,7,Animal_Land_Solid_Large,-8,,,,,,,,,,,
encoding,image,3.067721250001341,4.080203582998365,37,7,Animal_Land_Solid_Large,-8,,,,,,,,,,,
encoding,value,4.080326125025749,10.093849082943052,37,7,Animal_Land_Solid_Large,-8,,,,,,,,,,,
encoding,attention,10.093973292037845,13.114267667056993,37,7,Animal_Land_Solid_Large,-8,-8,1,1.0944762080907822,,,,,,,,
encoding,fixation,13.11440858291462,14.369872124865651,38,7,Object_Land_Pattern_Small,1,,,,,,,,,,,
encoding,image,14.369991458021104,15.381572749931365,38,7,Object_Land_Pattern_Small,1,,,,,,,,,,,
encoding,value,15.381690667010844,21.394447082886472,38,7,Object_Land_Pattern_Small,1,,,,,,,,,,,
encoding,attention,21.394555874867365,24.414343832992017,38,7,Object_Land_Pattern_Small,1,+1,1,0.6193659999407828,,,,,,,,
encoding,fixation,24.414494999917224,25.420149042038247,39,7,Animal_Land_Pattern_Small,2,,,,,,,,,,,
encoding,image,25.42025320790708,26.43156520789489,39,7,Animal_Land_Pattern_Small,2,,,,,,,,,,,
encoding,value,26.43167333304882,32.44402812491171,39,7,Animal_Land_Pattern_Small,2,,,,,,,,,,,
encoding,attention,32.444145374931395,35.46312779188156,39,7,Animal_Land_Pattern_Small,2,+2,1,1.2997670830227435,,,,,,,,
encoding,fixation,35.46328258304857,36.71831720788032,40,7,Object_Sea_Solid_Large,4,,,,,,,,,,,
encoding,image,36.718479957897216,37.72999558295123,40,7,Object_Sea_Solid_Large,4,,,,,,,,,,,
encoding,value,37.73009491688572,43.74308916693553,40,7,Object_Sea_Solid_Large,4,,,,,,,,,,,
encoding,attention,43.743301374837756,46.763874707976356,40,7,Object_Sea_Solid_Large,4,+4,1,0.9992533749900758,,,,,,,,
encoding,fixation,46.76410079188645,47.51987704192288,41,7,Object_Sea_Pattern_Small,-9,,,,,,,,,,,
encoding,image,47.5200171249453,48.53139550006017,41,7,Object_Sea_Pattern_Small,-9,,,,,,,,,,,
encoding,value,48.531498707830906,54.542819124879315,41,7,Object_Sea_Pattern_Small,-9,,,,,,,,,,,
encoding,attention,54.54292991687544,57.558396332897246,41,7,Object_Sea_Pattern_Small,-9,None,None,None,,,,,,,,
encoding,fixation,57.55861833295785,59.063780332915485,42,7,Animal_Sea_Solid_Large,2,,,,,,,,,,,
encoding,image,59.0638833749108,60.075417916988954,42,7,Animal_Sea_Solid_Large,2,,,,,,,,,,,
encoding,value,60.075610833009705,66.08777995803393,42,7,Animal_Sea_Solid_Large,2,,,,,,,,,,,
encoding,attention,66.08793841698207,69.10760408290662,42,7,Animal_Sea_Solid_Large,2,+2,1,1.5171282920055091,,,,,,,,
n-back,,,,181,7,,,,1,None,V,False,None,,,,,
n-back,,,,182,7,,,,0,None,V,True,None,,,,,
n-back,,,,183,7,,,,1,None,B,False,None,,,,,
n-back,,,,184,7,,,,1,0.3541930839419365,V,True,1,,,,,
n-back,,,,185,7,,,,1,None,X,False,None,,,,,
n-back,,,,186,7,,,,1,None,X,False,None,,,,,
n-back,,,,187,7,,,,1,None,Z,False,None,,,,,
n-back,,,,188,7,,,,1,0.3522521248087287,X,True,1,,,,,
n-back,,,,189,7,,,,1,None,C,False,None,,,,,
n-back,,,,190,7,,,,1,None,N,False,None,,,,,
n-back,,,,191,7,,,,1,None,X,False,None,,,,,
n-back,,,,192,7,,,,1,None,V,False,None,,,,,
n-back,,,,193,7,,,,1,None,C,False,None,,,,,
n-back,,,,194,7,,,,1,None,N,False,None,,,,,
n-back,,,,195,7,,,,1,None,N,False,None,,,,,
n-back,,,,196,7,,,,1,None,C,False,None,,,,,
n-back,,,,197,7,,,,1,None,X,False,None,,,,,
n-back,,,,198,7,,,,1,None,X,False,None,,,,,
n-back,,,,199,7,,,,1,0.4005846669897437,X,True,1,,,,,
n-back,,,,200,7,,,,1,None,B,False,None,,,,,
n-back,,,,201,7,,,,1,0.3810034168418497,X,True,1,,,,,
n-back,,,,202,7,,,,1,None,V,False,None,,,,,
n-back,,,,203,7,,,,1,0.37613266706466675,X,True,1,,,,,
n-back,,,,204,7,,,,1,None,B,False,None,,,,,
n-back,,,,205,7,,,,1,0.3999036669265479,X,True,1,,,,,
n-back,,,,206,7,,,,1,0.8095863747876137,B,True,1,,,,,
n-back,,,,207,7,,,,1,None,V,False,None,,,,,
n-back,,,,208,7,,,,1,None,Z,False,None,,,,,
n-back,,,,209,7,,,,1,0.3891895830165595,V,True,1,,,,,
n-back,,,,210,7,,,,1,0.4893244169652462,Z,True,1,,,,,
choice,fixation,141.12321741692722,141.62656345800497,49,7,,,,,,,,,Solid,,,,
choice,option,141.63552266685292,142.66200691694394,49,7,,,,,,,,,Solid,,,,
choice,choice,142.66211512498558,159.36964474990964,49,7,,,2,1,15.696771249873564,,,,Solid,,,,
choice,fixation,159.36978124990128,160.87532966700383,50,7,,,,,,,,,Pattern,,,,
choice,option,160.8851186670363,161.91567737492733,50,7,,,,,,,,,Pattern,,,,
choice,choice,161.91580387484282,172.8819430419244,50,7,,,2,1,9.955158083001152,,,,Pattern,,,,
choice,fixation,172.88207520800643,173.63733299984597,51,7,,,,,,,,,Object,,,,
choice,option,173.6471369168721,174.67446741694584,51,7,,,,,,,,,Object,,,,
choice,choice,174.67460174998268,181.24129854189232,51,7,,,2,1,5.556648875121027,,,,Object,,,,
choice,fixation,181.241466374835,182.24669349985197,52,7,,,,,,,,,Small,,,,
choice,option,182.25575600005686,183.28401120798662,52,7,,,,,,,,,Small,,,,
choice,choice,183.28416229202412,193.03201554203406,52,7,,,1,0,8.735018665902317,,,,Small,,,,
choice,fixation,193.03213404188864,194.0372146249283,53,7,,,,,,,,,Large,,,,
choice,option,194.04635474993847,195.07476229197346,53,7,,,,,,,,,Large,,,,
choice,choice,195.07487812498584,203.1621077079326,53,7,,,2,1,7.0773467919789255,,,,Large,,,,
choice,fixation,203.1622433748562,203.66723291692324,54,7,,,,,,,,,Animal,,,,
choice,option,203.67690004198812,204.7038657499943,54,7,,,,,,,,,Animal,,,,
choice,choice,204.70397137501277,210.1351588750258,54,7,,,2,1,4.421282749855891,,,,Animal,,,,
choice,fixation,210.13527679187246,211.1417028750293,55,7,,,,,,,,,Sea,,,,
choice,option,211.15064033283852,212.17728004185483,55,7,,,,,,,,,Sea,,,,
choice,choice,212.17738233297132,219.66376629192382,55,7,,,2,1,6.476491458946839,,,,Sea,,,,
choice,fixation,219.6638937080279,221.16940454184078,56,7,,,,,,,,,Land,,,,
choice,option,221.1781313328538,222.2043032918591,56,7,,,,,,,,,Land,,,,
choice,choice,222.2044109168928,228.48899716697633,56,7,,,2,1,5.274215249810368,,,,Land,,,,
memory,free_recall,233.65868091699667,240.49203329184093,36,7,,,,,,,,,,,,,
memory,value_recall,242.87562449998222,244.92551429197192,37,7,Object_Sea_Solid_Large,,,,2.0462771670427173,,,,,4,,,
memory,value_recall,246.72222754196264,248.25846374989487,38,7,Animal_Land_Solid_Large,,,,1.532040209043771,,,,,-8,,,
memory,value_recall,249.80457179201767,251.1939954168629,39,7,Animal_Sea_Solid_Large,,,,1.3852207500021905,,,,,2,,,
memory,value_recall,253.24259629193693,254.2107208329253,40,7,Object_Land_Pattern_Small,,,,0.9635566661600024,,,,,1,,,
memory,value_recall,256.0088738328777,257.5734129578341,41,7,Animal_Land_Pattern_Small,,,,1.5603600000031292,,,,,2,,,
memory,value_recall,258.60932266688906,259.90785862505436,42,7,Object_Sea_Pattern_Small,,,,1.2952041658572853,,,,,-9,,,
memory,spatial_recall,262.6926919168327,263.93089487496763,42,7,Animal_Land_Pattern_Small,,,1,1.2341677090153098,,,,,,"[-329, 190]","[-329, 190]",
memory,spatial_recall,265.99180337483995,266.73570204200223,42,7,Object_Land_Pattern_Small,,,1,0.7397500001825392,,,,,,"[329, -190]","[329, -190]",
memory,spatial_recall,268.0377157079056,268.5845549998339,42,7,Animal_Sea_Solid_Large,,,1,0.5419577499851584,,,,,,"[0, 380]","[0, 380]",
memory,spatial_recall,270.14063404197805,271.59800454205833,42,7,Animal_Land_Solid_Large,,,1,1.4532176658976823,,,,,,"[329, 189]","[329, 189]",
memory,spatial_recall,273.40869087493047,274.21285670786165,42,7,Object_Sea_Pattern_Small,,,1,0.8001480000093579,,,,,,"[-329, -190]","[-329, -190]",
memory,spatial_recall,275.76241883286275,276.3318499168381,42,7,Object_Sea_Solid_Large,,,1,0.5650824578478932,,,,,,"[0, -380]","[0, -380]",
