subject,phase,event,trial_number,game,option,choice,rt,roi_content,item_index,is_center,is_relevant,fix_start,fix_end,fix_duration_bounded
123,choice,choice,1,1.0,Object,2.0,26.477677040966228,fixation,-1,1,0,17238616.0,17239249.0,633.0
123,choice,choice,1,1.0,Object,2.0,26.477677040966228,Object_Land_Pattern_Large,0,0,1,17239642.0,17239735.0,93.0
123,choice,choice,1,1.0,Object,2.0,26.477677040966228,fixation,-1,1,0,17239744.0,17239904.0,160.0
123,choice,choice,1,1.0,Object,2.0,26.477677040966228,Object_Sea_Pattern_Large,1,0,1,17240069.0,17240194.0,125.0
123,choice,choice,1,1.0,Object,2.0,26.477677040966228,fixation,-1,1,0,17240215.0,17240560.0,345.0
123,choice,choice,1,1.0,Object,2.0,26.477677040966228,Object_Sea_Pattern_Large,1,0,1,17240583.0,17240873.0,290.0
123,choice,choice,1,1.0,Object,2.0,26.477677040966228,fixation,-1,1,0,17241461.0,17242015.0,554.0
123,choice,choice,1,1.0,Object,2.0,26.477677040966228,Object_Sea_Pattern_Large,1,0,1,17242202.0,17242365.0,163.0
123,choice,choice,1,1.0,Object,2.0,26.477677040966228,fixation,-1,1,0,17242383.0,17243081.0,698.0
123,choice,choice,1,1.0,Object,2.0,26.477677040966228,Animal_Land_Solid_Small,2,0,0,17243102.0,17243289.0,187.0
123,choice,choice,1,1.0,Object,2.0,26.477677040966228,fixation,-1,1,0,17243299.0,17243435.0,136.0
123,choice,choice,1,1.0,Object,2.0,26.477677040966228,Animal_Sea_Solid_Small,3,0,0,17243894.0,17243999.0,105.0
123,choice,choice,1,1.0,Object,2.0,26.477677040966228,fixation,-1,1,0,17244019.0,17244111.0,92.0
123,choice,choice,1,1.0,Object,2.0,26.477677040966228,Object_Land_Pattern_Large,0,0,1,17244390.0,17244530.0,140.0
123,choice,choice,1,1.0,Object,2.0,26.477677040966228,fixation,-1,1,0,17244553.0,17246369.0,1816.0
123,choice,choice,1,1.0,Object,2.0,26.477677040966228,Object_Sea_Pattern_Large,1,0,1,17246950.0,17247263.0,313.0
123,choice,choice,1,1.0,Object,2.0,26.477677040966228,fixation,-1,1,0,17247303.0,17247501.0,198.0
123,choice,choice,1,1.0,Object,2.0,26.477677040966228,Object_Land_Pattern_Large,0,0,1,17248180.0,17248309.0,129.0
123,choice,choice,1,1.0,Object,2.0,26.477677040966228,fixation,-1,1,0,17248330.0,17248607.0,277.0
123,choice,choice,1,1.0,Object,2.0,26.477677040966228,Object_Sea_Pattern_Large,1,0,1,17248630.0,17248812.0,182.0
123,choice,choice,1,1.0,Object,2.0,26.477677040966228,Animal_Sea_Solid_Small,3,0,0,17249395.0,17249721.0,326.0
123,choice,choice,1,1.0,Object,2.0,26.477677040966228,fixation,-1,1,0,17250408.0,17251481.0,1073.0
123,choice,choice,1,1.0,Object,2.0,26.477677040966228,Object_Land_Solid_Small,4,0,1,17251861.0,17252086.0,225.0
123,choice,choice,1,1.0,Object,2.0,26.477677040966228,Object_Land_Pattern_Large,0,0,1,17254603.0,17254665.0,62.0
123,choice,choice,1,1.0,Object,2.0,26.477677040966228,fixation,-1,1,0,17254686.0,17254727.0,41.0
123,choice,choice,1,1.0,Object,2.0,26.477677040966228,Animal_Sea_Solid_Small,3,0,0,17254946.0,17255043.0,97.0
123,choice,choice,1,1.0,Object,2.0,26.477677040966228,fixation,-1,1,0,17255056.0,17256592.0,1536.0
123,choice,choice,1,1.0,Object,2.0,26.477677040966228,Object_Land_Solid_Small,4,0,1,17257178.0,17257567.0,389.0
123,choice,choice,1,1.0,Object,2.0,26.477677040966228,Animal_Sea_Pattern_Large,5,0,0,17260904.0,17260943.0,39.0
123,choice,choice,1,1.0,Object,2.0,26.477677040966228,Object_Land_Solid_Small,4,0,1,17261119.0,17261442.0,323.0
123,choice,choice,1,1.0,Object,2.0,26.477677040966228,fixation,-1,1,0,17261490.0,17262275.0,785.0
123,choice,choice,1,1.0,Object,2.0,26.477677040966228,Animal_Land_Solid_Small,2,0,0,17262680.0,17263065.0,385.0
123,choice,choice,1,1.0,Object,2.0,26.477677040966228,fixation,-1,1,0,17263083.0,17263548.0,465.0
123,choice,choice,1,1.0,Object,2.0,26.477677040966228,Animal_Sea_Pattern_Large,5,0,0,17263796.0,17264102.0,306.0
123,choice,choice,1,1.0,Object,2.0,26.477677040966228,Object_Land_Solid_Small,4,0,1,17264118.0,17264305.0,187.0
123,choice,choice,1,1.0,Object,2.0,26.477677040966228,fixation,-1,1,0,17264323.0,17265075.0,752.0
123,choice,choice,2,1.0,Solid,2.0,14.206396458903328,fixation,-1,1,0,17268794.0,17275648.0,6854.0
123,choice,choice,2,1.0,Solid,2.0,14.206396458903328,Object_Land_Solid_Small,4,0,1,17277135.0,17277376.0,241.0
123,choice,choice,2,1.0,Solid,2.0,14.206396458903328,Object_Sea_Pattern_Large,1,0,0,17277390.0,17277573.0,183.0
123,choice,choice,2,1.0,Solid,2.0,14.206396458903328,fixation,-1,1,0,17277585.0,17277814.0,229.0
123,choice,choice,2,1.0,Solid,2.0,14.206396458903328,Object_Sea_Pattern_Large,1,0,0,17277834.0,17278675.0,841.0
123,choice,choice,2,1.0,Solid,2.0,14.206396458903328,fixation,-1,1,0,17278917.0,17279366.0,449.0
123,choice,choice,2,1.0,Solid,2.0,14.206396458903328,Object_Sea_Pattern_Large,1,0,0,17279579.0,17279646.0,67.0
123,choice,choice,2,1.0,Solid,2.0,14.206396458903328,fixation,-1,1,0,17279659.0,17279930.0,271.0
123,choice,choice,2,1.0,Solid,2.0,14.206396458903328,Object_Land_Pattern_Large,0,0,0,17279946.0,17280271.0,325.0
123,choice,choice,2,1.0,Solid,2.0,14.206396458903328,fixation,-1,1,0,17280287.0,17280628.0,341.0
123,choice,choice,2,1.0,Solid,2.0,14.206396458903328,Object_Land_Solid_Small,4,0,1,17281047.0,17281257.0,210.0
123,choice,choice,2,1.0,Solid,2.0,14.206396458903328,Animal_Sea_Pattern_Large,5,0,0,17281341.0,17281440.0,99.0
123,choice,choice,2,1.0,Solid,2.0,14.206396458903328,Object_Land_Pattern_Large,0,0,0,17281899.0,17282062.0,163.0
123,choice,choice,2,1.0,Solid,2.0,14.206396458903328,fixation,-1,1,0,17282074.0,17282643.0,569.0
123,choice,choice,3,1.0,Small,2.0,19.23182424996048,fixation,-1,1,0,17286267.0,17286938.0,671.0
123,choice,choice,3,1.0,Small,2.0,19.23182424996048,Animal_Sea_Pattern_Large,5,0,0,17287201.0,17287427.0,226.0
123,choice,choice,3,1.0,Small,2.0,19.23182424996048,fixation,-1,1,0,17287657.0,17287876.0,219.0
123,choice,choice,3,1.0,Small,2.0,19.23182424996048,Animal_Land_Solid_Small,2,0,1,17288121.0,17288216.0,95.0
123,choice,choice,3,1.0,Small,2.0,19.23182424996048,fixation,-1,1,0,17288223.0,17288660.0,437.0
123,choice,choice,3,1.0,Small,2.0,19.23182424996048,Object_Sea_Pattern_Large,1,0,0,17288856.0,17288998.0,142.0
123,choice,choice,3,1.0,Small,2.0,19.23182424996048,fixation,-1,1,0,17289010.0,17289423.0,413.0
123,choice,choice,3,1.0,Small,2.0,19.23182424996048,Object_Land_Pattern_Large,0,0,0,17289436.0,17289512.0,76.0
123,choice,choice,3,1.0,Small,2.0,19.23182424996048,Object_Sea_Pattern_Large,1,0,0,17289748.0,17289805.0,57.0
123,choice,choice,3,1.0,Small,2.0,19.23182424996048,fixation,-1,1,0,17289819.0,17290295.0,476.0
123,choice,choice,3,1.0,Small,2.0,19.23182424996048,Object_Sea_Pattern_Large,1,0,0,17290550.0,17290870.0,320.0
123,choice,choice,3,1.0,Small,2.0,19.23182424996048,fixation,-1,1,0,17290900.0,17292275.0,1375.0
123,choice,choice,3,1.0,Small,2.0,19.23182424996048,Object_Land_Solid_Small,4,0,1,17292559.0,17292843.0,284.0
123,choice,choice,3,1.0,Small,2.0,19.23182424996048,fixation,-1,1,0,17294821.0,17295157.0,336.0
123,choice,choice,3,1.0,Small,2.0,19.23182424996048,Object_Land_Solid_Small,4,0,1,17295178.0,17297466.0,2288.0
123,choice,choice,3,1.0,Small,2.0,19.23182424996048,Animal_Sea_Pattern_Large,5,0,0,17298527.0,17298754.0,227.0
123,choice,choice,3,1.0,Small,2.0,19.23182424996048,Object_Land_Solid_Small,4,0,1,17298768.0,17299173.0,405.0
123,choice,choice,3,1.0,Small,2.0,19.23182424996048,fixation,-1,1,0,17299242.0,17299972.0,730.0
123,choice,choice,3,1.0,Small,2.0,19.23182424996048,Animal_Sea_Solid_Small,3,0,1,17300263.0,17300462.0,199.0
123,choice,choice,3,1.0,Small,2.0,19.23182424996048,fixation,-1,1,0,17300473.0,17301124.0,651.0
123,choice,choice,3,1.0,Small,2.0,19.23182424996048,Object_Land_Solid_Small,4,0,1,17301410.0,17303015.0,1605.0
123,choice,choice,3,1.0,Small,2.0,19.23182424996048,fixation,-1,1,0,17303904.0,17304680.0,776.0
123,choice,choice,4,1.0,Sea,2.0,15.666507042013109,Animal_Sea_Pattern_Large,5,0,1,17311013.0,17311108.0,95.0
123,choice,choice,4,1.0,Sea,2.0,15.666507042013109,fixation,-1,1,0,17311118.0,17312723.0,1605.0
123,choice,choice,4,1.0,Sea,2.0,15.666507042013109,Object_Sea_Pattern_Large,1,0,1,17313170.0,17313309.0,139.0
123,choice,choice,4,1.0,Sea,2.0,15.666507042013109,fixation,-1,1,0,17313324.0,17315193.0,1869.0
123,choice,choice,4,1.0,Sea,2.0,15.666507042013109,Object_Sea_Pattern_Large,1,0,1,17315937.0,17316062.0,125.0
123,choice,choice,4,1.0,Sea,2.0,15.666507042013109,fixation,-1,1,0,17316074.0,17316322.0,248.0
123,choice,choice,4,1.0,Sea,2.0,15.666507042013109,Object_Sea_Pattern_Large,1,0,1,17316343.0,17316900.0,557.0
123,choice,choice,4,1.0,Sea,2.0,15.666507042013109,fixation,-1,1,0,17317104.0,17317769.0,665.0
123,choice,choice,4,1.0,Sea,2.0,15.666507042013109,Object_Sea_Pattern_Large,1,0,1,17317783.0,17318019.0,236.0
123,choice,choice,4,1.0,Sea,2.0,15.666507042013109,fixation,-1,1,0,17318030.0,17319298.0,1268.0
123,choice,choice,4,1.0,Sea,2.0,15.666507042013109,Animal_Land_Solid_Small,2,0,0,17319744.0,17320077.0,333.0
123,choice,choice,4,1.0,Sea,2.0,15.666507042013109,fixation,-1,1,0,17320098.0,17320386.0,288.0
123,choice,choice,4,1.0,Sea,2.0,15.666507042013109,Animal_Land_Solid_Small,2,0,0,17320807.0,17321481.0,674.0
123,choice,choice,4,1.0,Sea,2.0,15.666507042013109,fixation,-1,1,0,17321752.0,17321924.0,172.0
123,choice,choice,4,1.0,Sea,2.0,15.666507042013109,Object_Land_Pattern_Large,0,0,0,17322499.0,17322658.0,159.0
123,choice,choice,4,1.0,Sea,2.0,15.666507042013109,Animal_Land_Solid_Small,2,0,0,17322677.0,17322953.0,276.0
123,choice,choice,4,1.0,Sea,2.0,15.666507042013109,fixation,-1,1,0,17322962.0,17323617.0,655.0
123,choice,choice,5,1.0,Animal,1.0,3.4547302920836955,Animal_Land_Solid_Small,2,0,1,17328044.0,17328156.0,112.0
123,choice,choice,5,1.0,Animal,1.0,3.4547302920836955,fixation,-1,1,0,17328175.0,17328703.0,528.0
123,choice,choice,5,1.0,Animal,1.0,3.4547302920836955,Object_Sea_Pattern_Large,1,0,0,17328738.0,17328918.0,180.0
123,choice,choice,5,1.0,Animal,1.0,3.4547302920836955,Object_Land_Solid_Small,4,0,0,17328936.0,17329088.0,152.0
123,choice,choice,5,1.0,Animal,1.0,3.4547302920836955,fixation,-1,1,0,17329300.0,17330379.0,1079.0
123,choice,choice,6,1.0,Large,1.0,6.95364566706121,Object_Land_Solid_Small,4,0,0,17334304.0,17334589.0,285.0
123,choice,choice,6,1.0,Large,1.0,6.95364566706121,Animal_Sea_Pattern_Large,5,0,1,17334790.0,17334908.0,118.0
123,choice,choice,6,1.0,Large,1.0,6.95364566706121,fixation,-1,1,0,17334922.0,17335243.0,321.0
123,choice,choice,6,1.0,Large,1.0,6.95364566706121,Object_Land_Pattern_Large,0,0,1,17335482.0,17335579.0,97.0
123,choice,choice,6,1.0,Large,1.0,6.95364566706121,fixation,-1,1,0,17335592.0,17335973.0,381.0
123,choice,choice,6,1.0,Large,1.0,6.95364566706121,Object_Sea_Pattern_Large,1,0,1,17336211.0,17336317.0,106.0
123,choice,choice,6,1.0,Large,1.0,6.95364566706121,fixation,-1,1,0,17336333.0,17336538.0,205.0
123,choice,choice,6,1.0,Large,1.0,6.95364566706121,Object_Land_Solid_Small,4,0,0,17336770.0,17336914.0,144.0
123,choice,choice,6,1.0,Large,1.0,6.95364566706121,fixation,-1,1,0,17336925.0,17337241.0,316.0
123,choice,choice,6,1.0,Large,1.0,6.95364566706121,Object_Sea_Pattern_Large,1,0,1,17337468.0,17337563.0,95.0
123,choice,choice,6,1.0,Large,1.0,6.95364566706121,fixation,-1,1,0,17337577.0,17337955.0,378.0
123,choice,choice,6,1.0,Large,1.0,6.95364566706121,Object_Land_Pattern_Large,0,0,1,17337967.0,17338227.0,260.0
123,choice,choice,6,1.0,Large,1.0,6.95364566706121,fixation,-1,1,0,17338239.0,17338654.0,415.0
123,choice,choice,6,1.0,Large,1.0,6.95364566706121,Object_Land_Pattern_Large,0,0,1,17338662.0,17339142.0,480.0
123,choice,choice,6,1.0,Large,1.0,6.95364566706121,fixation,-1,1,0,17339364.0,17339452.0,88.0
123,choice,choice,6,1.0,Large,1.0,6.95364566706121,Animal_Land_Solid_Small,2,0,0,17339474.0,17339652.0,178.0
123,choice,choice,6,1.0,Large,1.0,6.95364566706121,fixation,-1,1,0,17339666.0,17340853.0,1187.0
123,choice,choice,7,1.0,Pattern,1.0,10.950462999986485,Animal_Sea_Pattern_Large,5,0,1,17343917.0,17344356.0,439.0
123,choice,choice,7,1.0,Pattern,1.0,10.950462999986485,Object_Land_Solid_Small,4,0,0,17344403.0,17347908.0,3505.0
123,choice,choice,7,1.0,Pattern,1.0,10.950462999986485,Animal_Sea_Pattern_Large,5,0,1,17348586.0,17348793.0,207.0
123,choice,choice,7,1.0,Pattern,1.0,10.950462999986485,Object_Land_Solid_Small,4,0,0,17348805.0,17350618.0,1813.0
123,choice,choice,7,1.0,Pattern,1.0,10.950462999986485,Animal_Sea_Pattern_Large,5,0,1,17350931.0,17351432.0,501.0
123,choice,choice,7,1.0,Pattern,1.0,10.950462999986485,Animal_Land_Solid_Small,2,0,0,17352014.0,17352083.0,69.0
123,choice,choice,7,1.0,Pattern,1.0,10.950462999986485,Animal_Sea_Pattern_Large,5,0,1,17352378.0,17352440.0,62.0
123,choice,choice,7,1.0,Pattern,1.0,10.950462999986485,fixation,-1,1,0,17352461.0,17352770.0,309.0
123,choice,choice,7,1.0,Pattern,1.0,10.950462999986485,Animal_Land_Solid_Small,2,0,0,17353321.0,17353454.0,133.0
123,choice,choice,7,1.0,Pattern,1.0,10.950462999986485,fixation,-1,1,0,17353469.0,17354115.0,646.0
123,choice,choice,8,1.0,Land,1.0,7.036587374983355,fixation,-1,1,0,17358268.0,17359732.0,1464.0
123,choice,choice,8,1.0,Land,1.0,7.036587374983355,Object_Land_Pattern_Large,0,0,1,17360256.0,17360438.0,182.0
123,choice,choice,8,1.0,Land,1.0,7.036587374983355,fixation,-1,1,0,17360451.0,17361111.0,660.0
123,choice,choice,8,1.0,Land,1.0,7.036587374983355,Animal_Land_Solid_Small,2,0,1,17361418.0,17361792.0,374.0
123,choice,choice,8,1.0,Land,1.0,7.036587374983355,fixation,-1,1,0,17361825.0,17362633.0,808.0
123,choice,choice,8,1.0,Land,1.0,7.036587374983355,Object_Sea_Pattern_Large,1,0,0,17362897.0,17363140.0,243.0
123,choice,choice,8,1.0,Land,1.0,7.036587374983355,Object_Land_Solid_Small,4,0,1,17363159.0,17363325.0,166.0
123,choice,choice,8,1.0,Land,1.0,7.036587374983355,Object_Sea_Pattern_Large,1,0,0,17363341.0,17363523.0,182.0
123,choice,choice,8,1.0,Land,1.0,7.036587374983355,Object_Land_Solid_Small,4,0,1,17363558.0,17364148.0,590.0
123,choice,choice,8,1.0,Land,1.0,7.036587374983355,fixation,-1,1,0,17364202.0,17364953.0,751.0
123,choice,choice,9,2.0,Sea,1.0,41.02251833397895,Object_Sea_Pattern_Small,0,0,1,17731702.0,17731824.0,122.0
123,choice,choice,9,2.0,Sea,1.0,41.02251833397895,fixation,-1,1,0,17731838.0,17732190.0,352.0
123,choice,choice,9,2.0,Sea,1.0,41.02251833397895,Animal_Sea_Pattern_Large,1,0,1,17732373.0,17732798.0,425.0
123,choice,choice,9,2.0,Sea,1.0,41.02251833397895,Object_Land_Solid_Small,2,0,0,17733101.0,17733445.0,344.0
123,choice,choice,9,2.0,Sea,1.0,41.02251833397895,fixation,-1,1,0,17733638.0,17734114.0,476.0
123,choice,choice,9,2.0,Sea,1.0,41.02251833397895,Object_Sea_Pattern_Small,0,0,1,17734286.0,17734671.0,385.0
123,choice,choice,9,2.0,Sea,1.0,41.02251833397895,fixation,-1,1,0,17734693.0,17735269.0,576.0
123,choice,choice,9,2.0,Sea,1.0,41.02251833397895,Object_Sea_Pattern_Small,0,0,1,17735645.0,17735812.0,167.0
123,choice,choice,9,2.0,Sea,1.0,41.02251833397895,fixation,-1,1,0,17735823.0,17737008.0,1185.0
123,choice,choice,9,2.0,Sea,1.0,41.02251833397895,Object_Sea_Pattern_Small,0,0,1,17737020.0,17737430.0,410.0
123,choice,choice,9,2.0,Sea,1.0,41.02251833397895,fixation,-1,1,0,17737442.0,17738522.0,1080.0
123,choice,choice,9,2.0,Sea,1.0,41.02251833397895,Object_Sea_Pattern_Small,0,0,1,17738902.0,17739110.0,208.0
123,choice,choice,9,2.0,Sea,1.0,41.02251833397895,fixation,-1,1,0,17739120.0,17739480.0,360.0
123,choice,choice,9,2.0,Sea,1.0,41.02251833397895,Object_Sea_Pattern_Small,0,0,1,17739697.0,17739844.0,147.0
123,choice,choice,9,2.0,Sea,1.0,41.02251833397895,fixation,-1,1,0,17739854.0,17740032.0,178.0
123,choice,choice,9,2.0,Sea,1.0,41.02251833397895,Object_Sea_Pattern_Small,0,0,1,17740235.0,17740388.0,153.0
123,choice,choice,9,2.0,Sea,1.0,41.02251833397895,fixation,-1,1,0,17740400.0,17741851.0,1451.0
123,choice,choice,9,2.0,Sea,1.0,41.02251833397895,Object_Sea_Pattern_Small,0,0,1,17742282.0,17742796.0,514.0
123,choice,choice,9,2.0,Sea,1.0,41.02251833397895,Object_Land_Solid_Large,3,0,0,17743045.0,17743304.0,259.0
123,choice,choice,9,2.0,Sea,1.0,41.02251833397895,fixation,-1,1,0,17743547.0,17745289.0,1742.0
123,choice,choice,9,2.0,Sea,1.0,41.02251833397895,Animal_Land_Solid_Large,4,0,0,17745911.0,17746032.0,121.0
123,choice,choice,9,2.0,Sea,1.0,41.02251833397895,fixation,-1,1,0,17746051.0,17746528.0,477.0
123,choice,choice,9,2.0,Sea,1.0,41.02251833397895,Object_Sea_Pattern_Small,0,0,1,17746543.0,17746616.0,73.0
123,choice,choice,9,2.0,Sea,1.0,41.02251833397895,fixation,-1,1,0,17746795.0,17747632.0,837.0
123,choice,choice,9,2.0,Sea,1.0,41.02251833397895,Object_Land_Solid_Small,2,0,0,17748053.0,17748152.0,99.0
123,choice,choice,9,2.0,Sea,1.0,41.02251833397895,fixation,-1,1,0,17748168.0,17750685.0,2517.0
123,choice,choice,9,2.0,Sea,1.0,41.02251833397895,Animal_Sea_Pattern_Large,1,0,1,17751843.0,17751955.0,112.0
123,choice,choice,9,2.0,Sea,1.0,41.02251833397895,fixation,-1,1,0,17751974.0,17752484.0,510.0
123,choice,choice,9,2.0,Sea,1.0,41.02251833397895,Animal_Land_Solid_Large,4,0,0,17752691.0,17753139.0,448.0
123,choice,choice,9,2.0,Sea,1.0,41.02251833397895,fixation,-1,1,0,17753172.0,17753600.0,428.0
123,choice,choice,9,2.0,Sea,1.0,41.02251833397895,Object_Sea_Pattern_Small,0,0,1,17754001.0,17754567.0,566.0
123,choice,choice,9,2.0,Sea,1.0,41.02251833397895,fixation,-1,1,0,17756942.0,17757459.0,517.0
123,choice,choice,9,2.0,Sea,1.0,41.02251833397895,Animal_Land_Solid_Large,4,0,0,17757818.0,17757943.0,125.0
123,choice,choice,9,2.0,Sea,1.0,41.02251833397895,fixation,-1,1,0,17757965.0,17758825.0,860.0
123,choice,choice,9,2.0,Sea,1.0,41.02251833397895,Object_Sea_Pattern_Small,0,0,1,17759082.0,17759765.0,683.0
123,choice,choice,9,2.0,Sea,1.0,41.02251833397895,fixation,-1,1,0,17760024.0,17761244.0,1220.0
123,choice,choice,9,2.0,Sea,1.0,41.02251833397895,Animal_Sea_Pattern_Large,1,0,1,17761676.0,17762130.0,454.0
123,choice,choice,9,2.0,Sea,1.0,41.02251833397895,fixation,-1,1,0,17762369.0,17763078.0,709.0
123,choice,choice,9,2.0,Sea,1.0,41.02251833397895,Object_Sea_Pattern_Small,0,0,1,17763100.0,17763945.0,845.0
123,choice,choice,9,2.0,Sea,1.0,41.02251833397895,fixation,-1,1,0,17764757.0,17766550.0,1793.0
123,choice,choice,9,2.0,Sea,1.0,41.02251833397895,Object_Sea_Pattern_Small,0,0,1,17767226.0,17767325.0,99.0
123,choice,choice,9,2.0,Sea,1.0,41.02251833397895,fixation,-1,1,0,17767340.0,17768397.0,1057.0
123,choice,choice,9,2.0,Sea,1.0,41.02251833397895,Animal_Sea_Pattern_Small,5,0,1,17768605.0,17768762.0,157.0
123,choice,choice,9,2.0,Sea,1.0,41.02251833397895,fixation,-1,1,0,17768780.0,17768936.0,156.0
123,choice,choice,9,2.0,Sea,1.0,41.02251833397895,Object_Sea_Pattern_Small,0,0,1,17769123.0,17769369.0,246.0
123,choice,choice,9,2.0,Sea,1.0,41.02251833397895,Animal_Sea_Pattern_Large,1,0,1,17769382.0,17769582.0,200.0
123,choice,choice,9,2.0,Sea,1.0,41.02251833397895,fixation,-1,1,0,17769589.0,17770123.0,534.0
123,choice,choice,9,2.0,Sea,1.0,41.02251833397895,Animal_Land_Solid_Large,4,0,0,17770354.0,17770506.0,152.0
123,choice,choice,9,2.0,Sea,1.0,41.02251833397895,fixation,-1,1,0,17770526.0,17771338.0,812.0
123,choice,choice,9,2.0,Sea,1.0,41.02251833397895,Object_Sea_Pattern_Small,0,0,1,17771578.0,17772085.0,507.0
123,choice,choice,9,2.0,Sea,1.0,41.02251833397895,fixation,-1,1,0,17772101.0,17772716.0,615.0
123,choice,choice,10,2.0,Small,1.0,14.927677457919344,Animal_Sea_Pattern_Large,1,0,0,17776560.0,17776603.0,43.0
123,choice,choice,10,2.0,Small,1.0,14.927677457919344,fixation,-1,1,0,17776622.0,17778329.0,1707.0
123,choice,choice,10,2.0,Small,1.0,14.927677457919344,Animal_Land_Solid_Large,4,0,0,17778778.0,17778934.0,156.0
123,choice,choice,10,2.0,Small,1.0,14.927677457919344,fixation,-1,1,0,17779124.0,17781891.0,2767.0
123,choice,choice,10,2.0,Small,1.0,14.927677457919344,Object_Land_Solid_Large,3,0,0,17783012.0,17783091.0,79.0
123,choice,choice,10,2.0,Small,1.0,14.927677457919344,Animal_Land_Solid_Large,4,0,0,17783313.0,17783465.0,152.0
123,choice,choice,10,2.0,Small,1.0,14.927677457919344,fixation,-1,1,0,17783480.0,17784310.0,830.0
123,choice,choice,10,2.0,Small,1.0,14.927677457919344,Animal_Sea_Pattern_Large,1,0,0,17784346.0,17784590.0,244.0
123,choice,choice,10,2.0,Small,1.0,14.927677457919344,Object_Land_Solid_Small,2,0,1,17784796.0,17785170.0,374.0
123,choice,choice,10,2.0,Small,1.0,14.927677457919344,fixation,-1,1,0,17785195.0,17785929.0,734.0
123,choice,choice,10,2.0,Small,1.0,14.927677457919344,Object_Land_Solid_Small,2,0,1,17786136.0,17787041.0,905.0
123,choice,choice,10,2.0,Small,1.0,14.927677457919344,Animal_Sea_Pattern_Large,1,0,0,17787481.0,17788279.0,798.0
123,choice,choice,10,2.0,Small,1.0,14.927677457919344,fixation,-1,1,0,17788711.0,17788884.0,173.0
123,choice,choice,10,2.0,Small,1.0,14.927677457919344,Animal_Land_Solid_Large,4,0,0,17788897.0,17789038.0,141.0
123,choice,choice,10,2.0,Small,1.0,14.927677457919344,fixation,-1,1,0,17789049.0,17789226.0,177.0
123,choice,choice,10,2.0,Small,1.0,14.927677457919344,Animal_Land_Solid_Large,4,0,0,17789440.0,17789565.0,125.0
123,choice,choice,10,2.0,Small,1.0,14.927677457919344,Animal_Sea_Pattern_Small,5,0,1,17789602.0,17789774.0,172.0
123,choice,choice,10,2.0,Small,1.0,14.927677457919344,fixation,-1,1,0,17789788.0,17791011.0,1223.0
123,choice,choice,10,2.0,Small,1.0,14.927677457919344,Object_Land_Solid_Small,2,0,1,17791034.0,17791198.0,164.0
123,choice,choice,11,2.0,Animal,1.0,7.5742546250112355,Animal_Sea_Pattern_Large,1,0,1,17794434.0,17794654.0,220.0
123,choice,choice,11,2.0,Animal,1.0,7.5742546250112355,Animal_Land_Solid_Large,4,0,1,17794677.0,17795149.0,472.0
123,choice,choice,11,2.0,Animal,1.0,7.5742546250112355,Object_Land_Solid_Small,2,0,0,17795298.0,17795457.0,159.0
123,choice,choice,11,2.0,Animal,1.0,7.5742546250112355,fixation,-1,1,0,17795474.0,17795715.0,241.0
123,choice,choice,11,2.0,Animal,1.0,7.5742546250112355,Animal_Sea_Pattern_Small,5,0,1,17795939.0,17796257.0,318.0
123,choice,choice,11,2.0,Animal,1.0,7.5742546250112355,fixation,-1,1,0,17796270.0,17796646.0,376.0
123,choice,choice,11,2.0,Animal,1.0,7.5742546250112355,Animal_Land_Solid_Large,4,0,1,17797054.0,17797116.0,62.0
123,choice,choice,11,2.0,Animal,1.0,7.5742546250112355,fixation,-1,1,0,17797148.0,17797590.0,442.0
123,choice,choice,11,2.0,Animal,1.0,7.5742546250112355,Animal_Land_Solid_Large,4,0,1,17797800.0,17798083.0,283.0
123,choice,choice,11,2.0,Animal,1.0,7.5742546250112355,Object_Land_Solid_Large,3,0,0,17798320.0,17798412.0,92.0
123,choice,choice,11,2.0,Animal,1.0,7.5742546250112355,fixation,-1,1,0,17798421.0,17798827.0,406.0
123,choice,choice,11,2.0,Animal,1.0,7.5742546250112355,Object_Land_Solid_Small,2,0,0,17798862.0,17799114.0,252.0
123,choice,choice,11,2.0,Animal,1.0,7.5742546250112355,Object_Sea_Pattern_Small,0,0,0,17799137.0,17799506.0,369.0
123,choice,choice,11,2.0,Animal,1.0,7.5742546250112355,fixation,-1,1,0,17799517.0,17801340.0,1823.0
123,choice,choice,12,2.0,Land,1.0,18.315085959155113,Object_Land_Solid_Small,2,0,1,17804767.0,17805517.0,750.0
123,choice,choice,12,2.0,Land,1.0,18.315085959155113,fixation,-1,1,0,17805745.0,17806820.0,1075.0
123,choice,choice,12,2.0,Land,1.0,18.315085959155113,Object_Land_Solid_Small,2,0,1,17807183.0,17807447.0,264.0
123,choice,choice,12,2.0,Land,1.0,18.315085959155113,fixation,-1,1,0,17807481.0,17808675.0,1194.0
123,choice,choice,12,2.0,Land,1.0,18.315085959155113,Animal_Land_Solid_Large,4,0,1,17809582.0,17809698.0,116.0
123,choice,choice,12,2.0,Land,1.0,18.315085959155113,fixation,-1,1,0,17809719.0,17810943.0,1224.0
123,choice,choice,12,2.0,Land,1.0,18.315085959155113,Object_Land_Solid_Large,3,0,1,17811667.0,17811742.0,75.0
123,choice,choice,12,2.0,Land,1.0,18.315085959155113,fixation,-1,1,0,17811755.0,17813145.0,1390.0
123,choice,choice,12,2.0,Land,1.0,18.315085959155113,Animal_Land_Solid_Large,4,0,1,17813813.0,17814042.0,229.0
123,choice,choice,12,2.0,Land,1.0,18.315085959155113,Object_Land_Solid_Small,2,0,1,17814079.0,17814276.0,197.0
123,choice,choice,12,2.0,Land,1.0,18.315085959155113,fixation,-1,1,0,17814292.0,17815562.0,1270.0
123,choice,choice,12,2.0,Land,1.0,18.315085959155113,Object_Land_Solid_Large,3,0,1,17816950.0,17817055.0,105.0
123,choice,choice,12,2.0,Land,1.0,18.315085959155113,fixation,-1,1,0,17817073.0,17817522.0,449.0
123,choice,choice,12,2.0,Land,1.0,18.315085959155113,Object_Land_Solid_Small,2,0,1,17817945.0,17818376.0,431.0
123,choice,choice,12,2.0,Land,1.0,18.315085959155113,Animal_Land_Solid_Large,4,0,1,17818415.0,17819225.0,810.0
123,choice,choice,12,2.0,Land,1.0,18.315085959155113,fixation,-1,1,0,17819310.0,17820304.0,994.0
123,choice,choice,12,2.0,Land,1.0,18.315085959155113,Animal_Sea_Pattern_Large,1,0,0,17820501.0,17820908.0,407.0
123,choice,choice,12,2.0,Land,1.0,18.315085959155113,Object_Land_Solid_Small,2,0,1,17820938.0,17821101.0,163.0
123,choice,choice,12,2.0,Land,1.0,18.315085959155113,fixation,-1,1,0,17821285.0,17821631.0,346.0
123,choice,choice,12,2.0,Land,1.0,18.315085959155113,Object_Sea_Pattern_Small,0,0,0,17821833.0,17821928.0,95.0
123,choice,choice,12,2.0,Land,1.0,18.315085959155113,fixation,-1,1,0,17821939.0,17822261.0,322.0
123,choice,choice,12,2.0,Land,1.0,18.315085959155113,Object_Sea_Pattern_Small,0,0,0,17822279.0,17822937.0,658.0
123,choice,choice,13,2.0,Solid,1.0,17.716699542012066,Object_Land_Solid_Small,2,0,1,17826072.0,17826371.0,299.0
123,choice,choice,13,2.0,Solid,1.0,17.716699542012066,fixation,-1,1,0,17826400.0,17827247.0,847.0
123,choice,choice,13,2.0,Solid,1.0,17.716699542012066,Animal_Sea_Pattern_Large,1,0,0,17827705.0,17827825.0,120.0
123,choice,choice,13,2.0,Solid,1.0,17.716699542012066,fixation,-1,1,0,17827838.0,17828191.0,353.0
123,choice,choice,13,2.0,Solid,1.0,17.716699542012066,Object_Land_Solid_Small,2,0,1,17828377.0,17829049.0,672.0
123,choice,choice,13,2.0,Solid,1.0,17.716699542012066,fixation,-1,1,0,17829071.0,17829486.0,415.0
123,choice,choice,13,2.0,Solid,1.0,17.716699542012066,Object_Land_Solid_Small,2,0,1,17829730.0,17829862.0,132.0
123,choice,choice,13,2.0,Solid,1.0,17.716699542012066,Animal_Land_Solid_Large,4,0,1,17829885.0,17830004.0,119.0
123,choice,choice,13,2.0,Solid,1.0,17.716699542012066,fixation,-1,1,0,17830026.0,17830249.0,223.0
123,choice,choice,13,2.0,Solid,1.0,17.716699542012066,Object_Sea_Pattern_Small,0,0,0,17830743.0,17830835.0,92.0
123,choice,choice,13,2.0,Solid,1.0,17.716699542012066,fixation,-1,1,0,17830850.0,17831252.0,402.0
123,choice,choice,13,2.0,Solid,1.0,17.716699542012066,Object_Sea_Pattern_Small,0,0,0,17831472.0,17832101.0,629.0
123,choice,choice,13,2.0,Solid,1.0,17.716699542012066,fixation,-1,1,0,17832136.0,17832682.0,546.0
123,choice,choice,13,2.0,Solid,1.0,17.716699542012066,Object_Sea_Pattern_Small,0,0,0,17833165.0,17833330.0,165.0
123,choice,choice,13,2.0,Solid,1.0,17.716699542012066,fixation,-1,1,0,17833344.0,17834546.0,1202.0
123,choice,choice,13,2.0,Solid,1.0,17.716699542012066,Object_Sea_Pattern_Small,0,0,0,17834794.0,17835188.0,394.0
123,choice,choice,13,2.0,Solid,1.0,17.716699542012066,fixation,-1,1,0,17835415.0,17836708.0,1293.0
123,choice,choice,13,2.0,Solid,1.0,17.716699542012066,Animal_Sea_Pattern_Small,5,0,0,17837163.0,17837285.0,122.0
123,choice,choice,13,2.0,Solid,1.0,17.716699542012066,fixation,-1,1,0,17837299.0,17838101.0,802.0
123,choice,choice,13,2.0,Solid,1.0,17.716699542012066,Animal_Land_Solid_Large,4,0,1,17838143.0,17838408.0,265.0
123,choice,choice,13,2.0,Solid,1.0,17.716699542012066,Object_Land_Solid_Small,2,0,1,17838425.0,17838557.0,132.0
123,choice,choice,13,2.0,Solid,1.0,17.716699542012066,Animal_Land_Solid_Large,4,0,1,17838579.0,17839141.0,562.0
123,choice,choice,13,2.0,Solid,1.0,17.716699542012066,Object_Land_Solid_Small,2,0,1,17839156.0,17839391.0,235.0
123,choice,choice,13,2.0,Solid,1.0,17.716699542012066,fixation,-1,1,0,17839638.0,17840378.0,740.0
123,choice,choice,13,2.0,Solid,1.0,17.716699542012066,Object_Land_Solid_Small,2,0,1,17840620.0,17841182.0,562.0
123,choice,choice,13,2.0,Solid,1.0,17.716699542012066,Object_Sea_Pattern_Small,0,0,0,17841287.0,17841395.0,108.0
123,choice,choice,13,2.0,Solid,1.0,17.716699542012066,Object_Land_Solid_Large,3,0,1,17841414.0,17841550.0,136.0
123,choice,choice,13,2.0,Solid,1.0,17.716699542012066,fixation,-1,1,0,17841569.0,17841657.0,88.0
123,choice,choice,13,2.0,Solid,1.0,17.716699542012066,Object_Land_Solid_Small,2,0,1,17841680.0,17842031.0,351.0
123,choice,choice,13,2.0,Solid,1.0,17.716699542012066,Animal_Land_Solid_Large,4,0,1,17842067.0,17842267.0,200.0
123,choice,choice,13,2.0,Solid,1.0,17.716699542012066,Animal_Sea_Pattern_Large,1,0,0,17842308.0,17842684.0,376.0
123,choice,choice,13,2.0,Solid,1.0,17.716699542012066,Object_Land_Solid_Small,2,0,1,17843588.0,17843719.0,131.0
123,choice,choice,14,2.0,Large,2.0,12.110065459040923,Object_Land_Solid_Small,2,0,0,17846871.0,17847113.0,242.0
123,choice,choice,14,2.0,Large,2.0,12.110065459040923,Animal_Sea_Pattern_Large,1,0,1,17847247.0,17847511.0,264.0
123,choice,choice,14,2.0,Large,2.0,12.110065459040923,Object_Land_Solid_Small,2,0,0,17847685.0,17847889.0,204.0
123,choice,choice,14,2.0,Large,2.0,12.110065459040923,fixation,-1,1,0,17847904.0,17848199.0,295.0
123,choice,choice,14,2.0,Large,2.0,12.110065459040923,Object_Land_Solid_Small,2,0,0,17848417.0,17849229.0,812.0
123,choice,choice,14,2.0,Large,2.0,12.110065459040923,Object_Sea_Pattern_Small,0,0,0,17849434.0,17849557.0,123.0
123,choice,choice,14,2.0,Large,2.0,12.110065459040923,fixation,-1,1,0,17849764.0,17851408.0,1644.0
123,choice,choice,14,2.0,Large,2.0,12.110065459040923,Animal_Sea_Pattern_Large,1,0,1,17851807.0,17851931.0,124.0
123,choice,choice,14,2.0,Large,2.0,12.110065459040923,Animal_Land_Solid_Large,4,0,1,17851957.0,17852148.0,191.0
123,choice,choice,14,2.0,Large,2.0,12.110065459040923,Animal_Sea_Pattern_Small,5,0,0,17852169.0,17852571.0,402.0
123,choice,choice,14,2.0,Large,2.0,12.110065459040923,Object_Sea_Pattern_Small,0,0,0,17852789.0,17852880.0,91.0
123,choice,choice,14,2.0,Large,2.0,12.110065459040923,Object_Land_Solid_Small,2,0,0,17852910.0,17853496.0,586.0
123,choice,choice,14,2.0,Large,2.0,12.110065459040923,fixation,-1,1,0,17853516.0,17855296.0,1780.0
123,choice,choice,14,2.0,Large,2.0,12.110065459040923,Animal_Sea_Pattern_Large,1,0,1,17855732.0,17856341.0,609.0
123,choice,choice,14,2.0,Large,2.0,12.110065459040923,Animal_Land_Solid_Large,4,0,1,17856435.0,17856620.0,185.0
123,choice,choice,14,2.0,Large,2.0,12.110065459040923,Object_Land_Solid_Small,2,0,0,17856644.0,17856815.0,171.0
123,choice,choice,14,2.0,Large,2.0,12.110065459040923,fixation,-1,1,0,17856827.0,17858407.0,1580.0
123,choice,choice,15,2.0,Pattern,1.0,13.744707208825275,Object_Land_Solid_Small,2,0,0,17861931.0,17862319.0,388.0
123,choice,choice,15,2.0,Pattern,1.0,13.744707208825275,Animal_Sea_Pattern_Large,1,0,1,17862519.0,17862735.0,216.0
123,choice,choice,15,2.0,Pattern,1.0,13.744707208825275,Animal_Land_Solid_Large,4,0,0,17862759.0,17862989.0,230.0
123,choice,choice,15,2.0,Pattern,1.0,13.744707208825275,fixation,-1,1,0,17863204.0,17863593.0,389.0
123,choice,choice,15,2.0,Pattern,1.0,13.744707208825275,Animal_Sea_Pattern_Small,5,0,1,17863807.0,17863900.0,93.0
123,choice,choice,15,2.0,Pattern,1.0,13.744707208825275,fixation,-1,1,0,17863920.0,17865744.0,1824.0
123,choice,choice,15,2.0,Pattern,1.0,13.744707208825275,Object_Sea_Pattern_Small,0,0,1,17866193.0,17866309.0,116.0
123,choice,choice,15,2.0,Pattern,1.0,13.744707208825275,fixation,-1,1,0,17866319.0,17866712.0,393.0
123,choice,choice,15,2.0,Pattern,1.0,13.744707208825275,Object_Sea_Pattern_Small,0,0,1,17866948.0,17867098.0,150.0
123,choice,choice,15,2.0,Pattern,1.0,13.744707208825275,fixation,-1,1,0,17867113.0,17867739.0,626.0
123,choice,choice,15,2.0,Pattern,1.0,13.744707208825275,Object_Sea_Pattern_Small,0,0,1,17867754.0,17867976.0,222.0
123,choice,choice,15,2.0,Pattern,1.0,13.744707208825275,fixation,-1,1,0,17867985.0,17869452.0,1467.0
123,choice,choice,15,2.0,Pattern,1.0,13.744707208825275,Object_Sea_Pattern_Small,0,0,1,17869698.0,17869858.0,160.0
123,choice,choice,15,2.0,Pattern,1.0,13.744707208825275,fixation,-1,1,0,17869877.0,17870281.0,404.0
123,choice,choice,15,2.0,Pattern,1.0,13.744707208825275,Animal_Sea_Pattern_Large,1,0,1,17870739.0,17870991.0,252.0
123,choice,choice,15,2.0,Pattern,1.0,13.744707208825275,fixation,-1,1,0,17871255.0,17871796.0,541.0
123,choice,choice,15,2.0,Pattern,1.0,13.744707208825275,Object_Sea_Pattern_Small,0,0,1,17872108.0,17872210.0,102.0
123,choice,choice,15,2.0,Pattern,1.0,13.744707208825275,Animal_Sea_Pattern_Large,1,0,1,17872424.0,17872545.0,121.0
123,choice,choice,15,2.0,Pattern,1.0,13.744707208825275,Object_Sea_Pattern_Small,0,0,1,17872557.0,17872698.0,141.0
123,choice,choice,15,2.0,Pattern,1.0,13.744707208825275,fixation,-1,1,0,17872709.0,17873435.0,726.0
123,choice,choice,15,2.0,Pattern,1.0,13.744707208825275,Animal_Sea_Pattern_Small,5,0,1,17873667.0,17873843.0,176.0
123,choice,choice,15,2.0,Pattern,1.0,13.744707208825275,fixation,-1,1,0,17873858.0,17874248.0,390.0
123,choice,choice,15,2.0,Pattern,1.0,13.744707208825275,Object_Sea_Pattern_Small,0,0,1,17874283.0,17874678.0,395.0
123,choice,choice,15,2.0,Pattern,1.0,13.744707208825275,fixation,-1,1,0,17874707.0,17874768.0,61.0
123,choice,choice,15,2.0,Pattern,1.0,13.744707208825275,Object_Sea_Pattern_Small,0,0,1,17875031.0,17875181.0,150.0
123,choice,choice,15,2.0,Pattern,1.0,13.744707208825275,fixation,-1,1,0,17875192.0,17875433.0,241.0
123,choice,choice,16,2.0,Object,1.0,11.688576250104234,Animal_Land_Solid_Large,4,0,0,17879071.0,17879655.0,584.0
123,choice,choice,16,2.0,Object,1.0,11.688576250104234,fixation,-1,1,0,17879844.0,17880102.0,258.0
123,choice,choice,16,2.0,Object,1.0,11.688576250104234,Animal_Land_Solid_Large,4,0,0,17880120.0,17880271.0,151.0
123,choice,choice,16,2.0,Object,1.0,11.688576250104234,Animal_Sea_Pattern_Large,1,0,0,17880293.0,17880768.0,475.0
123,choice,choice,16,2.0,Object,1.0,11.688576250104234,Object_Land_Solid_Small,2,0,1,17880927.0,17881167.0,240.0
123,choice,choice,16,2.0,Object,1.0,11.688576250104234,fixation,-1,1,0,17881190.0,17882399.0,1209.0
123,choice,choice,16,2.0,Object,1.0,11.688576250104234,Object_Land_Solid_Small,2,0,1,17882687.0,17883049.0,362.0
123,choice,choice,16,2.0,Object,1.0,11.688576250104234,fixation,-1,1,0,17883088.0,17883571.0,483.0
123,choice,choice,16,2.0,Object,1.0,11.688576250104234,Object_Land_Solid_Small,2,0,1,17883592.0,17883794.0,202.0
123,choice,choice,16,2.0,Object,1.0,11.688576250104234,Animal_Sea_Pattern_Large,1,0,0,17883814.0,17883997.0,183.0
123,choice,choice,16,2.0,Object,1.0,11.688576250104234,fixation,-1,1,0,17884010.0,17884195.0,185.0
123,choice,choice,16,2.0,Object,1.0,11.688576250104234,Object_Sea_Pattern_Small,0,0,1,17884423.0,17884550.0,127.0
123,choice,choice,16,2.0,Object,1.0,11.688576250104234,fixation,-1,1,0,17884565.0,17885009.0,444.0
123,choice,choice,16,2.0,Object,1.0,11.688576250104234,Animal_Land_Solid_Large,4,0,0,17885030.0,17885166.0,136.0
123,choice,choice,16,2.0,Object,1.0,11.688576250104234,fixation,-1,1,0,17885180.0,17885357.0,177.0
123,choice,choice,16,2.0,Object,1.0,11.688576250104234,Object_Land_Solid_Small,2,0,1,17885494.0,17885761.0,267.0
123,choice,choice,16,2.0,Object,1.0,11.688576250104234,Object_Land_Solid_Large,3,0,1,17885806.0,17885980.0,174.0
123,choice,choice,16,2.0,Object,1.0,11.688576250104234,fixation,-1,1,0,17885998.0,17886596.0,598.0
123,choice,choice,16,2.0,Object,1.0,11.688576250104234,Object_Sea_Pattern_Small,0,0,1,17886610.0,17887002.0,392.0
123,choice,choice,16,2.0,Object,1.0,11.688576250104234,fixation,-1,1,0,17887246.0,17887645.0,399.0
123,choice,choice,16,2.0,Object,1.0,11.688576250104234,Object_Land_Solid_Small,2,0,1,17887689.0,17888181.0,492.0
123,choice,choice,16,2.0,Object,1.0,11.688576250104234,fixation,-1,1,0,17889098.0,17889756.0,658.0
123,choice,choice,16,2.0,Object,1.0,11.688576250104234,Object_Sea_Pattern_Small,0,0,1,17889788.0,17889972.0,184.0
123,choice,choice,17,3.0,Land,2.0,12.51398149994202,fixation,-1,1,0,18181238.0,18182101.0,863.0
123,choice,choice,17,3.0,Land,2.0,12.51398149994202,Object_Sea_Solid_Small,0,0,0,18182509.0,18183496.0,987.0
123,choice,choice,17,3.0,Land,2.0,12.51398149994202,Animal_Sea_Pattern_Large,1,0,0,18183892.0,18184158.0,266.0
123,choice,choice,17,3.0,Land,2.0,12.51398149994202,fixation,-1,1,0,18184185.0,18184485.0,300.0
123,choice,choice,17,3.0,Land,2.0,12.51398149994202,Animal_Land_Solid_Small,2,0,1,18184664.0,18184798.0,134.0
123,choice,choice,17,3.0,Land,2.0,12.51398149994202,fixation,-1,1,0,18184808.0,18185419.0,611.0
123,choice,choice,17,3.0,Land,2.0,12.51398149994202,Object_Land_Pattern_Small,3,0,1,18185613.0,18185776.0,163.0
123,choice,choice,17,3.0,Land,2.0,12.51398149994202,fixation,-1,1,0,18185792.0,18187947.0,2155.0
123,choice,choice,17,3.0,Land,2.0,12.51398149994202,Animal_Land_Pattern_Large,4,0,1,18188957.0,18189091.0,134.0
123,choice,choice,17,3.0,Land,2.0,12.51398149994202,fixation,-1,1,0,18189111.0,18189407.0,296.0
123,choice,choice,17,3.0,Land,2.0,12.51398149994202,Object_Land_Pattern_Small,3,0,1,18189420.0,18189606.0,186.0
123,choice,choice,17,3.0,Land,2.0,12.51398149994202,fixation,-1,1,0,18189623.0,18189802.0,179.0
123,choice,choice,17,3.0,Land,2.0,12.51398149994202,Animal_Land_Solid_Small,2,0,1,18189961.0,18190787.0,826.0
123,choice,choice,17,3.0,Land,2.0,12.51398149994202,fixation,-1,1,0,18190888.0,18190997.0,109.0
123,choice,choice,17,3.0,Land,2.0,12.51398149994202,Animal_Land_Pattern_Large,4,0,1,18191187.0,18191318.0,131.0
123,choice,choice,17,3.0,Land,2.0,12.51398149994202,fixation,-1,1,0,18191330.0,18191572.0,242.0
123,choice,choice,17,3.0,Land,2.0,12.51398149994202,Animal_Land_Pattern_Large,4,0,1,18191592.0,18191777.0,185.0
123,choice,choice,17,3.0,Land,2.0,12.51398149994202,fixation,-1,1,0,18191793.0,18192634.0,841.0
123,choice,choice,17,3.0,Land,2.0,12.51398149994202,Object_Sea_Solid_Large,5,0,0,18192920.0,18193004.0,84.0
123,choice,choice,17,3.0,Land,2.0,12.51398149994202,fixation,-1,1,0,18193023.0,18193622.0,599.0
123,choice,choice,18,3.0,Large,2.0,19.294112917035815,fixation,-1,1,0,18197251.0,18197806.0,555.0
123,choice,choice,18,3.0,Large,2.0,19.294112917035815,Animal_Land_Pattern_Large,4,0,1,18198268.0,18198401.0,133.0
123,choice,choice,18,3.0,Large,2.0,19.294112917035815,fixation,-1,1,0,18198417.0,18198638.0,221.0
123,choice,choice,18,3.0,Large,2.0,19.294112917035815,Object_Sea_Solid_Large,5,0,1,18198865.0,18198966.0,101.0
123,choice,choice,18,3.0,Large,2.0,19.294112917035815,fixation,-1,1,0,18198982.0,18200478.0,1496.0
123,choice,choice,18,3.0,Large,2.0,19.294112917035815,Object_Sea_Solid_Large,5,0,1,18201025.0,18201220.0,195.0
123,choice,choice,18,3.0,Large,2.0,19.294112917035815,fixation,-1,1,0,18201239.0,18202035.0,796.0
123,choice,choice,18,3.0,Large,2.0,19.294112917035815,Animal_Land_Solid_Small,2,0,0,18202366.0,18202446.0,80.0
123,choice,choice,18,3.0,Large,2.0,19.294112917035815,Animal_Sea_Pattern_Large,1,0,1,18202611.0,18202761.0,150.0
123,choice,choice,18,3.0,Large,2.0,19.294112917035815,fixation,-1,1,0,18202777.0,18203149.0,372.0
123,choice,choice,18,3.0,Large,2.0,19.294112917035815,Animal_Land_Solid_Small,2,0,0,18203342.0,18203509.0,167.0
123,choice,choice,18,3.0,Large,2.0,19.294112917035815,fixation,-1,1,0,18203528.0,18204004.0,476.0
123,choice,choice,18,3.0,Large,2.0,19.294112917035815,Animal_Land_Pattern_Large,4,0,1,18204205.0,18204291.0,86.0
123,choice,choice,18,3.0,Large,2.0,19.294112917035815,fixation,-1,1,0,18204305.0,18204805.0,500.0
123,choice,choice,18,3.0,Large,2.0,19.294112917035815,Object_Sea_Solid_Small,0,0,0,18205005.0,18206010.0,1005.0
123,choice,choice,18,3.0,Large,2.0,19.294112917035815,Animal_Land_Pattern_Large,4,0,1,18206201.0,18206456.0,255.0
123,choice,choice,18,3.0,Large,2.0,19.294112917035815,fixation,-1,1,0,18206478.0,18206840.0,362.0
123,choice,choice,18,3.0,Large,2.0,19.294112917035815,Object_Land_Pattern_Small,3,0,0,18207259.0,18207472.0,213.0
123,choice,choice,18,3.0,Large,2.0,19.294112917035815,fixation,-1,1,0,18207673.0,18209112.0,1439.0
123,choice,choice,18,3.0,Large,2.0,19.294112917035815,Object_Land_Pattern_Small,3,0,0,18209329.0,18209810.0,481.0
123,choice,choice,18,3.0,Large,2.0,19.294112917035815,fixation,-1,1,0,18210029.0,18210266.0,237.0
123,choice,choice,18,3.0,Large,2.0,19.294112917035815,Animal_Land_Solid_Small,2,0,0,18210283.0,18210448.0,165.0
123,choice,choice,18,3.0,Large,2.0,19.294112917035815,Object_Sea_Solid_Small,0,0,0,18210612.0,18210811.0,199.0
123,choice,choice,18,3.0,Large,2.0,19.294112917035815,Animal_Sea_Pattern_Large,1,0,1,18210827.0,18210933.0,106.0
123,choice,choice,18,3.0,Large,2.0,19.294112917035815,Object_Sea_Solid_Small,0,0,0,18211101.0,18211932.0,831.0
123,choice,choice,18,3.0,Large,2.0,19.294112917035815,fixation,-1,1,0,18212142.0,18213067.0,925.0
123,choice,choice,18,3.0,Large,2.0,19.294112917035815,Object_Sea_Solid_Small,0,0,0,18213265.0,18213775.0,510.0
123,choice,choice,18,3.0,Large,2.0,19.294112917035815,fixation,-1,1,0,18213994.0,18214814.0,820.0
123,choice,choice,18,3.0,Large,2.0,19.294112917035815,Animal_Land_Solid_Small,2,0,0,18215225.0,18215487.0,262.0
123,choice,choice,18,3.0,Large,2.0,19.294112917035815,Object_Land_Pattern_Small,3,0,0,18215532.0,18215740.0,208.0
123,choice,choice,18,3.0,Large,2.0,19.294112917035815,fixation,-1,1,0,18215766.0,18216465.0,699.0
123,choice,choice,19,3.0,Animal,2.0,14.129019957967104,Object_Sea_Solid_Small,0,0,0,18219908.0,18220037.0,129.0
123,choice,choice,19,3.0,Animal,2.0,14.129019957967104,Animal_Land_Pattern_Large,4,0,1,18220051.0,18220700.0,649.0
123,choice,choice,19,3.0,Animal,2.0,14.129019957967104,Object_Sea_Solid_Small,0,0,0,18220729.0,18220882.0,153.0
123,choice,choice,19,3.0,Animal,2.0,14.129019957967104,fixation,-1,1,0,18220895.0,18223492.0,2597.0
123,choice,choice,19,3.0,Animal,2.0,14.129019957967104,Object_Sea_Solid_Small,0,0,0,18224529.0,18224889.0,360.0
123,choice,choice,19,3.0,Animal,2.0,14.129019957967104,fixation,-1,1,0,18224903.0,18225335.0,432.0
123,choice,choice,19,3.0,Animal,2.0,14.129019957967104,Animal_Land_Solid_Small,2,0,1,18225352.0,18225600.0,248.0
123,choice,choice,19,3.0,Animal,2.0,14.129019957967104,fixation,-1,1,0,18225617.0,18227547.0,1930.0
123,choice,choice,19,3.0,Animal,2.0,14.129019957967104,Animal_Land_Pattern_Large,4,0,1,18228153.0,18228282.0,129.0
123,choice,choice,19,3.0,Animal,2.0,14.129019957967104,fixation,-1,1,0,18228295.0,18228538.0,243.0
123,choice,choice,19,3.0,Animal,2.0,14.129019957967104,Animal_Land_Pattern_Large,4,0,1,18228556.0,18228775.0,219.0
123,choice,choice,19,3.0,Animal,2.0,14.129019957967104,Object_Sea_Solid_Small,0,0,0,18228963.0,18229087.0,124.0
123,choice,choice,19,3.0,Animal,2.0,14.129019957967104,fixation,-1,1,0,18229100.0,18229655.0,555.0
123,choice,choice,19,3.0,Animal,2.0,14.129019957967104,Animal_Land_Pattern_Large,4,0,1,18229664.0,18229920.0,256.0
123,choice,choice,19,3.0,Animal,2.0,14.129019957967104,fixation,-1,1,0,18229931.0,18230313.0,382.0
123,choice,choice,19,3.0,Animal,2.0,14.129019957967104,Animal_Sea_Pattern_Large,1,0,1,18230480.0,18230603.0,123.0
123,choice,choice,19,3.0,Animal,2.0,14.129019957967104,fixation,-1,1,0,18230619.0,18231017.0,398.0
123,choice,choice,19,3.0,Animal,2.0,14.129019957967104,Animal_Sea_Pattern_Large,1,0,1,18231032.0,18231253.0,221.0
123,choice,choice,19,3.0,Animal,2.0,14.129019957967104,fixation,-1,1,0,18231262.0,18231671.0,409.0
123,choice,choice,19,3.0,Animal,2.0,14.129019957967104,Animal_Sea_Pattern_Large,1,0,1,18231685.0,18231867.0,182.0
123,choice,choice,19,3.0,Animal,2.0,14.129019957967104,fixation,-1,1,0,18232062.0,18232648.0,586.0
123,choice,choice,19,3.0,Animal,2.0,14.129019957967104,Object_Sea_Solid_Large,5,0,0,18233144.0,18233261.0,117.0
123,choice,choice,19,3.0,Animal,2.0,14.129019957967104,fixation,-1,1,0,18233271.0,18233587.0,316.0
123,choice,choice,19,3.0,Animal,2.0,14.129019957967104,Object_Sea_Solid_Small,0,0,0,18233824.0,18233905.0,81.0
123,choice,choice,20,3.0,Object,2.0,8.99879812519066,fixation,-1,1,0,18237662.0,18238127.0,465.0
123,choice,choice,20,3.0,Object,2.0,8.99879812519066,Animal_Sea_Pattern_Large,1,0,0,18238142.0,18238302.0,160.0
123,choice,choice,20,3.0,Object,2.0,8.99879812519066,fixation,-1,1,0,18238317.0,18239072.0,755.0
123,choice,choice,20,3.0,Object,2.0,8.99879812519066,Animal_Sea_Pattern_Large,1,0,0,18239257.0,18239665.0,408.0
123,choice,choice,20,3.0,Object,2.0,8.99879812519066,Animal_Land_Pattern_Large,4,0,0,18239686.0,18240368.0,682.0
123,choice,choice,20,3.0,Object,2.0,8.99879812519066,fixation,-1,1,0,18240400.0,18240800.0,400.0
123,choice,choice,20,3.0,Object,2.0,8.99879812519066,Object_Land_Pattern_Small,3,0,1,18240818.0,18241104.0,286.0
123,choice,choice,20,3.0,Object,2.0,8.99879812519066,fixation,-1,1,0,18241119.0,18241914.0,795.0
123,choice,choice,20,3.0,Object,2.0,8.99879812519066,Object_Sea_Solid_Small,0,0,1,18242271.0,18242613.0,342.0
123,choice,choice,20,3.0,Object,2.0,8.99879812519066,Animal_Land_Pattern_Large,4,0,0,18242631.0,18242820.0,189.0
123,choice,choice,20,3.0,Object,2.0,8.99879812519066,Object_Land_Pattern_Small,3,0,1,18242839.0,18243085.0,246.0
123,choice,choice,20,3.0,Object,2.0,8.99879812519066,fixation,-1,1,0,18243098.0,18243387.0,289.0
123,choice,choice,20,3.0,Object,2.0,8.99879812519066,Object_Land_Pattern_Small,3,0,1,18243626.0,18244528.0,902.0
123,choice,choice,20,3.0,Object,2.0,8.99879812519066,fixation,-1,1,0,18244946.0,18245700.0,754.0
123,choice,choice,21,3.0,Small,2.0,12.789615083951505,Object_Land_Pattern_Small,3,0,1,18248694.0,18248757.0,63.0
123,choice,choice,21,3.0,Small,2.0,12.789615083951505,fixation,-1,1,0,18248772.0,18248978.0,206.0
123,choice,choice,21,3.0,Small,2.0,12.789615083951505,Object_Sea_Solid_Small,0,0,1,18249299.0,18250139.0,840.0
123,choice,choice,21,3.0,Small,2.0,12.789615083951505,Animal_Land_Pattern_Large,4,0,0,18250191.0,18251188.0,997.0
123,choice,choice,21,3.0,Small,2.0,12.789615083951505,Object_Sea_Solid_Small,0,0,1,18251373.0,18251523.0,150.0
123,choice,choice,21,3.0,Small,2.0,12.789615083951505,fixation,-1,1,0,18251544.0,18251937.0,393.0
123,choice,choice,21,3.0,Small,2.0,12.789615083951505,Animal_Land_Pattern_Large,4,0,0,18252123.0,18252466.0,343.0
123,choice,choice,21,3.0,Small,2.0,12.789615083951505,fixation,-1,1,0,18252501.0,18253278.0,777.0
123,choice,choice,21,3.0,Small,2.0,12.789615083951505,Animal_Land_Pattern_Large,4,0,0,18253743.0,18254150.0,407.0
123,choice,choice,21,3.0,Small,2.0,12.789615083951505,fixation,-1,1,0,18254185.0,18254679.0,494.0
123,choice,choice,21,3.0,Small,2.0,12.789615083951505,Object_Land_Pattern_Small,3,0,1,18254921.0,18254964.0,43.0
123,choice,choice,21,3.0,Small,2.0,12.789615083951505,fixation,-1,1,0,18254977.0,18255255.0,278.0
123,choice,choice,21,3.0,Small,2.0,12.789615083951505,Object_Land_Pattern_Small,3,0,1,18255489.0,18255746.0,257.0
123,choice,choice,21,3.0,Small,2.0,12.789615083951505,Animal_Land_Pattern_Large,4,0,0,18255767.0,18256250.0,483.0
123,choice,choice,21,3.0,Small,2.0,12.789615083951505,fixation,-1,1,0,18256412.0,18258355.0,1943.0
123,choice,choice,21,3.0,Small,2.0,12.789615083951505,Animal_Land_Solid_Small,2,0,1,18258782.0,18258990.0,208.0
123,choice,choice,21,3.0,Small,2.0,12.789615083951505,fixation,-1,1,0,18259003.0,18260034.0,1031.0
123,choice,choice,21,3.0,Small,2.0,12.789615083951505,Animal_Sea_Pattern_Large,1,0,0,18260277.0,18260570.0,293.0
123,choice,choice,21,3.0,Small,2.0,12.789615083951505,fixation,-1,1,0,18260860.0,18261291.0,431.0
123,choice,choice,22,3.0,Pattern,1.0,8.352114291861653,fixation,-1,1,0,18263988.0,18264810.0,822.0
123,choice,choice,22,3.0,Pattern,1.0,8.352114291861653,Animal_Land_Pattern_Large,4,0,1,18265204.0,18265292.0,88.0
123,choice,choice,22,3.0,Pattern,1.0,8.352114291861653,fixation,-1,1,0,18265308.0,18265682.0,374.0
123,choice,choice,22,3.0,Pattern,1.0,8.352114291861653,Animal_Land_Pattern_Large,4,0,1,18265700.0,18265828.0,128.0
123,choice,choice,22,3.0,Pattern,1.0,8.352114291861653,fixation,-1,1,0,18265846.0,18266483.0,637.0
123,choice,choice,22,3.0,Pattern,1.0,8.352114291861653,Animal_Land_Pattern_Large,4,0,1,18266684.0,18267309.0,625.0
123,choice,choice,22,3.0,Pattern,1.0,8.352114291861653,Object_Sea_Solid_Small,0,0,0,18267381.0,18267757.0,376.0
123,choice,choice,22,3.0,Pattern,1.0,8.352114291861653,fixation,-1,1,0,18267811.0,18268113.0,302.0
123,choice,choice,22,3.0,Pattern,1.0,8.352114291861653,Object_Land_Pattern_Small,3,0,1,18268301.0,18268426.0,125.0
123,choice,choice,22,3.0,Pattern,1.0,8.352114291861653,fixation,-1,1,0,18268442.0,18270092.0,1650.0
123,choice,choice,22,3.0,Pattern,1.0,8.352114291861653,Object_Sea_Solid_Large,5,0,0,18270347.0,18270573.0,226.0
123,choice,choice,22,3.0,Pattern,1.0,8.352114291861653,fixation,-1,1,0,18270583.0,18271708.0,1125.0
123,choice,choice,22,3.0,Pattern,1.0,8.352114291861653,Animal_Land_Solid_Small,2,0,0,18271967.0,18272204.0,237.0
123,choice,choice,23,3.0,Sea,1.0,5.418852708069608,Animal_Sea_Pattern_Large,1,0,1,18275029.0,18275421.0,392.0
123,choice,choice,23,3.0,Sea,1.0,5.418852708069608,Object_Sea_Solid_Small,0,0,1,18275450.0,18276132.0,682.0
123,choice,choice,23,3.0,Sea,1.0,5.418852708069608,fixation,-1,1,0,18276852.0,18277279.0,427.0
123,choice,choice,23,3.0,Sea,1.0,5.418852708069608,Object_Land_Pattern_Small,3,0,0,18277486.0,18277684.0,198.0
123,choice,choice,23,3.0,Sea,1.0,5.418852708069608,fixation,-1,1,0,18277699.0,18277853.0,154.0
123,choice,choice,23,3.0,Sea,1.0,5.418852708069608,Animal_Land_Pattern_Large,4,0,0,18278013.0,18278131.0,118.0
123,choice,choice,23,3.0,Sea,1.0,5.418852708069608,fixation,-1,1,0,18278144.0,18278485.0,341.0
123,choice,choice,23,3.0,Sea,1.0,5.418852708069608,Object_Sea_Solid_Large,5,0,1,18278717.0,18278839.0,122.0
123,choice,choice,23,3.0,Sea,1.0,5.418852708069608,fixation,-1,1,0,18278851.0,18279470.0,619.0
123,choice,choice,23,3.0,Sea,1.0,5.418852708069608,Object_Sea_Solid_Small,0,0,1,18279491.0,18279838.0,347.0
123,choice,choice,23,3.0,Sea,1.0,5.418852708069608,fixation,-1,1,0,18279893.0,18280245.0,352.0
123,choice,choice,23,3.0,Sea,1.0,5.418852708069608,Animal_Land_Solid_Small,2,0,0,18280265.0,18280428.0,163.0
123,choice,choice,24,3.0,Solid,2.0,9.72890654206276,Object_Sea_Solid_Small,0,0,1,18283937.0,18284164.0,227.0
123,choice,choice,24,3.0,Solid,2.0,9.72890654206276,Animal_Sea_Pattern_Large,1,0,0,18284176.0,18284531.0,355.0
123,choice,choice,24,3.0,Solid,2.0,9.72890654206276,fixation,-1,1,0,18284562.0,18284777.0,215.0
123,choice,choice,24,3.0,Solid,2.0,9.72890654206276,Object_Sea_Solid_Small,0,0,1,18284984.0,18285299.0,315.0
123,choice,choice,24,3.0,Solid,2.0,9.72890654206276,fixation,-1,1,0,18285313.0,18286320.0,1007.0
123,choice,choice,24,3.0,Solid,2.0,9.72890654206276,Animal_Land_Solid_Small,2,0,1,18286546.0,18286824.0,278.0
123,choice,choice,24,3.0,Solid,2.0,9.72890654206276,fixation,-1,1,0,18287024.0,18287585.0,561.0
123,choice,choice,24,3.0,Solid,2.0,9.72890654206276,Animal_Land_Pattern_Large,4,0,0,18287610.0,18287833.0,223.0
123,choice,choice,24,3.0,Solid,2.0,9.72890654206276,fixation,-1,1,0,18287846.0,18287997.0,151.0
123,choice,choice,24,3.0,Solid,2.0,9.72890654206276,Animal_Land_Pattern_Large,4,0,0,18288178.0,18288570.0,392.0
123,choice,choice,24,3.0,Solid,2.0,9.72890654206276,Object_Sea_Solid_Small,0,0,1,18288601.0,18288837.0,236.0
123,choice,choice,24,3.0,Solid,2.0,9.72890654206276,fixation,-1,1,0,18288858.0,18288924.0,66.0
123,choice,choice,24,3.0,Solid,2.0,9.72890654206276,Animal_Land_Pattern_Large,4,0,0,18289148.0,18289661.0,513.0
123,choice,choice,24,3.0,Solid,2.0,9.72890654206276,fixation,-1,1,0,18289855.0,18290291.0,436.0
123,choice,choice,24,3.0,Solid,2.0,9.72890654206276,Animal_Land_Pattern_Large,4,0,0,18290299.0,18290560.0,261.0
123,choice,choice,24,3.0,Solid,2.0,9.72890654206276,fixation,-1,1,0,18290778.0,18291069.0,291.0
123,choice,choice,24,3.0,Solid,2.0,9.72890654206276,Animal_Land_Pattern_Large,4,0,0,18291095.0,18291527.0,432.0
123,choice,choice,24,3.0,Solid,2.0,9.72890654206276,Object_Sea_Solid_Small,0,0,1,18291759.0,18292113.0,354.0
123,choice,choice,24,3.0,Solid,2.0,9.72890654206276,fixation,-1,1,0,18292388.0,18292637.0,249.0
123,choice,choice,24,3.0,Solid,2.0,9.72890654206276,Animal_Land_Solid_Small,2,0,1,18292650.0,18292828.0,178.0
123,choice,choice,24,3.0,Solid,2.0,9.72890654206276,fixation,-1,1,0,18292843.0,18293459.0,616.0
123,choice,choice,25,4.0,Sea,2.0,23.368734083138406,Object_Land_Solid_Small,0,0,0,18582810.0,18583195.0,385.0
123,choice,choice,25,4.0,Sea,2.0,23.368734083138406,fixation,-1,1,0,18583448.0,18584057.0,609.0
123,choice,choice,25,4.0,Sea,2.0,23.368734083138406,Animal_Sea_Pattern_Large,1,0,1,18584655.0,18584894.0,239.0
123,choice,choice,25,4.0,Sea,2.0,23.368734083138406,fixation,-1,1,0,18585140.0,18585574.0,434.0
123,choice,choice,25,4.0,Sea,2.0,23.368734083138406,Animal_Land_Solid_Small,2,0,0,18585869.0,18586065.0,196.0
123,choice,choice,25,4.0,Sea,2.0,23.368734083138406,fixation,-1,1,0,18586072.0,18586226.0,154.0
123,choice,choice,25,4.0,Sea,2.0,23.368734083138406,Animal_Land_Solid_Small,2,0,0,18586510.0,18586854.0,344.0
123,choice,choice,25,4.0,Sea,2.0,23.368734083138406,Object_Land_Pattern_Large,3,0,0,18586867.0,18587084.0,217.0
123,choice,choice,25,4.0,Sea,2.0,23.368734083138406,fixation,-1,1,0,18587101.0,18589063.0,1962.0
123,choice,choice,25,4.0,Sea,2.0,23.368734083138406,Animal_Land_Solid_Small,2,0,0,18589626.0,18589880.0,254.0
123,choice,choice,25,4.0,Sea,2.0,23.368734083138406,fixation,-1,1,0,18589892.0,18590306.0,414.0
123,choice,choice,25,4.0,Sea,2.0,23.368734083138406,Object_Sea_Pattern_Large,4,0,1,18590511.0,18590974.0,463.0
123,choice,choice,25,4.0,Sea,2.0,23.368734083138406,fixation,-1,1,0,18591197.0,18591416.0,219.0
123,choice,choice,25,4.0,Sea,2.0,23.368734083138406,Object_Sea_Pattern_Large,4,0,1,18591623.0,18591706.0,83.0
123,choice,choice,25,4.0,Sea,2.0,23.368734083138406,fixation,-1,1,0,18591720.0,18592499.0,779.0
123,choice,choice,25,4.0,Sea,2.0,23.368734083138406,Object_Sea_Pattern_Large,4,0,1,18592986.0,18593042.0,56.0
123,choice,choice,25,4.0,Sea,2.0,23.368734083138406,fixation,-1,1,0,18593057.0,18593529.0,472.0
123,choice,choice,25,4.0,Sea,2.0,23.368734083138406,Object_Sea_Pattern_Large,4,0,1,18593751.0,18593848.0,97.0
123,choice,choice,25,4.0,Sea,2.0,23.368734083138406,fixation,-1,1,0,18593862.0,18594710.0,848.0
123,choice,choice,25,4.0,Sea,2.0,23.368734083138406,Object_Sea_Pattern_Large,4,0,1,18594742.0,18594821.0,79.0
123,choice,choice,25,4.0,Sea,2.0,23.368734083138406,fixation,-1,1,0,18595032.0,18595864.0,832.0
123,choice,choice,25,4.0,Sea,2.0,23.368734083138406,Object_Sea_Pattern_Large,4,0,1,18596358.0,18596417.0,59.0
123,choice,choice,25,4.0,Sea,2.0,23.368734083138406,fixation,-1,1,0,18596433.0,18596963.0,530.0
123,choice,choice,25,4.0,Sea,2.0,23.368734083138406,Object_Sea_Pattern_Large,4,0,1,18597215.0,18597383.0,168.0
123,choice,choice,25,4.0,Sea,2.0,23.368734083138406,fixation,-1,1,0,18597415.0,18597792.0,377.0
123,choice,choice,25,4.0,Sea,2.0,23.368734083138406,Animal_Sea_Solid_Small,5,0,1,18598017.0,18598131.0,114.0
123,choice,choice,25,4.0,Sea,2.0,23.368734083138406,fixation,-1,1,0,18598144.0,18598698.0,554.0
123,choice,choice,25,4.0,Sea,2.0,23.368734083138406,Animal_Land_Solid_Small,2,0,0,18598981.0,18599055.0,74.0
123,choice,choice,25,4.0,Sea,2.0,23.368734083138406,fixation,-1,1,0,18599064.0,18599605.0,541.0
123,choice,choice,25,4.0,Sea,2.0,23.368734083138406,Object_Land_Solid_Small,0,0,0,18599639.0,18599981.0,342.0
123,choice,choice,25,4.0,Sea,2.0,23.368734083138406,Object_Land_Pattern_Large,3,0,0,18600212.0,18600469.0,257.0
123,choice,choice,25,4.0,Sea,2.0,23.368734083138406,fixation,-1,1,0,18600481.0,18600869.0,388.0
123,choice,choice,25,4.0,Sea,2.0,23.368734083138406,Object_Land_Pattern_Large,3,0,0,18600891.0,18601090.0,199.0
123,choice,choice,25,4.0,Sea,2.0,23.368734083138406,fixation,-1,1,0,18601104.0,18601679.0,575.0
123,choice,choice,25,4.0,Sea,2.0,23.368734083138406,Object_Land_Pattern_Large,3,0,0,18601942.0,18602112.0,170.0
123,choice,choice,25,4.0,Sea,2.0,23.368734083138406,Object_Land_Solid_Small,0,0,0,18602137.0,18602861.0,724.0
123,choice,choice,25,4.0,Sea,2.0,23.368734083138406,fixation,-1,1,0,18602905.0,18603073.0,168.0
123,choice,choice,25,4.0,Sea,2.0,23.368734083138406,Animal_Land_Solid_Small,2,0,0,18603110.0,18603657.0,547.0
123,choice,choice,25,4.0,Sea,2.0,23.368734083138406,fixation,-1,1,0,18604337.0,18605249.0,912.0
123,choice,choice,25,4.0,Sea,2.0,23.368734083138406,Animal_Sea_Pattern_Large,1,0,1,18605481.0,18605564.0,83.0
123,choice,choice,25,4.0,Sea,2.0,23.368734083138406,fixation,-1,1,0,18605573.0,18605984.0,411.0
123,choice,choice,26,4.0,Land,1.0,13.750884958077222,fixation,-1,1,0,18609708.0,18610397.0,689.0
123,choice,choice,26,4.0,Land,1.0,13.750884958077222,Object_Land_Solid_Small,0,0,1,18610599.0,18610941.0,342.0
123,choice,choice,26,4.0,Land,1.0,13.750884958077222,fixation,-1,1,0,18611169.0,18612226.0,1057.0
123,choice,choice,26,4.0,Land,1.0,13.750884958077222,Object_Sea_Pattern_Large,4,0,0,18612429.0,18612594.0,165.0
123,choice,choice,26,4.0,Land,1.0,13.750884958077222,fixation,-1,1,0,18612610.0,18613066.0,456.0
123,choice,choice,26,4.0,Land,1.0,13.750884958077222,Animal_Land_Solid_Small,2,0,1,18613301.0,18613488.0,187.0
123,choice,choice,26,4.0,Land,1.0,13.750884958077222,fixation,-1,1,0,18613499.0,18613945.0,446.0
123,choice,choice,26,4.0,Land,1.0,13.750884958077222,Animal_Land_Solid_Small,2,0,1,18614205.0,18614515.0,310.0
123,choice,choice,26,4.0,Land,1.0,13.750884958077222,fixation,-1,1,0,18614540.0,18615177.0,637.0
123,choice,choice,26,4.0,Land,1.0,13.750884958077222,Animal_Land_Solid_Small,2,0,1,18615191.0,18615542.0,351.0
123,choice,choice,26,4.0,Land,1.0,13.750884958077222,fixation,-1,1,0,18615548.0,18617263.0,1715.0
123,choice,choice,26,4.0,Land,1.0,13.750884958077222,Object_Land_Pattern_Large,3,0,1,18617475.0,18617832.0,357.0
123,choice,choice,26,4.0,Land,1.0,13.750884958077222,Animal_Land_Solid_Small,2,0,1,18618067.0,18618311.0,244.0
123,choice,choice,26,4.0,Land,1.0,13.750884958077222,fixation,-1,1,0,18618341.0,18618833.0,492.0
123,choice,choice,26,4.0,Land,1.0,13.750884958077222,Object_Land_Solid_Small,0,0,1,18618869.0,18619296.0,427.0
123,choice,choice,26,4.0,Land,1.0,13.750884958077222,fixation,-1,1,0,18619474.0,18619877.0,403.0
123,choice,choice,26,4.0,Land,1.0,13.750884958077222,Object_Land_Solid_Small,0,0,1,18619899.0,18620389.0,490.0
123,choice,choice,26,4.0,Land,1.0,13.750884958077222,Animal_Sea_Pattern_Large,1,0,0,18620440.0,18620712.0,272.0
123,choice,choice,26,4.0,Land,1.0,13.750884958077222,Object_Land_Solid_Small,0,0,1,18620720.0,18621026.0,306.0
123,choice,choice,26,4.0,Land,1.0,13.750884958077222,Object_Sea_Pattern_Large,4,0,0,18621066.0,18621454.0,388.0
123,choice,choice,26,4.0,Land,1.0,13.750884958077222,fixation,-1,1,0,18621520.0,18621651.0,131.0
123,choice,choice,26,4.0,Land,1.0,13.750884958077222,Object_Land_Pattern_Large,3,0,1,18621861.0,18622155.0,294.0
123,choice,choice,26,4.0,Land,1.0,13.750884958077222,fixation,-1,1,0,18622165.0,18622579.0,414.0
123,choice,choice,26,4.0,Land,1.0,13.750884958077222,Object_Land_Pattern_Large,3,0,1,18622589.0,18622744.0,155.0
123,choice,choice,26,4.0,Land,1.0,13.750884958077222,fixation,-1,1,0,18622928.0,18623188.0,260.0
123,choice,choice,26,4.0,Land,1.0,13.750884958077222,Animal_Land_Solid_Small,2,0,1,18623211.0,18623291.0,80.0
123,choice,choice,27,4.0,Pattern,1.0,12.650485333055258,Animal_Sea_Pattern_Large,1,0,1,18626303.0,18626482.0,179.0
123,choice,choice,27,4.0,Pattern,1.0,12.650485333055258,fixation,-1,1,0,18626680.0,18626920.0,240.0
123,choice,choice,27,4.0,Pattern,1.0,12.650485333055258,Animal_Sea_Pattern_Large,1,0,1,18627146.0,18627270.0,124.0
123,choice,choice,27,4.0,Pattern,1.0,12.650485333055258,fixation,-1,1,0,18627278.0,18627609.0,331.0
123,choice,choice,27,4.0,Pattern,1.0,12.650485333055258,Object_Land_Solid_Small,0,0,0,18627624.0,18628647.0,1023.0
123,choice,choice,27,4.0,Pattern,1.0,12.650485333055258,Object_Sea_Pattern_Large,4,0,1,18628890.0,18629886.0,996.0
123,choice,choice,27,4.0,Pattern,1.0,12.650485333055258,fixation,-1,1,0,18629950.0,18630224.0,274.0
123,choice,choice,27,4.0,Pattern,1.0,12.650485333055258,Animal_Sea_Pattern_Large,1,0,1,18630244.0,18630528.0,284.0
123,choice,choice,27,4.0,Pattern,1.0,12.650485333055258,fixation,-1,1,0,18630537.0,18631620.0,1083.0
123,choice,choice,27,4.0,Pattern,1.0,12.650485333055258,Animal_Land_Solid_Small,2,0,0,18632006.0,18632478.0,472.0
123,choice,choice,27,4.0,Pattern,1.0,12.650485333055258,fixation,-1,1,0,18632708.0,18633878.0,1170.0
123,choice,choice,27,4.0,Pattern,1.0,12.650485333055258,Object_Land_Pattern_Large,3,0,1,18633894.0,18634213.0,319.0
123,choice,choice,27,4.0,Pattern,1.0,12.650485333055258,fixation,-1,1,0,18634226.0,18634715.0,489.0
123,choice,choice,27,4.0,Pattern,1.0,12.650485333055258,Object_Land_Pattern_Large,3,0,1,18634962.0,18635157.0,195.0
123,choice,choice,27,4.0,Pattern,1.0,12.650485333055258,fixation,-1,1,0,18635173.0,18638039.0,2866.0
123,choice,choice,27,4.0,Pattern,1.0,12.650485333055258,Animal_Land_Solid_Small,2,0,0,18638059.0,18638499.0,440.0
123,choice,choice,28,4.0,Object,2.0,11.569143375148997,Object_Land_Solid_Small,0,0,1,18641664.0,18642205.0,541.0
123,choice,choice,28,4.0,Object,2.0,11.569143375148997,fixation,-1,1,0,18642421.0,18642691.0,270.0
123,choice,choice,28,4.0,Object,2.0,11.569143375148997,Object_Land_Solid_Small,0,0,1,18642714.0,18642974.0,260.0
123,choice,choice,28,4.0,Object,2.0,11.569143375148997,fixation,-1,1,0,18642987.0,18643274.0,287.0
123,choice,choice,28,4.0,Object,2.0,11.569143375148997,Object_Sea_Pattern_Large,4,0,1,18643479.0,18643555.0,76.0
123,choice,choice,28,4.0,Object,2.0,11.569143375148997,fixation,-1,1,0,18643572.0,18643829.0,257.0
123,choice,choice,28,4.0,Object,2.0,11.569143375148997,Object_Sea_Pattern_Large,4,0,1,18643846.0,18644154.0,308.0
123,choice,choice,28,4.0,Object,2.0,11.569143375148997,fixation,-1,1,0,18644166.0,18644492.0,326.0
123,choice,choice,28,4.0,Object,2.0,11.569143375148997,Object_Sea_Pattern_Large,4,0,1,18644677.0,18644833.0,156.0
123,choice,choice,28,4.0,Object,2.0,11.569143375148997,fixation,-1,1,0,18644851.0,18644995.0,144.0
123,choice,choice,28,4.0,Object,2.0,11.569143375148997,Object_Land_Pattern_Large,3,0,1,18645262.0,18645429.0,167.0
123,choice,choice,28,4.0,Object,2.0,11.569143375148997,fixation,-1,1,0,18645444.0,18646015.0,571.0
123,choice,choice,28,4.0,Object,2.0,11.569143375148997,Object_Land_Pattern_Large,3,0,1,18646217.0,18646485.0,268.0
123,choice,choice,28,4.0,Object,2.0,11.569143375148997,fixation,-1,1,0,18646496.0,18646685.0,189.0
123,choice,choice,28,4.0,Object,2.0,11.569143375148997,Object_Sea_Pattern_Large,4,0,1,18646887.0,18647035.0,148.0
123,choice,choice,28,4.0,Object,2.0,11.569143375148997,fixation,-1,1,0,18647048.0,18648080.0,1032.0
123,choice,choice,28,4.0,Object,2.0,11.569143375148997,Object_Land_Solid_Small,0,0,1,18648312.0,18648343.0,31.0
123,choice,choice,28,4.0,Object,2.0,11.569143375148997,Object_Sea_Pattern_Large,4,0,1,18648356.0,18648517.0,161.0
123,choice,choice,28,4.0,Object,2.0,11.569143375148997,fixation,-1,1,0,18648536.0,18649913.0,1377.0
123,choice,choice,28,4.0,Object,2.0,11.569143375148997,Animal_Sea_Solid_Small,5,0,0,18650193.0,18650290.0,97.0
123,choice,choice,28,4.0,Object,2.0,11.569143375148997,fixation,-1,1,0,18650308.0,18650905.0,597.0
123,choice,choice,28,4.0,Object,2.0,11.569143375148997,Animal_Land_Solid_Small,2,0,0,18651090.0,18651442.0,352.0
123,choice,choice,28,4.0,Object,2.0,11.569143375148997,fixation,-1,1,0,18651461.0,18652544.0,1083.0
123,choice,choice,28,4.0,Object,2.0,11.569143375148997,Animal_Land_Solid_Small,2,0,0,18652580.0,18653070.0,490.0
123,choice,choice,28,4.0,Object,2.0,11.569143375148997,fixation,-1,1,0,18653097.0,18653124.0,27.0
123,choice,choice,29,4.0,Solid,1.0,6.104094041045755,Object_Land_Solid_Small,0,0,1,18656724.0,18657794.0,1070.0
123,choice,choice,29,4.0,Solid,1.0,6.104094041045755,Object_Sea_Pattern_Large,4,0,0,18657869.0,18658337.0,468.0
123,choice,choice,29,4.0,Solid,1.0,6.104094041045755,Object_Land_Pattern_Large,3,0,0,18658392.0,18658596.0,204.0
123,choice,choice,29,4.0,Solid,1.0,6.104094041045755,fixation,-1,1,0,18658609.0,18659346.0,737.0
123,choice,choice,29,4.0,Solid,1.0,6.104094041045755,Animal_Sea_Solid_Small,5,0,1,18659356.0,18659806.0,450.0
123,choice,choice,29,4.0,Solid,1.0,6.104094041045755,fixation,-1,1,0,18660026.0,18660552.0,526.0
123,choice,choice,29,4.0,Solid,1.0,6.104094041045755,Animal_Land_Solid_Small,2,0,1,18660579.0,18661477.0,898.0
123,choice,choice,29,4.0,Solid,1.0,6.104094041045755,Animal_Sea_Pattern_Large,1,0,0,18661507.0,18662170.0,663.0
123,choice,choice,29,4.0,Solid,1.0,6.104094041045755,Animal_Land_Solid_Small,2,0,1,18662591.0,18662772.0,181.0
123,choice,choice,30,4.0,Animal,1.0,6.313363959081471,Animal_Sea_Pattern_Large,1,0,1,18665862.0,18666318.0,456.0
123,choice,choice,30,4.0,Animal,1.0,6.313363959081471,Object_Sea_Pattern_Large,4,0,0,18666538.0,18666662.0,124.0
123,choice,choice,30,4.0,Animal,1.0,6.313363959081471,fixation,-1,1,0,18666679.0,18666960.0,281.0
123,choice,choice,30,4.0,Animal,1.0,6.313363959081471,Object_Sea_Pattern_Large,4,0,0,18667149.0,18667290.0,141.0
123,choice,choice,30,4.0,Animal,1.0,6.313363959081471,Object_Land_Solid_Small,0,0,0,18667304.0,18667644.0,340.0
123,choice,choice,30,4.0,Animal,1.0,6.313363959081471,Object_Sea_Pattern_Large,4,0,0,18667864.0,18668438.0,574.0
123,choice,choice,30,4.0,Animal,1.0,6.313363959081471,Object_Land_Pattern_Large,3,0,0,18668899.0,18668960.0,61.0
123,choice,choice,30,4.0,Animal,1.0,6.313363959081471,fixation,-1,1,0,18668975.0,18669838.0,863.0
123,choice,choice,30,4.0,Animal,1.0,6.313363959081471,Animal_Land_Solid_Small,2,0,1,18669859.0,18670905.0,1046.0
123,choice,choice,30,4.0,Animal,1.0,6.313363959081471,fixation,-1,1,0,18670974.0,18671371.0,397.0
123,choice,choice,30,4.0,Animal,1.0,6.313363959081471,Animal_Sea_Solid_Small,5,0,1,18671646.0,18671813.0,167.0
123,choice,choice,30,4.0,Animal,1.0,6.313363959081471,Animal_Land_Solid_Small,2,0,1,18671837.0,18672149.0,312.0
123,choice,choice,31,4.0,Small,1.0,6.069152166834101,fixation,-1,1,0,18675015.0,18675209.0,194.0
123,choice,choice,31,4.0,Small,1.0,6.069152166834101,Animal_Land_Solid_Small,2,0,1,18675218.0,18675365.0,147.0
123,choice,choice,31,4.0,Small,1.0,6.069152166834101,Animal_Sea_Pattern_Large,1,0,0,18675591.0,18675816.0,225.0
123,choice,choice,31,4.0,Small,1.0,6.069152166834101,Animal_Land_Solid_Small,2,0,1,18675826.0,18676213.0,387.0
123,choice,choice,31,4.0,Small,1.0,6.069152166834101,fixation,-1,1,0,18676244.0,18676490.0,246.0
123,choice,choice,31,4.0,Small,1.0,6.069152166834101,Object_Land_Solid_Small,0,0,1,18676671.0,18676821.0,150.0
123,choice,choice,31,4.0,Small,1.0,6.069152166834101,fixation,-1,1,0,18676838.0,18677227.0,389.0
123,choice,choice,31,4.0,Small,1.0,6.069152166834101,Object_Land_Pattern_Large,3,0,0,18677249.0,18677413.0,164.0
123,choice,choice,31,4.0,Small,1.0,6.069152166834101,fixation,-1,1,0,18677427.0,18677722.0,295.0
123,choice,choice,31,4.0,Small,1.0,6.069152166834101,Object_Sea_Pattern_Large,4,0,0,18677737.0,18677875.0,138.0
123,choice,choice,31,4.0,Small,1.0,6.069152166834101,fixation,-1,1,0,18677890.0,18678068.0,178.0
123,choice,choice,31,4.0,Small,1.0,6.069152166834101,Object_Sea_Pattern_Large,4,0,0,18678271.0,18678447.0,176.0
123,choice,choice,31,4.0,Small,1.0,6.069152166834101,Object_Land_Solid_Small,0,0,1,18678463.0,18679896.0,1433.0
123,choice,choice,31,4.0,Small,1.0,6.069152166834101,Object_Sea_Pattern_Large,4,0,0,18680192.0,18680372.0,180.0
123,choice,choice,31,4.0,Small,1.0,6.069152166834101,Object_Land_Solid_Small,0,0,1,18680392.0,18680615.0,223.0
123,choice,choice,31,4.0,Small,1.0,6.069152166834101,fixation,-1,1,0,18680629.0,18681020.0,391.0
123,choice,choice,32,4.0,Large,1.0,7.088504125131294,Animal_Sea_Pattern_Large,1,0,1,18684797.0,18685203.0,406.0
123,choice,choice,32,4.0,Large,1.0,7.088504125131294,fixation,-1,1,0,18685236.0,18685974.0,738.0
123,choice,choice,32,4.0,Large,1.0,7.088504125131294,Object_Land_Solid_Small,0,0,0,18686383.0,18686577.0,194.0
123,choice,choice,32,4.0,Large,1.0,7.088504125131294,Object_Sea_Pattern_Large,4,0,1,18686591.0,18687207.0,616.0
123,choice,choice,32,4.0,Large,1.0,7.088504125131294,Object_Land_Solid_Small,0,0,0,18687254.0,18687562.0,308.0
123,choice,choice,32,4.0,Large,1.0,7.088504125131294,Object_Sea_Pattern_Large,4,0,1,18687740.0,18687984.0,244.0
123,choice,choice,32,4.0,Large,1.0,7.088504125131294,fixation,-1,1,0,18687996.0,18688167.0,171.0
123,choice,choice,32,4.0,Large,1.0,7.088504125131294,Object_Land_Pattern_Large,3,0,1,18688406.0,18688785.0,379.0
123,choice,choice,32,4.0,Large,1.0,7.088504125131294,fixation,-1,1,0,18688799.0,18689642.0,843.0
123,choice,choice,32,4.0,Large,1.0,7.088504125131294,Animal_Land_Solid_Small,2,0,0,18689681.0,18690061.0,380.0
123,choice,choice,32,4.0,Large,1.0,7.088504125131294,fixation,-1,1,0,18690088.0,18690870.0,782.0
123,choice,choice,32,4.0,Large,1.0,7.088504125131294,Animal_Land_Solid_Small,2,0,0,18691075.0,18691401.0,326.0
123,choice,choice,33,5.0,Pattern,2.0,14.129086249973623,Animal_Sea_Solid_Large,0,0,0,18979879.0,18980296.0,417.0
123,choice,choice,33,5.0,Pattern,2.0,14.129086249973623,Animal_Land_Solid_Large,1,0,0,18982210.0,18982549.0,339.0
123,choice,choice,33,5.0,Pattern,2.0,14.129086249973623,Object_Land_Pattern_Small,2,0,1,18982757.0,18983311.0,554.0
123,choice,choice,33,5.0,Pattern,2.0,14.129086249973623,fixation,-1,1,0,18983562.0,18983861.0,299.0
123,choice,choice,33,5.0,Pattern,2.0,14.129086249973623,Animal_Land_Solid_Large,1,0,0,18984040.0,18984233.0,193.0
123,choice,choice,33,5.0,Pattern,2.0,14.129086249973623,fixation,-1,1,0,18984246.0,18984816.0,570.0
123,choice,choice,33,5.0,Pattern,2.0,14.129086249973623,Object_Land_Pattern_Small,2,0,1,18984998.0,18985129.0,131.0
123,choice,choice,33,5.0,Pattern,2.0,14.129086249973623,fixation,-1,1,0,18985141.0,18986485.0,1344.0
123,choice,choice,33,5.0,Pattern,2.0,14.129086249973623,Animal_Land_Pattern_Small,3,0,1,18986690.0,18986922.0,232.0
123,choice,choice,33,5.0,Pattern,2.0,14.129086249973623,Object_Sea_Pattern_Small,4,0,1,18987098.0,18987291.0,193.0
123,choice,choice,33,5.0,Pattern,2.0,14.129086249973623,fixation,-1,1,0,18987303.0,18988551.0,1248.0
123,choice,choice,33,5.0,Pattern,2.0,14.129086249973623,Object_Sea_Pattern_Small,4,0,1,18989236.0,18989416.0,180.0
123,choice,choice,33,5.0,Pattern,2.0,14.129086249973623,fixation,-1,1,0,18989428.0,18989760.0,332.0
123,choice,choice,33,5.0,Pattern,2.0,14.129086249973623,Object_Sea_Pattern_Small,4,0,1,18990001.0,18990185.0,184.0
123,choice,choice,33,5.0,Pattern,2.0,14.129086249973623,fixation,-1,1,0,18990198.0,18990623.0,425.0
123,choice,choice,33,5.0,Pattern,2.0,14.129086249973623,Object_Sea_Solid_Large,5,0,0,18990829.0,18991234.0,405.0
123,choice,choice,33,5.0,Pattern,2.0,14.129086249973623,fixation,-1,1,0,18991530.0,18992903.0,1373.0
123,choice,choice,33,5.0,Pattern,2.0,14.129086249973623,Object_Sea_Pattern_Small,4,0,1,18993377.0,18993532.0,155.0
123,choice,choice,34,5.0,Small,1.0,17.026475749909878,fixation,-1,1,0,18997250.0,18997950.0,700.0
123,choice,choice,34,5.0,Small,1.0,17.026475749909878,Animal_Land_Pattern_Small,3,0,1,18998167.0,18998407.0,240.0
123,choice,choice,34,5.0,Small,1.0,17.026475749909878,Animal_Sea_Solid_Large,0,0,0,18998615.0,18998728.0,113.0
123,choice,choice,34,5.0,Small,1.0,17.026475749909878,Animal_Land_Pattern_Small,3,0,1,18998902.0,18999107.0,205.0
123,choice,choice,34,5.0,Small,1.0,17.026475749909878,Animal_Sea_Solid_Large,0,0,0,18999126.0,18999357.0,231.0
123,choice,choice,34,5.0,Small,1.0,17.026475749909878,fixation,-1,1,0,18999387.0,18999542.0,155.0
123,choice,choice,34,5.0,Small,1.0,17.026475749909878,Object_Sea_Pattern_Small,4,0,1,18999731.0,19000498.0,767.0
123,choice,choice,34,5.0,Small,1.0,17.026475749909878,fixation,-1,1,0,19001405.0,19002574.0,1169.0
123,choice,choice,34,5.0,Small,1.0,17.026475749909878,Animal_Sea_Solid_Large,0,0,0,19002931.0,19003827.0,896.0
123,choice,choice,34,5.0,Small,1.0,17.026475749909878,Animal_Land_Solid_Large,1,0,0,19004252.0,19004530.0,278.0
123,choice,choice,34,5.0,Small,1.0,17.026475749909878,fixation,-1,1,0,19004543.0,19005197.0,654.0
123,choice,choice,34,5.0,Small,1.0,17.026475749909878,Animal_Land_Solid_Large,1,0,0,19005435.0,19005629.0,194.0
123,choice,choice,34,5.0,Small,1.0,17.026475749909878,fixation,-1,1,0,19005642.0,19005893.0,251.0
123,choice,choice,34,5.0,Small,1.0,17.026475749909878,Animal_Sea_Solid_Large,0,0,0,19006081.0,19006238.0,157.0
123,choice,choice,34,5.0,Small,1.0,17.026475749909878,Animal_Land_Solid_Large,1,0,0,19006269.0,19006618.0,349.0
123,choice,choice,34,5.0,Small,1.0,17.026475749909878,fixation,-1,1,0,19006628.0,19007620.0,992.0
123,choice,choice,34,5.0,Small,1.0,17.026475749909878,Object_Sea_Solid_Large,5,0,0,19008056.0,19008270.0,214.0
123,choice,choice,34,5.0,Small,1.0,17.026475749909878,fixation,-1,1,0,19008280.0,19009044.0,764.0
123,choice,choice,34,5.0,Small,1.0,17.026475749909878,Object_Sea_Solid_Large,5,0,0,19010285.0,19010614.0,329.0
123,choice,choice,34,5.0,Small,1.0,17.026475749909878,fixation,-1,1,0,19010817.0,19011574.0,757.0
123,choice,choice,34,5.0,Small,1.0,17.026475749909878,Object_Land_Pattern_Small,2,0,1,19011599.0,19011760.0,161.0
123,choice,choice,34,5.0,Small,1.0,17.026475749909878,fixation,-1,1,0,19012061.0,19012934.0,873.0
123,choice,choice,34,5.0,Small,1.0,17.026475749909878,Animal_Land_Pattern_Small,3,0,1,19012957.0,19013174.0,217.0
123,choice,choice,34,5.0,Small,1.0,17.026475749909878,fixation,-1,1,0,19013194.0,19013614.0,420.0
123,choice,choice,35,5.0,Solid,1.0,10.396418625023216,Animal_Land_Pattern_Small,3,0,0,19017886.0,19018019.0,133.0
123,choice,choice,35,5.0,Solid,1.0,10.396418625023216,fixation,-1,1,0,19018044.0,19018577.0,533.0
123,choice,choice,35,5.0,Solid,1.0,10.396418625023216,Object_Sea_Pattern_Small,4,0,0,19018768.0,19019383.0,615.0
123,choice,choice,35,5.0,Solid,1.0,10.396418625023216,fixation,-1,1,0,19019391.0,19019829.0,438.0
123,choice,choice,35,5.0,Solid,1.0,10.396418625023216,Object_Sea_Pattern_Small,4,0,0,19020032.0,19021120.0,1088.0
123,choice,choice,35,5.0,Solid,1.0,10.396418625023216,Animal_Land_Pattern_Small,3,0,0,19021737.0,19021939.0,202.0
123,choice,choice,35,5.0,Solid,1.0,10.396418625023216,Animal_Sea_Solid_Large,0,0,1,19021954.0,19022145.0,191.0
123,choice,choice,35,5.0,Solid,1.0,10.396418625023216,Animal_Land_Pattern_Small,3,0,0,19022164.0,19022377.0,213.0
123,choice,choice,35,5.0,Solid,1.0,10.396418625023216,Animal_Sea_Solid_Large,0,0,1,19022394.0,19022759.0,365.0
123,choice,choice,35,5.0,Solid,1.0,10.396418625023216,Animal_Land_Solid_Large,1,0,1,19022796.0,19022881.0,85.0
123,choice,choice,35,5.0,Solid,1.0,10.396418625023216,Animal_Sea_Solid_Large,0,0,1,19022902.0,19023217.0,315.0
123,choice,choice,35,5.0,Solid,1.0,10.396418625023216,fixation,-1,1,0,19023235.0,19023492.0,257.0
123,choice,choice,35,5.0,Solid,1.0,10.396418625023216,Animal_Sea_Solid_Large,0,0,1,19023513.0,19023718.0,205.0
123,choice,choice,35,5.0,Solid,1.0,10.396418625023216,fixation,-1,1,0,19023870.0,19024220.0,350.0
123,choice,choice,35,5.0,Solid,1.0,10.396418625023216,Animal_Sea_Solid_Large,0,0,1,19024436.0,19025035.0,599.0
123,choice,choice,35,5.0,Solid,1.0,10.396418625023216,Animal_Land_Solid_Large,1,0,1,19025047.0,19025239.0,192.0
123,choice,choice,35,5.0,Solid,1.0,10.396418625023216,fixation,-1,1,0,19025253.0,19025763.0,510.0
123,choice,choice,35,5.0,Solid,1.0,10.396418625023216,Object_Land_Pattern_Small,2,0,0,19026176.0,19026507.0,331.0
123,choice,choice,35,5.0,Solid,1.0,10.396418625023216,fixation,-1,1,0,19026519.0,19026814.0,295.0
123,choice,choice,36,5.0,Land,2.0,4.477957875002176,Animal_Land_Solid_Large,1,0,1,19030525.0,19030749.0,224.0
123,choice,choice,36,5.0,Land,2.0,4.477957875002176,fixation,-1,1,0,19030784.0,19031030.0,246.0
123,choice,choice,36,5.0,Land,2.0,4.477957875002176,Object_Sea_Pattern_Small,4,0,0,19031262.0,19031349.0,87.0
123,choice,choice,36,5.0,Land,2.0,4.477957875002176,fixation,-1,1,0,19031362.0,19031694.0,332.0
123,choice,choice,36,5.0,Land,2.0,4.477957875002176,Object_Land_Pattern_Small,2,0,1,19031925.0,19032425.0,500.0
123,choice,choice,36,5.0,Land,2.0,4.477957875002176,fixation,-1,1,0,19032455.0,19032770.0,315.0
123,choice,choice,36,5.0,Land,2.0,4.477957875002176,Animal_Land_Pattern_Small,3,0,1,19032782.0,19032956.0,174.0
123,choice,choice,36,5.0,Land,2.0,4.477957875002176,fixation,-1,1,0,19032966.0,19033156.0,190.0
123,choice,choice,36,5.0,Land,2.0,4.477957875002176,Animal_Land_Pattern_Small,3,0,1,19033373.0,19033504.0,131.0
123,choice,choice,36,5.0,Land,2.0,4.477957875002176,fixation,-1,1,0,19033517.0,19034550.0,1033.0
123,choice,choice,36,5.0,Land,2.0,4.477957875002176,Object_Sea_Pattern_Small,4,0,0,19034586.0,19034764.0,178.0
123,choice,choice,36,5.0,Land,2.0,4.477957875002176,fixation,-1,1,0,19034778.0,19034845.0,67.0
123,choice,choice,37,5.0,Animal,1.0,6.257346959086135,fixation,-1,1,0,19038647.0,19039059.0,412.0
123,choice,choice,37,5.0,Animal,1.0,6.257346959086135,Animal_Land_Pattern_Small,3,0,1,19039079.0,19039420.0,341.0
123,choice,choice,37,5.0,Animal,1.0,6.257346959086135,Animal_Sea_Solid_Large,0,0,1,19039596.0,19040180.0,584.0
123,choice,choice,37,5.0,Animal,1.0,6.257346959086135,Animal_Land_Pattern_Small,3,0,1,19040539.0,19040684.0,145.0
123,choice,choice,37,5.0,Animal,1.0,6.257346959086135,fixation,-1,1,0,19040704.0,19041193.0,489.0
123,choice,choice,37,5.0,Animal,1.0,6.257346959086135,Animal_Land_Pattern_Small,3,0,1,19041376.0,19041527.0,151.0
123,choice,choice,37,5.0,Animal,1.0,6.257346959086135,fixation,-1,1,0,19041540.0,19043812.0,2272.0
123,choice,choice,37,5.0,Animal,1.0,6.257346959086135,Animal_Land_Pattern_Small,3,0,1,19044111.0,19044404.0,293.0
123,choice,choice,38,5.0,Object,2.0,6.542368207825348,Animal_Sea_Solid_Large,0,0,0,19047116.0,19047327.0,211.0
123,choice,choice,38,5.0,Object,2.0,6.542368207825348,Animal_Land_Pattern_Small,3,0,0,19047512.0,19047719.0,207.0
123,choice,choice,38,5.0,Object,2.0,6.542368207825348,Object_Sea_Pattern_Small,4,0,1,19047739.0,19047995.0,256.0
123,choice,choice,38,5.0,Object,2.0,6.542368207825348,Animal_Sea_Solid_Large,0,0,0,19048020.0,19049071.0,1051.0
123,choice,choice,38,5.0,Object,2.0,6.542368207825348,Animal_Land_Solid_Large,1,0,0,19049285.0,19049425.0,140.0
123,choice,choice,38,5.0,Object,2.0,6.542368207825348,Object_Land_Pattern_Small,2,0,1,19049460.0,19049714.0,254.0
123,choice,choice,38,5.0,Object,2.0,6.542368207825348,fixation,-1,1,0,19049727.0,19050048.0,321.0
123,choice,choice,38,5.0,Object,2.0,6.542368207825348,Object_Sea_Solid_Large,5,0,1,19050289.0,19050388.0,99.0
123,choice,choice,38,5.0,Object,2.0,6.542368207825348,fixation,-1,1,0,19050402.0,19051440.0,1038.0
123,choice,choice,38,5.0,Object,2.0,6.542368207825348,Object_Sea_Pattern_Small,4,0,1,19051463.0,19051800.0,337.0
123,choice,choice,38,5.0,Object,2.0,6.542368207825348,Animal_Land_Pattern_Small,3,0,0,19052008.0,19052154.0,146.0
123,choice,choice,38,5.0,Object,2.0,6.542368207825348,fixation,-1,1,0,19052165.0,19052740.0,575.0
123,choice,choice,38,5.0,Object,2.0,6.542368207825348,Animal_Land_Pattern_Small,3,0,0,19052768.0,19053097.0,329.0
123,choice,choice,38,5.0,Object,2.0,6.542368207825348,fixation,-1,1,0,19053119.0,19053490.0,371.0
123,choice,choice,39,5.0,Sea,1.0,4.416044584009796,Animal_Land_Pattern_Small,3,0,0,19056763.0,19056875.0,112.0
123,choice,choice,39,5.0,Sea,1.0,4.416044584009796,Animal_Sea_Solid_Large,0,0,1,19056900.0,19057581.0,681.0
123,choice,choice,39,5.0,Sea,1.0,4.416044584009796,Animal_Land_Solid_Large,1,0,0,19057902.0,19058076.0,174.0
123,choice,choice,39,5.0,Sea,1.0,4.416044584009796,fixation,-1,1,0,19058089.0,19059304.0,1215.0
123,choice,choice,39,5.0,Sea,1.0,4.416044584009796,Animal_Land_Pattern_Small,3,0,0,19059568.0,19060493.0,925.0
123,choice,choice,39,5.0,Sea,1.0,4.416044584009796,Animal_Sea_Solid_Large,0,0,1,19060732.0,19060916.0,184.0
123,choice,choice,39,5.0,Sea,1.0,4.416044584009796,Animal_Land_Pattern_Small,3,0,0,19060934.0,19060972.0,38.0
123,choice,choice,40,5.0,Large,2.0,8.392031749943271,Animal_Sea_Solid_Large,0,0,1,19064367.0,19065350.0,983.0
123,choice,choice,40,5.0,Large,2.0,8.392031749943271,fixation,-1,1,0,19065388.0,19065712.0,324.0
123,choice,choice,40,5.0,Large,2.0,8.392031749943271,Animal_Land_Solid_Large,1,0,1,19065908.0,19065996.0,88.0
123,choice,choice,40,5.0,Large,2.0,8.392031749943271,fixation,-1,1,0,19066010.0,19066358.0,348.0
123,choice,choice,40,5.0,Large,2.0,8.392031749943271,Animal_Land_Solid_Large,1,0,1,19066371.0,19066578.0,207.0
123,choice,choice,40,5.0,Large,2.0,8.392031749943271,fixation,-1,1,0,19066591.0,19067795.0,1204.0
123,choice,choice,40,5.0,Large,2.0,8.392031749943271,Animal_Land_Pattern_Small,3,0,0,19068232.0,19068709.0,477.0
123,choice,choice,40,5.0,Large,2.0,8.392031749943271,Object_Sea_Pattern_Small,4,0,0,19068739.0,19069149.0,410.0
123,choice,choice,40,5.0,Large,2.0,8.392031749943271,Animal_Land_Pattern_Small,3,0,0,19069165.0,19069287.0,122.0
123,choice,choice,40,5.0,Large,2.0,8.392031749943271,fixation,-1,1,0,19069299.0,19069731.0,432.0
123,choice,choice,40,5.0,Large,2.0,8.392031749943271,Object_Sea_Pattern_Small,4,0,0,19069933.0,19070047.0,114.0
123,choice,choice,40,5.0,Large,2.0,8.392031749943271,fixation,-1,1,0,19070063.0,19070514.0,451.0
123,choice,choice,40,5.0,Large,2.0,8.392031749943271,Animal_Land_Pattern_Small,3,0,0,19070751.0,19071270.0,519.0
123,choice,choice,40,5.0,Large,2.0,8.392031749943271,Object_Sea_Pattern_Small,4,0,0,19071307.0,19071544.0,237.0
123,choice,choice,40,5.0,Large,2.0,8.392031749943271,fixation,-1,1,0,19071557.0,19072007.0,450.0
123,choice,choice,40,5.0,Large,2.0,8.392031749943271,Object_Sea_Pattern_Small,4,0,0,19072020.0,19072168.0,148.0
123,choice,choice,41,6.0,Pattern,2.0,7.784880542196333,Animal_Land_Pattern_Small,0,0,1,19383154.0,19383532.0,378.0
123,choice,choice,41,6.0,Pattern,2.0,7.784880542196333,Animal_Sea_Solid_Large,1,0,0,19383693.0,19384479.0,786.0
123,choice,choice,41,6.0,Pattern,2.0,7.784880542196333,Object_Sea_Pattern_Large,2,0,1,19384521.0,19384943.0,422.0
123,choice,choice,41,6.0,Pattern,2.0,7.784880542196333,fixation,-1,1,0,19385156.0,19386486.0,1330.0
123,choice,choice,41,6.0,Pattern,2.0,7.784880542196333,Object_Land_Pattern_Small,3,0,1,19386729.0,19387071.0,342.0
123,choice,choice,41,6.0,Pattern,2.0,7.784880542196333,fixation,-1,1,0,19387086.0,19387262.0,176.0
123,choice,choice,41,6.0,Pattern,2.0,7.784880542196333,Animal_Land_Solid_Small,4,0,0,19387485.0,19387610.0,125.0
123,choice,choice,41,6.0,Pattern,2.0,7.784880542196333,fixation,-1,1,0,19387617.0,19387677.0,60.0
123,choice,choice,41,6.0,Pattern,2.0,7.784880542196333,Animal_Land_Pattern_Small,0,0,1,19387958.0,19388144.0,186.0
123,choice,choice,41,6.0,Pattern,2.0,7.784880542196333,fixation,-1,1,0,19388159.0,19388459.0,300.0
123,choice,choice,41,6.0,Pattern,2.0,7.784880542196333,Object_Sea_Solid_Large,5,0,0,19388706.0,19388827.0,121.0
123,choice,choice,41,6.0,Pattern,2.0,7.784880542196333,fixation,-1,1,0,19388838.0,19389266.0,428.0
123,choice,choice,41,6.0,Pattern,2.0,7.784880542196333,Animal_Land_Solid_Small,4,0,0,19389279.0,19389700.0,421.0
123,choice,choice,41,6.0,Pattern,2.0,7.784880542196333,fixation,-1,1,0,19389948.0,19390780.0,832.0
123,choice,choice,42,6.0,Object,1.0,8.912348916986957,Animal_Land_Pattern_Small,0,0,0,19393506.0,19393788.0,282.0
123,choice,choice,42,6.0,Object,1.0,8.912348916986957,Object_Sea_Pattern_Large,2,0,1,19393986.0,19394806.0,820.0
123,choice,choice,42,6.0,Object,1.0,8.912348916986957,fixation,-1,1,0,19394849.0,19395523.0,674.0
123,choice,choice,42,6.0,Object,1.0,8.912348916986957,Object_Sea_Pattern_Large,2,0,1,19395753.0,19395990.0,237.0
123,choice,choice,42,6.0,Object,1.0,8.912348916986957,fixation,-1,1,0,19396002.0,19396582.0,580.0
123,choice,choice,42,6.0,Object,1.0,8.912348916986957,Object_Sea_Solid_Large,5,0,1,19396800.0,19397027.0,227.0
123,choice,choice,42,6.0,Object,1.0,8.912348916986957,fixation,-1,1,0,19397036.0,19397340.0,304.0
123,choice,choice,42,6.0,Object,1.0,8.912348916986957,Object_Sea_Solid_Large,5,0,1,19397556.0,19397808.0,252.0
123,choice,choice,42,6.0,Object,1.0,8.912348916986957,fixation,-1,1,0,19397819.0,19398254.0,435.0
123,choice,choice,42,6.0,Object,1.0,8.912348916986957,Animal_Land_Solid_Small,4,0,0,19398280.0,19398821.0,541.0
123,choice,choice,42,6.0,Object,1.0,8.912348916986957,fixation,-1,1,0,19399098.0,19399656.0,558.0
123,choice,choice,42,6.0,Object,1.0,8.912348916986957,Animal_Land_Solid_Small,4,0,0,19399673.0,19400839.0,1166.0
123,choice,choice,42,6.0,Object,1.0,8.912348916986957,fixation,-1,1,0,19401495.0,19401707.0,212.0
123,choice,choice,42,6.0,Object,1.0,8.912348916986957,Object_Sea_Solid_Large,5,0,1,19401990.0,19402190.0,200.0
123,choice,choice,42,6.0,Object,1.0,8.912348916986957,Animal_Land_Solid_Small,4,0,0,19402207.0,19402268.0,61.0
123,choice,choice,43,6.0,Solid,1.0,9.715371249942107,Animal_Sea_Solid_Large,1,0,1,19405854.0,19406138.0,284.0
123,choice,choice,43,6.0,Solid,1.0,9.715371249942107,fixation,-1,1,0,19406355.0,19407220.0,865.0
123,choice,choice,43,6.0,Solid,1.0,9.715371249942107,Object_Land_Pattern_Small,3,0,0,19407746.0,19407832.0,86.0
123,choice,choice,43,6.0,Solid,1.0,9.715371249942107,fixation,-1,1,0,19407844.0,19408627.0,783.0
123,choice,choice,43,6.0,Solid,1.0,9.715371249942107,Animal_Land_Solid_Small,4,0,1,19409090.0,19409943.0,853.0
123,choice,choice,43,6.0,Solid,1.0,9.715371249942107,fixation,-1,1,0,19410183.0,19410548.0,365.0
123,choice,choice,43,6.0,Solid,1.0,9.715371249942107,Animal_Land_Solid_Small,4,0,1,19410560.0,19410707.0,147.0
123,choice,choice,43,6.0,Solid,1.0,9.715371249942107,fixation,-1,1,0,19410716.0,19411317.0,601.0
123,choice,choice,43,6.0,Solid,1.0,9.715371249942107,Animal_Land_Pattern_Small,0,0,0,19411329.0,19411521.0,192.0
123,choice,choice,43,6.0,Solid,1.0,9.715371249942107,fixation,-1,1,0,19411699.0,19412184.0,485.0
123,choice,choice,43,6.0,Solid,1.0,9.715371249942107,Animal_Sea_Solid_Large,1,0,1,19412227.0,19413052.0,825.0
123,choice,choice,43,6.0,Solid,1.0,9.715371249942107,Animal_Land_Pattern_Small,0,0,0,19414495.0,19415355.0,860.0
123,choice,choice,44,6.0,Land,2.0,8.319504375103861,Animal_Sea_Solid_Large,1,0,0,19418623.0,19418827.0,204.0
123,choice,choice,44,6.0,Land,2.0,8.319504375103861,Animal_Land_Pattern_Small,0,0,1,19418845.0,19419592.0,747.0
123,choice,choice,44,6.0,Land,2.0,8.319504375103861,Animal_Land_Solid_Small,4,0,1,19420038.0,19420309.0,271.0
123,choice,choice,44,6.0,Land,2.0,8.319504375103861,Object_Sea_Pattern_Large,2,0,0,19420365.0,19420611.0,246.0
123,choice,choice,44,6.0,Land,2.0,8.319504375103861,fixation,-1,1,0,19420834.0,19421208.0,374.0
123,choice,choice,44,6.0,Land,2.0,8.319504375103861,Object_Sea_Pattern_Large,2,0,0,19421497.0,19422051.0,554.0
123,choice,choice,44,6.0,Land,2.0,8.319504375103861,fixation,-1,1,0,19422076.0,19422431.0,355.0
123,choice,choice,44,6.0,Land,2.0,8.319504375103861,Object_Land_Pattern_Small,3,0,1,19422668.0,19423145.0,477.0
123,choice,choice,44,6.0,Land,2.0,8.319504375103861,fixation,-1,1,0,19423170.0,19424512.0,1342.0
123,choice,choice,44,6.0,Land,2.0,8.319504375103861,Animal_Land_Solid_Small,4,0,1,19425235.0,19425525.0,290.0
123,choice,choice,44,6.0,Land,2.0,8.319504375103861,fixation,-1,1,0,19425548.0,19426280.0,732.0
123,choice,choice,44,6.0,Land,2.0,8.319504375103861,Object_Sea_Solid_Large,5,0,0,19426302.0,19426562.0,260.0
123,choice,choice,44,6.0,Land,2.0,8.319504375103861,Animal_Land_Solid_Small,4,0,1,19426582.0,19426916.0,334.0
123,choice,choice,45,6.0,Sea,2.0,9.366123208077624,fixation,-1,1,0,19430524.0,19430625.0,101.0
123,choice,choice,45,6.0,Sea,2.0,9.366123208077624,Animal_Land_Pattern_Small,0,0,0,19430854.0,19431215.0,361.0
123,choice,choice,45,6.0,Sea,2.0,9.366123208077624,fixation,-1,1,0,19431253.0,19432664.0,1411.0
123,choice,choice,45,6.0,Sea,2.0,9.366123208077624,Animal_Sea_Solid_Large,1,0,1,19433366.0,19434217.0,851.0
123,choice,choice,45,6.0,Sea,2.0,9.366123208077624,Object_Sea_Pattern_Large,2,0,1,19434757.0,19434919.0,162.0
123,choice,choice,45,6.0,Sea,2.0,9.366123208077624,fixation,-1,1,0,19434932.0,19435381.0,449.0
123,choice,choice,45,6.0,Sea,2.0,9.366123208077624,Object_Land_Pattern_Small,3,0,0,19435394.0,19435643.0,249.0
123,choice,choice,45,6.0,Sea,2.0,9.366123208077624,fixation,-1,1,0,19435655.0,19436596.0,941.0
123,choice,choice,45,6.0,Sea,2.0,9.366123208077624,Animal_Sea_Solid_Large,1,0,1,19436628.0,19436737.0,109.0
123,choice,choice,45,6.0,Sea,2.0,9.366123208077624,Animal_Land_Pattern_Small,0,0,0,19436967.0,19437102.0,135.0
123,choice,choice,45,6.0,Sea,2.0,9.366123208077624,Animal_Sea_Solid_Large,1,0,1,19437118.0,19437370.0,252.0
123,choice,choice,45,6.0,Sea,2.0,9.366123208077624,fixation,-1,1,0,19437384.0,19437757.0,373.0
123,choice,choice,45,6.0,Sea,2.0,9.366123208077624,Animal_Land_Solid_Small,4,0,0,19438032.0,19438510.0,478.0
123,choice,choice,45,6.0,Sea,2.0,9.366123208077624,fixation,-1,1,0,19438524.0,19438630.0,106.0
123,choice,choice,45,6.0,Sea,2.0,9.366123208077624,Animal_Land_Solid_Small,4,0,0,19438921.0,19439126.0,205.0
123,choice,choice,45,6.0,Sea,2.0,9.366123208077624,fixation,-1,1,0,19439136.0,19439586.0,450.0
123,choice,choice,46,6.0,Animal,2.0,5.585863874992356,Animal_Sea_Solid_Large,1,0,1,19442995.0,19443404.0,409.0
123,choice,choice,46,6.0,Animal,2.0,5.585863874992356,Animal_Land_Pattern_Small,0,0,1,19443664.0,19443947.0,283.0
123,choice,choice,46,6.0,Animal,2.0,5.585863874992356,Animal_Sea_Solid_Large,1,0,1,19443973.0,19444159.0,186.0
123,choice,choice,46,6.0,Animal,2.0,5.585863874992356,Object_Sea_Pattern_Large,2,0,0,19444174.0,19444923.0,749.0
123,choice,choice,46,6.0,Animal,2.0,5.585863874992356,fixation,-1,1,0,19445333.0,19445625.0,292.0
123,choice,choice,46,6.0,Animal,2.0,5.585863874992356,Object_Sea_Pattern_Large,2,0,0,19445646.0,19446299.0,653.0
123,choice,choice,46,6.0,Animal,2.0,5.585863874992356,Object_Sea_Solid_Large,5,0,0,19446357.0,19446502.0,145.0
123,choice,choice,46,6.0,Animal,2.0,5.585863874992356,fixation,-1,1,0,19446518.0,19447498.0,980.0
123,choice,choice,46,6.0,Animal,2.0,5.585863874992356,Animal_Land_Pattern_Small,0,0,1,19447761.0,19447888.0,127.0
123,choice,choice,46,6.0,Animal,2.0,5.585863874992356,fixation,-1,1,0,19447912.0,19448086.0,174.0
123,choice,choice,46,6.0,Animal,2.0,5.585863874992356,Animal_Land_Solid_Small,4,0,1,19448120.0,19448402.0,282.0
123,choice,choice,47,6.0,Small,1.0,5.654553625034168,Animal_Sea_Solid_Large,1,0,0,19452239.0,19452747.0,508.0
123,choice,choice,47,6.0,Small,1.0,5.654553625034168,Object_Sea_Pattern_Large,2,0,0,19452923.0,19453670.0,747.0
123,choice,choice,47,6.0,Small,1.0,5.654553625034168,Object_Land_Pattern_Small,3,0,1,19453730.0,19453947.0,217.0
123,choice,choice,47,6.0,Small,1.0,5.654553625034168,fixation,-1,1,0,19453960.0,19455216.0,1256.0
123,choice,choice,47,6.0,Small,1.0,5.654553625034168,Animal_Land_Solid_Small,4,0,1,19455502.0,19455817.0,315.0
123,choice,choice,47,6.0,Small,1.0,5.654553625034168,Animal_Land_Pattern_Small,0,0,1,19455827.0,19455978.0,151.0
123,choice,choice,47,6.0,Small,1.0,5.654553625034168,fixation,-1,1,0,19455991.0,19456360.0,369.0
123,choice,choice,47,6.0,Small,1.0,5.654553625034168,Animal_Land_Pattern_Small,0,0,1,19456383.0,19456897.0,514.0
123,choice,choice,47,6.0,Small,1.0,5.654553625034168,fixation,-1,1,0,19456923.0,19457595.0,672.0
123,choice,choice,47,6.0,Small,1.0,5.654553625034168,Animal_Land_Pattern_Small,0,0,1,19457618.0,19457686.0,68.0
123,choice,choice,48,6.0,Large,2.0,6.761225667083636,Animal_Land_Pattern_Small,0,0,0,19460492.0,19460971.0,479.0
123,choice,choice,48,6.0,Large,2.0,6.761225667083636,Animal_Sea_Solid_Large,1,0,1,19461183.0,19461704.0,521.0
123,choice,choice,48,6.0,Large,2.0,6.761225667083636,Object_Sea_Pattern_Large,2,0,1,19461930.0,19462548.0,618.0
123,choice,choice,48,6.0,Large,2.0,6.761225667083636,Object_Land_Pattern_Small,3,0,0,19462817.0,19462899.0,82.0
123,choice,choice,48,6.0,Large,2.0,6.761225667083636,fixation,-1,1,0,19462916.0,19464156.0,1240.0
123,choice,choice,48,6.0,Large,2.0,6.761225667083636,Object_Land_Pattern_Small,3,0,0,19464400.0,19464671.0,271.0
123,choice,choice,48,6.0,Large,2.0,6.761225667083636,fixation,-1,1,0,19464692.0,19465211.0,519.0
123,choice,choice,48,6.0,Large,2.0,6.761225667083636,Animal_Sea_Solid_Large,1,0,1,19465452.0,19465858.0,406.0
123,choice,choice,48,6.0,Large,2.0,6.761225667083636,Object_Sea_Pattern_Large,2,0,1,19466218.0,19466425.0,207.0
123,choice,choice,48,6.0,Large,2.0,6.761225667083636,Animal_Land_Solid_Small,4,0,0,19466480.0,19466707.0,227.0
123,choice,choice,48,6.0,Large,2.0,6.761225667083636,Object_Sea_Solid_Large,5,0,1,19466725.0,19467001.0,276.0
123,choice,choice,49,7.0,Solid,2.0,15.696771249873564,Animal_Land_Pattern_Small,0,0,0,19752237.0,19754330.0,2093.0
123,choice,choice,49,7.0,Solid,2.0,15.696771249873564,Animal_Sea_Solid_Large,1,0,1,19755272.0,19755931.0,659.0
123,choice,choice,49,7.0,Solid,2.0,15.696771249873564,fixation,-1,1,0,19756163.0,19757499.0,1336.0
123,choice,choice,49,7.0,Solid,2.0,15.696771249873564,Animal_Land_Solid_Large,2,0,1,19758135.0,19758177.0,42.0
123,choice,choice,49,7.0,Solid,2.0,15.696771249873564,fixation,-1,1,0,19758194.0,19758494.0,300.0
123,choice,choice,49,7.0,Solid,2.0,15.696771249873564,Animal_Sea_Solid_Large,1,0,1,19758517.0,19758914.0,397.0
123,choice,choice,49,7.0,Solid,2.0,15.696771249873564,Animal_Land_Solid_Large,2,0,1,19759298.0,19760194.0,896.0
123,choice,choice,49,7.0,Solid,2.0,15.696771249873564,fixation,-1,1,0,19760407.0,19760795.0,388.0
123,choice,choice,49,7.0,Solid,2.0,15.696771249873564,Object_Land_Pattern_Small,3,0,0,19761028.0,19761103.0,75.0
123,choice,choice,49,7.0,Solid,2.0,15.696771249873564,fixation,-1,1,0,19761118.0,19761918.0,800.0
123,choice,choice,49,7.0,Solid,2.0,15.696771249873564,Object_Land_Pattern_Small,3,0,0,19762188.0,19762564.0,376.0
123,choice,choice,49,7.0,Solid,2.0,15.696771249873564,fixation,-1,1,0,19762594.0,19764270.0,1676.0
123,choice,choice,49,7.0,Solid,2.0,15.696771249873564,Animal_Sea_Solid_Large,1,0,1,19764759.0,19764962.0,203.0
123,choice,choice,49,7.0,Solid,2.0,15.696771249873564,fixation,-1,1,0,19764970.0,19765198.0,228.0
123,choice,choice,49,7.0,Solid,2.0,15.696771249873564,Object_Sea_Pattern_Small,4,0,0,19765402.0,19765541.0,139.0
123,choice,choice,49,7.0,Solid,2.0,15.696771249873564,fixation,-1,1,0,19765554.0,19766803.0,1249.0
123,choice,choice,50,7.0,Pattern,2.0,9.955158083001152,Animal_Land_Pattern_Small,0,0,1,19771621.0,19771811.0,190.0
123,choice,choice,50,7.0,Pattern,2.0,9.955158083001152,Animal_Land_Solid_Large,2,0,0,19771991.0,19772504.0,513.0
123,choice,choice,50,7.0,Pattern,2.0,9.955158083001152,Object_Land_Pattern_Small,3,0,1,19772737.0,19772898.0,161.0
123,choice,choice,50,7.0,Pattern,2.0,9.955158083001152,fixation,-1,1,0,19772910.0,19773403.0,493.0
123,choice,choice,50,7.0,Pattern,2.0,9.955158083001152,Object_Sea_Pattern_Small,4,0,1,19773622.0,19773841.0,219.0
123,choice,choice,50,7.0,Pattern,2.0,9.955158083001152,fixation,-1,1,0,19773854.0,19774514.0,660.0
123,choice,choice,50,7.0,Pattern,2.0,9.955158083001152,Object_Sea_Pattern_Small,4,0,1,19774531.0,19774756.0,225.0
123,choice,choice,50,7.0,Pattern,2.0,9.955158083001152,fixation,-1,1,0,19774996.0,19776716.0,1720.0
123,choice,choice,50,7.0,Pattern,2.0,9.955158083001152,Animal_Land_Solid_Large,2,0,0,19777132.0,19777250.0,118.0
123,choice,choice,50,7.0,Pattern,2.0,9.955158083001152,fixation,-1,1,0,19777377.0,19778358.0,981.0
123,choice,choice,50,7.0,Pattern,2.0,9.955158083001152,Animal_Land_Pattern_Small,0,0,1,19779088.0,19779191.0,103.0
123,choice,choice,50,7.0,Pattern,2.0,9.955158083001152,fixation,-1,1,0,19779208.0,19780526.0,1318.0
123,choice,choice,50,7.0,Pattern,2.0,9.955158083001152,Object_Sea_Pattern_Small,4,0,1,19781144.0,19781173.0,29.0
123,choice,choice,50,7.0,Pattern,2.0,9.955158083001152,fixation,-1,1,0,19781186.0,19781334.0,148.0
123,choice,choice,51,7.0,Object,2.0,5.556648875121027,fixation,-1,1,0,19784400.0,19784738.0,338.0
123,choice,choice,51,7.0,Object,2.0,5.556648875121027,Animal_Sea_Solid_Large,1,0,0,19784762.0,19785175.0,413.0
123,choice,choice,51,7.0,Object,2.0,5.556648875121027,Animal_Land_Solid_Large,2,0,0,19785381.0,19785704.0,323.0
123,choice,choice,51,7.0,Object,2.0,5.556648875121027,fixation,-1,1,0,19785918.0,19786162.0,244.0
123,choice,choice,51,7.0,Object,2.0,5.556648875121027,Object_Land_Pattern_Small,3,0,1,19786397.0,19786611.0,214.0
123,choice,choice,51,7.0,Object,2.0,5.556648875121027,fixation,-1,1,0,19786626.0,19786951.0,325.0
123,choice,choice,51,7.0,Object,2.0,5.556648875121027,Object_Sea_Solid_Large,5,0,1,19787180.0,19787273.0,93.0
123,choice,choice,51,7.0,Object,2.0,5.556648875121027,fixation,-1,1,0,19787285.0,19788085.0,800.0
123,choice,choice,51,7.0,Object,2.0,5.556648875121027,Object_Sea_Pattern_Small,4,0,1,19788322.0,19788499.0,177.0
123,choice,choice,51,7.0,Object,2.0,5.556648875121027,Animal_Land_Pattern_Small,0,0,0,19788514.0,19788884.0,370.0
123,choice,choice,51,7.0,Object,2.0,5.556648875121027,fixation,-1,1,0,19788908.0,19789322.0,414.0
123,choice,choice,51,7.0,Object,2.0,5.556648875121027,Object_Sea_Pattern_Small,4,0,1,19789337.0,19789498.0,161.0
123,choice,choice,51,7.0,Object,2.0,5.556648875121027,fixation,-1,1,0,19789518.0,19789682.0,164.0
123,choice,choice,52,7.0,Small,1.0,8.735018665902317,Animal_Sea_Solid_Large,1,0,0,19793077.0,19793856.0,779.0
123,choice,choice,52,7.0,Small,1.0,8.735018665902317,Animal_Land_Solid_Large,2,0,0,19793889.0,19794699.0,810.0
123,choice,choice,52,7.0,Small,1.0,8.735018665902317,Object_Sea_Solid_Large,5,0,0,19795006.0,19795112.0,106.0
123,choice,choice,52,7.0,Small,1.0,8.735018665902317,fixation,-1,1,0,19795535.0,19795857.0,322.0
123,choice,choice,52,7.0,Small,1.0,8.735018665902317,Object_Sea_Pattern_Small,4,0,1,19795873.0,19796110.0,237.0
123,choice,choice,52,7.0,Small,1.0,8.735018665902317,fixation,-1,1,0,19796123.0,19796425.0,302.0
123,choice,choice,52,7.0,Small,1.0,8.735018665902317,Animal_Land_Pattern_Small,0,0,1,19796439.0,19796722.0,283.0
123,choice,choice,52,7.0,Small,1.0,8.735018665902317,fixation,-1,1,0,19796733.0,19798226.0,1493.0
123,choice,choice,52,7.0,Small,1.0,8.735018665902317,Animal_Sea_Solid_Large,1,0,0,19798900.0,19799947.0,1047.0
123,choice,choice,52,7.0,Small,1.0,8.735018665902317,Animal_Land_Solid_Large,2,0,0,19800386.0,19800603.0,217.0
123,choice,choice,52,7.0,Small,1.0,8.735018665902317,fixation,-1,1,0,19800615.0,19800853.0,238.0
123,choice,choice,52,7.0,Small,1.0,8.735018665902317,Animal_Land_Solid_Large,2,0,0,19800871.0,19801323.0,452.0
123,choice,choice,52,7.0,Small,1.0,8.735018665902317,fixation,-1,1,0,19801352.0,19801485.0,133.0
123,choice,choice,53,7.0,Large,2.0,7.0773467919789255,Animal_Land_Solid_Large,2,0,1,19804996.0,19805614.0,618.0
123,choice,choice,53,7.0,Large,2.0,7.0773467919789255,fixation,-1,1,0,19805830.0,19806069.0,239.0
123,choice,choice,53,7.0,Large,2.0,7.0773467919789255,Object_Sea_Pattern_Small,4,0,0,19806083.0,19806263.0,180.0
123,choice,choice,53,7.0,Large,2.0,7.0773467919789255,fixation,-1,1,0,19806276.0,19807341.0,1065.0
123,choice,choice,53,7.0,Large,2.0,7.0773467919789255,Animal_Land_Solid_Large,2,0,1,19807638.0,19807681.0,43.0
123,choice,choice,53,7.0,Large,2.0,7.0773467919789255,fixation,-1,1,0,19807696.0,19809937.0,2241.0
123,choice,choice,53,7.0,Large,2.0,7.0773467919789255,Animal_Land_Pattern_Small,0,0,0,19810976.0,19811146.0,170.0
123,choice,choice,53,7.0,Large,2.0,7.0773467919789255,Animal_Sea_Solid_Large,1,0,1,19811169.0,19811384.0,215.0
123,choice,choice,53,7.0,Large,2.0,7.0773467919789255,fixation,-1,1,0,19811400.0,19811616.0,216.0
123,choice,choice,54,7.0,Animal,2.0,4.421282749855891,fixation,-1,1,0,19814577.0,19815064.0,487.0
123,choice,choice,54,7.0,Animal,2.0,4.421282749855891,Animal_Land_Solid_Large,2,0,1,19815081.0,19815296.0,215.0
123,choice,choice,54,7.0,Animal,2.0,4.421282749855891,fixation,-1,1,0,19815311.0,19816384.0,1073.0
123,choice,choice,54,7.0,Animal,2.0,4.421282749855891,Object_Land_Pattern_Small,3,0,0,19816914.0,19817425.0,511.0
123,choice,choice,54,7.0,Animal,2.0,4.421282749855891,Object_Sea_Solid_Large,5,0,0,19817465.0,19817660.0,195.0
123,choice,choice,54,7.0,Animal,2.0,4.421282749855891,fixation,-1,1,0,19817875.0,19818578.0,703.0
123,choice,choice,55,7.0,Sea,2.0,6.476491458946839,Animal_Sea_Solid_Large,1,0,1,19821852.0,19822357.0,505.0
123,choice,choice,55,7.0,Sea,2.0,6.476491458946839,fixation,-1,1,0,19822786.0,19823158.0,372.0
123,choice,choice,55,7.0,Sea,2.0,6.476491458946839,Animal_Land_Solid_Large,2,0,0,19823528.0,19823941.0,413.0
123,choice,choice,55,7.0,Sea,2.0,6.476491458946839,fixation,-1,1,0,19823967.0,19824302.0,335.0
