phase,event,trial_number,eyetracker_onset,eyetracker_offset,fix_start,fix_end,fix_duration_full,fix_duration_bounded,fix_x,fix_y,roi_x,roi_y,roi_content,onset,offset,game,image,outcome,choice,correct,rt,letter,match,response,option,true_value,true_position,recalled_position,Unnamed: 18
encoding,fixation,1,17086854,17087866,17087065.0,17087267.0,203.0,203.0,1904.9,1096.4,1920.0,1080.0,fixation,8.498822416877374,9.510207541985435,1.0,Animal_Sea_Pattern_Large,9.0,,,,,,,,,,,
encoding,fixation,1,17086854,17087866,17087454.0,17087572.0,119.0,119.0,1947.3,1049.4,1920.0,1080.0,fixation,8.498822416877374,9.510207541985435,1.0,Animal_Sea_Pattern_Large,9.0,,,,,,,,,,,
encoding,fixation,1,17086854,17087866,17087582.0,17087763.0,182.0,182.0,1914.5,1073.6,1920.0,1080.0,fixation,8.498822416877374,9.510207541985435,1.0,Animal_Sea_Pattern_Large,9.0,,,,,,,,,,,
encoding,fixation,1,17086854,17087866,17087787.0,17087941.0,155.0,79.0,2115.6,1222.6,2249.0,891.0,Object_Sea_Pattern_Large,8.498822416877374,9.510207541985435,1.0,Animal_Sea_Pattern_Large,9.0,,,,,,,,,,,
encoding,image,1,17087866,17088883,17087967.0,17088059.0,93.0,93.0,1939.6,1124.1,1920.0,1080.0,fixation,9.510342207970098,10.527942499844356,1.0,Animal_Sea_Pattern_Large,9.0,,,,,,,,,,,
encoding,image,1,17087866,17088883,17088105.0,17088482.0,378.0,378.0,1606.2,1250.1,1591.0,891.0,Animal_Sea_Pattern_Large,9.510342207970098,10.527942499844356,1.0,Animal_Sea_Pattern_Large,9.0,,,,,,,,,,,
encoding,image,1,17087866,17088883,17088493.0,17088707.0,215.0,215.0,1629.8,1180.4,1591.0,891.0,Animal_Sea_Pattern_Large,9.510342207970098,10.527942499844356,1.0,Animal_Sea_Pattern_Large,9.0,,,,,,,,,,,
encoding,image,1,17087866,17088883,17088716.0,17089101.0,386.0,167.0,1595.2,1177.6,1591.0,891.0,Animal_Sea_Pattern_Large,9.510342207970098,10.527942499844356,1.0,Animal_Sea_Pattern_Large,9.0,,,,,,,,,,,
encoding,value,1,17088883,17094899,17089111.0,17089394.0,284.0,284.0,1600.8,1153.4,1591.0,891.0,Animal_Sea_Pattern_Large,10.528131749946624,16.54370812489651,1.0,Animal_Sea_Pattern_Large,9.0,,,,,,,,,,,
encoding,value,1,17088883,17094899,17089567.0,17089703.0,137.0,137.0,1602.4,1221.8,1591.0,891.0,Animal_Sea_Pattern_Large,10.528131749946624,16.54370812489651,1.0,Animal_Sea_Pattern_Large,9.0,,,,,,,,,,,
encoding,value,1,17088883,17094899,17089720.0,17090041.0,322.0,322.0,1607.1,1152.2,1591.0,891.0,Animal_Sea_Pattern_Large,10.528131749946624,16.54370812489651,1.0,Animal_Sea_Pattern_Large,9.0,,,,,,,,,,,
encoding,value,1,17088883,17094899,17090261.0,17090757.0,497.0,497.0,1611.4,1148.5,1591.0,891.0,Animal_Sea_Pattern_Large,10.528131749946624,16.54370812489651,1.0,Animal_Sea_Pattern_Large,9.0,,,,,,,,,,,
encoding,value,1,17088883,17094899,17090776.0,17090988.0,213.0,213.0,1591.6,1234.2,1591.0,891.0,Animal_Sea_Pattern_Large,10.528131749946624,16.54370812489651,1.0,Animal_Sea_Pattern_Large,9.0,,,,,,,,,,,
encoding,value,1,17088883,17094899,17091183.0,17091260.0,78.0,78.0,1603.9,1183.0,1591.0,891.0,Animal_Sea_Pattern_Large,10.528131749946624,16.54370812489651,1.0,Animal_Sea_Pattern_Large,9.0,,,,,,,,,,,
encoding,value,1,17088883,17094899,17091271.0,17092240.0,970.0,970.0,1612.4,1139.7,1591.0,891.0,Animal_Sea_Pattern_Large,10.528131749946624,16.54370812489651,1.0,Animal_Sea_Pattern_Large,9.0,,,,,,,,,,,
encoding,value,1,17088883,17094899,17092440.0,17092946.0,507.0,507.0,1612.1,1136.2,1591.0,891.0,Animal_Sea_Pattern_Large,10.528131749946624,16.54370812489651,1.0,Animal_Sea_Pattern_Large,9.0,,,,,,,,,,,
encoding,value,1,17088883,17094899,17093195.0,17093487.0,293.0,293.0,1617.3,1126.5,1591.0,891.0,Animal_Sea_Pattern_Large,10.528131749946624,16.54370812489651,1.0,Animal_Sea_Pattern_Large,9.0,,,,,,,,,,,
encoding,value,1,17088883,17094899,17093644.0,17093892.0,249.0,249.0,1594.6,1219.1,1591.0,891.0,Animal_Sea_Pattern_Large,10.528131749946624,16.54370812489651,1.0,Animal_Sea_Pattern_Large,9.0,,,,,,,,,,,
encoding,value,1,17088883,17094899,17094233.0,17094256.0,24.0,24.0,1456.1,1371.5,1591.0,891.0,Animal_Sea_Pattern_Large,10.528131749946624,16.54370812489651,1.0,Animal_Sea_Pattern_Large,9.0,,,,,,,,,,,
encoding,value,1,17088883,17094899,17094276.0,17094603.0,328.0,328.0,1587.8,1143.8,1591.0,891.0,Animal_Sea_Pattern_Large,10.528131749946624,16.54370812489651,1.0,Animal_Sea_Pattern_Large,9.0,,,,,,,,,,,
encoding,value,1,17088883,17094899,17094823.0,17094975.0,153.0,76.0,1586.1,1201.9,1591.0,891.0,Animal_Sea_Pattern_Large,10.528131749946624,16.54370812489651,1.0,Animal_Sea_Pattern_Large,9.0,,,,,,,,,,,
encoding,attention,1,17094899,17097917,17094987.0,17095169.0,183.0,183.0,1592.4,1135.5,1591.0,891.0,Animal_Sea_Pattern_Large,16.54386741691269,19.560981082962822,1.0,Animal_Sea_Pattern_Large,9.0,9.0,1.0,0.9486130001023412,,,,,,,,
encoding,attention,1,17094899,17097917,17095177.0,17095343.0,167.0,167.0,1638.6,1131.7,1591.0,891.0,Animal_Sea_Pattern_Large,16.54386741691269,19.560981082962822,1.0,Animal_Sea_Pattern_Large,9.0,9.0,1.0,0.9486130001023412,,,,,,,,
encoding,attention,1,17094899,17097917,17095357.0,17096279.0,923.0,923.0,1562.6,1130.7,1591.0,891.0,Animal_Sea_Pattern_Large,16.54386741691269,19.560981082962822,1.0,Animal_Sea_Pattern_Large,9.0,9.0,1.0,0.9486130001023412,,,,,,,,
encoding,attention,1,17094899,17097917,17097190.0,17097271.0,82.0,82.0,1624.3,1188.3,1591.0,891.0,Animal_Sea_Pattern_Large,16.54386741691269,19.560981082962822,1.0,Animal_Sea_Pattern_Large,9.0,9.0,1.0,0.9486130001023412,,,,,,,,
encoding,attention,1,17094899,17097917,17097280.0,17097609.0,330.0,330.0,1565.3,1161.7,1591.0,891.0,Animal_Sea_Pattern_Large,16.54386741691269,19.560981082962822,1.0,Animal_Sea_Pattern_Large,9.0,9.0,1.0,0.9486130001023412,,,,,,,,
encoding,attention,1,17094899,17097917,17097628.0,17097901.0,274.0,274.0,1567.2,1272.2,1591.0,891.0,Animal_Sea_Pattern_Large,16.54386741691269,19.560981082962822,1.0,Animal_Sea_Pattern_Large,9.0,9.0,1.0,0.9486130001023412,,,,,,,,
encoding,fixation,2,17097917,17098422,17098111.0,17098278.0,168.0,168.0,1913.0,1084.3,1920.0,1080.0,fixation,19.56114595802501,20.066227667033672,1.0,Object_Land_Pattern_Large,-2.0,,,,,,,,,,,
encoding,image,2,17098422,17099434,17098481.0,17098763.0,283.0,283.0,1900.8,1084.2,1920.0,1080.0,fixation,20.066344207851216,21.078205083031207,1.0,Object_Land_Pattern_Large,-2.0,,,,,,,,,,,
encoding,image,2,17098422,17099434,17098800.0,17099295.0,496.0,496.0,2239.9,898.4000000000001,2249.0,1269.0,Object_Land_Pattern_Large,20.066344207851216,21.078205083031207,1.0,Object_Land_Pattern_Large,-2.0,,,,,,,,,,,
encoding,image,2,17098422,17099434,17099305.0,17099541.0,237.0,129.0,2223.4,863.7,2249.0,1269.0,Object_Land_Pattern_Large,20.066344207851216,21.078205083031207,1.0,Object_Land_Pattern_Large,-2.0,,,,,,,,,,,
encoding,value,2,17099434,17105451,17099548.0,17099611.0,64.0,64.0,2238.1,895.5999999999999,2249.0,1269.0,Object_Land_Pattern_Large,21.07831833302043,27.094450624892488,1.0,Object_Land_Pattern_Large,-2.0,,,,,,,,,,,
encoding,value,2,17099434,17105451,17099624.0,17099767.0,144.0,144.0,2257.1,832.7,2249.0,1269.0,Object_Land_Pattern_Large,21.07831833302043,27.094450624892488,1.0,Object_Land_Pattern_Large,-2.0,,,,,,,,,,,
encoding,value,2,17099434,17105451,17099775.0,17100061.0,287.0,287.0,2257.7,791.2,2249.0,1269.0,Object_Land_Pattern_Large,21.07831833302043,27.094450624892488,1.0,Object_Land_Pattern_Large,-2.0,,,,,,,,,,,
encoding,value,2,17099434,17105451,17100075.0,17100243.0,169.0,169.0,2255.7,865.3,2249.0,1269.0,Object_Land_Pattern_Large,21.07831833302043,27.094450624892488,1.0,Object_Land_Pattern_Large,-2.0,,,,,,,,,,,
encoding,value,2,17099434,17105451,17100440.0,17100460.0,21.0,21.0,1665.6,1535.8,1920.0,700.0,Object_Land_Solid_Small,21.07831833302043,27.094450624892488,1.0,Object_Land_Pattern_Large,-2.0,,,,,,,,,,,
encoding,value,2,17099434,17105451,17100482.0,17100642.0,161.0,161.0,1785.7,1380.2,1920.0,700.0,Object_Land_Solid_Small,21.07831833302043,27.094450624892488,1.0,Object_Land_Pattern_Large,-2.0,,,,,,,,,,,
encoding,value,2,17099434,17105451,17100677.0,17100818.0,142.0,142.0,1868.5,1181.8,1920.0,700.0,Object_Land_Solid_Small,21.07831833302043,27.094450624892488,1.0,Object_Land_Pattern_Large,-2.0,,,,,,,,,,,
encoding,value,2,17099434,17105451,17100843.0,17101245.0,403.0,403.0,1843.2,1426.5,1920.0,700.0,Object_Land_Solid_Small,21.07831833302043,27.094450624892488,1.0,Object_Land_Pattern_Large,-2.0,,,,,,,,,,,
encoding,value,2,17099434,17105451,17101441.0,17101740.0,300.0,300.0,1853.3,1334.5,1920.0,700.0,Object_Land_Solid_Small,21.07831833302043,27.094450624892488,1.0,Object_Land_Pattern_Large,-2.0,,,,,,,,,,,
encoding,value,2,17099434,17105451,17101760.0,17102106.0,347.0,347.0,1784.1,1443.9,1920.0,700.0,Object_Land_Solid_Small,21.07831833302043,27.094450624892488,1.0,Object_Land_Pattern_Large,-2.0,,,,,,,,,,,
encoding,value,2,17099434,17105451,17102124.0,17102169.0,46.0,46.0,1711.1,1519.2,1920.0,700.0,Object_Land_Solid_Small,21.07831833302043,27.094450624892488,1.0,Object_Land_Pattern_Large,-2.0,,,,,,,,,,,
encoding,value,2,17099434,17105451,17102435.0,17102617.0,183.0,183.0,1775.2,1465.5,1920.0,700.0,Object_Land_Solid_Small,21.07831833302043,27.094450624892488,1.0,Object_Land_Pattern_Large,-2.0,,,,,,,,,,,
encoding,value,2,17099434,17105451,17102638.0,17102685.0,48.0,48.0,1645.2,1511.3,1591.0,891.0,Animal_Sea_Pattern_Large,21.07831833302043,27.094450624892488,1.0,Object_Land_Pattern_Large,-2.0,,,,,,,,,,,
encoding,value,2,17099434,17105451,17102693.0,17102896.0,204.0,204.0,1727.7,1391.9,1591.0,891.0,Animal_Sea_Pattern_Large,21.07831833302043,27.094450624892488,1.0,Object_Land_Pattern_Large,-2.0,,,,,,,,,,,
encoding,value,2,17099434,17105451,17103098.0,17103548.0,451.0,451.0,1760.1,1477.0,1920.0,700.0,Object_Land_Solid_Small,21.07831833302043,27.094450624892488,1.0,Object_Land_Pattern_Large,-2.0,,,,,,,,,,,
encoding,value,2,17099434,17105451,17103562.0,17103856.0,295.0,295.0,1702.4,1483.0,1920.0,700.0,Object_Land_Solid_Small,21.07831833302043,27.094450624892488,1.0,Object_Land_Pattern_Large,-2.0,,,,,,,,,,,
encoding,value,2,17099434,17105451,17103863.0,17104801.0,939.0,939.0,1678.1,1477.0,1591.0,891.0,Animal_Sea_Pattern_Large,21.07831833302043,27.094450624892488,1.0,Object_Land_Pattern_Large,-2.0,,,,,,,,,,,
encoding,value,2,17099434,17105451,17104883.0,17105098.0,216.0,216.0,2207.5,817.0,2249.0,1269.0,Object_Land_Pattern_Large,21.07831833302043,27.094450624892488,1.0,Object_Land_Pattern_Large,-2.0,,,,,,,,,,,
encoding,value,2,17099434,17105451,17105109.0,17105384.0,276.0,276.0,2262.5,778.8,2249.0,1269.0,Object_Land_Pattern_Large,21.07831833302043,27.094450624892488,1.0,Object_Land_Pattern_Large,-2.0,,,,,,,,,,,
encoding,attention,2,17105451,17108471,17105619.0,17105642.0,24.0,24.0,2253.0,1179.6,2249.0,891.0,Object_Sea_Pattern_Large,27.09456416685134,30.11441283300519,1.0,Object_Land_Pattern_Large,-2.0,-2.0,1.0,1.0386088339146229,,,,,,,,
encoding,attention,2,17105451,17108471,17105674.0,17105722.0,49.0,49.0,2252.0,975.3,2249.0,1269.0,Object_Land_Pattern_Large,27.09456416685134,30.11441283300519,1.0,Object_Land_Pattern_Large,-2.0,-2.0,1.0,1.0386088339146229,,,,,,,,
encoding,attention,2,17105451,17108471,17105739.0,17105908.0,170.0,170.0,2257.2,860.0999999999999,2249.0,1269.0,Object_Land_Pattern_Large,27.09456416685134,30.11441283300519,1.0,Object_Land_Pattern_Large,-2.0,-2.0,1.0,1.0386088339146229,,,,,,,,
encoding,attention,2,17105451,17108471,17105922.0,17106076.0,155.0,155.0,2294.8,798.7,2249.0,1269.0,Object_Land_Pattern_Large,27.09456416685134,30.11441283300519,1.0,Object_Land_Pattern_Large,-2.0,-2.0,1.0,1.0386088339146229,,,,,,,,
encoding,attention,2,17105451,17108471,17106091.0,17106362.0,272.0,272.0,2213.6,786.7,2249.0,1269.0,Object_Land_Pattern_Large,27.09456416685134,30.11441283300519,1.0,Object_Land_Pattern_Large,-2.0,-2.0,1.0,1.0386088339146229,,,,,,,,
encoding,attention,2,17105451,17108471,17106376.0,17106795.0,420.0,420.0,2236.5,850.0999999999999,2249.0,1269.0,Object_Land_Pattern_Large,27.09456416685134,30.11441283300519,1.0,Object_Land_Pattern_Large,-2.0,-2.0,1.0,1.0386088339146229,,,,,,,,
encoding,attention,2,17105451,17108471,17106806.0,17106895.0,90.0,90.0,2221.1,880.5999999999999,2249.0,1269.0,Object_Land_Pattern_Large,27.09456416685134,30.11441283300519,1.0,Object_Land_Pattern_Large,-2.0,-2.0,1.0,1.0386088339146229,,,,,,,,
encoding,attention,2,17105451,17108471,17107187.0,17107441.0,255.0,255.0,2213.1,874.8,2249.0,1269.0,Object_Land_Pattern_Large,27.09456416685134,30.11441283300519,1.0,Object_Land_Pattern_Large,-2.0,-2.0,1.0,1.0386088339146229,,,,,,,,
encoding,attention,2,17105451,17108471,17107449.0,17107621.0,173.0,173.0,2238.7,888.0,2249.0,1269.0,Object_Land_Pattern_Large,27.09456416685134,30.11441283300519,1.0,Object_Land_Pattern_Large,-2.0,-2.0,1.0,1.0386088339146229,,,,,,,,
encoding,attention,2,17105451,17108471,17107671.0,17107877.0,207.0,207.0,1817.8,1140.3,1591.0,891.0,Animal_Sea_Pattern_Large,27.09456416685134,30.11441283300519,1.0,Object_Land_Pattern_Large,-2.0,-2.0,1.0,1.0386088339146229,,,,,,,,
encoding,fixation,3,17108471,17109477,17108567.0,17108736.0,170.0,170.0,1920.3,1168.9,1920.0,700.0,Object_Land_Solid_Small,30.1145494999364,31.12021075002849,1.0,Object_Land_Solid_Small,6.0,,,,,,,,,,,
encoding,fixation,3,17108471,17109477,17108755.0,17108978.0,224.0,224.0,1893.9,1074.0,1920.0,1080.0,fixation,30.1145494999364,31.12021075002849,1.0,Object_Land_Solid_Small,6.0,,,,,,,,,,,
encoding,fixation,3,17108471,17109477,17109326.0,17109376.0,51.0,51.0,1800.2,1277.7,1591.0,891.0,Animal_Sea_Pattern_Large,30.1145494999364,31.12021075002849,1.0,Object_Land_Solid_Small,6.0,,,,,,,,,,,
encoding,fixation,3,17108471,17109477,17109411.0,17109628.0,218.0,66.0,1898.8,1099.6,1920.0,1080.0,fixation,30.1145494999364,31.12021075002849,1.0,Object_Land_Solid_Small,6.0,,,,,,,,,,,
encoding,image,3,17109477,17110488,17109660.0,17109854.0,195.0,195.0,1903.1,1420.7,1920.0,700.0,Object_Land_Solid_Small,31.120325041934848,32.13146441685967,1.0,Object_Land_Solid_Small,6.0,,,,,,,,,,,
encoding,image,3,17109477,17110488,17109864.0,17110021.0,158.0,158.0,1898.0,1462.4,1920.0,700.0,Object_Land_Solid_Small,31.120325041934848,32.13146441685967,1.0,Object_Land_Solid_Small,6.0,,,,,,,,,,,
encoding,image,3,17109477,17110488,17110410.0,17110536.0,127.0,78.0,1865.3,1397.2,1920.0,700.0,Object_Land_Solid_Small,31.120325041934848,32.13146441685967,1.0,Object_Land_Solid_Small,6.0,,,,,,,,,,,
encoding,value,3,17110488,17116500,17110762.0,17110794.0,33.0,33.0,1898.5,1383.3,1920.0,700.0,Object_Land_Solid_Small,32.131585666909814,38.14360633282922,1.0,Object_Land_Solid_Small,6.0,,,,,,,,,,,
encoding,value,3,17110488,17116500,17110807.0,17111125.0,319.0,319.0,1904.5,1339.2,1920.0,700.0,Object_Land_Solid_Small,32.131585666909814,38.14360633282922,1.0,Object_Land_Solid_Small,6.0,,,,,,,,,,,
encoding,value,3,17110488,17116500,17111281.0,17111310.0,30.0,30.0,1847.9,1476.7,1920.0,700.0,Object_Land_Solid_Small,32.131585666909814,38.14360633282922,1.0,Object_Land_Solid_Small,6.0,,,,,,,,,,,
encoding,value,3,17110488,17116500,17111330.0,17112357.0,1028.0,1028.0,1919.6,1339.6,1920.0,700.0,Object_Land_Solid_Small,32.131585666909814,38.14360633282922,1.0,Object_Land_Solid_Small,6.0,,,,,,,,,,,
encoding,value,3,17110488,17116500,17112376.0,17112543.0,168.0,168.0,1900.6,1424.7,1920.0,700.0,Object_Land_Solid_Small,32.131585666909814,38.14360633282922,1.0,Object_Land_Solid_Small,6.0,,,,,,,,,,,
encoding,value,3,17110488,17116500,17112701.0,17112831.0,131.0,131.0,1907.0,1386.3,1920.0,700.0,Object_Land_Solid_Small,32.131585666909814,38.14360633282922,1.0,Object_Land_Solid_Small,6.0,,,,,,,,,,,
encoding,value,3,17110488,17116500,17112842.0,17113235.0,394.0,394.0,1908.8,1327.4,1920.0,700.0,Object_Land_Solid_Small,32.131585666909814,38.14360633282922,1.0,Object_Land_Solid_Small,6.0,,,,,,,,,,,
encoding,value,3,17110488,17116500,17113251.0,17113527.0,277.0,277.0,1870.3,1379.5,1920.0,700.0,Object_Land_Solid_Small,32.131585666909814,38.14360633282922,1.0,Object_Land_Solid_Small,6.0,,,,,,,,,,,
encoding,value,3,17110488,17116500,17113536.0,17113671.0,136.0,136.0,1930.1,1392.1,1920.0,700.0,Object_Land_Solid_Small,32.131585666909814,38.14360633282922,1.0,Object_Land_Solid_Small,6.0,,,,,,,,,,,
encoding,value,3,17110488,17116500,17113681.0,17114155.0,475.0,475.0,1892.4,1424.2,1920.0,700.0,Object_Land_Solid_Small,32.131585666909814,38.14360633282922,1.0,Object_Land_Solid_Small,6.0,,,,,,,,,,,
encoding,value,3,17110488,17116500,17114175.0,17115017.0,843.0,843.0,1921.1,1325.9,1920.0,700.0,Object_Land_Solid_Small,32.131585666909814,38.14360633282922,1.0,Object_Land_Solid_Small,6.0,,,,,,,,,,,
encoding,value,3,17110488,17116500,17115227.0,17115461.0,235.0,235.0,1916.2,1305.6,1920.0,700.0,Object_Land_Solid_Small,32.131585666909814,38.14360633282922,1.0,Object_Land_Solid_Small,6.0,,,,,,,,,,,
encoding,value,3,17110488,17116500,17115709.0,17116176.0,468.0,468.0,1927.0,1325.7,1920.0,700.0,Object_Land_Solid_Small,32.131585666909814,38.14360633282922,1.0,Object_Land_Solid_Small,6.0,,,,,,,,,,,
encoding,value,3,17110488,17116500,17116365.0,17116694.0,330.0,135.0,1912.6,1329.7,1920.0,700.0,Object_Land_Solid_Small,32.131585666909814,38.14360633282922,1.0,Object_Land_Solid_Small,6.0,,,,,,,,,,,
encoding,attention,3,17116500,17119518,17116702.0,17117014.0,313.0,313.0,1891.4,1347.7,1920.0,700.0,Object_Land_Solid_Small,38.14378579193726,41.16142537491396,1.0,Object_Land_Solid_Small,6.0,6.0,1.0,0.8062106671277434,,,,,,,,
encoding,attention,3,17116500,17119518,17117021.0,17117566.0,546.0,546.0,1867.3,1338.1,1920.0,700.0,Object_Land_Solid_Small,38.14378579193726,41.16142537491396,1.0,Object_Land_Solid_Small,6.0,6.0,1.0,0.8062106671277434,,,,,,,,
encoding,attention,3,17116500,17119518,17118171.0,17118343.0,173.0,173.0,1885.6,1329.7,1920.0,700.0,Object_Land_Solid_Small,38.14378579193726,41.16142537491396,1.0,Object_Land_Solid_Small,6.0,6.0,1.0,0.8062106671277434,,,,,,,,
encoding,attention,3,17116500,17119518,17118647.0,17119005.0,359.0,359.0,1867.0,1352.2,1920.0,700.0,Object_Land_Solid_Small,38.14378579193726,41.16142537491396,1.0,Object_Land_Solid_Small,6.0,6.0,1.0,0.8062106671277434,,,,,,,,
encoding,attention,3,17116500,17119518,17119020.0,17119247.0,228.0,228.0,1951.9,1345.3,1920.0,700.0,Object_Land_Solid_Small,38.14378579193726,41.16142537491396,1.0,Object_Land_Solid_Small,6.0,6.0,1.0,0.8062106671277434,,,,,,,,
encoding,fixation,4,17119518,17120774,17119761.0,17120984.0,1224.0,1013.0,1909.6,1075.1,1920.0,1080.0,fixation,41.16159237502143,42.416855291929096,1.0,Object_Sea_Pattern_Large,-6.0,,,,,,,,,,,
encoding,image,4,17120774,17121785,17121012.0,17121277.0,266.0,266.0,2253.7,1227.5,2249.0,891.0,Object_Sea_Pattern_Large,42.41695766686462,43.42842845781706,1.0,Object_Sea_Pattern_Large,-6.0,,,,,,,,,,,
encoding,image,4,17120774,17121785,17121285.0,17121514.0,230.0,230.0,2214.9,1223.4,2249.0,891.0,Object_Sea_Pattern_Large,42.41695766686462,43.42842845781706,1.0,Object_Sea_Pattern_Large,-6.0,,,,,,,,,,,
encoding,image,4,17120774,17121785,17121718.0,17121949.0,232.0,67.0,2223.0,1226.7,2249.0,891.0,Object_Sea_Pattern_Large,42.41695766686462,43.42842845781706,1.0,Object_Sea_Pattern_Large,-6.0,,,,,,,,,,,
encoding,value,4,17121785,17127798,17121968.0,17122325.0,358.0,358.0,2239.0,1160.4,2249.0,891.0,Object_Sea_Pattern_Large,43.428552666911855,49.440470832865685,1.0,Object_Sea_Pattern_Large,-6.0,,,,,,,,,,,
encoding,value,4,17121785,17127798,17122533.0,17122560.0,28.0,28.0,2188.3,1339.3,2249.0,891.0,Object_Sea_Pattern_Large,43.428552666911855,49.440470832865685,1.0,Object_Sea_Pattern_Large,-6.0,,,,,,,,,,,
encoding,value,4,17121785,17127798,17123580.0,17123611.0,32.0,32.0,2148.5,1189.4,2249.0,891.0,Object_Sea_Pattern_Large,43.428552666911855,49.440470832865685,1.0,Object_Sea_Pattern_Large,-6.0,,,,,,,,,,,
encoding,value,4,17121785,17127798,17123622.0,17123647.0,26.0,26.0,2234.1,1186.5,2249.0,891.0,Object_Sea_Pattern_Large,43.428552666911855,49.440470832865685,1.0,Object_Sea_Pattern_Large,-6.0,,,,,,,,,,,
encoding,value,4,17121785,17127798,17124169.0,17124217.0,49.0,49.0,2251.7,1351.1,2249.0,891.0,Object_Sea_Pattern_Large,43.428552666911855,49.440470832865685,1.0,Object_Sea_Pattern_Large,-6.0,,,,,,,,,,,
encoding,value,4,17121785,17127798,17124546.0,17124775.0,230.0,230.0,2245.4,1166.7,2249.0,891.0,Object_Sea_Pattern_Large,43.428552666911855,49.440470832865685,1.0,Object_Sea_Pattern_Large,-6.0,,,,,,,,,,,
encoding,value,4,17121785,17127798,17125440.0,17125568.0,129.0,129.0,2257.8,1207.9,2249.0,891.0,Object_Sea_Pattern_Large,43.428552666911855,49.440470832865685,1.0,Object_Sea_Pattern_Large,-6.0,,,,,,,,,,,
encoding,value,4,17121785,17127798,17125585.0,17125652.0,68.0,68.0,2217.9,1235.9,2249.0,891.0,Object_Sea_Pattern_Large,43.428552666911855,49.440470832865685,1.0,Object_Sea_Pattern_Large,-6.0,,,,,,,,,,,
encoding,value,4,17121785,17127798,17125665.0,17125840.0,176.0,176.0,2281.5,1242.0,2249.0,891.0,Object_Sea_Pattern_Large,43.428552666911855,49.440470832865685,1.0,Object_Sea_Pattern_Large,-6.0,,,,,,,,,,,
encoding,value,4,17121785,17127798,17126106.0,17126245.0,140.0,140.0,2231.6,1209.3,2249.0,891.0,Object_Sea_Pattern_Large,43.428552666911855,49.440470832865685,1.0,Object_Sea_Pattern_Large,-6.0,,,,,,,,,,,
encoding,value,4,17121785,17127798,17126581.0,17126677.0,97.0,97.0,1921.6,1367.5,1920.0,700.0,Object_Land_Solid_Small,43.428552666911855,49.440470832865685,1.0,Object_Sea_Pattern_Large,-6.0,,,,,,,,,,,
encoding,value,4,17121785,17127798,17126698.0,17127335.0,638.0,638.0,1766.3,1436.2,1920.0,700.0,Object_Land_Solid_Small,43.428552666911855,49.440470832865685,1.0,Object_Sea_Pattern_Large,-6.0,,,,,,,,,,,
encoding,value,4,17121785,17127798,17127372.0,17127463.0,92.0,92.0,2113.6,1246.8,2249.0,891.0,Object_Sea_Pattern_Large,43.428552666911855,49.440470832865685,1.0,Object_Sea_Pattern_Large,-6.0,,,,,,,,,,,
encoding,value,4,17121785,17127798,17127480.0,17127703.0,224.0,224.0,2241.7,1190.5,2249.0,891.0,Object_Sea_Pattern_Large,43.428552666911855,49.440470832865685,1.0,Object_Sea_Pattern_Large,-6.0,,,,,,,,,,,
encoding,attention,4,17127798,17130815,17127879.0,17128202.0,324.0,324.0,2258.7,1142.7,2249.0,891.0,Object_Sea_Pattern_Large,49.4405892919749,52.45771912485361,1.0,Object_Sea_Pattern_Large,-6.0,-6.0,1.0,0.8410745409782976,,,,,,,,
encoding,attention,4,17127798,17130815,17128215.0,17128475.0,261.0,261.0,2220.0,1142.9,2249.0,891.0,Object_Sea_Pattern_Large,49.4405892919749,52.45771912485361,1.0,Object_Sea_Pattern_Large,-6.0,-6.0,1.0,0.8410745409782976,,,,,,,,
encoding,attention,4,17127798,17130815,17128483.0,17129033.0,551.0,551.0,2280.8,1139.1,2249.0,891.0,Object_Sea_Pattern_Large,49.4405892919749,52.45771912485361,1.0,Object_Sea_Pattern_Large,-6.0,-6.0,1.0,0.8410745409782976,,,,,,,,
encoding,attention,4,17127798,17130815,17129301.0,17129433.0,133.0,133.0,2230.6,1202.2,2249.0,891.0,Object_Sea_Pattern_Large,49.4405892919749,52.45771912485361,1.0,Object_Sea_Pattern_Large,-6.0,-6.0,1.0,0.8410745409782976,,,,,,,,
encoding,attention,4,17127798,17130815,17129442.0,17129964.0,523.0,523.0,2197.5,1157.1,2249.0,891.0,Object_Sea_Pattern_Large,49.4405892919749,52.45771912485361,1.0,Object_Sea_Pattern_Large,-6.0,-6.0,1.0,0.8410745409782976,,,,,,,,
encoding,attention,4,17127798,17130815,17130213.0,17130348.0,136.0,136.0,2034.7,1183.4,2249.0,891.0,Object_Sea_Pattern_Large,49.4405892919749,52.45771912485361,1.0,Object_Sea_Pattern_Large,-6.0,-6.0,1.0,0.8410745409782976,,,,,,,,
encoding,attention,4,17127798,17130815,17130364.0,17130495.0,132.0,132.0,1953.2,1127.3,1920.0,1080.0,fixation,49.4405892919749,52.45771912485361,1.0,Object_Sea_Pattern_Large,-6.0,-6.0,1.0,0.8410745409782976,,,,,,,,
encoding,attention,4,17127798,17130815,17130521.0,17130681.0,161.0,161.0,2277.3,1159.4,2249.0,891.0,Object_Sea_Pattern_Large,49.4405892919749,52.45771912485361,1.0,Object_Sea_Pattern_Large,-6.0,-6.0,1.0,0.8410745409782976,,,,,,,,
encoding,fixation,5,17130815,17131570,17131086.0,17131361.0,276.0,276.0,1802.7,1147.3,1591.0,891.0,Animal_Sea_Pattern_Large,52.45787779195234,53.21313479193486,1.0,Animal_Land_Solid_Small,2.0,,,,,,,,,,,
encoding,fixation,5,17130815,17131570,17131376.0,17131582.0,207.0,194.0,1857.3,1202.4,1920.0,700.0,Object_Land_Solid_Small,52.45787779195234,53.21313479193486,1.0,Animal_Land_Solid_Small,2.0,,,,,,,,,,,
encoding,image,5,17131570,17132583,17131599.0,17131764.0,166.0,166.0,1922.1,1086.1,1920.0,1080.0,fixation,53.2132389168255,54.22595754195936,1.0,Animal_Land_Solid_Small,2.0,,,,,,,,,,,
encoding,image,5,17131570,17132583,17131799.0,17132060.0,262.0,262.0,1632.7,909.0,1591.0,1269.0,Animal_Land_Solid_Small,53.2132389168255,54.22595754195936,1.0,Animal_Land_Solid_Small,2.0,,,,,,,,,,,
encoding,value,5,17132583,17138595,17132857.0,17132907.0,51.0,51.0,1606.8,871.2,1591.0,1269.0,Animal_Land_Solid_Small,54.22610054188408,60.23697624984197,1.0,Animal_Land_Solid_Small,2.0,,,,,,,,,,,
encoding,value,5,17132583,17138595,17132918.0,17133219.0,302.0,302.0,1604.6,798.4000000000001,1591.0,1269.0,Animal_Land_Solid_Small,54.22610054188408,60.23697624984197,1.0,Animal_Land_Solid_Small,2.0,,,,,,,,,,,
encoding,value,5,17132583,17138595,17133578.0,17133920.0,343.0,343.0,1614.4,893.5,1591.0,1269.0,Animal_Land_Solid_Small,54.22610054188408,60.23697624984197,1.0,Animal_Land_Solid_Small,2.0,,,,,,,,,,,
encoding,value,5,17132583,17138595,17134229.0,17134409.0,181.0,181.0,1616.2,914.2,1591.0,1269.0,Animal_Land_Solid_Small,54.22610054188408,60.23697624984197,1.0,Animal_Land_Solid_Small,2.0,,,,,,,,,,,
encoding,value,5,17132583,17138595,17134430.0,17134920.0,491.0,491.0,1594.3,777.5999999999999,1591.0,1269.0,Animal_Land_Solid_Small,54.22610054188408,60.23697624984197,1.0,Animal_Land_Solid_Small,2.0,,,,,,,,,,,
encoding,value,5,17132583,17138595,17134931.0,17135050.0,120.0,120.0,1622.3,817.5999999999999,1591.0,1269.0,Animal_Land_Solid_Small,54.22610054188408,60.23697624984197,1.0,Animal_Land_Solid_Small,2.0,,,,,,,,,,,
encoding,value,5,17132583,17138595,17135062.0,17135220.0,159.0,159.0,1598.9,858.0999999999999,1591.0,1269.0,Animal_Land_Solid_Small,54.22610054188408,60.23697624984197,1.0,Animal_Land_Solid_Small,2.0,,,,,,,,,,,
encoding,value,5,17132583,17138595,17135504.0,17135938.0,435.0,435.0,1628.1,918.5,1591.0,1269.0,Animal_Land_Solid_Small,54.22610054188408,60.23697624984197,1.0,Animal_Land_Solid_Small,2.0,,,,,,,,,,,
encoding,value,5,17132583,17138595,17135961.0,17136328.0,368.0,368.0,1620.3,770.9000000000001,1591.0,1269.0,Animal_Land_Solid_Small,54.22610054188408,60.23697624984197,1.0,Animal_Land_Solid_Small,2.0,,,,,,,,,,,
encoding,value,5,17132583,17138595,17136644.0,17136873.0,230.0,230.0,1600.9,828.0999999999999,1591.0,1269.0,Animal_Land_Solid_Small,54.22610054188408,60.23697624984197,1.0,Animal_Land_Solid_Small,2.0,,,,,,,,,,,
encoding,value,5,17132583,17138595,17136885.0,17136931.0,47.0,47.0,1623.2,876.2,1591.0,1269.0,Animal_Land_Solid_Small,54.22610054188408,60.23697624984197,1.0,Animal_Land_Solid_Small,2.0,,,,,,,,,,,
encoding,value,5,17132583,17138595,17137387.0,17137506.0,120.0,120.0,1592.1,823.0,1591.0,1269.0,Animal_Land_Solid_Small,54.22610054188408,60.23697624984197,1.0,Animal_Land_Solid_Small,2.0,,,,,,,,,,,
encoding,value,5,17132583,17138595,17137516.0,17137626.0,111.0,111.0,1613.9,768.5,1591.0,1269.0,Animal_Land_Solid_Small,54.22610054188408,60.23697624984197,1.0,Animal_Land_Solid_Small,2.0,,,,,,,,,,,
encoding,value,5,17132583,17138595,17137951.0,17138345.0,395.0,395.0,1598.8,770.7,1591.0,1269.0,Animal_Land_Solid_Small,54.22610054188408,60.23697624984197,1.0,Animal_Land_Solid_Small,2.0,,,,,,,,,,,
encoding,value,5,17132583,17138595,17138354.0,17138748.0,395.0,241.0,1613.7,779.5,1591.0,1269.0,Animal_Land_Solid_Small,54.22610054188408,60.23697624984197,1.0,Animal_Land_Solid_Small,2.0,,,,,,,,,,,
encoding,attention,5,17138595,17141657,17138767.0,17138826.0,60.0,60.0,1667.9,851.4000000000001,1591.0,1269.0,Animal_Land_Solid_Small,60.23709233291447,63.2996692918241,1.0,Animal_Land_Solid_Small,2.0,2.0,1.0,1.1651345419231802,,,,,,,,
encoding,attention,5,17138595,17141657,17138843.0,17138993.0,151.0,151.0,1596.9,806.0,1591.0,1269.0,Animal_Land_Solid_Small,60.23709233291447,63.2996692918241,1.0,Animal_Land_Solid_Small,2.0,2.0,1.0,1.1651345419231802,,,,,,,,
encoding,attention,5,17138595,17141657,17139003.0,17139392.0,390.0,390.0,1564.0,779.5,1591.0,1269.0,Animal_Land_Solid_Small,60.23709233291447,63.2996692918241,1.0,Animal_Land_Solid_Small,2.0,2.0,1.0,1.1651345419231802,,,,,,,,
encoding,attention,5,17138595,17141657,17139404.0,17140137.0,734.0,734.0,1637.8,777.9000000000001,1591.0,1269.0,Animal_Land_Solid_Small,60.23709233291447,63.2996692918241,1.0,Animal_Land_Solid_Small,2.0,2.0,1.0,1.1651345419231802,,,,,,,,
encoding,attention,5,17138595,17141657,17140152.0,17140430.0,279.0,279.0,1562.5,766.5,1591.0,1269.0,Animal_Land_Solid_Small,60.23709233291447,63.2996692918241,1.0,Animal_Land_Solid_Small,2.0,2.0,1.0,1.1651345419231802,,,,,,,,
encoding,attention,5,17138595,17141657,17140448.0,17140652.0,205.0,205.0,1647.4,823.2,1591.0,1269.0,Animal_Land_Solid_Small,60.23709233291447,63.2996692918241,1.0,Animal_Land_Solid_Small,2.0,2.0,1.0,1.1651345419231802,,,,,,,,
encoding,attention,5,17138595,17141657,17140662.0,17140870.0,209.0,209.0,1705.5,815.0,1591.0,1269.0,Animal_Land_Solid_Small,60.23709233291447,63.2996692918241,1.0,Animal_Land_Solid_Small,2.0,2.0,1.0,1.1651345419231802,,,,,,,,
encoding,fixation,6,17141658,17142662,17141849.0,17142010.0,162.0,162.0,1896.8,1096.8,1920.0,1080.0,fixation,63.299832166871056,64.30450758291408,1.0,Animal_Sea_Solid_Small,-9.0,,,,,,,,,,,
encoding,fixation,6,17141658,17142662,17142227.0,17142865.0,639.0,435.0,1918.5,1082.2,1920.0,1080.0,fixation,63.299832166871056,64.30450758291408,1.0,Animal_Sea_Solid_Small,-9.0,,,,,,,,,,,
encoding,image,6,17142662,17143674,17142909.0,17143161.0,253.0,253.0,1920.1,691.2,1920.0,1460.0,Animal_Sea_Solid_Small,64.304606749909,65.31597070791759,1.0,Animal_Sea_Solid_Small,-9.0,,,,,,,,,,,
encoding,image,6,17142662,17143674,17143593.0,17143820.0,228.0,81.0,1920.2,693.0999999999999,1920.0,1460.0,Animal_Sea_Solid_Small,64.304606749909,65.31597070791759,1.0,Animal_Sea_Solid_Small,-9.0,,,,,,,,,,,
encoding,value,6,17143674,17149686,17143840.0,17144258.0,419.0,419.0,1929.1,588.5,1920.0,1460.0,Animal_Sea_Solid_Small,65.31607866683044,71.32760683284141,1.0,Animal_Sea_Solid_Small,-9.0,,,,,,,,,,,
encoding,value,6,17143674,17149686,17144269.0,17144398.0,130.0,130.0,1921.7,622.4000000000001,1920.0,1460.0,Animal_Sea_Solid_Small,65.31607866683044,71.32760683284141,1.0,Animal_Sea_Solid_Small,-9.0,,,,,,,,,,,
encoding,value,6,17143674,17149686,17144741.0,17144986.0,246.0,246.0,1912.0,700.7,1920.0,1460.0,Animal_Sea_Solid_Small,65.31607866683044,71.32760683284141,1.0,Animal_Sea_Solid_Small,-9.0,,,,,,,,,,,
encoding,value,6,17143674,17149686,17145659.0,17145767.0,109.0,109.0,1818.8,838.8,1920.0,1460.0,Animal_Sea_Solid_Small,65.31607866683044,71.32760683284141,1.0,Animal_Sea_Solid_Small,-9.0,,,,,,,,,,,
encoding,value,6,17143674,17149686,17145781.0,17145979.0,199.0,199.0,1895.4,778.3,1920.0,1460.0,Animal_Sea_Solid_Small,65.31607866683044,71.32760683284141,1.0,Animal_Sea_Solid_Small,-9.0,,,,,,,,,,,
encoding,value,6,17143674,17149686,17145991.0,17146081.0,91.0,91.0,1896.9,725.7,1920.0,1460.0,Animal_Sea_Solid_Small,65.31607866683044,71.32760683284141,1.0,Animal_Sea_Solid_Small,-9.0,,,,,,,,,,,
encoding,value,6,17143674,17149686,17146422.0,17146642.0,221.0,221.0,1910.6,705.2,1920.0,1460.0,Animal_Sea_Solid_Small,65.31607866683044,71.32760683284141,1.0,Animal_Sea_Solid_Small,-9.0,,,,,,,,,,,
encoding,value,6,17143674,17149686,17146987.0,17147073.0,87.0,87.0,1899.0,744.4000000000001,1920.0,1460.0,Animal_Sea_Solid_Small,65.31607866683044,71.32760683284141,1.0,Animal_Sea_Solid_Small,-9.0,,,,,,,,,,,
encoding,value,6,17143674,17149686,17147084.0,17147463.0,380.0,380.0,1948.4,698.5999999999999,1920.0,1460.0,Animal_Sea_Solid_Small,65.31607866683044,71.32760683284141,1.0,Animal_Sea_Solid_Small,-9.0,,,,,,,,,,,
encoding,value,6,17143674,17149686,17147475.0,17148016.0,542.0,542.0,1895.9,706.8,1920.0,1460.0,Animal_Sea_Solid_Small,65.31607866683044,71.32760683284141,1.0,Animal_Sea_Solid_Small,-9.0,,,,,,,,,,,
encoding,value,6,17143674,17149686,17148039.0,17148186.0,148.0,148.0,1897.3,841.7,1920.0,1460.0,Animal_Sea_Solid_Small,65.31607866683044,71.32760683284141,1.0,Animal_Sea_Solid_Small,-9.0,,,,,,,,,,,
encoding,value,6,17143674,17149686,17148230.0,17148389.0,160.0,160.0,1918.4,1095.3,1920.0,1080.0,fixation,65.31607866683044,71.32760683284141,1.0,Animal_Sea_Solid_Small,-9.0,,,,,,,,,,,
encoding,value,6,17143674,17149686,17148432.0,17148644.0,213.0,213.0,1908.2,655.8,1920.0,1460.0,Animal_Sea_Solid_Small,65.31607866683044,71.32760683284141,1.0,Animal_Sea_Solid_Small,-9.0,,,,,,,,,,,
encoding,value,6,17143674,17149686,17148731.0,17148946.0,216.0,216.0,1890.8,1195.2,1920.0,700.0,Object_Land_Solid_Small,65.31607866683044,71.32760683284141,1.0,Animal_Sea_Solid_Small,-9.0,,,,,,,,,,,
encoding,value,6,17143674,17149686,17148965.0,17149044.0,80.0,80.0,1914.6,1093.4,1920.0,1080.0,fixation,65.31607866683044,71.32760683284141,1.0,Animal_Sea_Solid_Small,-9.0,,,,,,,,,,,
encoding,value,6,17143674,17149686,17149059.0,17149264.0,206.0,206.0,1864.7,1062.8,1920.0,1080.0,fixation,65.31607866683044,71.32760683284141,1.0,Animal_Sea_Solid_Small,-9.0,,,,,,,,,,,
encoding,value,6,17143674,17149686,17149586.0,17149644.0,59.0,59.0,1918.5,970.0999999999999,1920.0,1460.0,Animal_Sea_Solid_Small,65.31607866683044,71.32760683284141,1.0,Animal_Sea_Solid_Small,-9.0,,,,,,,,,,,
encoding,value,6,17143674,17149686,17149661.0,17149885.0,225.0,25.0,1932.0,1062.4,1920.0,1080.0,fixation,65.31607866683044,71.32760683284141,1.0,Animal_Sea_Solid_Small,-9.0,,,,,,,,,,,
encoding,attention,6,17149686,17152703,17149939.0,17150046.0,108.0,108.0,1942.5,513.3,1920.0,1460.0,Animal_Sea_Solid_Small,71.32776170782745,74.3450840418227,1.0,Animal_Sea_Solid_Small,-9.0,-9.0,1.0,1.2409221248235554,,,,,,,,
encoding,attention,6,17149686,17152703,17150062.0,17150538.0,477.0,477.0,1936.2,574.5999999999999,1920.0,1460.0,Animal_Sea_Solid_Small,71.32776170782745,74.3450840418227,1.0,Animal_Sea_Solid_Small,-9.0,-9.0,1.0,1.2409221248235554,,,,,,,,
encoding,attention,6,17149686,17152703,17150552.0,17150789.0,238.0,238.0,1910.2,623.3,1920.0,1460.0,Animal_Sea_Solid_Small,71.32776170782745,74.3450840418227,1.0,Animal_Sea_Solid_Small,-9.0,-9.0,1.0,1.2409221248235554,,,,,,,,
encoding,attention,6,17149686,17152703,17150797.0,17150932.0,136.0,136.0,1947.9,607.8,1920.0,1460.0,Animal_Sea_Solid_Small,71.32776170782745,74.3450840418227,1.0,Animal_Sea_Solid_Small,-9.0,-9.0,1.0,1.2409221248235554,,,,,,,,
encoding,attention,6,17149686,17152703,17150939.0,17151223.0,285.0,285.0,1971.1,574.9000000000001,1920.0,1460.0,Animal_Sea_Solid_Small,71.32776170782745,74.3450840418227,1.0,Animal_Sea_Solid_Small,-9.0,-9.0,1.0,1.2409221248235554,,,,,,,,
encoding,attention,6,17149686,17152703,17151245.0,17151522.0,278.0,278.0,1912.0,672.5999999999999,1920.0,1460.0,Animal_Sea_Solid_Small,71.32776170782745,74.3450840418227,1.0,Animal_Sea_Solid_Small,-9.0,-9.0,1.0,1.2409221248235554,,,,,,,,
encoding,attention,6,17149686,17152703,17152174.0,17152217.0,44.0,44.0,1773.1,917.8,1591.0,1269.0,Animal_Land_Solid_Small,71.32776170782745,74.3450840418227,1.0,Animal_Sea_Solid_Small,-9.0,-9.0,1.0,1.2409221248235554,,,,,,,,
encoding,attention,6,17149686,17152703,17152236.0,17152516.0,281.0,281.0,1874.6,1016.4000000000001,1591.0,1269.0,Animal_Land_Solid_Small,71.32776170782745,74.3450840418227,1.0,Animal_Sea_Solid_Small,-9.0,-9.0,1.0,1.2409221248235554,,,,,,,,
encoding,attention,6,17149686,17152703,17152525.0,17152643.0,119.0,119.0,1919.6,1043.1,1920.0,1080.0,fixation,71.32776170782745,74.3450840418227,1.0,Animal_Sea_Solid_Small,-9.0,-9.0,1.0,1.2409221248235554,,,,,,,,
encoding,fixation,7,17588541,17589797,17588563.0,17588734.0,172.0,172.0,1906.1,1002.7,1920.0,1460.0,Object_Land_Solid_Large,13.62606787495315,14.881726208142936,2.0,Object_Land_Solid_Large,-1.0,,,,,,,,,,,
encoding,fixation,7,17588541,17589797,17588750.0,17588836.0,87.0,87.0,1888.9,1072.6,1920.0,1080.0,fixation,13.62606787495315,14.881726208142936,2.0,Object_Land_Solid_Large,-1.0,,,,,,,,,,,
encoding,fixation,7,17588541,17589797,17589038.0,17589948.0,911.0,759.0,1904.7,1104.7,1920.0,1080.0,fixation,13.62606787495315,14.881726208142936,2.0,Object_Land_Solid_Large,-1.0,,,,,,,,,,,
encoding,image,7,17589797,17590808,17589988.0,17590359.0,372.0,372.0,1910.9,723.9000000000001,1920.0,1460.0,Object_Land_Solid_Large,14.881836083019152,15.893143541179596,2.0,Object_Land_Solid_Large,-1.0,,,,,,,,,,,
encoding,image,7,17589797,17590808,17590660.0,17590980.0,321.0,148.0,1897.2,695.2,1920.0,1460.0,Object_Land_Solid_Large,14.881836083019152,15.893143541179596,2.0,Object_Land_Solid_Large,-1.0,,,,,,,,,,,
encoding,value,7,17590808,17596821,17590998.0,17591325.0,328.0,328.0,1923.3,595.3,1920.0,1460.0,Object_Land_Solid_Large,15.893259458011016,21.90605341596529,2.0,Object_Land_Solid_Large,-1.0,,,,,,,,,,,
encoding,value,7,17590808,17596821,17592161.0,17592395.0,235.0,235.0,1906.9,1225.5,1920.0,700.0,Object_Land_Solid_Small,15.893259458011016,21.90605341596529,2.0,Object_Land_Solid_Large,-1.0,,,,,,,,,,,
encoding,value,7,17590808,17596821,17592555.0,17592641.0,87.0,87.0,1607.2,1743.7,,,none,15.893259458011016,21.90605341596529,2.0,Object_Land_Solid_Large,-1.0,,,,,,,,,,,
encoding,value,7,17590808,17596821,17592671.0,17593030.0,360.0,360.0,1759.2,1703.5,,,none,15.893259458011016,21.90605341596529,2.0,Object_Land_Solid_Large,-1.0,,,,,,,,,,,
encoding,value,7,17590808,17596821,17593051.0,17593288.0,238.0,238.0,1876.8,1598.6,1920.0,700.0,Object_Land_Solid_Small,15.893259458011016,21.90605341596529,2.0,Object_Land_Solid_Large,-1.0,,,,,,,,,,,
encoding,value,7,17590808,17596821,17593353.0,17593490.0,138.0,138.0,1926.0,847.9000000000001,1920.0,1460.0,Object_Land_Solid_Large,15.893259458011016,21.90605341596529,2.0,Object_Land_Solid_Large,-1.0,,,,,,,,,,,
encoding,value,7,17590808,17596821,17593512.0,17593829.0,318.0,318.0,1931.0,704.4000000000001,1920.0,1460.0,Object_Land_Solid_Large,15.893259458011016,21.90605341596529,2.0,Object_Land_Solid_Large,-1.0,,,,,,,,,,,
encoding,value,7,17590808,17596821,17594101.0,17594404.0,304.0,304.0,1928.4,696.2,1920.0,1460.0,Object_Land_Solid_Large,15.893259458011016,21.90605341596529,2.0,Object_Land_Solid_Large,-1.0,,,,,,,,,,,
encoding,value,7,17590808,17596821,17594456.0,17594480.0,25.0,25.0,1947.7,1302.2,1920.0,700.0,Object_Land_Solid_Small,15.893259458011016,21.90605341596529,2.0,Object_Land_Solid_Large,-1.0,,,,,,,,,,,
encoding,value,7,17590808,17596821,17594497.0,17594792.0,296.0,296.0,1925.1,1248.6,1920.0,700.0,Object_Land_Solid_Small,15.893259458011016,21.90605341596529,2.0,Object_Land_Solid_Large,-1.0,,,,,,,,,,,
encoding,value,7,17590808,17596821,17594804.0,17594848.0,45.0,45.0,1922.6,1176.8,1920.0,700.0,Object_Land_Solid_Small,15.893259458011016,21.90605341596529,2.0,Object_Land_Solid_Large,-1.0,,,,,,,,,,,
encoding,value,7,17590808,17596821,17595144.0,17595164.0,21.0,21.0,1855.8,1302.8,1920.0,700.0,Object_Land_Solid_Small,15.893259458011016,21.90605341596529,2.0,Object_Land_Solid_Large,-1.0,,,,,,,,,,,
encoding,value,7,17590808,17596821,17595183.0,17597033.0,1851.0,1638.0,1919.3,1098.4,1920.0,1080.0,fixation,15.893259458011016,21.90605341596529,2.0,Object_Land_Solid_Large,-1.0,,,,,,,,,,,
encoding,attention,7,17596821,17599840,17597075.0,17597188.0,114.0,114.0,1946.7,647.5999999999999,1920.0,1460.0,Object_Land_Solid_Large,21.906152290990576,24.924001208040863,2.0,Object_Land_Solid_Large,-1.0,-1.0,1.0,0.7227150001563132,,,,,,,,
encoding,attention,7,17596821,17599840,17597200.0,17597484.0,285.0,285.0,1910.8,598.8,1920.0,1460.0,Object_Land_Solid_Large,21.906152290990576,24.924001208040863,2.0,Object_Land_Solid_Large,-1.0,-1.0,1.0,0.7227150001563132,,,,,,,,
encoding,attention,7,17596821,17599840,17597493.0,17597819.0,327.0,327.0,1960.8,602.8,1920.0,1460.0,Object_Land_Solid_Large,21.906152290990576,24.924001208040863,2.0,Object_Land_Solid_Large,-1.0,-1.0,1.0,0.7227150001563132,,,,,,,,
encoding,attention,7,17596821,17599840,17597834.0,17597950.0,117.0,117.0,1874.7,599.8,1920.0,1460.0,Object_Land_Solid_Large,21.906152290990576,24.924001208040863,2.0,Object_Land_Solid_Large,-1.0,-1.0,1.0,0.7227150001563132,,,,,,,,
encoding,attention,7,17596821,17599840,17598222.0,17599596.0,1375.0,1375.0,1929.8,698.3,1920.0,1460.0,Object_Land_Solid_Large,21.906152290990576,24.924001208040863,2.0,Object_Land_Solid_Large,-1.0,-1.0,1.0,0.7227150001563132,,,,,,,,
encoding,fixation,8,17599840,17600345,17599841.0,17600015.0,175.0,175.0,1920.2,678.4000000000001,1920.0,1460.0,Object_Land_Solid_Large,24.924175083171576,25.42930050007999,2.0,Animal_Sea_Pattern_Small,9.0,,,,,,,,,,,
encoding,fixation,8,17599840,17600345,17600055.0,17600266.0,212.0,212.0,1916.4,1086.1,1920.0,1080.0,fixation,24.924175083171576,25.42930050007999,2.0,Animal_Sea_Pattern_Small,9.0,,,,,,,,,,,
encoding,image,8,17600345,17601356,17600556.0,17600607.0,52.0,52.0,1882.1,1090.0,1920.0,1080.0,fixation,25.42941345809959,26.440650874981657,2.0,Animal_Sea_Pattern_Small,9.0,,,,,,,,,,,
encoding,image,8,17600345,17601356,17600640.0,17600744.0,105.0,105.0,2154.7,998.5,2249.0,1269.0,Animal_Sea_Pattern_Small,25.42941345809959,26.440650874981657,2.0,Animal_Sea_Pattern_Small,9.0,,,,,,,,,,,
encoding,image,8,17600345,17601356,17600763.0,17601168.0,406.0,406.0,2232.8,904.4000000000001,2249.0,1269.0,Animal_Sea_Pattern_Small,25.42941345809959,26.440650874981657,2.0,Animal_Sea_Pattern_Small,9.0,,,,,,,,,,,
encoding,image,8,17600345,17601356,17601175.0,17601307.0,133.0,133.0,2215.8,909.3,2249.0,1269.0,Animal_Sea_Pattern_Small,25.42941345809959,26.440650874981657,2.0,Animal_Sea_Pattern_Small,9.0,,,,,,,,,,,
encoding,value,8,17601356,17607372,17601476.0,17601572.0,97.0,97.0,2233.7,763.3,2249.0,1269.0,Animal_Sea_Pattern_Small,26.440753375180066,32.456018458120525,2.0,Animal_Sea_Pattern_Small,9.0,,,,,,,,,,,
encoding,value,8,17601356,17607372,17601579.0,17601768.0,190.0,190.0,2265.5,770.0,2249.0,1269.0,Animal_Sea_Pattern_Small,26.440753375180066,32.456018458120525,2.0,Animal_Sea_Pattern_Small,9.0,,,,,,,,,,,
encoding,value,8,17601356,17607372,17602083.0,17602243.0,161.0,161.0,2226.5,869.0999999999999,2249.0,1269.0,Animal_Sea_Pattern_Small,26.440753375180066,32.456018458120525,2.0,Animal_Sea_Pattern_Small,9.0,,,,,,,,,,,
encoding,value,8,17601356,17607372,17602271.0,17602432.0,162.0,162.0,1943.6,1042.8,1920.0,1080.0,fixation,26.440753375180066,32.456018458120525,2.0,Animal_Sea_Pattern_Small,9.0,,,,,,,,,,,
encoding,value,8,17601356,17607372,17602443.0,17603650.0,1208.0,1208.0,1915.2,1077.7,1920.0,1080.0,fixation,26.440753375180066,32.456018458120525,2.0,Animal_Sea_Pattern_Small,9.0,,,,,,,,,,,
encoding,value,8,17601356,17607372,17603687.0,17603937.0,251.0,251.0,2206.1,912.3,2249.0,1269.0,Animal_Sea_Pattern_Small,26.440753375180066,32.456018458120525,2.0,Animal_Sea_Pattern_Small,9.0,,,,,,,,,,,
encoding,value,8,17601356,17607372,17603944.0,17604280.0,337.0,337.0,2262.0,892.5999999999999,2249.0,1269.0,Animal_Sea_Pattern_Small,26.440753375180066,32.456018458120525,2.0,Animal_Sea_Pattern_Small,9.0,,,,,,,,,,,
encoding,value,8,17601356,17607372,17604482.0,17604661.0,180.0,180.0,2233.5,858.0999999999999,2249.0,1269.0,Animal_Sea_Pattern_Small,26.440753375180066,32.456018458120525,2.0,Animal_Sea_Pattern_Small,9.0,,,,,,,,,,,
encoding,value,8,17601356,17607372,17604672.0,17605145.0,474.0,474.0,2263.0,899.2,2249.0,1269.0,Animal_Sea_Pattern_Small,26.440753375180066,32.456018458120525,2.0,Animal_Sea_Pattern_Small,9.0,,,,,,,,,,,
encoding,value,8,17601356,17607372,17605154.0,17606511.0,1358.0,1358.0,2237.4,902.5999999999999,2249.0,1269.0,Animal_Sea_Pattern_Small,26.440753375180066,32.456018458120525,2.0,Animal_Sea_Pattern_Small,9.0,,,,,,,,,,,
encoding,value,8,17601356,17607372,17606697.0,17607556.0,860.0,675.0,2241.7,907.3,2249.0,1269.0,Animal_Sea_Pattern_Small,26.440753375180066,32.456018458120525,2.0,Animal_Sea_Pattern_Small,9.0,,,,,,,,,,,
encoding,attention,8,17607372,17610390,17607576.0,17608091.0,516.0,516.0,2280.1,807.7,2249.0,1269.0,Animal_Sea_Pattern_Small,32.456133665982634,35.47413595812395,2.0,Animal_Sea_Pattern_Small,9.0,9.0,1.0,0.9200431669596584,,,,,,,,
encoding,attention,8,17607372,17610390,17608111.0,17608551.0,441.0,441.0,2247.8,890.5,2249.0,1269.0,Animal_Sea_Pattern_Small,32.456133665982634,35.47413595812395,2.0,Animal_Sea_Pattern_Small,9.0,9.0,1.0,0.9200431669596584,,,,,,,,
encoding,attention,8,17607372,17610390,17608831.0,17608888.0,58.0,58.0,2248.2,898.9000000000001,2249.0,1269.0,Animal_Sea_Pattern_Small,32.456133665982634,35.47413595812395,2.0,Animal_Sea_Pattern_Small,9.0,9.0,1.0,0.9200431669596584,,,,,,,,
encoding,attention,8,17607372,17610390,17609282.0,17609441.0,160.0,160.0,2242.2,912.2,2249.0,1269.0,Animal_Sea_Pattern_Small,32.456133665982634,35.47413595812395,2.0,Animal_Sea_Pattern_Small,9.0,9.0,1.0,0.9200431669596584,,,,,,,,
encoding,attention,8,17607372,17610390,17609648.0,17609989.0,342.0,342.0,2255.3,921.8,2249.0,1269.0,Animal_Sea_Pattern_Small,32.456133665982634,35.47413595812395,2.0,Animal_Sea_Pattern_Small,9.0,9.0,1.0,0.9200431669596584,,,,,,,,
encoding,fixation,9,17610390,17611145,17610464.0,17610645.0,182.0,182.0,1935.0,1029.6,1920.0,1080.0,fixation,35.474305500043556,36.22945295809768,2.0,Object_Sea_Pattern_Small,7.0,,,,,,,,,,,
encoding,fixation,9,17610390,17611145,17610655.0,17610773.0,119.0,119.0,1920.2,1068.7,1920.0,1080.0,fixation,35.474305500043556,36.22945295809768,2.0,Object_Sea_Pattern_Small,7.0,,,,,,,,,,,
encoding,fixation,9,17610390,17611145,17610983.0,17611309.0,327.0,162.0,1914.2,1094.5,1920.0,1080.0,fixation,35.474305500043556,36.22945295809768,2.0,Object_Sea_Pattern_Small,7.0,,,,,,,,,,,
encoding,image,9,17611146,17612156,17611347.0,17611669.0,323.0,323.0,1594.3,889.2,1591.0,1269.0,Object_Sea_Pattern_Small,36.22957312501967,37.24018937512301,2.0,Object_Sea_Pattern_Small,7.0,,,,,,,,,,,
encoding,value,9,17612156,17618169,17612179.0,17612202.0,24.0,24.0,1669.1,917.5999999999999,1591.0,1269.0,Object_Sea_Pattern_Small,37.240377250127494,43.25215175002813,2.0,Object_Sea_Pattern_Small,7.0,,,,,,,,,,,
encoding,value,9,17612156,17618169,17612233.0,17612448.0,216.0,216.0,2053.9,1130.8,2249.0,891.0,Animal_Land_Solid_Large,37.240377250127494,43.25215175002813,2.0,Object_Sea_Pattern_Small,7.0,,,,,,,,,,,
encoding,value,9,17612156,17618169,17612495.0,17612624.0,130.0,130.0,1714.2,946.3,1591.0,1269.0,Object_Sea_Pattern_Small,37.240377250127494,43.25215175002813,2.0,Object_Sea_Pattern_Small,7.0,,,,,,,,,,,
encoding,value,9,17612156,17618169,17612651.0,17612856.0,206.0,206.0,1610.3,798.0999999999999,1591.0,1269.0,Object_Sea_Pattern_Small,37.240377250127494,43.25215175002813,2.0,Object_Sea_Pattern_Small,7.0,,,,,,,,,,,
encoding,value,9,17612156,17618169,17613079.0,17613467.0,389.0,389.0,1608.4,852.7,1591.0,1269.0,Object_Sea_Pattern_Small,37.240377250127494,43.25215175002813,2.0,Object_Sea_Pattern_Small,7.0,,,,,,,,,,,
encoding,value,9,17612156,17618169,17613911.0,17614084.0,174.0,174.0,1829.5,899.4000000000001,1920.0,1460.0,Object_Land_Solid_Large,37.240377250127494,43.25215175002813,2.0,Object_Sea_Pattern_Small,7.0,,,,,,,,,,,
encoding,value,9,17612156,17618169,17614105.0,17614416.0,312.0,312.0,1958.6,989.3,1920.0,1460.0,Object_Land_Solid_Large,37.240377250127494,43.25215175002813,2.0,Object_Sea_Pattern_Small,7.0,,,,,,,,,,,
encoding,value,9,17612156,17618169,17614430.0,17614867.0,438.0,438.0,1937.8,1060.9,1920.0,1080.0,fixation,37.240377250127494,43.25215175002813,2.0,Object_Sea_Pattern_Small,7.0,,,,,,,,,,,
encoding,value,9,17612156,17618169,17614906.0,17615140.0,235.0,235.0,1605.5,902.0999999999999,1591.0,1269.0,Object_Sea_Pattern_Small,37.240377250127494,43.25215175002813,2.0,Object_Sea_Pattern_Small,7.0,,,,,,,,,,,
encoding,value,9,17612156,17618169,17615157.0,17615423.0,267.0,267.0,1602.4,804.3,1591.0,1269.0,Object_Sea_Pattern_Small,37.240377250127494,43.25215175002813,2.0,Object_Sea_Pattern_Small,7.0,,,,,,,,,,,
encoding,value,9,17612156,17618169,17615621.0,17617129.0,1509.0,1509.0,1603.7,898.0,1591.0,1269.0,Object_Sea_Pattern_Small,37.240377250127494,43.25215175002813,2.0,Object_Sea_Pattern_Small,7.0,,,,,,,,,,,
encoding,value,9,17612156,17618169,17617354.0,17617827.0,474.0,474.0,1604.1,880.9000000000001,1591.0,1269.0,Object_Sea_Pattern_Small,37.240377250127494,43.25215175002813,2.0,Object_Sea_Pattern_Small,7.0,,,,,,,,,,,
encoding,value,9,17612156,17618169,17617853.0,17618062.0,210.0,210.0,1857.1,950.2,1920.0,1460.0,Object_Land_Solid_Large,37.240377250127494,43.25215175002813,2.0,Object_Sea_Pattern_Small,7.0,,,,,,,,,,,
encoding,attention,9,17618169,17621186,17618293.0,17618393.0,101.0,101.0,1622.6,908.2,1591.0,1269.0,Object_Sea_Pattern_Small,43.25226925010793,46.269108874956146,2.0,Object_Sea_Pattern_Small,7.0,7.0,1.0,0.6505493749864399,,,,,,,,
encoding,attention,9,17618169,17621186,17618413.0,17618575.0,163.0,163.0,1596.2,792.9000000000001,1591.0,1269.0,Object_Sea_Pattern_Small,43.25226925010793,46.269108874956146,2.0,Object_Sea_Pattern_Small,7.0,7.0,1.0,0.6505493749864399,,,,,,,,
encoding,attention,9,17618169,17621186,17618585.0,17619142.0,558.0,558.0,1630.8,817.0999999999999,1591.0,1269.0,Object_Sea_Pattern_Small,43.25226925010793,46.269108874956146,2.0,Object_Sea_Pattern_Small,7.0,7.0,1.0,0.6505493749864399,,,,,,,,
encoding,attention,9,17618169,17621186,17619157.0,17619235.0,79.0,79.0,1589.0,886.4000000000001,1591.0,1269.0,Object_Sea_Pattern_Small,43.25226925010793,46.269108874956146,2.0,Object_Sea_Pattern_Small,7.0,7.0,1.0,0.6505493749864399,,,,,,,,
encoding,attention,9,17618169,17621186,17619514.0,17619860.0,347.0,347.0,1614.8,893.5,1591.0,1269.0,Object_Sea_Pattern_Small,43.25226925010793,46.269108874956146,2.0,Object_Sea_Pattern_Small,7.0,7.0,1.0,0.6505493749864399,,,,,,,,
encoding,attention,9,17618169,17621186,17619883.0,17620423.0,541.0,541.0,1647.0,791.7,1591.0,1269.0,Object_Sea_Pattern_Small,43.25226925010793,46.269108874956146,2.0,Object_Sea_Pattern_Small,7.0,7.0,1.0,0.6505493749864399,,,,,,,,
encoding,attention,9,17618169,17621186,17620938.0,17621093.0,156.0,156.0,1625.0,863.0999999999999,1591.0,1269.0,Object_Sea_Pattern_Small,43.25226925010793,46.269108874956146,2.0,Object_Sea_Pattern_Small,7.0,7.0,1.0,0.6505493749864399,,,,,,,,
encoding,fixation,10,17621186,17621941,17621379.0,17621481.0,103.0,103.0,1914.8,1088.8,1920.0,1080.0,fixation,46.26924983295612,47.02437958307564,2.0,Animal_Land_Solid_Large,8.0,,,,,,,,,,,
encoding,fixation,10,17621186,17621941,17621718.0,17621997.0,280.0,223.0,1921.5,1088.5,1920.0,1080.0,fixation,46.26924983295612,47.02437958307564,2.0,Animal_Land_Solid_Large,8.0,,,,,,,,,,,
encoding,image,10,17621941,17622953,17622214.0,17622372.0,159.0,159.0,2121.5,1229.5,2249.0,891.0,Animal_Land_Solid_Large,47.024479957995936,48.03611170803197,2.0,Animal_Land_Solid_Large,8.0,,,,,,,,,,,
encoding,image,10,17621941,17622953,17622392.0,17622563.0,172.0,172.0,2269.0,1273.7,2249.0,891.0,Animal_Land_Solid_Large,47.024479957995936,48.03611170803197,2.0,Animal_Land_Solid_Large,8.0,,,,,,,,,,,
encoding,image,10,17621941,17622953,17622834.0,17622961.0,128.0,119.0,2218.4,1149.3,2249.0,891.0,Animal_Land_Solid_Large,47.024479957995936,48.03611170803197,2.0,Animal_Land_Solid_Large,8.0,,,,,,,,,,,
encoding,value,10,17622953,17628966,17622978.0,17623133.0,156.0,156.0,2263.3,1232.6,2249.0,891.0,Animal_Land_Solid_Large,48.03621600009501,54.04885462508537,2.0,Animal_Land_Solid_Large,8.0,,,,,,,,,,,
encoding,value,10,17622953,17628966,17623145.0,17623344.0,200.0,200.0,2260.2,1174.0,2249.0,891.0,Animal_Land_Solid_Large,48.03621600009501,54.04885462508537,2.0,Animal_Land_Solid_Large,8.0,,,,,,,,,,,
encoding,value,10,17622953,17628966,17623591.0,17623738.0,148.0,148.0,1690.2,1118.4,1591.0,891.0,Animal_Sea_Pattern_Large,48.03621600009501,54.04885462508537,2.0,Animal_Land_Solid_Large,8.0,,,,,,,,,,,
encoding,value,10,17622953,17628966,17623760.0,17624378.0,619.0,619.0,1914.8,1054.9,1920.0,1080.0,fixation,48.03621600009501,54.04885462508537,2.0,Animal_Land_Solid_Large,8.0,,,,,,,,,,,
encoding,value,10,17622953,17628966,17624586.0,17624637.0,52.0,52.0,2029.4,1120.6,2249.0,891.0,Animal_Land_Solid_Large,48.03621600009501,54.04885462508537,2.0,Animal_Land_Solid_Large,8.0,,,,,,,,,,,
encoding,value,10,17622953,17628966,17624665.0,17624853.0,189.0,189.0,1849.4,1073.1,1591.0,1269.0,Object_Sea_Pattern_Small,48.03621600009501,54.04885462508537,2.0,Animal_Land_Solid_Large,8.0,,,,,,,,,,,
encoding,value,10,17622953,17628966,17624895.0,17625018.0,124.0,124.0,2214.0,1173.6,2249.0,891.0,Animal_Land_Solid_Large,48.03621600009501,54.04885462508537,2.0,Animal_Land_Solid_Large,8.0,,,,,,,,,,,
encoding,value,10,17622953,17628966,17625027.0,17625345.0,319.0,319.0,2253.4,1178.1,2249.0,891.0,Animal_Land_Solid_Large,48.03621600009501,54.04885462508537,2.0,Animal_Land_Solid_Large,8.0,,,,,,,,,,,
encoding,value,10,17622953,17628966,17625589.0,17625709.0,121.0,121.0,2226.1,1121.9,2249.0,891.0,Animal_Land_Solid_Large,48.03621600009501,54.04885462508537,2.0,Animal_Land_Solid_Large,8.0,,,,,,,,,,,
encoding,value,10,17622953,17628966,17625721.0,17626012.0,292.0,292.0,2243.7,1169.2,2249.0,891.0,Animal_Land_Solid_Large,48.03621600009501,54.04885462508537,2.0,Animal_Land_Solid_Large,8.0,,,,,,,,,,,
encoding,value,10,17622953,17628966,17626038.0,17626183.0,146.0,146.0,1979.3,1116.2,1920.0,1080.0,fixation,48.03621600009501,54.04885462508537,2.0,Animal_Land_Solid_Large,8.0,,,,,,,,,,,
encoding,value,10,17622953,17628966,17626196.0,17626334.0,139.0,139.0,1902.8,1092.8,1920.0,1080.0,fixation,48.03621600009501,54.04885462508537,2.0,Animal_Land_Solid_Large,8.0,,,,,,,,,,,
encoding,value,10,17622953,17628966,17626507.0,17626617.0,111.0,111.0,2205.1,1161.6,2249.0,891.0,Animal_Land_Solid_Large,48.03621600009501,54.04885462508537,2.0,Animal_Land_Solid_Large,8.0,,,,,,,,,,,
encoding,value,10,17622953,17628966,17626624.0,17626901.0,278.0,278.0,2245.0,1163.6,2249.0,891.0,Animal_Land_Solid_Large,48.03621600009501,54.04885462508537,2.0,Animal_Land_Solid_Large,8.0,,,,,,,,,,,
encoding,value,10,17622953,17628966,17626917.0,17627079.0,163.0,163.0,2259.9,1247.9,2249.0,891.0,Animal_Land_Solid_Large,48.03621600009501,54.04885462508537,2.0,Animal_Land_Solid_Large,8.0,,,,,,,,,,,
encoding,value,10,17622953,17628966,17627088.0,17629022.0,1935.0,1878.0,2271.1,1281.0,2249.0,891.0,Animal_Land_Solid_Large,48.03621600009501,54.04885462508537,2.0,Animal_Land_Solid_Large,8.0,,,,,,,,,,,
encoding,attention,10,17628966,17631984,17629230.0,17629268.0,39.0,39.0,2189.2,1173.3,2249.0,891.0,Animal_Land_Solid_Large,54.04896270809695,57.06706079095602,2.0,Animal_Land_Solid_Large,8.0,8.0,1.0,1.235318292165175,,,,,,,,
encoding,attention,10,17628966,17631984,17629282.0,17629871.0,590.0,590.0,2293.1,1164.2,2249.0,891.0,Animal_Land_Solid_Large,54.04896270809695,57.06706079095602,2.0,Animal_Land_Solid_Large,8.0,8.0,1.0,1.235318292165175,,,,,,,,
encoding,attention,10,17628966,17631984,17629888.0,17630242.0,355.0,355.0,2212.6,1158.1,2249.0,891.0,Animal_Land_Solid_Large,54.04896270809695,57.06706079095602,2.0,Animal_Land_Solid_Large,8.0,8.0,1.0,1.235318292165175,,,,,,,,
encoding,attention,10,17628966,17631984,17630252.0,17630493.0,242.0,242.0,2279.9,1155.4,2249.0,891.0,Animal_Land_Solid_Large,54.04896270809695,57.06706079095602,2.0,Animal_Land_Solid_Large,8.0,8.0,1.0,1.235318292165175,,,,,,,,
encoding,attention,10,17628966,17631984,17630679.0,17630804.0,126.0,126.0,2228.6,1172.4,2249.0,891.0,Animal_Land_Solid_Large,54.04896270809695,57.06706079095602,2.0,Animal_Land_Solid_Large,8.0,8.0,1.0,1.235318292165175,,,,,,,,
encoding,attention,10,17628966,17631984,17630815.0,17631014.0,200.0,200.0,2187.8,1145.5,2249.0,891.0,Animal_Land_Solid_Large,54.04896270809695,57.06706079095602,2.0,Animal_Land_Solid_Large,8.0,8.0,1.0,1.235318292165175,,,,,,,,
encoding,attention,10,17628966,17631984,17631049.0,17631245.0,197.0,197.0,1964.6,1034.8,1920.0,1080.0,fixation,54.04896270809695,57.06706079095602,2.0,Animal_Land_Solid_Large,8.0,8.0,1.0,1.235318292165175,,,,,,,,
encoding,attention,10,17628966,17631984,17631274.0,17631432.0,159.0,159.0,2239.1,1196.7,2249.0,891.0,Animal_Land_Solid_Large,54.04896270809695,57.06706079095602,2.0,Animal_Land_Solid_Large,8.0,8.0,1.0,1.235318292165175,,,,,,,,
encoding,attention,10,17628966,17631984,17631446.0,17631734.0,289.0,289.0,2268.0,1259.9,2249.0,891.0,Animal_Land_Solid_Large,54.04896270809695,57.06706079095602,2.0,Animal_Land_Solid_Large,8.0,8.0,1.0,1.235318292165175,,,,,,,,
encoding,fixation,11,17631984,17632990,17632245.0,17632339.0,95.0,95.0,1765.6,1001.5,1591.0,1269.0,Object_Sea_Pattern_Small,57.06725233304314,58.072811583057046,2.0,Animal_Sea_Pattern_Large,-9.0,,,,,,,,,,,
encoding,fixation,11,17631984,17632990,17632358.0,17632534.0,177.0,177.0,1917.5,1061.0,1920.0,1080.0,fixation,57.06725233304314,58.072811583057046,2.0,Animal_Sea_Pattern_Large,-9.0,,,,,,,,,,,
encoding,fixation,11,17631984,17632990,17632727.0,17632821.0,95.0,95.0,1952.2,1103.2,1920.0,1080.0,fixation,57.06725233304314,58.072811583057046,2.0,Animal_Sea_Pattern_Large,-9.0,,,,,,,,,,,
encoding,fixation,11,17631984,17632990,17632833.0,17633004.0,172.0,157.0,1917.1,1050.5,1920.0,1080.0,fixation,57.06725233304314,58.072811583057046,2.0,Animal_Sea_Pattern_Large,-9.0,,,,,,,,,,,
encoding,image,11,17632990,17634001,17633493.0,17633663.0,171.0,171.0,1633.7,1178.6,1591.0,891.0,Animal_Sea_Pattern_Large,58.07293254113756,59.08369908295572,2.0,Animal_Sea_Pattern_Large,-9.0,,,,,,,,,,,
encoding,image,11,17632990,17634001,17633674.0,17633972.0,299.0,299.0,1589.9,1196.1,1591.0,891.0,Animal_Sea_Pattern_Large,58.07293254113756,59.08369908295572,2.0,Animal_Sea_Pattern_Large,-9.0,,,,,,,,,,,
encoding,image,11,17632990,17634001,17633979.0,17634484.0,506.0,22.0,1600.6,1156.0,1591.0,891.0,Animal_Sea_Pattern_Large,58.07293254113756,59.08369908295572,2.0,Animal_Sea_Pattern_Large,-9.0,,,,,,,,,,,
encoding,value,11,17634001,17640012,17634713.0,17634808.0,96.0,96.0,1593.4,1188.6,1591.0,891.0,Animal_Sea_Pattern_Large,59.08384208311327,65.0950470410753,2.0,Animal_Sea_Pattern_Large,-9.0,,,,,,,,,,,
encoding,value,11,17634001,17640012,17634820.0,17635226.0,407.0,407.0,1593.9,1235.0,1591.0,891.0,Animal_Sea_Pattern_Large,59.08384208311327,65.0950470410753,2.0,Animal_Sea_Pattern_Large,-9.0,,,,,,,,,,,
encoding,value,11,17634001,17640012,17635237.0,17635309.0,73.0,73.0,1595.8,1185.1,1591.0,891.0,Animal_Sea_Pattern_Large,59.08384208311327,65.0950470410753,2.0,Animal_Sea_Pattern_Large,-9.0,,,,,,,,,,,
encoding,value,11,17634001,17640012,17635632.0,17635726.0,95.0,95.0,1595.5,1173.2,1591.0,891.0,Animal_Sea_Pattern_Large,59.08384208311327,65.0950470410753,2.0,Animal_Sea_Pattern_Large,-9.0,,,,,,,,,,,
encoding,value,11,17634001,17640012,17635924.0,17636113.0,190.0,190.0,1583.1,1188.9,1591.0,891.0,Animal_Sea_Pattern_Large,59.08384208311327,65.0950470410753,2.0,Animal_Sea_Pattern_Large,-9.0,,,,,,,,,,,
encoding,value,11,17634001,17640012,17636807.0,17636917.0,111.0,111.0,1575.5,1215.6,1591.0,891.0,Animal_Sea_Pattern_Large,59.08384208311327,65.0950470410753,2.0,Animal_Sea_Pattern_Large,-9.0,,,,,,,,,,,
encoding,value,11,17634001,17640012,17636929.0,17637144.0,216.0,216.0,1557.2,1244.3,1591.0,891.0,Animal_Sea_Pattern_Large,59.08384208311327,65.0950470410753,2.0,Animal_Sea_Pattern_Large,-9.0,,,,,,,,,,,
encoding,value,11,17634001,17640012,17637368.0,17637766.0,399.0,399.0,1586.6,1177.5,1591.0,891.0,Animal_Sea_Pattern_Large,59.08384208311327,65.0950470410753,2.0,Animal_Sea_Pattern_Large,-9.0,,,,,,,,,,,
encoding,value,11,17634001,17640012,17638015.0,17638270.0,256.0,256.0,1626.9,1137.1,1591.0,891.0,Animal_Sea_Pattern_Large,59.08384208311327,65.0950470410753,2.0,Animal_Sea_Pattern_Large,-9.0,,,,,,,,,,,
encoding,value,11,17634001,17640012,17638277.0,17638423.0,147.0,147.0,1601.2,1142.4,1591.0,891.0,Animal_Sea_Pattern_Large,59.08384208311327,65.0950470410753,2.0,Animal_Sea_Pattern_Large,-9.0,,,,,,,,,,,
encoding,value,11,17634001,17640012,17638444.0,17638669.0,226.0,226.0,1571.6,1253.9,1591.0,891.0,Animal_Sea_Pattern_Large,59.08384208311327,65.0950470410753,2.0,Animal_Sea_Pattern_Large,-9.0,,,,,,,,,,,
encoding,value,11,17634001,17640012,17638686.0,17639238.0,553.0,553.0,1598.1,1154.8,1591.0,891.0,Animal_Sea_Pattern_Large,59.08384208311327,65.0950470410753,2.0,Animal_Sea_Pattern_Large,-9.0,,,,,,,,,,,
encoding,value,11,17634001,17640012,17639464.0,17639725.0,262.0,262.0,1604.2,1153.3,1591.0,891.0,Animal_Sea_Pattern_Large,59.08384208311327,65.0950470410753,2.0,Animal_Sea_Pattern_Large,-9.0,,,,,,,,,,,
encoding,value,11,17634001,17640012,17639779.0,17640079.0,301.0,233.0,2075.3,1015.2,2249.0,1269.0,Animal_Sea_Pattern_Small,59.08384208311327,65.0950470410753,2.0,Animal_Sea_Pattern_Large,-9.0,,,,,,,,,,,
encoding,attention,11,17640012,17643024,17640094.0,17640304.0,211.0,211.0,1975.1,1030.3,2249.0,1269.0,Animal_Sea_Pattern_Small,65.09514850005507,68.10656287497841,2.0,Animal_Sea_Pattern_Large,-9.0,,,,,,,,,,,
encoding,attention,11,17640012,17643024,17640333.0,17640574.0,242.0,242.0,1574.0,1158.4,1591.0,891.0,Animal_Sea_Pattern_Large,65.09514850005507,68.10656287497841,2.0,Animal_Sea_Pattern_Large,-9.0,,,,,,,,,,,
encoding,attention,11,17640012,17643024,17640582.0,17640775.0,194.0,194.0,1625.5,1147.5,1591.0,891.0,Animal_Sea_Pattern_Large,65.09514850005507,68.10656287497841,2.0,Animal_Sea_Pattern_Large,-9.0,,,,,,,,,,,
encoding,attention,11,17640012,17643024,17640985.0,17641019.0,35.0,35.0,1750.4,1227.2,1591.0,891.0,Animal_Sea_Pattern_Large,65.09514850005507,68.10656287497841,2.0,Animal_Sea_Pattern_Large,-9.0,,,,,,,,,,,
encoding,attention,11,17640012,17643024,17641039.0,17641079.0,41.0,41.0,1811.6,1088.1,1591.0,891.0,Animal_Sea_Pattern_Large,65.09514850005507,68.10656287497841,2.0,Animal_Sea_Pattern_Large,-9.0,,,,,,,,,,,
encoding,attention,11,17640012,17643024,17641099.0,17641612.0,514.0,514.0,1641.0,1133.8,1591.0,891.0,Animal_Sea_Pattern_Large,65.09514850005507,68.10656287497841,2.0,Animal_Sea_Pattern_Large,-9.0,,,,,,,,,,,
encoding,attention,11,17640012,17643024,17641622.0,17641835.0,214.0,214.0,1599.4,1144.0,1591.0,891.0,Animal_Sea_Pattern_Large,65.09514850005507,68.10656287497841,2.0,Animal_Sea_Pattern_Large,-9.0,,,,,,,,,,,
encoding,attention,11,17640012,17643024,17641854.0,17641895.0,42.0,42.0,1722.5,1127.0,1591.0,891.0,Animal_Sea_Pattern_Large,65.09514850005507,68.10656287497841,2.0,Animal_Sea_Pattern_Large,-9.0,,,,,,,,,,,
encoding,attention,11,17640012,17643024,17642178.0,17642251.0,74.0,74.0,2002.5,874.8,1920.0,1460.0,Object_Land_Solid_Large,65.09514850005507,68.10656287497841,2.0,Animal_Sea_Pattern_Large,-9.0,,,,,,,,,,,
encoding,attention,11,17640012,17643024,17642273.0,17642401.0,129.0,129.0,1892.0,974.2,1920.0,1460.0,Object_Land_Solid_Large,65.09514850005507,68.10656287497841,2.0,Animal_Sea_Pattern_Large,-9.0,,,,,,,,,,,
encoding,fixation,12,17643024,17644529,17643678.0,17643713.0,36.0,36.0,1967.4,1097.4,1920.0,1080.0,fixation,68.10669404105283,69.61177958315238,2.0,Object_Land_Solid_Small,-3.0,,,,,,,,,,,
encoding,fixation,12,17643024,17644529,17643725.0,17644144.0,420.0,420.0,1916.0,1074.8,1920.0,1080.0,fixation,68.10669404105283,69.61177958315238,2.0,Object_Land_Solid_Small,-3.0,,,,,,,,,,,
encoding,fixation,12,17643024,17644529,17644155.0,17644311.0,157.0,157.0,1993.1,1072.4,2249.0,1269.0,Animal_Sea_Pattern_Small,68.10669404105283,69.61177958315238,2.0,Object_Land_Solid_Small,-3.0,,,,,,,,,,,
encoding,fixation,12,17643024,17644529,17644326.0,17644527.0,202.0,202.0,1903.0,1070.1,1920.0,1080.0,fixation,68.10669404105283,69.61177958315238,2.0,Object_Land_Solid_Small,-3.0,,,,,,,,,,,
encoding,image,12,17644529,17645541,17644721.0,17644820.0,100.0,100.0,1870.7,1081.1,1920.0,1080.0,fixation,69.61188745801337,70.62304345797747,2.0,Object_Land_Solid_Small,-3.0,,,,,,,,,,,
encoding,image,12,17644529,17645541,17644859.0,17645054.0,196.0,196.0,1920.1,1390.3,1920.0,700.0,Object_Land_Solid_Small,69.61188745801337,70.62304345797747,2.0,Object_Land_Solid_Small,-3.0,,,,,,,,,,,
encoding,image,12,17644529,17645541,17645066.0,17645676.0,611.0,475.0,1915.6,1420.6,1920.0,700.0,Object_Land_Solid_Small,69.61188745801337,70.62304345797747,2.0,Object_Land_Solid_Small,-3.0,,,,,,,,,,,
encoding,value,12,17645541,17651553,17645754.0,17645847.0,94.0,94.0,1919.3,1318.1,1920.0,700.0,Object_Land_Solid_Small,70.62317545805126,76.63515170803294,2.0,Object_Land_Solid_Small,-3.0,,,,,,,,,,,
encoding,value,12,17645541,17651553,17645999.0,17646112.0,114.0,114.0,1908.4,1351.6,1920.0,700.0,Object_Land_Solid_Small,70.62317545805126,76.63515170803294,2.0,Object_Land_Solid_Small,-3.0,,,,,,,,,,,
encoding,value,12,17645541,17651553,17646120.0,17646383.0,264.0,264.0,1929.5,1321.3,1920.0,700.0,Object_Land_Solid_Small,70.62317545805126,76.63515170803294,2.0,Object_Land_Solid_Small,-3.0,,,,,,,,,,,
encoding,value,12,17645541,17651553,17646397.0,17646563.0,167.0,167.0,1928.9,1391.9,1920.0,700.0,Object_Land_Solid_Small,70.62317545805126,76.63515170803294,2.0,Object_Land_Solid_Small,-3.0,,,,,,,,,,,
encoding,value,12,17645541,17651553,17646757.0,17647417.0,661.0,661.0,1934.3,1399.4,1920.0,700.0,Object_Land_Solid_Small,70.62317545805126,76.63515170803294,2.0,Object_Land_Solid_Small,-3.0,,,,,,,,,,,
encoding,value,12,17645541,17651553,17647428.0,17647484.0,57.0,57.0,1920.6,1352.7,1920.0,700.0,Object_Land_Solid_Small,70.62317545805126,76.63515170803294,2.0,Object_Land_Solid_Small,-3.0,,,,,,,,,,,
encoding,value,12,17645541,17651553,17647695.0,17648071.0,377.0,377.0,1930.6,1325.6,1920.0,700.0,Object_Land_Solid_Small,70.62317545805126,76.63515170803294,2.0,Object_Land_Solid_Small,-3.0,,,,,,,,,,,
encoding,value,12,17645541,17651553,17648087.0,17648239.0,153.0,153.0,1914.7,1400.8,1920.0,700.0,Object_Land_Solid_Small,70.62317545805126,76.63515170803294,2.0,Object_Land_Solid_Small,-3.0,,,,,,,,,,,
encoding,value,12,17645541,17651553,17648429.0,17648563.0,135.0,135.0,1832.8,1167.0,1591.0,891.0,Animal_Sea_Pattern_Large,70.62317545805126,76.63515170803294,2.0,Object_Land_Solid_Small,-3.0,,,,,,,,,,,
encoding,value,12,17645541,17651553,17648584.0,17649022.0,439.0,439.0,1910.2,1074.5,1920.0,1080.0,fixation,70.62317545805126,76.63515170803294,2.0,Object_Land_Solid_Small,-3.0,,,,,,,,,,,
encoding,value,12,17645541,17651553,17649249.0,17649286.0,38.0,38.0,1920.7,1104.5,1920.0,1080.0,fixation,70.62317545805126,76.63515170803294,2.0,Object_Land_Solid_Small,-3.0,,,,,,,,,,,
encoding,value,12,17645541,17651553,17649312.0,17651757.0,2446.0,2241.0,1926.9,1326.4,1920.0,700.0,Object_Land_Solid_Small,70.62317545805126,76.63515170803294,2.0,Object_Land_Solid_Small,-3.0,,,,,,,,,,,
encoding,attention,12,17651553,17654571,17651764.0,17651937.0,174.0,174.0,1894.8,1337.1,1920.0,700.0,Object_Land_Solid_Small,76.63527458300814,79.65331312501803,2.0,Object_Land_Solid_Small,-3.0,-3.0,1.0,0.817904083058238,,,,,,,,
encoding,attention,12,17651553,17654571,17651947.0,17652645.0,699.0,699.0,1954.7,1325.6,1920.0,700.0,Object_Land_Solid_Small,76.63527458300814,79.65331312501803,2.0,Object_Land_Solid_Small,-3.0,-3.0,1.0,0.817904083058238,,,,,,,,
encoding,attention,12,17651553,17654571,17652777.0,17652879.0,103.0,103.0,1910.3,1335.3,1920.0,700.0,Object_Land_Solid_Small,76.63527458300814,79.65331312501803,2.0,Object_Land_Solid_Small,-3.0,-3.0,1.0,0.817904083058238,,,,,,,,
encoding,attention,12,17651553,17654571,17653065.0,17653435.0,371.0,371.0,1917.0,1293.2,1920.0,700.0,Object_Land_Solid_Small,76.63527458300814,79.65331312501803,2.0,Object_Land_Solid_Small,-3.0,-3.0,1.0,0.817904083058238,,,,,,,,
encoding,attention,12,17651553,17654571,17653444.0,17654446.0,1003.0,1003.0,1870.5,1322.3,1920.0,700.0,Object_Land_Solid_Small,76.63527458300814,79.65331312501803,2.0,Object_Land_Solid_Small,-3.0,-3.0,1.0,0.817904083058238,,,,,,,,
encoding,fixation,13,18040305,18041061,18040829.0,18040978.0,150.0,150.0,1919.8,1078.2,1920.0,1080.0,fixation,3.3707813329529017,4.126851957989857,3.0,Animal_Sea_Pattern_Large,9.0,,,,,,,,,,,
encoding,fixation,13,18040305,18041061,18040988.0,18041228.0,241.0,73.0,1923.3,1031.5,1920.0,1080.0,fixation,3.3707813329529017,4.126851957989857,3.0,Animal_Sea_Pattern_Large,9.0,,,,,,,,,,,
encoding,image,13,18041061,18042074,18041257.0,18041571.0,315.0,315.0,1616.4,1234.9,1591.0,891.0,Animal_Sea_Pattern_Large,4.126959499903023,5.1394065408967435,3.0,Animal_Sea_Pattern_Large,9.0,,,,,,,,,,,
encoding,image,13,18041061,18042074,18041834.0,18042261.0,428.0,240.0,1593.8,1205.6,1591.0,891.0,Animal_Sea_Pattern_Large,4.126959499903023,5.1394065408967435,3.0,Animal_Sea_Pattern_Large,9.0,,,,,,,,,,,
encoding,value,13,18042074,18048087,18042275.0,18042522.0,248.0,248.0,1607.8,1141.9,1591.0,891.0,Animal_Sea_Pattern_Large,5.139521874953061,11.152059665881096,3.0,Animal_Sea_Pattern_Large,9.0,,,,,,,,,,,
encoding,value,13,18042074,18048087,18042742.0,18042922.0,181.0,181.0,1603.5,1168.8,1591.0,891.0,Animal_Sea_Pattern_Large,5.139521874953061,11.152059665881096,3.0,Animal_Sea_Pattern_Large,9.0,,,,,,,,,,,
encoding,value,13,18042074,18048087,18042934.0,18043051.0,118.0,118.0,1583.4,1224.4,1591.0,891.0,Animal_Sea_Pattern_Large,5.139521874953061,11.152059665881096,3.0,Animal_Sea_Pattern_Large,9.0,,,,,,,,,,,
encoding,value,13,18042074,18048087,18043316.0,18043428.0,113.0,113.0,1839.2,1126.4,1591.0,891.0,Animal_Sea_Pattern_Large,5.139521874953061,11.152059665881096,3.0,Animal_Sea_Pattern_Large,9.0,,,,,,,,,,,
encoding,value,13,18042074,18048087,18043444.0,18043665.0,222.0,222.0,1935.1,1088.5,1920.0,1080.0,fixation,5.139521874953061,11.152059665881096,3.0,Animal_Sea_Pattern_Large,9.0,,,,,,,,,,,
encoding,value,13,18042074,18048087,18043889.0,18046297.0,2409.0,2409.0,1909.8,1081.4,1920.0,1080.0,fixation,5.139521874953061,11.152059665881096,3.0,Animal_Sea_Pattern_Large,9.0,,,,,,,,,,,
encoding,value,13,18042074,18048087,18046607.0,18047580.0,974.0,974.0,1926.0,1069.6,1920.0,1080.0,fixation,5.139521874953061,11.152059665881096,3.0,Animal_Sea_Pattern_Large,9.0,,,,,,,,,,,
encoding,value,13,18042074,18048087,18047878.0,18048378.0,501.0,209.0,1921.6,1070.3,1920.0,1080.0,fixation,5.139521874953061,11.152059665881096,3.0,Animal_Sea_Pattern_Large,9.0,,,,,,,,,,,
encoding,attention,13,18048087,18051108,18048403.0,18048572.0,170.0,170.0,1662.6,1133.6,1591.0,891.0,Animal_Sea_Pattern_Large,11.152180874953046,14.172799499938264,3.0,Animal_Sea_Pattern_Large,9.0,9.0,1.0,1.3507588328793645,,,,,,,,
encoding,attention,13,18048087,18051108,18048582.0,18048665.0,84.0,84.0,1619.4,1169.0,1591.0,891.0,Animal_Sea_Pattern_Large,11.152180874953046,14.172799499938264,3.0,Animal_Sea_Pattern_Large,9.0,9.0,1.0,1.3507588328793645,,,,,,,,
encoding,attention,13,18048087,18051108,18049570.0,18049678.0,109.0,109.0,1864.6,1072.7,1920.0,1080.0,fixation,11.152180874953046,14.172799499938264,3.0,Animal_Sea_Pattern_Large,9.0,9.0,1.0,1.3507588328793645,,,,,,,,
encoding,attention,13,18048087,18051108,18049702.0,18050021.0,320.0,320.0,1655.3,1161.0,1591.0,891.0,Animal_Sea_Pattern_Large,11.152180874953046,14.172799499938264,3.0,Animal_Sea_Pattern_Large,9.0,9.0,1.0,1.3507588328793645,,,,,,,,
encoding,attention,13,18048087,18051108,18050047.0,18050192.0,146.0,146.0,1917.1,1162.0,1920.0,700.0,Object_Sea_Solid_Small,11.152180874953046,14.172799499938264,3.0,Animal_Sea_Pattern_Large,9.0,9.0,1.0,1.3507588328793645,,,,,,,,
encoding,attention,13,18048087,18051108,18050205.0,18050377.0,173.0,173.0,1942.5,1086.2,1920.0,1080.0,fixation,11.152180874953046,14.172799499938264,3.0,Animal_Sea_Pattern_Large,9.0,9.0,1.0,1.3507588328793645,,,,,,,,
encoding,attention,13,18048087,18051108,18050637.0,18050682.0,46.0,46.0,1836.5,1127.0,1591.0,891.0,Animal_Sea_Pattern_Large,11.152180874953046,14.172799499938264,3.0,Animal_Sea_Pattern_Large,9.0,9.0,1.0,1.3507588328793645,,,,,,,,
encoding,fixation,14,18051108,18051863,,,,,,,,,none,14.1729452079162,14.928522374946624,3.0,Object_Sea_Solid_Large,-7.0,,,,,,,,,,,
encoding,image,14,18051863,18052875,18051890.0,18052389.0,500.0,500.0,1912.0,1065.6,1920.0,1080.0,fixation,14.928688749903811,15.940644540823996,3.0,Object_Sea_Solid_Large,-7.0,,,,,,,,,,,
encoding,image,14,18051863,18052875,18052398.0,18052829.0,432.0,432.0,1918.6,1093.7,1920.0,1080.0,fixation,14.928688749903811,15.940644540823996,3.0,Object_Sea_Solid_Large,-7.0,,,,,,,,,,,
encoding,image,14,18051863,18052875,18052867.0,18053035.0,169.0,8.0,1921.5,744.0999999999999,1920.0,1460.0,Object_Sea_Solid_Large,14.928688749903811,15.940644540823996,3.0,Object_Sea_Solid_Large,-7.0,,,,,,,,,,,
encoding,value,14,18052875,18058891,18053058.0,18053376.0,319.0,319.0,1929.9,599.3,1920.0,1460.0,Object_Sea_Solid_Large,15.940765499835834,21.956191665958613,3.0,Object_Sea_Solid_Large,-7.0,,,,,,,,,,,
encoding,value,14,18052875,18058891,18053589.0,18055218.0,1630.0,1630.0,1916.5,1090.7,1920.0,1080.0,fixation,15.940765499835834,21.956191665958613,3.0,Object_Sea_Solid_Large,-7.0,,,,,,,,,,,
encoding,value,14,18052875,18058891,18055492.0,18055660.0,169.0,169.0,1928.0,1093.4,1920.0,1080.0,fixation,15.940765499835834,21.956191665958613,3.0,Object_Sea_Solid_Large,-7.0,,,,,,,,,,,
encoding,value,14,18052875,18058891,18055893.0,18056681.0,789.0,789.0,1912.8,1099.6,1920.0,1080.0,fixation,15.940765499835834,21.956191665958613,3.0,Object_Sea_Solid_Large,-7.0,,,,,,,,,,,
encoding,value,14,18052875,18058891,18056881.0,18059122.0,2242.0,2010.0,1901.5,1104.8,1920.0,1080.0,fixation,15.940765499835834,21.956191665958613,3.0,Object_Sea_Solid_Large,-7.0,,,,,,,,,,,
encoding,attention,14,18058891,18061910,18059169.0,18059249.0,81.0,81.0,1877.6,778.3,1920.0,1460.0,Object_Sea_Solid_Large,21.956297874916345,24.97451016586274,3.0,Object_Sea_Solid_Large,-7.0,-7.0,1.0,0.703826375072822,,,,,,,,
encoding,attention,14,18058891,18061910,18059272.0,18059524.0,253.0,253.0,1901.2,609.0999999999999,1920.0,1460.0,Object_Sea_Solid_Large,21.956297874916345,24.97451016586274,3.0,Object_Sea_Solid_Large,-7.0,-7.0,1.0,0.703826375072822,,,,,,,,
encoding,attention,14,18058891,18061910,18059533.0,18059738.0,206.0,206.0,1972.6,589.7,1920.0,1460.0,Object_Sea_Solid_Large,21.956297874916345,24.97451016586274,3.0,Object_Sea_Solid_Large,-7.0,-7.0,1.0,0.703826375072822,,,,,,,,
encoding,attention,14,18058891,18061910,18059796.0,18059933.0,138.0,138.0,2005.9,1367.6,1920.0,700.0,Object_Sea_Solid_Small,21.956297874916345,24.97451016586274,3.0,Object_Sea_Solid_Large,-7.0,-7.0,1.0,0.703826375072822,,,,,,,,
encoding,attention,14,18058891,18061910,18059955.0,18060286.0,332.0,332.0,1857.1,1244.1,1920.0,700.0,Object_Sea_Solid_Small,21.956297874916345,24.97451016586274,3.0,Object_Sea_Solid_Large,-7.0,-7.0,1.0,0.703826375072822,,,,,,,,
encoding,attention,14,18058891,18061910,18060308.0,18060670.0,363.0,363.0,1664.7,1248.6,1591.0,891.0,Animal_Sea_Pattern_Large,21.956297874916345,24.97451016586274,3.0,Object_Sea_Solid_Large,-7.0,-7.0,1.0,0.703826375072822,,,,,,,,
encoding,attention,14,18058891,18061910,18060693.0,18060897.0,205.0,205.0,1862.8,1239.6,1920.0,700.0,Object_Sea_Solid_Small,21.956297874916345,24.97451016586274,3.0,Object_Sea_Solid_Large,-7.0,-7.0,1.0,0.703826375072822,,,,,,,,
encoding,attention,14,18058891,18061910,18060921.0,18061120.0,200.0,200.0,1920.1,1076.1,1920.0,1080.0,fixation,21.956297874916345,24.97451016586274,3.0,Object_Sea_Solid_Large,-7.0,-7.0,1.0,0.703826375072822,,,,,,,,
encoding,attention,14,18058891,18061910,18061387.0,18061453.0,67.0,67.0,1906.9,1169.9,1920.0,700.0,Object_Sea_Solid_Small,21.956297874916345,24.97451016586274,3.0,Object_Sea_Solid_Large,-7.0,-7.0,1.0,0.703826375072822,,,,,,,,
encoding,fixation,15,18061910,18062665,18062397.0,18062827.0,431.0,268.0,1914.5,1091.7,1920.0,1080.0,fixation,24.974649499868978,25.72956391586922,3.0,Animal_Land_Pattern_Large,-9.0,,,,,,,,,,,
encoding,image,15,18062665,18063677,18063597.0,18063985.0,389.0,80.0,2220.7,1173.0,2249.0,891.0,Animal_Land_Pattern_Large,25.72966779093258,26.741825374774635,3.0,Animal_Land_Pattern_Large,-9.0,,,,,,,,,,,
encoding,value,15,18063677,18069689,18064210.0,18064312.0,103.0,103.0,1990.4,1250.8,1920.0,700.0,Object_Sea_Solid_Small,26.741937540937215,32.753283040830866,3.0,Animal_Land_Pattern_Large,-9.0,,,,,,,,,,,
encoding,value,15,18063677,18069689,18064334.0,18065259.0,926.0,926.0,1800.8,1227.4,1591.0,891.0,Animal_Sea_Pattern_Large,26.741937540937215,32.753283040830866,3.0,Animal_Land_Pattern_Large,-9.0,,,,,,,,,,,
encoding,value,15,18063677,18069689,18065286.0,18065599.0,314.0,314.0,1886.6,1073.5,1920.0,1080.0,fixation,26.741937540937215,32.753283040830866,3.0,Animal_Land_Pattern_Large,-9.0,,,,,,,,,,,
encoding,value,15,18063677,18069689,18065831.0,18066512.0,682.0,682.0,1904.5,1075.6,1920.0,1080.0,fixation,26.741937540937215,32.753283040830866,3.0,Animal_Land_Pattern_Large,-9.0,,,,,,,,,,,
encoding,value,15,18063677,18069689,18066716.0,18066778.0,63.0,63.0,1946.5,1081.5,1920.0,1080.0,fixation,26.741937540937215,32.753283040830866,3.0,Animal_Land_Pattern_Large,-9.0,,,,,,,,,,,
encoding,value,15,18063677,18069689,18066785.0,18067104.0,320.0,320.0,1903.8,1083.0,1920.0,1080.0,fixation,26.741937540937215,32.753283040830866,3.0,Animal_Land_Pattern_Large,-9.0,,,,,,,,,,,
encoding,value,15,18063677,18069689,18067328.0,18068510.0,1183.0,1183.0,1907.8,1067.4,1920.0,1080.0,fixation,26.741937540937215,32.753283040830866,3.0,Animal_Land_Pattern_Large,-9.0,,,,,,,,,,,
encoding,value,15,18063677,18069689,18068687.0,18069074.0,388.0,388.0,2239.1,1166.9,2249.0,891.0,Animal_Land_Pattern_Large,26.741937540937215,32.753283040830866,3.0,Animal_Land_Pattern_Large,-9.0,,,,,,,,,,,
encoding,value,15,18063677,18069689,18069270.0,18069335.0,66.0,66.0,2178.0,1167.1,2249.0,891.0,Animal_Land_Pattern_Large,26.741937540937215,32.753283040830866,3.0,Animal_Land_Pattern_Large,-9.0,,,,,,,,,,,
encoding,value,15,18063677,18069689,18069344.0,18070311.0,968.0,345.0,2221.4,1168.0,2249.0,891.0,Animal_Land_Pattern_Large,26.741937540937215,32.753283040830866,3.0,Animal_Land_Pattern_Large,-9.0,,,,,,,,,,,
encoding,attention,15,18069689,18072710,18070323.0,18070710.0,388.0,388.0,2196.3,1198.0,2249.0,891.0,Animal_Land_Pattern_Large,32.753422415815294,35.77416654094122,3.0,Animal_Land_Pattern_Large,-9.0,-9.0,1.0,0.7494607090484351,,,,,,,,
encoding,attention,15,18069689,18072710,18070912.0,18071026.0,115.0,115.0,2096.7,1073.2,2249.0,1269.0,Object_Land_Pattern_Small,32.753422415815294,35.77416654094122,3.0,Animal_Land_Pattern_Large,-9.0,-9.0,1.0,0.7494607090484351,,,,,,,,
encoding,attention,15,18069689,18072710,18071049.0,18071307.0,259.0,259.0,1882.1,1090.7,1920.0,1080.0,fixation,32.753422415815294,35.77416654094122,3.0,Animal_Land_Pattern_Large,-9.0,-9.0,1.0,0.7494607090484351,,,,,,,,
encoding,attention,15,18069689,18072710,18071490.0,18071960.0,471.0,471.0,1893.6,1082.4,1920.0,1080.0,fixation,32.753422415815294,35.77416654094122,3.0,Animal_Land_Pattern_Large,-9.0,-9.0,1.0,0.7494607090484351,,,,,,,,
encoding,attention,15,18069689,18072710,18072217.0,18072362.0,146.0,146.0,2258.9,1194.5,2249.0,891.0,Animal_Land_Pattern_Large,32.753422415815294,35.77416654094122,3.0,Animal_Land_Pattern_Large,-9.0,-9.0,1.0,0.7494607090484351,,,,,,,,
encoding,fixation,16,18072710,18073465,18073000.0,18073113.0,114.0,114.0,1939.6,1091.9,1920.0,1080.0,fixation,35.77435354096815,36.5297397908289,3.0,Animal_Land_Solid_Small,-9.0,,,,,,,,,,,
encoding,fixation,16,18072710,18073465,18073299.0,18073623.0,325.0,166.0,1908.9,1061.2,1920.0,1080.0,fixation,35.77435354096815,36.5297397908289,3.0,Animal_Land_Solid_Small,-9.0,,,,,,,,,,,
encoding,image,16,18073465,18074477,18073649.0,18073769.0,121.0,121.0,1662.1,969.5,1591.0,1269.0,Animal_Land_Solid_Small,36.52983716595918,37.54111449979246,3.0,Animal_Land_Solid_Small,-9.0,,,,,,,,,,,
encoding,image,16,18073465,18074477,18073779.0,18074672.0,894.0,698.0,1622.4,921.4000000000001,1591.0,1269.0,Animal_Land_Solid_Small,36.52983716595918,37.54111449979246,3.0,Animal_Land_Solid_Small,-9.0,,,,,,,,,,,
encoding,value,16,18074477,18080489,18074691.0,18074987.0,297.0,297.0,1601.0,801.2,1591.0,1269.0,Animal_Land_Solid_Small,37.54122991580516,43.55288308300078,3.0,Animal_Land_Solid_Small,-9.0,,,,,,,,,,,
encoding,value,16,18074477,18080489,18075006.0,18075139.0,134.0,134.0,1614.3,906.7,1591.0,1269.0,Animal_Land_Solid_Small,37.54122991580516,43.55288308300078,3.0,Animal_Land_Solid_Small,-9.0,,,,,,,,,,,
encoding,value,16,18074477,18080489,18075443.0,18075541.0,99.0,99.0,1849.4,1082.5,1591.0,891.0,Animal_Sea_Pattern_Large,37.54122991580516,43.55288308300078,3.0,Animal_Land_Solid_Small,-9.0,,,,,,,,,,,
encoding,value,16,18074477,18080489,18075550.0,18075749.0,200.0,200.0,1918.9,1087.9,1920.0,1080.0,fixation,37.54122991580516,43.55288308300078,3.0,Animal_Land_Solid_Small,-9.0,,,,,,,,,,,
encoding,value,16,18074477,18080489,18075910.0,18076044.0,135.0,135.0,2016.2,1148.7,2249.0,891.0,Animal_Land_Pattern_Large,37.54122991580516,43.55288308300078,3.0,Animal_Land_Solid_Small,-9.0,,,,,,,,,,,
encoding,value,16,18074477,18080489,18076060.0,18076344.0,285.0,285.0,1929.9,1090.9,1920.0,1080.0,fixation,37.54122991580516,43.55288308300078,3.0,Animal_Land_Solid_Small,-9.0,,,,,,,,,,,
encoding,value,16,18074477,18080489,18076567.0,18076650.0,84.0,84.0,1693.1,930.4000000000001,1591.0,1269.0,Animal_Land_Solid_Small,37.54122991580516,43.55288308300078,3.0,Animal_Land_Solid_Small,-9.0,,,,,,,,,,,
encoding,value,16,18074477,18080489,18076666.0,18077342.0,677.0,677.0,1625.2,880.9000000000001,1591.0,1269.0,Animal_Land_Solid_Small,37.54122991580516,43.55288308300078,3.0,Animal_Land_Solid_Small,-9.0,,,,,,,,,,,
encoding,value,16,18074477,18080489,18077591.0,18077715.0,125.0,125.0,1813.8,935.4000000000001,1591.0,1269.0,Animal_Land_Solid_Small,37.54122991580516,43.55288308300078,3.0,Animal_Land_Solid_Small,-9.0,,,,,,,,,,,
encoding,value,16,18074477,18080489,18077999.0,18078194.0,196.0,196.0,1769.5,902.8,1591.0,1269.0,Animal_Land_Solid_Small,37.54122991580516,43.55288308300078,3.0,Animal_Land_Solid_Small,-9.0,,,,,,,,,,,
encoding,value,16,18074477,18080489,18078211.0,18078320.0,110.0,110.0,1669.1,849.5,1591.0,1269.0,Animal_Land_Solid_Small,37.54122991580516,43.55288308300078,3.0,Animal_Land_Solid_Small,-9.0,,,,,,,,,,,
encoding,value,16,18074477,18080489,18079427.0,18079602.0,176.0,176.0,1616.9,778.8,1591.0,1269.0,Animal_Land_Solid_Small,37.54122991580516,43.55288308300078,3.0,Animal_Land_Solid_Small,-9.0,,,,,,,,,,,
encoding,value,16,18074477,18080489,18079613.0,18079732.0,120.0,120.0,1651.3,817.2,1591.0,1269.0,Animal_Land_Solid_Small,37.54122991580516,43.55288308300078,3.0,Animal_Land_Solid_Small,-9.0,,,,,,,,,,,
encoding,value,16,18074477,18080489,18080027.0,18081192.0,1166.0,462.0,1632.1,773.5999999999999,1591.0,1269.0,Animal_Land_Solid_Small,37.54122991580516,43.55288308300078,3.0,Animal_Land_Solid_Small,-9.0,,,,,,,,,,,
encoding,attention,16,18080489,18083506,18081400.0,18081447.0,48.0,48.0,1733.3,1000.7,1591.0,1269.0,Animal_Land_Solid_Small,43.5529968328774,46.56973037496209,3.0,Animal_Land_Solid_Small,-9.0,-9.0,1.0,0.4789872078690678,,,,,,,,
encoding,attention,16,18080489,18083506,18081464.0,18081742.0,279.0,279.0,1650.4,919.4000000000001,1591.0,1269.0,Animal_Land_Solid_Small,43.5529968328774,46.56973037496209,3.0,Animal_Land_Solid_Small,-9.0,-9.0,1.0,0.4789872078690678,,,,,,,,
encoding,attention,16,18080489,18083506,18082077.0,18082265.0,189.0,189.0,1857.2,1099.3,1920.0,1080.0,fixation,43.5529968328774,46.56973037496209,3.0,Animal_Land_Solid_Small,-9.0,-9.0,1.0,0.4789872078690678,,,,,,,,
encoding,attention,16,18080489,18083506,18082468.0,18082632.0,165.0,165.0,1854.0,1109.9,1591.0,891.0,Animal_Sea_Pattern_Large,43.5529968328774,46.56973037496209,3.0,Animal_Land_Solid_Small,-9.0,-9.0,1.0,0.4789872078690678,,,,,,,,
encoding,attention,16,18080489,18083506,18082642.0,18082926.0,285.0,285.0,1912.1,1075.9,1920.0,1080.0,fixation,43.5529968328774,46.56973037496209,3.0,Animal_Land_Solid_Small,-9.0,-9.0,1.0,0.4789872078690678,,,,,,,,
encoding,attention,16,18080489,18083506,18083130.0,18083230.0,101.0,101.0,1993.7,1132.0,2249.0,891.0,Animal_Land_Pattern_Large,43.5529968328774,46.56973037496209,3.0,Animal_Land_Solid_Small,-9.0,-9.0,1.0,0.4789872078690678,,,,,,,,
encoding,fixation,17,18083506,18084762,18083734.0,18084226.0,493.0,493.0,1914.8,1043.8,1920.0,1080.0,fixation,46.56987516582012,47.82524283300154,3.0,Object_Sea_Solid_Small,1.0,,,,,,,,,,,
encoding,fixation,17,18083506,18084762,18084445.0,18084928.0,484.0,317.0,1917.4,1056.5,1920.0,1080.0,fixation,46.56987516582012,47.82524283300154,3.0,Object_Sea_Solid_Small,1.0,,,,,,,,,,,
encoding,image,17,18084762,18085772,18084968.0,18085981.0,1014.0,804.0,1934.8,1445.1,1920.0,700.0,Object_Sea_Solid_Small,47.82542658294551,48.836116374935955,3.0,Object_Sea_Solid_Small,1.0,,,,,,,,,,,
encoding,value,17,18085773,18091784,18085999.0,18086805.0,807.0,807.0,1949.5,1344.0,1920.0,700.0,Object_Sea_Solid_Small,48.83623562497087,54.84705458278768,3.0,Object_Sea_Solid_Small,1.0,,,,,,,,,,,
encoding,value,17,18085773,18091784,18086816.0,18086910.0,95.0,95.0,1905.9,1322.2,1920.0,700.0,Object_Sea_Solid_Small,48.83623562497087,54.84705458278768,3.0,Object_Sea_Solid_Small,1.0,,,,,,,,,,,
encoding,value,17,18085773,18091784,18087060.0,18087283.0,224.0,224.0,1927.1,1299.6,1920.0,700.0,Object_Sea_Solid_Small,48.83623562497087,54.84705458278768,3.0,Object_Sea_Solid_Small,1.0,,,,,,,,,,,
encoding,value,17,18085773,18091784,18087325.0,18087548.0,224.0,224.0,1892.7,1004.3,1920.0,1460.0,Object_Sea_Solid_Large,48.83623562497087,54.84705458278768,3.0,Object_Sea_Solid_Small,1.0,,,,,,,,,,,
encoding,value,17,18085773,18091784,18087561.0,18088075.0,515.0,515.0,1931.0,1058.6,1920.0,1080.0,fixation,48.83623562497087,54.84705458278768,3.0,Object_Sea_Solid_Small,1.0,,,,,,,,,,,
encoding,value,17,18085773,18091784,18088298.0,18088366.0,69.0,69.0,1920.5,1073.3,1920.0,1080.0,fixation,48.83623562497087,54.84705458278768,3.0,Object_Sea_Solid_Small,1.0,,,,,,,,,,,
encoding,value,17,18085773,18091784,18088403.0,18089278.0,876.0,876.0,1941.5,1357.0,1920.0,700.0,Object_Sea_Solid_Small,48.83623562497087,54.84705458278768,3.0,Object_Sea_Solid_Small,1.0,,,,,,,,,,,
encoding,value,17,18085773,18091784,18089516.0,18089613.0,98.0,98.0,1764.7,1198.3,1591.0,891.0,Animal_Sea_Pattern_Large,48.83623562497087,54.84705458278768,3.0,Object_Sea_Solid_Small,1.0,,,,,,,,,,,
encoding,value,17,18085773,18091784,18089636.0,18090199.0,564.0,564.0,1908.8,1065.7,1920.0,1080.0,fixation,48.83623562497087,54.84705458278768,3.0,Object_Sea_Solid_Small,1.0,,,,,,,,,,,
encoding,value,17,18085773,18091784,18090406.0,18092120.0,1715.0,1378.0,1925.8,1059.3,1920.0,1080.0,fixation,48.83623562497087,54.84705458278768,3.0,Object_Sea_Solid_Small,1.0,,,,,,,,,,,
encoding,attention,17,18091784,18094794,18092141.0,18092245.0,105.0,105.0,1916.7,1152.8,1920.0,700.0,Object_Sea_Solid_Small,54.847199249779806,57.857610165840015,3.0,Object_Sea_Solid_Small,1.0,,,,,,,,,,,
encoding,attention,17,18091784,18094794,18092271.0,18092302.0,32.0,32.0,1917.1,1351.5,1920.0,700.0,Object_Sea_Solid_Small,54.847199249779806,57.857610165840015,3.0,Object_Sea_Solid_Small,1.0,,,,,,,,,,,
encoding,attention,17,18091784,18094794,18092445.0,18093031.0,587.0,587.0,1944.8,1335.8,1920.0,700.0,Object_Sea_Solid_Small,54.847199249779806,57.857610165840015,3.0,Object_Sea_Solid_Small,1.0,,,,,,,,,,,
encoding,attention,17,18091784,18094794,18093061.0,18093253.0,193.0,193.0,1914.3,1114.7,1920.0,1080.0,fixation,54.847199249779806,57.857610165840015,3.0,Object_Sea_Solid_Small,1.0,,,,,,,,,,,
encoding,attention,17,18091784,18094794,18093448.0,18093557.0,110.0,110.0,1906.5,1048.7,1920.0,1080.0,fixation,54.847199249779806,57.857610165840015,3.0,Object_Sea_Solid_Small,1.0,,,,,,,,,,,
encoding,attention,17,18091784,18094794,18093572.0,18093699.0,128.0,128.0,1925.3,1128.5,1920.0,1080.0,fixation,54.847199249779806,57.857610165840015,3.0,Object_Sea_Solid_Small,1.0,,,,,,,,,,,
encoding,attention,17,18091784,18094794,18093723.0,18093819.0,97.0,97.0,1918.8,1317.1,1920.0,700.0,Object_Sea_Solid_Small,54.847199249779806,57.857610165840015,3.0,Object_Sea_Solid_Small,1.0,,,,,,,,,,,
encoding,attention,17,18091784,18094794,18094004.0,18094059.0,56.0,56.0,1864.3,1330.9,1920.0,700.0,Object_Sea_Solid_Small,54.847199249779806,57.857610165840015,3.0,Object_Sea_Solid_Small,1.0,,,,,,,,,,,
encoding,attention,17,18091784,18094794,18094068.0,18094500.0,433.0,433.0,1944.3,1338.0,1920.0,700.0,Object_Sea_Solid_Small,54.847199249779806,57.857610165840015,3.0,Object_Sea_Solid_Small,1.0,,,,,,,,,,,
encoding,fixation,18,18094794,18095300,18095023.0,18095182.0,160.0,160.0,1923.4,1139.3,1920.0,1080.0,fixation,57.85773816588335,58.362934707896784,3.0,Object_Land_Pattern_Small,3.0,,,,,,,,,,,
encoding,fixation,18,18094794,18095300,18095194.0,18095366.0,173.0,106.0,1918.7,1075.7,1920.0,1080.0,fixation,57.85773816588335,58.362934707896784,3.0,Object_Land_Pattern_Small,3.0,,,,,,,,,,,
encoding,image,18,18095300,18096311,18095393.0,18095537.0,145.0,145.0,1927.1,1304.8,1920.0,700.0,Object_Sea_Solid_Small,58.36305841594003,59.3745615829248,3.0,Object_Land_Pattern_Small,3.0,,,,,,,,,,,
encoding,image,18,18095300,18096311,18095581.0,18095904.0,324.0,324.0,2208.2,889.3,2249.0,1269.0,Object_Land_Pattern_Small,58.36305841594003,59.3745615829248,3.0,Object_Land_Pattern_Small,3.0,,,,,,,,,,,
encoding,image,18,18095300,18096311,18096076.0,18096213.0,138.0,138.0,1918.6,1081.7,1920.0,1080.0,fixation,58.36305841594003,59.3745615829248,3.0,Object_Land_Pattern_Small,3.0,,,,,,,,,,,
encoding,image,18,18095300,18096311,18096239.0,18096467.0,229.0,72.0,2231.8,901.4000000000001,2249.0,1269.0,Object_Land_Pattern_Small,58.36305841594003,59.3745615829248,3.0,Object_Land_Pattern_Small,3.0,,,,,,,,,,,
encoding,value,18,18096311,18102326,18096489.0,18096699.0,211.0,211.0,2266.5,757.0999999999999,2249.0,1269.0,Object_Land_Pattern_Small,59.374683832982555,65.38864216580987,3.0,Object_Land_Pattern_Small,3.0,,,,,,,,,,,
encoding,value,18,18096311,18102326,18096940.0,18097029.0,90.0,90.0,2244.9,823.7,2249.0,1269.0,Object_Land_Pattern_Small,59.374683832982555,65.38864216580987,3.0,Object_Land_Pattern_Small,3.0,,,,,,,,,,,
encoding,value,18,18096311,18102326,18097222.0,18097343.0,122.0,122.0,1976.3,1092.7,1920.0,1080.0,fixation,59.374683832982555,65.38864216580987,3.0,Object_Land_Pattern_Small,3.0,,,,,,,,,,,
encoding,value,18,18096311,18102326,18097355.0,18097615.0,261.0,261.0,1930.5,1054.7,1920.0,1080.0,fixation,59.374683832982555,65.38864216580987,3.0,Object_Land_Pattern_Small,3.0,,,,,,,,,,,
encoding,value,18,18096311,18102326,18097624.0,18097871.0,248.0,248.0,1909.7,1091.4,1920.0,1080.0,fixation,59.374683832982555,65.38864216580987,3.0,Object_Land_Pattern_Small,3.0,,,,,,,,,,,
encoding,value,18,18096311,18102326,18097918.0,18098132.0,215.0,215.0,1948.9,1480.7,1920.0,700.0,Object_Sea_Solid_Small,59.374683832982555,65.38864216580987,3.0,Object_Land_Pattern_Small,3.0,,,,,,,,,,,
encoding,value,18,18096311,18102326,18098151.0,18098413.0,263.0,263.0,1820.8,1509.4,1920.0,700.0,Object_Sea_Solid_Small,59.374683832982555,65.38864216580987,3.0,Object_Land_Pattern_Small,3.0,,,,,,,,,,,
encoding,value,18,18096311,18102326,18098428.0,18098570.0,143.0,143.0,1740.0,1480.8,1920.0,700.0,Object_Sea_Solid_Small,59.374683832982555,65.38864216580987,3.0,Object_Land_Pattern_Small,3.0,,,,,,,,,,,
encoding,value,18,18096311,18102326,18098621.0,18099139.0,519.0,519.0,2244.1,853.5,2249.0,1269.0,Object_Land_Pattern_Small,59.374683832982555,65.38864216580987,3.0,Object_Land_Pattern_Small,3.0,,,,,,,,,,,
encoding,value,18,18096311,18102326,18099149.0,18099554.0,406.0,406.0,2259.2,783.7,2249.0,1269.0,Object_Land_Pattern_Small,59.374683832982555,65.38864216580987,3.0,Object_Land_Pattern_Small,3.0,,,,,,,,,,,
encoding,value,18,18096311,18102326,18099564.0,18099763.0,200.0,200.0,2260.3,834.7,2249.0,1269.0,Object_Land_Pattern_Small,59.374683832982555,65.38864216580987,3.0,Object_Land_Pattern_Small,3.0,,,,,,,,,,,
encoding,value,18,18096311,18102326,18099776.0,18099931.0,156.0,156.0,2251.2,894.5,2249.0,1269.0,Object_Land_Pattern_Small,59.374683832982555,65.38864216580987,3.0,Object_Land_Pattern_Small,3.0,,,,,,,,,,,
encoding,value,18,18096311,18102326,18100105.0,18100355.0,251.0,251.0,1668.1,995.7,1591.0,1269.0,Animal_Land_Solid_Small,59.374683832982555,65.38864216580987,3.0,Object_Land_Pattern_Small,3.0,,,,,,,,,,,
encoding,value,18,18096311,18102326,18100381.0,18100547.0,167.0,167.0,1913.5,1067.5,1920.0,1080.0,fixation,59.374683832982555,65.38864216580987,3.0,Object_Land_Pattern_Small,3.0,,,,,,,,,,,
encoding,value,18,18096311,18102326,18100725.0,18100848.0,124.0,124.0,1965.7,1159.3,1920.0,700.0,Object_Sea_Solid_Small,59.374683832982555,65.38864216580987,3.0,Object_Land_Pattern_Small,3.0,,,,,,,,,,,
encoding,value,18,18096311,18102326,18100866.0,18101203.0,338.0,338.0,1905.8,1086.1,1920.0,1080.0,fixation,59.374683832982555,65.38864216580987,3.0,Object_Land_Pattern_Small,3.0,,,,,,,,,,,
encoding,value,18,18096311,18102326,18101242.0,18101790.0,549.0,549.0,2270.6,775.9000000000001,2249.0,1269.0,Object_Land_Pattern_Small,59.374683832982555,65.38864216580987,3.0,Object_Land_Pattern_Small,3.0,,,,,,,,,,,
encoding,value,18,18096311,18102326,18101803.0,18102192.0,390.0,390.0,2263.3,777.4000000000001,2249.0,1269.0,Object_Land_Pattern_Small,59.374683832982555,65.38864216580987,3.0,Object_Land_Pattern_Small,3.0,,,,,,,,,,,
encoding,attention,18,18102326,18105343,18102489.0,18102600.0,112.0,112.0,1659.7,986.5999999999999,1591.0,1269.0,Animal_Land_Solid_Small,65.38881733291782,68.40634445799515,3.0,Object_Land_Pattern_Small,3.0,3.0,1.0,0.9462666672188788,,,,,,,,
encoding,attention,18,18102326,18105343,18102648.0,18102925.0,278.0,278.0,2254.2,792.5999999999999,2249.0,1269.0,Object_Land_Pattern_Small,65.38881733291782,68.40634445799515,3.0,Object_Land_Pattern_Small,3.0,3.0,1.0,0.9462666672188788,,,,,,,,
encoding,attention,18,18102326,18105343,18102935.0,18103523.0,589.0,589.0,2305.2,773.8,2249.0,1269.0,Object_Land_Pattern_Small,65.38881733291782,68.40634445799515,3.0,Object_Land_Pattern_Small,3.0,3.0,1.0,0.9462666672188788,,,,,,,,
encoding,attention,18,18102326,18105343,18103574.0,18103730.0,157.0,157.0,1783.9,1127.7,1591.0,891.0,Animal_Sea_Pattern_Large,65.38881733291782,68.40634445799515,3.0,Object_Land_Pattern_Small,3.0,3.0,1.0,0.9462666672188788,,,,,,,,
encoding,attention,18,18102326,18105343,18103749.0,18104110.0,362.0,362.0,1928.2,1121.6,1920.0,1080.0,fixation,65.38881733291782,68.40634445799515,3.0,Object_Land_Pattern_Small,3.0,3.0,1.0,0.9462666672188788,,,,,,,,
encoding,attention,18,18102326,18105343,18104134.0,18104369.0,236.0,236.0,1988.1,1259.5,1920.0,700.0,Object_Sea_Solid_Small,65.38881733291782,68.40634445799515,3.0,Object_Land_Pattern_Small,3.0,3.0,1.0,0.9462666672188788,,,,,,,,
encoding,attention,18,18102326,18105343,18104393.0,18104566.0,174.0,174.0,1847.6,1134.0,1591.0,891.0,Animal_Sea_Pattern_Large,65.38881733291782,68.40634445799515,3.0,Object_Land_Pattern_Small,3.0,3.0,1.0,0.9462666672188788,,,,,,,,
encoding,attention,18,18102326,18105343,18104580.0,18104924.0,345.0,345.0,1905.6,1079.6,1920.0,1080.0,fixation,65.38881733291782,68.40634445799515,3.0,Object_Land_Pattern_Small,3.0,3.0,1.0,0.9462666672188788,,,,,,,,
encoding,attention,18,18102326,18105343,18105077.0,18105160.0,84.0,84.0,2000.9,1109.0,2249.0,891.0,Animal_Land_Pattern_Large,65.38881733291782,68.40634445799515,3.0,Object_Land_Pattern_Small,3.0,3.0,1.0,0.9462666672188788,,,,,,,,
encoding,fixation,19,18439633,18440139,18439789.0,18439860.0,72.0,72.0,1902.9,853.5,1920.0,1460.0,Animal_Sea_Solid_Small,3.5831757918931544,4.088815791998059,4.0,Animal_Sea_Solid_Small,-6.0,,,,,,,,,,,
encoding,fixation,19,18439633,18440139,18439888.0,18439998.0,111.0,111.0,1903.5,1077.6,1920.0,1080.0,fixation,3.5831757918931544,4.088815791998059,4.0,Animal_Sea_Solid_Small,-6.0,,,,,,,,,,,
encoding,image,19,18440139,18441151,18440447.0,18440475.0,29.0,29.0,1949.6,821.5,1920.0,1460.0,Animal_Sea_Solid_Small,4.088913583895192,5.1007193338591605,4.0,Animal_Sea_Solid_Small,-6.0,,,,,,,,,,,
encoding,image,19,18440139,18441151,18440491.0,18441164.0,674.0,660.0,1924.9,710.5999999999999,1920.0,1460.0,Animal_Sea_Solid_Small,4.088913583895192,5.1007193338591605,4.0,Animal_Sea_Solid_Small,-6.0,,,,,,,,,,,
encoding,value,19,18441151,18447164,18441211.0,18441491.0,281.0,281.0,1830.5,1192.7,1591.0,891.0,Animal_Sea_Pattern_Large,5.100886791944504,11.114132374990731,4.0,Animal_Sea_Solid_Small,-6.0,,,,,,,,,,,
encoding,value,19,18441151,18447164,18441522.0,18441621.0,100.0,100.0,1876.3,940.0,1920.0,1460.0,Animal_Sea_Solid_Small,5.100886791944504,11.114132374990731,4.0,Animal_Sea_Solid_Small,-6.0,,,,,,,,,,,
encoding,value,19,18441151,18447164,18441651.0,18441760.0,110.0,110.0,1915.9,644.8,1920.0,1460.0,Animal_Sea_Solid_Small,5.100886791944504,11.114132374990731,4.0,Animal_Sea_Solid_Small,-6.0,,,,,,,,,,,
encoding,value,19,18441151,18447164,18441775.0,18441935.0,161.0,161.0,1922.0,581.9000000000001,1920.0,1460.0,Animal_Sea_Solid_Small,5.100886791944504,11.114132374990731,4.0,Animal_Sea_Solid_Small,-6.0,,,,,,,,,,,
encoding,value,19,18441151,18447164,18442350.0,18442399.0,50.0,50.0,1799.1,1179.5,1591.0,891.0,Animal_Sea_Pattern_Large,5.100886791944504,11.114132374990731,4.0,Animal_Sea_Solid_Small,-6.0,,,,,,,,,,,
encoding,value,19,18441151,18447164,18442417.0,18442683.0,267.0,267.0,1901.1,1148.8,1920.0,700.0,Object_Land_Solid_Small,5.100886791944504,11.114132374990731,4.0,Animal_Sea_Solid_Small,-6.0,,,,,,,,,,,
encoding,value,19,18441151,18447164,18442695.0,18442905.0,211.0,211.0,1925.0,1081.4,1920.0,1080.0,fixation,5.100886791944504,11.114132374990731,4.0,Animal_Sea_Solid_Small,-6.0,,,,,,,,,,,
encoding,value,19,18441151,18447164,18443149.0,18446972.0,3824.0,3824.0,1917.7,1091.4,1920.0,1080.0,fixation,5.100886791944504,11.114132374990731,4.0,Animal_Sea_Solid_Small,-6.0,,,,,,,,,,,
encoding,value,19,18441151,18447164,18447004.0,18447175.0,172.0,160.0,1918.4,769.5,1920.0,1460.0,Animal_Sea_Solid_Small,5.100886791944504,11.114132374990731,4.0,Animal_Sea_Solid_Small,-6.0,,,,,,,,,,,
encoding,attention,19,18447164,18450182,18447195.0,18447381.0,187.0,187.0,1931.8,634.9000000000001,1920.0,1460.0,Animal_Sea_Solid_Small,11.1142469169572,14.131445958977563,4.0,Animal_Sea_Solid_Small,-6.0,-6.0,1.0,1.067121249856427,,,,,,,,
encoding,attention,19,18447164,18450182,18447393.0,18447606.0,214.0,214.0,1904.6,579.5,1920.0,1460.0,Animal_Sea_Solid_Small,11.1142469169572,14.131445958977563,4.0,Animal_Sea_Solid_Small,-6.0,-6.0,1.0,1.067121249856427,,,,,,,,
encoding,attention,19,18447164,18450182,18448313.0,18448432.0,120.0,120.0,2007.1,634.4000000000001,1920.0,1460.0,Animal_Sea_Solid_Small,11.1142469169572,14.131445958977563,4.0,Animal_Sea_Solid_Small,-6.0,-6.0,1.0,1.067121249856427,,,,,,,,
encoding,attention,19,18447164,18450182,18448451.0,18448555.0,105.0,105.0,1890.7,597.5999999999999,1920.0,1460.0,Animal_Sea_Solid_Small,11.1142469169572,14.131445958977563,4.0,Animal_Sea_Solid_Small,-6.0,-6.0,1.0,1.067121249856427,,,,,,,,
encoding,attention,19,18447164,18450182,18448762.0,18448877.0,116.0,116.0,1846.3,1030.6,1591.0,1269.0,Animal_Land_Solid_Small,11.1142469169572,14.131445958977563,4.0,Animal_Sea_Solid_Small,-6.0,-6.0,1.0,1.067121249856427,,,,,,,,
encoding,attention,19,18447164,18450182,18448895.0,18449066.0,172.0,172.0,1950.1,960.8,1920.0,1460.0,Animal_Sea_Solid_Small,11.1142469169572,14.131445958977563,4.0,Animal_Sea_Solid_Small,-6.0,-6.0,1.0,1.067121249856427,,,,,,,,
encoding,attention,19,18447164,18450182,18449097.0,18449524.0,428.0,428.0,1948.8,667.7,1920.0,1460.0,Animal_Sea_Solid_Small,11.1142469169572,14.131445958977563,4.0,Animal_Sea_Solid_Small,-6.0,-6.0,1.0,1.067121249856427,,,,,,,,
encoding,attention,19,18447164,18450182,18449544.0,18449742.0,199.0,199.0,1923.3,570.4000000000001,1920.0,1460.0,Animal_Sea_Solid_Small,11.1142469169572,14.131445958977563,4.0,Animal_Sea_Solid_Small,-6.0,-6.0,1.0,1.067121249856427,,,,,,,,
encoding,attention,19,18447164,18450182,18449780.0,18450134.0,355.0,355.0,1936.2,990.7,1920.0,1460.0,Animal_Sea_Solid_Small,11.1142469169572,14.131445958977563,4.0,Animal_Sea_Solid_Small,-6.0,-6.0,1.0,1.067121249856427,,,,,,,,
encoding,fixation,20,18450182,18450687,18450423.0,18450542.0,120.0,120.0,1908.1,1075.8,1920.0,1080.0,fixation,14.131586750037968,14.636735749896616,4.0,Object_Land_Pattern_Large,-1.0,,,,,,,,,,,
encoding,image,20,18450687,18451699,18450761.0,18450863.0,103.0,103.0,1913.2,1063.9,1920.0,1080.0,fixation,14.636857583886012,15.649059583898634,4.0,Object_Land_Pattern_Large,-1.0,,,,,,,,,,,
encoding,image,20,18450687,18451699,18450898.0,18451533.0,636.0,636.0,2240.4,907.4000000000001,2249.0,1269.0,Object_Land_Pattern_Large,14.636857583886012,15.649059583898634,4.0,Object_Land_Pattern_Large,-1.0,,,,,,,,,,,
