phase,event,onset,offset,trial_number,game,image,outcome,choice,correct,rt,letter,match,response,option,true_value,true_position,recalled_position,
encoding,fixation,9.954634333960712,10.976167250075378,1,1,Object_Land_Pattern_Small,-3,,,,,,,,,,,
encoding,image,10.9763094590744,11.999344125040807,1,1,Object_Land_Pattern_Small,-3,,,,,,,,,,,
encoding,value,11.999467667075805,18.015831709024496,1,1,Object_Land_Pattern_Small,-3,,,,,,,,,,,
encoding,attention,18.015950542059727,21.085277916979976,1,1,Object_Land_Pattern_Small,-3,-3,1,1.5182182079879567,,,,,,,,
encoding,fixation,21.08544279204216,22.590588417020626,2,1,Animal_Sea_Solid_Large,-9,,,,,,,,,,,
encoding,image,22.59072004200425,23.603304333984852,2,1,Animal_Sea_Solid_Large,-9,,,,,,,,,,,
encoding,value,23.603416542056948,29.616110792034306,2,1,Animal_Sea_Solid_Large,-9,,,,,,,,,,,
encoding,attention,29.616272667073645,32.63480904197786,2,1,Animal_Sea_Solid_Large,-9,-9,1,1.1170002500293776,,,,,,,,
encoding,fixation,32.63496850000229,33.39198829198722,3,1,Object_Sea_Pattern_Large,1,,,,,,,,,,,
encoding,image,33.39211483404506,34.404826209065504,3,1,Object_Sea_Pattern_Large,1,,,,,,,,,,,
encoding,value,34.404941334039904,40.41689254203811,3,1,Object_Sea_Pattern_Large,1,,,,,,,,,,,
encoding,attention,40.417022875044495,43.43499774998054,3,1,Object_Sea_Pattern_Large,1,+1,1,2.125793791958131,,,,,,,,
encoding,fixation,43.43514816707466,43.94135358405765,4,1,Animal_Sea_Pattern_Large,3,,,,,,,,,,,
encoding,image,43.941471375059336,44.9520132499747,4,1,Animal_Sea_Pattern_Large,3,,,,,,,,,,,
encoding,value,44.95213275006972,50.96275462501217,4,1,Animal_Sea_Pattern_Large,3,,,,,,,,,,,
encoding,attention,50.96288183401339,53.97996508399956,4,1,Animal_Sea_Pattern_Large,3,+3,1,1.7240637090289965,,,,,,,,
encoding,fixation,53.980126750073396,55.48598495905753,5,1,Animal_Land_Solid_Small,9,,,,,,,,,,,
encoding,image,55.48608974996023,56.49719420901965,5,1,Animal_Land_Solid_Small,9,,,,,,,,,,,
encoding,value,56.49733250006102,62.50822199997492,5,1,Animal_Land_Solid_Small,9,,,,,,,,,,,
encoding,attention,62.50835370901041,65.53060545900371,5,1,Animal_Land_Solid_Small,9,+9,1,1.629950916976668,,,,,,,,
encoding,fixation,65.5307607089635,67.03590187500231,6,1,Object_Land_Solid_Small,-4,,,,,,,,,,,
encoding,image,67.0360048749717,68.0474169170484,6,1,Object_Land_Solid_Small,-4,,,,,,,,,,,
encoding,value,68.04752420901787,74.06072545901407,6,1,Object_Land_Solid_Small,-4,,,,,,,,,,,
encoding,attention,74.06083995907102,77.08043895906303,6,1,Object_Land_Solid_Small,-4,-4,1,0.6712837079539895,,,,,,,,
n-back,,,,1,1,,,,1,None,N,False,None,,,,,
n-back,,,,2,1,,,,1,None,N,False,None,,,,,
n-back,,,,3,1,,,,1,None,B,False,None,,,,,
n-back,,,,4,1,,,,1,None,B,False,None,,,,,
n-back,,,,5,1,,,,0,None,B,True,None,,,,,
n-back,,,,6,1,,,,0,None,B,True,None,,,,,
n-back,,,,7,1,,,,1,None,V,False,None,,,,,
n-back,,,,8,1,,,,1,None,C,False,None,,,,,
n-back,,,,9,1,,,,1,1.2570517499698326,V,True,1,,,,,
n-back,,,,10,1,,,,0,None,C,True,None,,,,,
n-back,,,,11,1,,,,1,None,N,False,None,,,,,
n-back,,,,12,1,,,,0,0.7243373750243336,B,False,1,,,,,
n-back,,,,13,1,,,,0,None,N,True,None,,,,,
n-back,,,,14,1,,,,1,None,C,False,None,,,,,
n-back,,,,15,1,,,,1,None,V,False,None,,,,,
n-back,,,,16,1,,,,0,0.6718570409575477,B,False,1,,,,,
n-back,,,,17,1,,,,1,0.6523382499581203,V,True,1,,,,,
n-back,,,,18,1,,,,1,0.8593144590267912,B,True,1,,,,,
n-back,,,,19,1,,,,1,None,C,False,None,,,,,
n-back,,,,20,1,,,,0,1.323767250054516,N,False,1,,,,,
n-back,,,,21,1,,,,1,None,X,False,None,,,,,
n-back,,,,22,1,,,,1,0.6339037920115516,N,True,1,,,,,
n-back,,,,23,1,,,,1,None,B,False,None,,,,,
n-back,,,,24,1,,,,1,0.8183013750240207,N,True,1,,,,,
n-back,,,,25,1,,,,1,None,Z,False,None,,,,,
n-back,,,,26,1,,,,1,None,X,False,None,,,,,
n-back,,,,27,1,,,,0,0.9475992920342833,X,False,1,,,,,
n-back,,,,28,1,,,,1,None,N,False,None,,,,,
n-back,,,,29,1,,,,1,None,V,False,None,,,,,
n-back,,,,30,1,,,,1,0.7766715419711545,N,True,1,,,,,
choice,fixation,157.22452470904682,158.48101004201453,1,1,,,,,,,,,Object,,,,
choice,option,158.49273025000002,160.28393504198175,1,1,,,,,,,,,Object,,,,
choice,choice,160.28406970901415,174.46475345897488,1,1,,,2,1,13.168106249999255,,,,Object,,,,
choice,fixation,174.46489800000563,175.72005529201124,2,1,,,,,,,,,Pattern,,,,
choice,option,175.72967079200316,176.75705854198895,2,1,,,,,,,,,Pattern,,,,
choice,choice,176.75720016704872,183.85494691703934,2,1,,,1,1,6.087658665957861,,,,Pattern,,,,
choice,fixation,183.85509633400943,185.36034720903262,3,1,,,,,,,,,Sea,,,,
choice,option,185.36907445907127,186.3957360839704,3,1,,,,,,,,,Sea,,,,
choice,choice,186.39585204201285,189.87022787507158,3,1,,,1,0,2.464686958002858,,,,Sea,,,,
choice,fixation,189.87046470900532,190.37545024999417,4,1,,,,,,,,,Land,,,,
choice,option,190.38416812499054,191.41103712504264,4,1,,,,,,,,,Land,,,,
choice,choice,191.41115558403544,193.43024087499361,4,1,,,1,1,1.0098072909750044,,,,Land,,,,
choice,fixation,193.4303607500624,193.935912459041,5,1,,,,,,,,,Solid,,,,
choice,option,193.9454788750736,194.9746175420005,5,1,,,,,,,,,Solid,,,,
choice,choice,194.97472599998582,199.83187770901714,5,1,,,2,1,3.8478082079673186,,,,Solid,,,,
choice,fixation,199.8320215420099,201.08731820899993,6,1,,,,,,,,,Small,,,,
choice,option,201.09682270896155,202.12535383400973,6,1,,,,,,,,,Small,,,,
choice,choice,202.12546908401418,204.91004941705614,6,1,,,1,1,1.7747465840075165,,,,Small,,,,
choice,fixation,204.9101740840124,205.9150782499928,7,1,,,,,,,,,Animal,,,,
choice,option,205.92450012499467,206.95157362497412,7,1,,,,,,,,,Animal,,,,
choice,choice,206.9517089590663,208.82450687501114,7,1,,,1,1,0.8609098329907283,,,,Animal,,,,
choice,fixation,208.82463237503543,209.82958116696682,8,1,,,,,,,,,Large,,,,
choice,option,209.83834391704295,210.86638133402448,8,1,,,,,,,,,Large,,,,
choice,choice,210.86649416701403,212.93493125005625,8,1,,,2,1,1.0589124999241903,,,,Large,,,,
memory,free_recall,256.4101088340394,295.3620633339742,0,1,,,,,,,,,,,,,
memory,value_recall,334.82567312498577,342.0824967090739,1,1,Animal_Sea_Solid_Large,,,,7.253591499989852,,,,,-9,,,
memory,value_recall,343.87973562499974,347.94671383406967,2,1,Animal_Land_Solid_Small,,,,4.0625250830780715,,,,,9,,,
memory,value_recall,349.49200158403255,354.96120337501634,3,1,Object_Sea_Pattern_Large,,,,5.465220124926418,,,,,1,,,
memory,value_recall,357.00842275004834,360.00064870901406,4,1,Object_Land_Pattern_Small,,,,2.9880762920947745,,,,,-3,,,
memory,value_recall,361.7971071669599,365.9064376669703,5,1,Object_Land_Solid_Small,,,,4.105095084058121,,,,,-4,,,
memory,value_recall,367.20290162507445,370.1471725839656,6,1,Animal_Sea_Pattern_Large,,,,2.940170207992196,,,,,3,,,
memory,spatial_recall,387.21555362502113,395.0408018750604,6,1,Animal_Sea_Pattern_Large,,,0,7.821176832891069,,,,,,"[329, -190]","[-329, -190]",
memory,spatial_recall,396.8479271669639,404.075870458968,6,1,Animal_Sea_Solid_Large,,,0,7.223776791943237,,,,,,"[0, -380]","[329, -190]",
memory,spatial_recall,405.13400070904754,409.0918379169889,6,1,Object_Land_Pattern_Small,,,1,3.9513276669895276,,,,,,"[0, 380]","[0, 380]",
memory,spatial_recall,410.8972379589686,413.6578380840365,6,1,Animal_Land_Solid_Small,,,1,2.7561278329230845,,,,,,"[-329, 190]","[-329, 190]",
memory,spatial_recall,414.9635143340565,418.67493491701316,6,1,Object_Land_Solid_Small,,,1,3.707233167020604,,,,,,"[329, 189]","[329, 189]",
memory,spatial_recall,419.97872474999167,423.0362196250353,6,1,Object_Sea_Pattern_Large,,,1,3.0528081250377,,,,,,"[-329, -190]","[-329, -190]",
encoding,fixation,8.988160875043832,9.993717292090878,7,2,Object_Sea_Pattern_Small,7,,,,,,,,,,,
encoding,image,9.993817834067158,11.005476292106323,7,2,Object_Sea_Pattern_Small,7,,,,,,,,,,,
encoding,value,11.005584167083725,17.017502125003375,7,2,Object_Sea_Pattern_Small,7,,,,,,,,,,,
encoding,attention,17.017628584057093,20.036447999998927,7,2,Object_Sea_Pattern_Small,7,+7,1,0.9486256249947473,,,,,,,,
encoding,fixation,20.036596167017706,21.29171512508765,8,2,Animal_Land_Pattern_Small,-2,,,,,,,,,,,
encoding,image,21.291818334022537,22.302895084023476,8,2,Animal_Land_Pattern_Small,-2,,,,,,,,,,,
encoding,value,22.30299920903053,28.315205042017624,8,2,Animal_Land_Pattern_Small,-2,,,,,,,,,,,
encoding,attention,28.31534662505146,31.33398787502665,8,2,Animal_Land_Pattern_Small,-2,-2,1,1.322076917043887,,,,,,,,
encoding,fixation,31.33415308408439,32.33914541709237,9,2,Object_Sea_Solid_Large,7,,,,,,,,,,,
encoding,image,32.339261375018395,33.35098170908168,9,2,Object_Sea_Solid_Large,7,,,,,,,,,,,
encoding,value,33.35110504203476,39.36399570910726,9,2,Object_Sea_Solid_Large,7,,,,,,,,,,,
encoding,attention,39.36411429208238,42.38191412505694,9,2,Object_Sea_Solid_Large,7,+7,1,1.1350795840844512,,,,,,,,
encoding,fixation,42.38209033408202,43.38724350009579,10,2,Animal_Land_Solid_Large,9,,,,,,,,,,,
encoding,image,43.387363792047836,44.39932604203932,10,2,Animal_Land_Solid_Large,9,,,,,,,,,,,
encoding,value,44.39944162510801,50.41091691702604,10,2,Animal_Land_Solid_Large,9,,,,,,,,,,,
encoding,attention,50.41102900006808,53.42858425003942,10,2,Animal_Land_Solid_Large,9,+9,1,1.8294678749516606,,,,,,,,
encoding,fixation,53.42875762504991,54.18408929207362,11,2,Object_Sea_Solid_Small,-7,,,,,,,,,,,
encoding,image,54.18420345906634,55.19678591703996,11,2,Object_Sea_Solid_Small,-7,,,,,,,,,,,
encoding,value,55.19690766709391,61.20739995909389,11,2,Object_Sea_Solid_Small,-7,,,,,,,,,,,
encoding,attention,61.20751475007273,64.22490845900029,11,2,Object_Sea_Solid_Small,-7,-7,1,0.904712374904193,,,,,,,,
encoding,fixation,64.22505912510678,64.73022962501273,12,2,Animal_Land_Pattern_Large,-3,,,,,,,,,,,
encoding,image,64.73033220903017,65.74158275010996,12,2,Animal_Land_Pattern_Large,-3,,,,,,,,,,,
encoding,value,65.74170020909514,71.75386237504426,12,2,Animal_Land_Pattern_Large,-3,,,,,,,,,,,
encoding,attention,71.75400091707706,74.77252291701734,12,2,Animal_Land_Pattern_Large,-3,-3,1,0.8065015829633921,,,,,,,,
n-back,,,,31,2,,,,0,None,B,True,None,,,,,
n-back,,,,32,2,,,,1,None,V,False,None,,,,,
n-back,,,,33,2,,,,1,0.5974915410624817,B,True,1,,,,,
n-back,,,,34,2,,,,1,None,B,False,None,,,,,
n-back,,,,35,2,,,,0,1.2525460409233347,N,False,1,,,,,
n-back,,,,36,2,,,,1,None,C,False,None,,,,,
n-back,,,,37,2,,,,1,None,C,False,None,,,,,
n-back,,,,38,2,,,,1,None,X,False,None,,,,,
n-back,,,,39,2,,,,1,None,V,False,None,,,,,
n-back,,,,40,2,,,,0,None,X,True,None,,,,,
n-back,,,,41,2,,,,1,0.7631529169157147,V,True,1,,,,,
n-back,,,,42,2,,,,1,None,B,False,None,,,,,
n-back,,,,43,2,,,,1,0.625854334095493,V,True,1,,,,,
n-back,,,,44,2,,,,0,None,B,True,None,,,,,
n-back,,,,45,2,,,,0,0.6838333340128884,B,False,1,,,,,
n-back,,,,46,2,,,,0,None,B,True,None,,,,,
n-back,,,,47,2,,,,1,0.5303999170428142,B,True,1,,,,,
n-back,,,,48,2,,,,1,None,N,False,None,,,,,
n-back,,,,49,2,,,,1,None,Z,False,None,,,,,
n-back,,,,50,2,,,,1,None,B,False,None,,,,,
n-back,,,,51,2,,,,1,None,C,False,None,,,,,
n-back,,,,52,2,,,,0,0.8763085829559714,Z,False,1,,,,,
n-back,,,,53,2,,,,1,None,N,False,None,,,,,
n-back,,,,54,2,,,,1,None,X,False,None,,,,,
n-back,,,,55,2,,,,1,0.693721582996659,N,True,1,,,,,
n-back,,,,56,2,,,,1,None,Z,False,None,,,,,
n-back,,,,57,2,,,,1,0.532386334030889,N,True,1,,,,,
n-back,,,,58,2,,,,1,None,N,False,None,,,,,
n-back,,,,59,2,,,,1,None,C,False,None,,,,,
n-back,,,,60,2,,,,1,None,B,False,None,,,,,
choice,fixation,145.83203779207543,146.58612383401487,9,2,,,,,,,,,Sea,,,,
choice,option,146.59392954199575,147.62077354209032,9,2,,,,,,,,,Sea,,,,
choice,choice,147.62088200007565,158.963193334057,9,2,,,1,1,10.331768749980256,,,,Sea,,,,
choice,fixation,158.9633430420654,160.4691015840508,10,2,,,,,,,,,Large,,,,
choice,option,160.47841854207218,161.5056950841099,10,2,,,,,,,,,Large,,,,
choice,choice,161.50583258410916,163.02703091700096,10,2,,,1,1,0.5084421670762822,,,,Large,,,,
choice,fixation,163.0271603340516,164.53224062500522,11,2,,,,,,,,,Small,,,,
choice,option,164.54144745902158,165.56754195899703,11,2,,,,,,,,,Small,,,,
choice,choice,165.56765783403534,167.57629329210613,11,2,,,2,1,0.998688208987005,,,,Small,,,,
choice,fixation,167.57641454203986,168.3313963341061,12,2,,,,,,,,,Pattern,,,,
choice,option,168.34063604206312,169.36765441705938,12,2,,,,,,,,,Pattern,,,,
choice,choice,169.36778616707306,175.18530387501232,12,2,,,2,0,4.807702791993506,,,,Pattern,,,,
choice,fixation,175.18543937499635,175.69044600008056,13,2,,,,,,,,,Object,,,,
choice,option,175.7003505420871,176.7292914170539,13,2,,,,,,,,,Object,,,,
choice,choice,176.72940945904702,180.38446908409242,13,2,,,2,0,2.6450053750304505,,,,Object,,,,
choice,fixation,180.38460704206955,181.88979387504514,14,2,,,,,,,,,Animal,,,,
choice,option,181.8990377500886,182.9263949590968,14,2,,,,,,,,,Animal,,,,
choice,choice,182.9264929590281,184.67256145901047,14,2,,,1,1,0.7363170830067247,,,,Animal,,,,
choice,fixation,184.67269325000234,185.17997895902954,15,2,,,,,,,,,Land,,,,
choice,option,185.18865704210475,186.21473500004504,15,2,,,,,,,,,Land,,,,
choice,choice,186.21485116705298,187.31286600010935,15,2,,,1,1,0.08932849997654557,,,,Land,,,,
choice,fixation,187.31306487508118,188.81644212501124,16,2,,,,,,,,,Solid,,,,
choice,option,188.82596300006844,189.85175262507983,16,2,,,,,,,,,Solid,,,,
choice,choice,189.8518759170547,190.96128491708077,16,2,,,1,1,0.10095575009472668,,,,Solid,,,,
memory,free_recall,205.45284962502774,251.92745408404153,6,2,,,,,,,,,,,,,
memory,value_recall,258.0310353341047,261.19895862508565,7,2,Object_Sea_Solid_Small,,,,3.1636465420015156,,,,,-7,,,
memory,value_recall,262.2469287500717,266.70727341703605,8,2,Object_Sea_Pattern_Small,,,,4.456981208059005,,,,,7,,,
memory,value_recall,267.75342816708144,270.9965179170249,9,2,Animal_Land_Pattern_Small,,,,3.23986591596622,,,,,-2,,,
memory,value_recall,272.04196858406067,273.6677550000604,10,2,Animal_Land_Solid_Large,,,,1.622406292008236,,,,,9,,,
memory,value_recall,275.21378504205495,276.95707612507977,11,2,Animal_Land_Pattern_Large,,,,1.7392082499573007,,,,,-3,,,
memory,value_recall,278.0041236670222,279.9977602090221,12,2,Object_Sea_Solid_Large,,,,1.9907129580387846,,,,,7,,,
memory,spatial_recall,283.7627522920957,286.04834616708104,12,2,Animal_Land_Solid_Large,,,1,2.2815034580416977,,,,,,"[0, 380]","[0, 380]",
memory,spatial_recall,287.10616633400787,289.19174095906783,12,2,Animal_Land_Pattern_Large,,,1,2.081543792039156,,,,,,"[-329, -190]","[-329, -190]",
memory,spatial_recall,291.0072477500653,292.2923985000234,12,2,Object_Sea_Solid_Small,,,1,1.280491124955006,,,,,,"[0, -380]","[0, -380]",
memory,spatial_recall,293.3523460000288,294.69796708400827,12,2,Object_Sea_Pattern_Small,,,1,1.3420947089325637,,,,,,"[329, 189]","[329, 189]",
memory,spatial_recall,296.2528104590019,297.81434125010855,12,2,Animal_Land_Pattern_Small,,,1,1.5574350830866024,,,,,,"[-329, 190]","[-329, 190]",
memory,spatial_recall,299.871796459076,302.7161682090955,12,2,Object_Sea_Solid_Large,,,1,2.841802833019756,,,,,,"[329, -190]","[329, -190]",
encoding,fixation,3.9376642499119043,4.443810291937552,13,3,Object_Sea_Pattern_Large,-5,,,,,,,,,,,
encoding,image,4.443914667004719,5.4564095420064405,13,3,Object_Sea_Pattern_Large,-5,,,,,,,,,,,
encoding,value,5.456555749988183,11.472690249909647,13,3,Object_Sea_Pattern_Large,-5,,,,,,,,,,,
encoding,attention,11.472816666937433,14.491186667000875,13,3,Object_Sea_Pattern_Large,-5,-5,1,0.8432427500374615,,,,,,,,
encoding,fixation,14.491348124924116,15.996418832917698,14,3,Animal_Land_Solid_Small,-5,,,,,,,,,,,
encoding,image,15.996522416942753,17.00810166692827,14,3,Animal_Land_Solid_Small,-5,,,,,,,,,,,
encoding,value,17.008225874975324,23.019696999923326,14,3,Animal_Land_Solid_Small,-5,,,,,,,,,,,
encoding,attention,23.019830166944303,26.037910541985184,14,3,Animal_Land_Solid_Small,-5,-5,1,1.4613367080455646,,,,,,,,
encoding,fixation,26.03805662493687,26.79341870790813,15,3,Object_Land_Pattern_Large,-5,,,,,,,,,,,
encoding,image,26.793540957965888,27.805736791924573,15,3,Object_Land_Pattern_Large,-5,,,,,,,,,,,
encoding,value,27.805854749982245,33.817831708001904,15,3,Object_Land_Pattern_Large,-5,,,,,,,,,,,
encoding,attention,33.81794941693079,36.83603295800276,15,3,Object_Land_Pattern_Large,-5,-5,1,1.0473942919634283,,,,,,,,
encoding,fixation,36.83617491694167,38.34185354190413,16,3,Object_Land_Solid_Large,7,,,,,,,,,,,
encoding,image,38.3419642499648,39.352115666959435,16,3,Object_Land_Solid_Large,7,,,,,,,,,,,
encoding,value,39.35221620800439,45.3641279169824,16,3,Object_Land_Solid_Large,7,,,,,,,,,,,
encoding,attention,45.364257916924544,48.38097479194403,16,3,Object_Land_Solid_Large,7,+7,1,0.7795087499544024,,,,,,,,
encoding,fixation,48.381118707940914,49.136298583005555,17,3,Animal_Sea_Pattern_Small,1,,,,,,,,,,,
encoding,image,49.13655570789706,50.1492273749318,17,3,Animal_Sea_Pattern_Small,1,,,,,,,,,,,
encoding,value,50.14934354193974,56.161338249919936,17,3,Animal_Sea_Pattern_Small,1,,,,,,,,,,,
encoding,attention,56.16143916698638,59.179297416936606,17,3,Animal_Sea_Pattern_Small,1,+1,1,0.5855089171091095,,,,,,,,
encoding,fixation,59.17946608294733,60.434657332953066,18,3,Animal_Sea_Solid_Small,2,,,,,,,,,,,
encoding,image,60.43481795792468,61.44586029194761,18,3,Animal_Sea_Solid_Small,2,,,,,,,,,,,
encoding,value,61.44597758294549,67.45760849991348,18,3,Animal_Sea_Solid_Small,2,,,,,,,,,,,
encoding,attention,67.45779416698497,70.47515766695142,18,3,Animal_Sea_Solid_Small,2,-7,0,1.1229309999616817,,,,,,,,
n-back,,,,61,3,,,,0,None,V,True,None,,,,,
n-back,,,,62,3,,,,0,None,V,True,None,,,,,
n-back,,,,63,3,,,,1,0.5912485419539735,V,True,1,,,,,
n-back,,,,64,3,,,,1,None,Z,False,None,,,,,
n-back,,,,65,3,,,,1,None,X,False,None,,,,,
n-back,,,,66,3,,,,1,None,C,False,None,,,,,
n-back,,,,67,3,,,,1,None,C,False,None,,,,,
n-back,,,,68,3,,,,1,None,N,False,None,,,,,
n-back,,,,69,3,,,,1,0.4810168748954311,C,True,1,,,,,
n-back,,,,70,3,,,,1,0.7746790420496836,N,True,1,,,,,
n-back,,,,71,3,,,,1,0.8087435830384493,C,True,1,,,,,
n-back,,,,72,3,,,,1,None,Z,False,None,,,,,
n-back,,,,73,3,,,,1,0.46904987492598593,C,True,1,,,,,
n-back,,,,74,3,,,,1,None,X,False,None,,,,,
n-back,,,,75,3,,,,1,None,N,False,None,,,,,
n-back,,,,76,3,,,,1,None,V,False,None,,,,,
n-back,,,,77,3,,,,0,0.55037079192698,V,False,1,,,,,
n-back,,,,78,3,,,,1,None,X,False,None,,,,,
n-back,,,,79,3,,,,0,0.4019103749888018,N,False,1,,,,,
n-back,,,,80,3,,,,1,None,C,False,None,,,,,
n-back,,,,81,3,,,,0,0.3088130409596488,V,False,1,,,,,
n-back,,,,82,3,,,,0,None,C,True,None,,,,,
n-back,,,,83,3,,,,0,0.3816004580585286,C,False,1,,,,,
n-back,,,,84,3,,,,0,None,C,True,None,,,,,
n-back,,,,85,3,,,,0,0.6256116250297055,Z,False,1,,,,,
n-back,,,,86,3,,,,0,None,C,True,None,,,,,
n-back,,,,87,3,,,,1,None,X,False,None,,,,,
n-back,,,,88,3,,,,0,0.41792358306702226,Z,False,1,,,,,
n-back,,,,89,3,,,,1,None,V,False,None,,,,,
n-back,,,,90,3,,,,0,0.8481277909595519,C,False,1,,,,,
choice,fixation,142.23322954191826,143.73661383299623,17,3,,,,,,,,,Large,,,,
choice,option,143.74572304193862,144.77384458296,17,3,,,,,,,,,Large,,,,
choice,choice,144.7739528749371,146.7262769578956,17,3,,,1,0,0.9427434169920161,,,,Large,,,,
choice,fixation,146.72640054195654,147.98166187491734,18,3,,,,,,,,,Land,,,,
choice,option,147.99035379197448,149.01685129199177,18,3,,,,,,,,,Land,,,,
choice,choice,149.01696370798163,150.96333541697823,18,3,,,1,0,0.935971959028393,,,,Land,,,,
choice,fixation,150.96345620800275,152.46853874996305,19,3,,,,,,,,,Pattern,,,,
choice,option,152.47786404192448,153.50598279200494,19,3,,,,,,,,,Pattern,,,,
choice,choice,153.5061067499919,156.13359887490515,19,3,,,2,1,1.6179022500291467,,,,Pattern,,,,
choice,fixation,156.13378387491684,157.13897404191084,20,3,,,,,,,,,Sea,,,,
choice,option,157.1474776249379,158.1735369579401,20,3,,,,,,,,,Sea,,,,
choice,choice,158.17364787496626,160.4272224579472,20,3,,,2,1,1.2441165409982204,,,,Sea,,,,
choice,fixation,160.4273593329126,161.932379417005,21,3,,,,,,,,,Solid,,,,
choice,option,161.9422169579193,162.96861679200083,21,3,,,,,,,,,Solid,,,,
choice,choice,162.96873954194598,164.23522129200865,21,3,,,1,1,0.25710162497125566,,,,Solid,,,,
choice,fixation,164.23538624995854,165.74038087495137,22,3,,,,,,,,,Object,,,,
choice,option,165.74978341697715,166.7769795419881,22,3,,,,,,,,,Object,,,,
choice,choice,166.77708612498827,167.97401874989737,22,3,,,1,0,0.18874504102859646,,,,Object,,,,
choice,fixation,167.9741404579254,169.47804487496614,23,3,,,,,,,,,Animal,,,,
choice,option,169.48761099996045,170.51438016700558,23,3,,,,,,,,,Animal,,,,
choice,choice,170.5144849169301,171.7474879999645,23,3,,,2,1,0.21954416704829782,,,,Animal,,,,
choice,fixation,171.74760970799252,172.50255441700574,24,3,,,,,,,,,Small,,,,
choice,option,172.5113779999083,173.53928687493317,24,3,,,,,,,,,Small,,,,
choice,choice,173.53939329192508,174.77411404193845,24,3,,,2,1,0.2268058330519125,,,,Small,,,,
memory,free_recall,183.3112702500075,203.79782924999017,12,3,,,,,,,,,,,,,
memory,value_recall,209.3383941669017,211.71182808291633,13,3,Object_Land_Solid_Large,,,,2.369302792008966,,,,,7,,,
memory,value_recall,213.50821074994747,215.27184733294416,14,3,Animal_Land_Solid_Small,,,,1.759417499997653,,,,,-5,,,
memory,value_recall,216.3174275829224,218.5821710419841,15,3,Animal_Sea_Pattern_Small,,,,2.2614959169877693,,,,,1,,,
memory,value_recall,219.87994491693098,223.18302458291873,16,3,Object_Sea_Pattern_Large,,,,3.298752999980934,,,,,-5,,,
memory,value_recall,225.22951745800674,227.31231599999592,17,3,Object_Land_Pattern_Large,,,,2.078697207965888,,,,,-5,,,
memory,value_recall,228.3575181249762,231.46236441691872,18,3,Animal_Sea_Solid_Small,,,,3.102421708055772,,,,,2,,,
memory,spatial_recall,234.6830522499513,238.92522245796863,18,3,Object_Sea_Pattern_Large,,,1,4.238269791007042,,,,,,"[-329, -190]","[-329, -190]",
memory,spatial_recall,240.9899702919647,244.0675494169118,18,3,Animal_Land_Solid_Small,,,1,3.0734733749413863,,,,,,"[-329, 190]","[-329, 190]",
memory,spatial_recall,245.37327649991494,246.84182483295444,18,3,Animal_Sea_Pattern_Small,,,1,1.4644807500299066,,,,,,"[0, 380]","[0, 380]",
memory,spatial_recall,247.90080979198683,249.12624004192185,18,3,Object_Land_Pattern_Large,,,1,1.2215362079441547,,,,,,"[0, -380]","[0, -380]",
memory,spatial_recall,250.93650058296043,252.60645341698546,18,3,Animal_Sea_Solid_Small,,,1,1.665888832998462,,,,,,"[329, 189]","[329, 189]",
memory,spatial_recall,254.65945295791607,256.48951937491074,18,3,Object_Land_Solid_Large,,,1,1.82595070800744,,,,,,"[329, -190]","[329, -190]",
encoding,fixation,3.5114563750103116,4.018533749971539,19,4,Animal_Sea_Pattern_Large,-8,,,,,,,,,,,
encoding,image,4.018693124991842,5.029661625041626,19,4,Animal_Sea_Pattern_Large,-8,,,,,,,,,,,
encoding,value,5.029763499973342,11.045045875012875,19,4,Animal_Sea_Pattern_Large,-8,,,,,,,,,,,
encoding,attention,11.045234041055664,14.062568375025876,19,4,Animal_Sea_Pattern_Large,-8,-8,1,0.6776376659981906,,,,,,,,
encoding,fixation,14.062724083079956,15.317919749999419,20,4,Object_Land_Solid_Small,-5,,,,,,,,,,,
encoding,image,15.31804420799017,16.329415958025493,20,4,Object_Land_Solid_Small,-5,,,,,,,,,,,
encoding,value,16.32953595800791,22.341059916070662,20,4,Object_Land_Solid_Small,-5,,,,,,,,,,,
encoding,attention,22.3411666250322,25.36132024996914,20,4,Object_Land_Solid_Small,-5,-5,1,0.6668555419892073,,,,,,,,
encoding,fixation,25.36147045798134,26.61681395804044,21,4,Object_Sea_Pattern_Large,8,,,,,,,,,,,
encoding,image,26.61696174996905,27.62835116602946,21,4,Object_Sea_Pattern_Large,8,,,,,,,,,,,
encoding,value,27.62845937500242,33.63992795802187,21,4,Object_Sea_Pattern_Large,8,,,,,,,,,,,
encoding,attention,33.64004241605289,36.6580401660176,21,4,Object_Sea_Pattern_Large,8,+8,1,2.280551999923773,,,,,,,,
encoding,fixation,36.6581937080482,37.66370220796671,22,4,Animal_Sea_Solid_Large,1,,,,,,,,,,,
encoding,image,37.66381175001152,38.67544470797293,22,4,Animal_Sea_Solid_Large,1,,,,,,,,,,,
encoding,value,38.67555658298079,44.68836741603445,22,4,Animal_Sea_Solid_Large,1,,,,,,,,,,,
encoding,attention,44.688473875052296,47.70703908300493,22,4,Animal_Sea_Solid_Large,1,+1,1,0.7931869169697165,,,,,,,,
encoding,fixation,47.70728854101617,48.962439666036516,23,4,Object_Land_Pattern_Small,-2,,,,,,,,,,,
encoding,image,48.96255016606301,49.974192916066386,23,4,Object_Land_Pattern_Small,-2,,,,,,,,,,,
encoding,value,49.974323000060394,55.98622712504584,23,4,Object_Land_Pattern_Small,-2,,,,,,,,,,,
encoding,attention,55.98632916598581,59.004575458006,23,4,Object_Land_Pattern_Small,-2,-2,1,1.0060085409786552,,,,,,,,
encoding,fixation,59.00473420799244,60.01311166607775,24,4,Animal_Land_Solid_Small,6,,,,,,,,,,,
encoding,image,60.01324120804202,61.02424200007226,24,4,Animal_Land_Solid_Small,6,,,,,,,,,,,
encoding,value,61.024359708069824,67.03638862504158,24,4,Animal_Land_Solid_Small,6,,,,,,,,,,,
encoding,attention,67.03650637506507,70.05326733307447,24,4,Animal_Land_Solid_Small,6,+6,1,0.8325074160238728,,,,,,,,
n-back,,,,91,4,,,,1,None,C,False,None,,,,,
n-back,,,,92,4,,,,0,None,X,True,None,,,,,
n-back,,,,93,4,,,,1,None,N,False,None,,,,,
n-back,,,,94,4,,,,1,None,N,False,None,,,,,
n-back,,,,95,4,,,,1,None,V,False,None,,,,,
n-back,,,,96,4,,,,1,0.7115136249922216,N,True,1,,,,,
n-back,,,,97,4,,,,1,None,Z,False,None,,,,,
n-back,,,,98,4,,,,1,None,V,False,None,,,,,
n-back,,,,99,4,,,,1,None,B,False,None,,,,,
n-back,,,,100,4,,,,1,0.6165595419006422,V,True,1,,,,,
n-back,,,,101,4,,,,1,0.7934471250046045,B,True,1,,,,,
n-back,,,,102,4,,,,1,None,C,False,None,,,,,
n-back,,,,103,4,,,,1,0.4581952500157058,B,True,1,,,,,
n-back,,,,104,4,,,,1,0.6589104169979692,C,True,1,,,,,
n-back,,,,105,4,,,,1,None,X,False,None,,,,,
n-back,,,,106,4,,,,0,None,C,True,None,,,,,
n-back,,,,107,4,,,,1,None,N,False,None,,,,,
n-back,,,,108,4,,,,1,None,V,False,None,,,,,
n-back,,,,109,4,,,,1,None,V,False,None,,,,,
n-back,,,,110,4,,,,1,0.40463866596110165,V,True,1,,,,,
n-back,,,,111,4,,,,1,None,B,False,None,,,,,
n-back,,,,112,4,,,,0,0.4847983750514686,B,False,1,,,,,
n-back,,,,113,4,,,,1,None,C,False,None,,,,,
n-back,,,,114,4,,,,1,0.7233633749419823,B,True,1,,,,,
n-back,,,,115,4,,,,1,None,X,False,None,,,,,
n-back,,,,116,4,,,,1,0.43539345799945295,B,True,1,,,,,
n-back,,,,117,4,,,,1,None,B,False,None,,,,,
n-back,,,,118,4,,,,1,None,C,False,None,,,,,
n-back,,,,119,4,,,,1,None,X,False,None,,,,,
n-back,,,,120,4,,,,1,None,Z,False,None,,,,,
choice,fixation,133.95277441607323,135.45735966600478,25,4,,,,,,,,,Land,,,,
choice,option,135.46590083302,136.49492487497628,25,4,,,,,,,,,Land,,,,
choice,choice,136.49502841604408,139.1820413749665,25,4,,,2,1,1.6770624170312658,,,,Land,,,,
choice,fixation,139.18216508300975,139.6876760830637,26,4,,,,,,,,,Sea,,,,
choice,option,139.6964070830727,140.72283995803446,26,4,,,,,,,,,Sea,,,,
choice,choice,140.72303733299486,141.7354592080228,26,4,,,1,1,0.0010699171107262373,,,,Sea,,,,
choice,fixation,141.73559729103,142.23970991605893,27,4,,,,,,,,,Animal,,,,
choice,option,142.24905662506353,143.27170699997805,27,4,,,,,,,,,Animal,,,,
choice,choice,143.2718800830189,146.1971964580007,27,4,,,1,0,1.9125518329674378,,,,Animal,,,,
choice,fixation,146.1973134999862,147.20226633304264,28,4,,,,,,,,,Large,,,,
choice,option,147.2114376249956,148.2378981250804,28,4,,,,,,,,,Large,,,,
choice,choice,148.23800891602878,150.19622341601644,28,4,,,1,1,0.946049457998015,,,,Large,,,,
choice,fixation,150.19636566599365,150.70139845798258,29,4,,,,,,,,,Solid,,,,
choice,option,150.7114296250511,151.73763929097913,29,4,,,,,,,,,Solid,,,,
choice,choice,151.73775779106654,154.3948350000428,29,4,,,2,0,1.6446675410261378,,,,Solid,,,,
choice,fixation,154.394958416,155.14994016604032,30,4,,,,,,,,,Small,,,,
choice,option,155.1591787500074,156.18566383305006,30,4,,,,,,,,,Small,,,,
choice,choice,156.18576341599692,158.7170155410422,30,4,,,2,1,1.5215909999096766,,,,Small,,,,
choice,fixation,158.7171567500336,159.72185183304828,31,4,,,,,,,,,Pattern,,,,
choice,option,159.73101954103913,160.7565939159831,31,4,,,,,,,,,Pattern,,,,
choice,choice,160.75669562502299,162.292030874989,31,4,,,1,0,0.5259963750140741,,,,Pattern,,,,
choice,fixation,162.2921783750644,163.04734070796985,32,4,,,,,,,,,Object,,,,
choice,option,163.0567006659694,164.08214570803102,32,4,,,,,,,,,Object,,,,
choice,choice,164.08224958297797,165.73540712497197,32,4,,,1,1,0.6435395419830456,,,,Object,,,,
memory,free_recall,172.67898149997927,202.91723054100294,18,4,,,,,,,,,,,,,
memory,value_recall,206.17858383303974,209.3763828750234,19,4,Object_Land_Solid_Small,,,,3.1936899999855086,,,,,-5,,,
memory,value_recall,211.42165162507445,214.780843290966,20,4,Animal_Land_Solid_Small,,,,3.3526161670451984,,,,,6,,,
memory,value_recall,216.57816050003748,219.3179552500369,21,4,Animal_Sea_Pattern_Large,,,,2.735817459062673,,,,,-8,,,
memory,value_recall,221.3647262500599,223.52896045800298,22,4,Object_Land_Pattern_Small,,,,2.159725584089756,,,,,-2,,,
memory,value_recall,225.57484274997842,227.2864932080265,23,4,Animal_Sea_Solid_Large,,,,1.7075292919762433,,,,,1,,,
memory,value_recall,228.83259462506976,231.91078633302823,24,4,Object_Sea_Pattern_Large,,,,3.0737801670329645,,,,,8,,,
memory,spatial_recall,234.0791816250421,238.99264479102567,24,4,Animal_Land_Solid_Small,,,1,4.909447958925739,,,,,,"[-329, 190]","[-329, 190]",
memory,spatial_recall,240.06896262499504,245.01269254100043,24,4,Object_Land_Pattern_Small,,,1,4.939590708934702,,,,,,"[0, 380]","[0, 380]",
memory,spatial_recall,246.06698445801158,248.29610487504397,24,4,Animal_Sea_Pattern_Large,,,0,2.225125667057,,,,,,"[329, -190]","[0, -380]",
memory,spatial_recall,249.85283620806877,253.81201012502424,24,4,Object_Sea_Pattern_Large,,,1,3.9551472919993103,,,,,,"[-329, -190]","[-329, -190]",
memory,spatial_recall,255.87125125003513,256.7147668750258,24,4,Animal_Sea_Solid_Large,,,1,0.8376668749842793,,,,,,"[0, -380]","[0, -380]",
memory,spatial_recall,258.0220041660359,259.5432832080405,24,4,Object_Land_Solid_Small,,,1,1.5148220830596983,,,,,,"[329, 189]","[329, 189]",
encoding,fixation,4.114762042067014,4.870975667028688,25,5,Object_Sea_Pattern_Small,5,,,,,,,,,,,
encoding,image,4.871175917098299,5.883871667087078,25,5,Object_Sea_Pattern_Small,5,,,,,,,,,,,
encoding,value,5.883982458035462,11.8977307920577,25,5,Object_Sea_Pattern_Small,5,,,,,,,,,,,
encoding,attention,11.897865958046168,14.916439083055593,25,5,Object_Sea_Pattern_Small,5,+5,1,0.652424875064753,,,,,,,,
encoding,fixation,14.916653249994852,16.17216770804953,26,5,Object_Sea_Solid_Large,-1,,,,,,,,,,,
encoding,image,16.172270458075218,17.184396667056717,26,5,Object_Sea_Solid_Large,-1,,,,,,,,,,,
encoding,value,17.184523667092435,23.197073957999237,26,5,Object_Sea_Solid_Large,-1,,,,,,,,,,,
encoding,attention,23.197180750081316,26.218080250080675,26,5,Object_Sea_Solid_Large,-1,-1,1,0.8524055829038844,,,,,,,,
encoding,fixation,26.218234000029042,27.72353779198602,27,5,Object_Sea_Solid_Small,-5,,,,,,,,,,,
encoding,image,27.72365575004369,28.73389858310111,27,5,Object_Sea_Solid_Small,-5,,,,,,,,,,,
encoding,value,28.734016833011992,34.745510792010464,27,5,Object_Sea_Solid_Small,-5,,,,,,,,,,,
encoding,attention,34.745671042008325,37.762784000020474,27,5,Object_Sea_Solid_Small,-5,-5,1,1.405125999939628,,,,,,,,
encoding,fixation,37.76295137510169,39.01788937509991,28,5,Animal_Land_Pattern_Small,-3,,,,,,,,,,,
encoding,image,39.017991708009504,40.028971833060496,28,5,Animal_Land_Pattern_Small,-3,,,,,,,,,,,
encoding,value,40.0290910420008,46.040453167050146,28,5,Animal_Land_Pattern_Small,-3,,,,,,,,,,,
encoding,attention,46.040574125014246,49.057744250050746,28,5,Animal_Land_Pattern_Small,-3,-3,1,0.7863768340321258,,,,,,,,
encoding,fixation,49.05789662501775,50.56306029204279,29,5,Animal_Land_Pattern_Large,-3,,,,,,,,,,,
encoding,image,50.563158750068396,51.574719667085446,29,5,Animal_Land_Pattern_Large,-3,,,,,,,,,,,
encoding,value,51.574899708037265,57.58612845803145,29,5,Animal_Land_Pattern_Large,-3,,,,,,,,,,,
encoding,attention,57.58623462507967,60.60324504203163,29,5,Animal_Land_Pattern_Large,-3,-3,1,0.7139607089338824,,,,,,,,
encoding,fixation,60.60339649999514,61.85868575004861,30,5,Animal_Land_Solid_Large,7,,,,,,,,,,,
encoding,image,61.85882591700647,62.87035737500992,30,5,Animal_Land_Solid_Large,7,,,,,,,,,,,
encoding,value,62.870491125038825,68.88300274999347,30,5,Animal_Land_Solid_Large,7,,,,,,,,,,,
encoding,attention,68.88310375006404,71.90046570799313,30,5,Animal_Land_Solid_Large,7,+7,1,1.6011087079532444,,,,,,,,
n-back,,,,121,5,,,,1,None,N,False,None,,,,,
n-back,,,,122,5,,,,0,None,C,True,None,,,,,
n-back,,,,123,5,,,,1,None,X,False,None,,,,,
n-back,,,,124,5,,,,1,None,V,False,None,,,,,
n-back,,,,125,5,,,,1,None,Z,False,None,,,,,
n-back,,,,126,5,,,,1,None,X,False,None,,,,,
n-back,,,,127,5,,,,1,None,X,False,None,,,,,
n-back,,,,128,5,,,,0,None,X,True,None,,,,,
n-back,,,,129,5,,,,1,0.5388577909907326,X,True,1,,,,,
n-back,,,,130,5,,,,0,None,X,True,None,,,,,
n-back,,,,131,5,,,,1,None,B,False,None,,,,,
n-back,,,,132,5,,,,1,0.43881941703148186,X,True,1,,,,,
n-back,,,,133,5,,,,1,0.6594024159712717,B,True,1,,,,,
n-back,,,,134,5,,,,1,0.581759124994278,X,True,1,,,,,
n-back,,,,135,5,,,,1,None,X,False,None,,,,,
n-back,,,,136,5,,,,1,None,N,False,None,,,,,
n-back,,,,137,5,,,,0,0.5432052910327911,V,False,1,,,,,
n-back,,,,138,5,,,,1,None,Z,False,None,,,,,
n-back,,,,139,5,,,,0,0.4602029579691589,N,False,1,,,,,
n-back,,,,140,5,,,,1,None,X,False,None,,,,,
n-back,,,,141,5,,,,0,0.603695375029929,X,False,1,,,,,
n-back,,,,142,5,,,,1,0.9713630409678444,X,True,1,,,,,
n-back,,,,143,5,,,,0,1.0177122910972685,V,False,1,,,,,
n-back,,,,144,5,,,,1,None,B,False,None,,,,,
n-back,,,,145,5,,,,1,None,Z,False,None,,,,,
n-back,,,,146,5,,,,1,0.6177831670502201,B,True,1,,,,,
n-back,,,,147,5,,,,1,None,V,False,None,,,,,
n-back,,,,148,5,,,,1,None,C,False,None,,,,,
n-back,,,,149,5,,,,1,0.5630456670187414,V,True,1,,,,,
n-back,,,,150,5,,,,1,None,X,False,None,,,,,
choice,fixation,136.10348983306903,137.10919954208657,33,5,,,,,,,,,Small,,,,
choice,option,137.11825441708788,138.1471076250309,33,5,,,,,,,,,Small,,,,
choice,choice,138.14723183307797,140.19016804208513,33,5,,,2,1,1.032777874963358,,,,Small,,,,
choice,fixation,140.1903034170391,140.69581200007815,34,5,,,,,,,,,Solid,,,,
choice,option,140.70507354207803,141.73187833302654,34,5,,,,,,,,,Solid,,,,
choice,choice,141.73197650001384,143.03056741703767,34,5,,,1,1,0.28926370898261666,,,,Solid,,,,
choice,fixation,143.03069733304437,143.78572037501726,35,5,,,,,,,,,Pattern,,,,
choice,option,143.7953941670712,144.8219594170805,35,5,,,,,,,,,Pattern,,,,
choice,choice,144.82206808310002,146.40410450007766,35,5,,,2,1,0.5726100000320002,,,,Pattern,,,,
choice,fixation,146.404241958051,146.90930633305106,36,5,,,,,,,,,Animal,,,,
choice,option,146.91899333300535,147.94578970805742,36,5,,,,,,,,,Animal,,,,
choice,choice,147.94590895809233,149.1349830830004,36,5,,,1,1,0.17966791591607034,,,,Animal,,,,
choice,fixation,149.1351066250354,150.6399037920637,37,5,,,,,,,,,Sea,,,,
choice,option,150.64823741698638,151.675260542077,37,5,,,,,,,,,Sea,,,,
choice,choice,151.67540337506216,152.78847037500236,37,5,,,2,1,0.10497220803517848,,,,Sea,,,,
choice,fixation,152.78858662501443,153.7941540000029,38,5,,,,,,,,,Large,,,,
choice,option,153.80293545802124,154.82948975008912,38,5,,,,,,,,,Large,,,,
choice,choice,154.8296036249958,155.88469987502322,38,5,,,1,1,0.047326582949608564,,,,Large,,,,
choice,fixation,155.88482600008138,156.3893638330046,39,5,,,,,,,,,Land,,,,
choice,option,156.39798504207283,157.42128554207738,39,5,,,,,,,,,Land,,,,
choice,choice,157.42145841708407,159.03283300006296,39,5,,,1,1,0.6018475840101019,,,,Land,,,,
choice,fixation,159.03294487507083,160.28833758307155,40,5,,,,,,,,,Object,,,,
choice,option,160.29784241702873,161.3247244580416,40,5,,,,,,,,,Object,,,,
choice,choice,161.3248490000842,164.46833420800976,40,5,,,2,1,2.133807250065729,,,,Object,,,,
memory,free_recall,175.42665787506849,193.1361746250186,24,5,,,,,,,,,,,,,
memory,value_recall,197.6625420000637,201.8108525420539,25,5,Animal_Land_Pattern_Large,,,,4.144361624959856,,,,,-3,,,
memory,value_recall,203.35738383303396,205.03929879202042,26,5,Animal_Land_Pattern_Small,,,,1.6768573749577627,,,,,-3,,,
memory,value_recall,206.33573204209097,209.99948454205878,27,5,Animal_Land_Solid_Large,,,,3.6592787080444396,,,,,7,,,
memory,value_recall,211.04638337506913,212.9307259580819,28,5,Object_Sea_Solid_Small,,,,1.8807754589943215,,,,,-5,,,
memory,value_recall,214.9762710829964,216.48926983308047,29,5,Object_Sea_Pattern_Small,,,,1.5088332500308752,,,,,5,,,
memory,value_recall,218.0365320420824,219.83934283303097,30,5,Object_Sea_Solid_Large,,,,1.798413792042993,,,,,-1,,,
memory,spatial_recall,223.26736966706812,224.59696733299643,30,5,Object_Sea_Solid_Large,,,1,1.3254874169360846,,,,,,"[329, -190]","[329, -190]",
memory,spatial_recall,226.41285937500652,227.79881775006652,30,5,Object_Sea_Pattern_Small,,,1,1.3817524999612942,,,,,,"[329, 189]","[329, 189]",
memory,spatial_recall,229.61588658299297,230.4638490830548,30,5,Animal_Land_Pattern_Small,,,1,0.8432470420375466,,,,,,"[-329, 190]","[-329, 190]",
memory,spatial_recall,232.26251154206693,233.53560733306222,30,5,Animal_Land_Pattern_Large,,,1,1.269057875033468,,,,,,"[-329, -190]","[-329, -190]",
memory,spatial_recall,234.58541083300952,235.41421358298976,30,5,Object_Sea_Solid_Small,,,1,0.825764499953948,,,,,,"[0, -380]","[0, -380]",
memory,spatial_recall,236.9756529170554,238.1079304580344,30,5,Animal_Land_Solid_Large,,,1,1.1280786250717938,,,,,,"[0, 380]","[0, 380]",
encoding,fixation,3.8125376669922844,4.31798037502449,31,6,Animal_Land_Solid_Small,-9,,,,,,,,,,,
encoding,image,4.31809437496122,5.328002416994423,31,6,Animal_Land_Solid_Small,-9,,,,,,,,,,,
encoding,value,5.328127707936801,11.341016917023808,31,6,Animal_Land_Solid_Small,-9,,,,,,,,,,,
encoding,attention,11.34112512494903,14.359389042016119,31,6,Animal_Land_Solid_Small,-9,-9,1,0.6817225000122562,,,,,,,,
encoding,fixation,14.359539499972016,14.864667207933962,32,6,Object_Sea_Pattern_Large,-5,,,,,,,,,,,
encoding,image,14.86478420800995,15.875774582964368,32,6,Object_Sea_Pattern_Large,-5,,,,,,,,,,,
encoding,value,15.875947374966927,21.888204791932367,32,6,Object_Sea_Pattern_Large,-5,,,,,,,,,,,
encoding,attention,21.888318124925718,24.905213583027944,32,6,Object_Sea_Pattern_Large,-5,-9,0,2.1289595830021426,,,,,,,,
encoding,fixation,24.905377416987903,26.41222125000786,33,6,Animal_Sea_Solid_Small,2,,,,,,,,,,,
encoding,image,26.412361291935667,27.42318062495906,33,6,Animal_Sea_Solid_Small,2,,,,,,,,,,,
encoding,value,27.42336991697084,33.43510995793622,33,6,Animal_Sea_Solid_Small,2,,,,,,,,,,,
encoding,attention,33.43522224994376,36.45291883300524,33,6,Animal_Sea_Solid_Small,2,+2,1,0.5967769579729065,,,,,,,,
encoding,fixation,36.453146582935005,36.9582772499416,34,6,Object_Land_Pattern_Large,1,,,,,,,,,,,
encoding,image,36.95838674996048,37.969992207945324,34,6,Object_Land_Pattern_Large,1,,,,,,,,,,,
encoding,value,37.97011912497692,43.98320104193408,34,6,Object_Land_Pattern_Large,1,,,,,,,,,,,
encoding,attention,43.98332395800389,47.00158254196867,34,6,Object_Land_Pattern_Large,1,+1,1,0.839513499988243,,,,,,,,
encoding,fixation,47.00172941701021,47.506680957973,35,6,Object_Land_Solid_Large,3,,,,,,,,,,,
encoding,image,47.50678966694977,48.51670874992851,35,6,Object_Land_Solid_Large,3,,,,,,,,,,,
encoding,value,48.516818000003695,54.52974508295301,35,6,Object_Land_Solid_Large,3,,,,,,,,,,,
encoding,attention,54.5298736669356,57.547204624977894,35,6,Object_Land_Solid_Large,3,+3,1,0.5747585829813033,,,,,,,,
encoding,fixation,57.54737954202574,58.552439916995354,36,6,Animal_Sea_Pattern_Small,2,,,,,,,,,,,
encoding,image,58.5525604999857,59.56381754192989,36,6,Animal_Sea_Pattern_Small,2,,,,,,,,,,,
encoding,value,59.56392645800952,65.57585937494878,36,6,Animal_Sea_Pattern_Small,2,,,,,,,,,,,
encoding,attention,65.57597991696093,68.59457641700283,36,6,Animal_Sea_Pattern_Small,2,+2,1,2.1339945829240605,,,,,,,,
n-back,,,,151,6,,,,1,None,B,False,None,,,,,
n-back,,,,152,6,,,,1,None,V,False,None,,,,,
n-back,,,,153,6,,,,1,0.41907416691537946,B,True,1,,,,,
n-back,,,,154,6,,,,1,0.5434605000773445,V,True,1,,,,,
n-back,,,,155,6,,,,1,None,X,False,None,,,,,
n-back,,,,156,6,,,,1,0.4084235419286415,V,True,1,,,,,
n-back,,,,157,6,,,,1,None,C,False,None,,,,,
n-back,,,,158,6,,,,1,None,Z,False,None,,,,,
n-back,,,,159,6,,,,1,None,V,False,None,,,,,
n-back,,,,160,6,,,,1,None,V,False,None,,,,,
n-back,,,,161,6,,,,1,None,N,False,None,,,,,
n-back,,,,162,6,,,,1,1.0621717920294032,V,True,1,,,,,
n-back,,,,163,6,,,,1,None,B,False,None,,,,,
n-back,,,,164,6,,,,1,0.6260040000779554,V,True,1,,,,,
n-back,,,,165,6,,,,1,None,X,False,None,,,,,
n-back,,,,166,6,,,,1,0.5522931660525501,V,True,1,,,,,
n-back,,,,167,6,,,,0,None,X,True,None,,,,,
n-back,,,,168,6,,,,1,None,B,False,None,,,,,
n-back,,,,169,6,,,,1,1.0926059999037534,X,True,1,,,,,
n-back,,,,170,6,,,,1,None,N,False,None,,,,,
n-back,,,,171,6,,,,1,None,Z,False,None,,,,,
n-back,,,,172,6,,,,1,None,B,False,None,,,,,
n-back,,,,173,6,,,,1,None,C,False,None,,,,,
n-back,,,,174,6,,,,1,None,X,False,None,,,,,
n-back,,,,175,6,,,,0,None,C,True,None,,,,,
n-back,,,,176,6,,,,1,None,V,False,None,,,,,
n-back,,,,177,6,,,,0,0.603793750051409,N,False,1,,,,,
n-back,,,,178,6,,,,1,None,Z,False,None,,,,,
n-back,,,,179,6,,,,0,0.7087958749616519,B,False,1,,,,,
n-back,,,,180,6,,,,0,None,Z,True,None,,,,,
choice,fixation,127.49609166698065,128.0008769580163,41,6,,,,,,,,,Sea,,,,
choice,option,128.0091272079153,129.03496845799964,41,6,,,,,,,,,Sea,,,,
choice,choice,129.03507945802994,132.45649645791855,41,6,,,1,0,2.411606541951187,,,,Sea,,,,
choice,fixation,132.45669379201718,132.9627936249599,42,6,,,,,,,,,Animal,,,,
choice,option,132.97214487497695,133.99843999999575,42,6,,,,,,,,,Animal,,,,
choice,choice,133.9986451669829,136.61338466696907,42,6,,,1,0,1.6023435830138624,,,,Animal,,,,
choice,fixation,136.6135724579217,137.11862520792056,43,6,,,,,,,,,Small,,,,
choice,option,137.1274324170081,138.1532801670255,43,6,,,,,,,,,Small,,,,
choice,choice,138.15338375000283,139.67481170792598,43,6,,,1,0,0.5115242919418961,,,,Small,,,,
choice,fixation,139.6749464579625,140.17998662497848,44,6,,,,,,,,,Object,,,,
choice,option,140.18936458299868,141.21644774999004,44,6,,,,,,,,,Object,,,,
choice,choice,141.21657649998087,143.51557749998756,44,6,,,2,1,1.2889002080773935,,,,Object,,,,
choice,fixation,143.51570137497038,144.02069974993356,45,6,,,,,,,,,Solid,,,,
choice,option,144.03039708302822,145.05624745797832,45,6,,,,,,,,,Solid,,,,
choice,choice,145.0563458329998,146.31697008293122,45,6,,,2,1,0.2507754999678582,,,,Solid,,,,
choice,fixation,146.31709370797034,147.0724569580052,46,6,,,,,,,,,Land,,,,
choice,option,147.08077608293388,148.10630662494805,46,6,,,,,,,,,Land,,,,
choice,choice,148.10640708298888,150.017323957989,46,6,,,2,1,0.9007456670515239,,,,Land,,,,
choice,fixation,150.01743745792191,151.52251379191875,47,6,,,,,,,,,Pattern,,,,
choice,option,151.53201841702685,152.55761783302296,47,6,,,,,,,,,Pattern,,,,
choice,choice,152.55778049991932,153.966522624949,47,6,,,1,0,0.3994031659094617,,,,Pattern,,,,
choice,fixation,153.96666258294135,154.97155379201286,48,6,,,,,,,,,Large,,,,
choice,option,154.98046645801514,156.00630716700107,48,6,,,,,,,,,Large,,,,
choice,choice,156.00640729197767,157.14587137498893,48,6,,,2,1,0.12828116596210748,,,,Large,,,,
memory,free_recall,163.67742424993776,183.87763074995019,30,6,,,,,,,,,,,,,
memory,value_recall,186.51642679201905,196.11728045798372,31,6,Animal_Land_Solid_Small,,,,9.596726417075843,,,,,-9,,,
memory,value_recall,198.16632449999452,200.09275062498637,32,6,Object_Land_Solid_Large,,,,1.9223727089120075,,,,,3,,,
memory,value_recall,201.88887437502854,203.48363266699016,33,6,Object_Sea_Pattern_Large,,,,1.588285916019231,,,,,-5,,,
memory,value_recall,205.2802898749942,207.16296224994585,34,6,Animal_Sea_Solid_Small,,,,1.8782544580753893,,,,,2,,,
memory,value_recall,208.95802083297167,211.17329020798206,35,6,Animal_Sea_Pattern_Small,,,,2.21120308409445,,,,,2,,,
memory,value_recall,212.21867445798125,214.66375912493095,36,6,Object_Land_Pattern_Large,,,,2.44189108395949,,,,,1,,,
memory,spatial_recall,217.8178176669171,219.29614604194649,36,6,Animal_Land_Solid_Small,,,1,1.474299749941565,,,,,,"[-329, 190]","[-329, 190]",
memory,spatial_recall,221.35739420796745,223.19357474998105,36,6,Animal_Sea_Pattern_Small,,,1,1.8321767909219489,,,,,,"[0, 380]","[0, 380]",
memory,spatial_recall,224.74796845798846,231.69118999992497,36,6,Object_Sea_Pattern_Large,,,1,6.939275708980858,,,,,,"[-329, -190]","[-329, -190]",
memory,spatial_recall,233.50206879200414,236.31371424999088,36,6,Object_Land_Pattern_Large,,,1,2.8072841659886762,,,,,,"[0, -380]","[0, -380]",
memory,spatial_recall,237.3637547499966,239.1989379170118,36,6,Object_Land_Solid_Large,,,1,1.8328226249432191,,,,,,"[329, -190]","[329, -190]",
memory,spatial_recall,240.25789579201955,241.56243162497412,36,6,Animal_Sea_Solid_Small,,,1,1.3022924169199541,,,,,,"[329, 189]","[329, 189]",
encoding,fixation,4.175262833014131,5.1814802079461515,37,7,Object_Sea_Solid_Small,-1,,,,,,,,,,,
encoding,image,5.1815919580403715,6.193820541026071,37,7,Object_Sea_Solid_Small,-1,,,,,,,,,,,
encoding,value,6.193934874958359,12.206367957987823,37,7,Object_Sea_Solid_Small,-1,,,,,,,,,,,
encoding,attention,12.20652050001081,15.22346516593825,37,7,Object_Sea_Solid_Small,-1,-1,1,0.8794098750222474,,,,,,,,
encoding,fixation,15.223673540982418,16.479334166040644,38,7,Animal_Land_Pattern_Large,2,,,,,,,,,,,
encoding,image,16.479464250034653,17.49303512496408,38,7,Animal_Land_Pattern_Large,2,,,,,,,,,,,
encoding,value,17.493140624952503,23.506113333045505,38,7,Animal_Land_Pattern_Large,2,,,,,,,,,,,
encoding,attention,23.50623475003522,26.52708537504077,38,7,Animal_Land_Pattern_Large,2,+2,1,1.2664186669280753,,,,,,,,
encoding,fixation,26.527220124960877,27.78275620797649,39,7,Object_Sea_Solid_Large,-5,,,,,,,,,,,
encoding,image,27.782857332960702,28.794436375028454,39,7,Object_Sea_Solid_Large,-5,,,,,,,,,,,
encoding,value,28.794543375028297,34.80882799997926,39,7,Object_Sea_Solid_Large,-5,,,,,,,,,,,
encoding,attention,34.8089349999791,37.82713358302135,39,7,Object_Sea_Solid_Large,-5,-5,1,1.1317356668878347,,,,,,,,
encoding,fixation,37.82728462503292,38.58281958301086,40,7,Animal_Land_Pattern_Small,-9,,,,,,,,,,,
encoding,image,38.58298545796424,39.59388774994295,40,7,Animal_Land_Pattern_Small,-9,,,,,,,,,,,
encoding,value,39.59400095802266,45.609440958010964,40,7,Animal_Land_Pattern_Small,-9,,,,,,,,,,,
encoding,attention,45.60956212494057,48.62676937493961,40,7,Animal_Land_Pattern_Small,-9,-9,1,0.6588216250529513,,,,,,,,
encoding,fixation,48.6269137080526,49.38274495804217,41,7,Object_Sea_Pattern_Small,9,,,,,,,,,,,
encoding,image,49.38285433303099,50.39343212498352,41,7,Object_Sea_Pattern_Small,9,,,,,,,,,,,
encoding,value,50.39354608301073,56.404724541003816,41,7,Object_Sea_Pattern_Small,9,,,,,,,,,,,
encoding,attention,56.40486324997619,59.4218905409798,41,7,Object_Sea_Pattern_Small,9,+9,1,0.5265977500239387,,,,,,,,
encoding,fixation,59.42213508300483,59.92739175003953,42,7,Animal_Land_Solid_Large,9,,,,,,,,,,,
encoding,image,59.92749070795253,60.93901820795145,42,7,Animal_Land_Solid_Large,9,,,,,,,,,,,
encoding,value,60.939130165963434,66.95115274994168,42,7,Animal_Land_Solid_Large,9,,,,,,,,,,,
encoding,attention,66.95127816603053,69.96924324997235,42,7,Animal_Land_Solid_Large,9,+9,1,1.0616531670093536,,,,,,,,
n-back,,,,181,7,,,,0,None,Z,True,None,,,,,
n-back,,,,182,7,,,,0,None,X,True,None,,,,,
n-back,,,,183,7,,,,1,None,B,False,None,,,,,
n-back,,,,184,7,,,,1,None,V,False,None,,,,,
n-back,,,,185,7,,,,1,None,N,False,None,,,,,
n-back,,,,186,7,,,,1,None,C,False,None,,,,,
n-back,,,,187,7,,,,1,None,C,False,None,,,,,
n-back,,,,188,7,,,,1,0.45779170794412494,C,True,1,,,,,
n-back,,,,189,7,,,,1,0.7432563750771806,C,True,1,,,,,
n-back,,,,190,7,,,,1,None,X,False,None,,,,,
n-back,,,,191,7,,,,1,None,B,False,None,,,,,
n-back,,,,192,7,,,,0,None,X,True,None,,,,,
n-back,,,,193,7,,,,0,0.6520695420913398,C,False,1,,,,,
n-back,,,,194,7,,,,1,None,Z,False,None,,,,,
n-back,,,,195,7,,,,0,None,C,True,None,,,,,
n-back,,,,196,7,,,,0,0.7077284579863772,C,False,1,,,,,
n-back,,,,197,7,,,,1,None,X,False,None,,,,,
n-back,,,,198,7,,,,1,0.5299227910581976,C,True,1,,,,,
n-back,,,,199,7,,,,0,1.477633250062354,C,False,1,,,,,
n-back,,,,200,7,,,,1,None,V,False,None,,,,,
n-back,,,,201,7,,,,1,None,N,False,None,,,,,
n-back,,,,202,7,,,,1,None,B,False,None,,,,,
n-back,,,,203,7,,,,1,0.7568138330243528,N,True,1,,,,,
n-back,,,,204,7,,,,1,None,V,False,None,,,,,
n-back,,,,205,7,,,,1,None,C,False,None,,,,,
n-back,,,,206,7,,,,0,0.6509269579546526,N,False,1,,,,,
n-back,,,,207,7,,,,1,None,Z,False,None,,,,,
n-back,,,,208,7,,,,1,0.6824057090561837,N,True,1,,,,,
n-back,,,,209,7,,,,0,0.6734437920385972,C,False,1,,,,,
n-back,,,,210,7,,,,1,0.8509258750127628,N,True,1,,,,,
choice,fixation,125.35191012499854,125.86173012503423,49,7,,,,,,,,,Pattern,,,,
choice,option,125.87094766600057,126.89766708295792,49,7,,,,,,,,,Pattern,,,,
choice,choice,126.89777275000233,132.6219286660198,49,7,,,2,0,4.713746167020872,,,,Pattern,,,,
choice,fixation,132.6220623749541,134.1278112080181,50,7,,,,,,,,,Large,,,,
choice,option,134.13687725004274,135.16376079095062,50,7,,,,,,,,,Large,,,,
choice,choice,135.1638622500468,137.74287179100793,50,7,,,1,1,1.5688426670385525,,,,Large,,,,
choice,fixation,137.74298379104584,139.2479651250178,51,7,,,,,,,,,Solid,,,,
choice,option,139.25722645805217,140.28452170803212,51,7,,,,,,,,,Solid,,,,
choice,choice,140.2846349159954,141.86314808297902,51,7,,,1,1,0.5688929590396583,,,,Solid,,,,
choice,fixation,141.86329470796045,142.86843870801385,52,7,,,,,,,,,Object,,,,
choice,option,142.87768162495922,143.90393183298875,52,7,,,,,,,,,Object,,,,
choice,choice,143.90404012496583,147.0792759580072,52,7,,,1,1,2.1650135000236332,,,,Object,,,,
choice,fixation,147.07940712501295,147.83491033304017,53,7,,,,,,,,,Land,,,,
choice,option,147.84390945802443,148.86984870804008,53,7,,,,,,,,,Land,,,,
choice,choice,148.87000391597394,155.91838658298366,53,7,,,1,1,6.037243374972604,,,,Land,,,,
choice,fixation,155.91850145801436,156.92563179100398,54,7,,,,,,,,,Sea,,,,
choice,option,156.9348392500542,157.96231804101262,54,7,,,,,,,,,Sea,,,,
choice,choice,157.9624318330316,160.49622033303604,54,7,,,1,1,1.5240552090108395,,,,Sea,,,,
choice,fixation,160.49634924996644,161.0016491250135,55,7,,,,,,,,,Small,,,,
choice,option,161.01085291604977,162.03758629097138,55,7,,,,,,,,,Small,,,,
choice,choice,162.03770450002048,164.16585058299825,55,7,,,2,1,1.1185927500482649,,,,Small,,,,
choice,fixation,164.16597800003365,164.67100287496578,56,7,,,,,,,,,Animal,,,,
choice,option,164.68020391603932,165.70662566600367,56,7,,,,,,,,,Animal,,,,
choice,choice,165.70674570801202,169.60700929095037,56,7,,,1,1,2.8904742499580607,,,,Animal,,,,
memory,free_recall,174.97489270800725,188.59900495794136,36,7,,,,,,,,,,,,,
memory,value_recall,193.26378787495196,195.80932612495963,37,7,Animal_Land_Pattern_Large,,,,2.541286791092716,,,,,2,,,
memory,value_recall,197.35544225003105,200.12047470803373,38,7,Object_Sea_Solid_Small,,,,2.7608235409716144,,,,,-1,,,
memory,value_recall,201.91600395797286,203.1922507500276,39,7,Animal_Land_Solid_Large,,,,1.272198292077519,,,,,9,,,
memory,value_recall,205.2363235000521,207.9056543749757,40,7,Animal_Land_Pattern_Small,,,,2.663968833978288,,,,,-9,,,
memory,value_recall,209.70132124994416,210.78350237500854,41,7,Object_Sea_Pattern_Small,,,,1.0776488749543205,,,,,9,,,
memory,value_recall,211.82563075004146,213.1834765409585,42,7,Object_Sea_Solid_Large,,,,1.3545491660479456,,,,,-5,,,
memory,spatial_recall,216.21314300002996,220.32545400003437,42,7,Object_Sea_Solid_Large,,,1,4.109792291070335,,,,,,"[329, -190]","[329, -190]",
memory,spatial_recall,222.1353896659566,223.24562399997376,42,7,Animal_Land_Solid_Large,,,1,1.1040334170684218,,,,,,"[0, 380]","[0, 380]",
memory,spatial_recall,224.30021991604008,226.8101570829749,42,7,Object_Sea_Solid_Small,,,0,2.5065351669909433,,,,,,"[0, -380]","[-329, -190]",
memory,spatial_recall,228.3664997080341,232.1776911659399,42,7,Animal_Land_Pattern_Large,,,0,3.8058824170148,,,,,,"[-329, -190]","[329, -190]",
memory,spatial_recall,234.24277308303863,235.3591472080443,42,7,Animal_Land_Pattern_Small,,,1,1.1125418749870732,,,,,,"[-329, 190]","[-329, 190]",
memory,spatial_recall,236.9159740000032,237.79576829099096,42,7,Object_Sea_Pattern_Small,,,1,0.8753905830672011,,,,,,"[329, 189]","[329, 189]",
