phase,event,trial_number,eyetracker_onset,eyetracker_offset,fix_start,fix_end,fix_duration_full,fix_duration_bounded,fix_x,fix_y,roi_x,roi_y,roi_content,onset,offset,game,image,outcome,choice,correct,rt,letter,match,response,option,true_value,true_position,recalled_position,Unnamed: 18
encoding,fixation,1,31707076,31708097,31707360.0,31707635.0,276.0,276.0,1940.2,1105.3,1920.0,1080.0,fixation,9.954634333960712,10.976167250075378,1.0,Object_Land_Pattern_Small,-3.0,,,,,,,,,,,
encoding,fixation,1,31707076,31708097,31707846.0,31707995.0,150.0,150.0,1909.8,1414.4,1920.0,700.0,Object_Land_Pattern_Small,9.954634333960712,10.976167250075378,1.0,Object_Land_Pattern_Small,-3.0,,,,,,,,,,,
encoding,fixation,1,31707076,31708097,31708036.0,31708291.0,256.0,61.0,1958.4,1060.9,1920.0,1080.0,fixation,9.954634333960712,10.976167250075378,1.0,Object_Land_Pattern_Small,-3.0,,,,,,,,,,,
encoding,image,1,31708097,31709120,31708327.0,31708874.0,548.0,548.0,1942.1,1409.0,1920.0,700.0,Object_Land_Pattern_Small,10.9763094590744,11.999344125040809,1.0,Object_Land_Pattern_Small,-3.0,,,,,,,,,,,
encoding,image,1,31708097,31709120,31708882.0,31709243.0,362.0,238.0,1913.2,1416.0,1920.0,700.0,Object_Land_Pattern_Small,10.9763094590744,11.999344125040809,1.0,Object_Land_Pattern_Small,-3.0,,,,,,,,,,,
encoding,value,1,31709121,31715137,31709257.0,31710110.0,854.0,854.0,1927.7,1338.3,1920.0,700.0,Object_Land_Pattern_Small,11.999467667075804,18.015831709024496,1.0,Object_Land_Pattern_Small,-3.0,,,,,,,,,,,
encoding,value,1,31709121,31715137,31710122.0,31710460.0,339.0,339.0,1931.0,1380.7,1920.0,700.0,Object_Land_Pattern_Small,11.999467667075804,18.015831709024496,1.0,Object_Land_Pattern_Small,-3.0,,,,,,,,,,,
encoding,value,1,31709121,31715137,31710471.0,31711678.0,1208.0,1208.0,1926.6,1433.8,1920.0,700.0,Object_Land_Pattern_Small,11.999467667075804,18.015831709024496,1.0,Object_Land_Pattern_Small,-3.0,,,,,,,,,,,
encoding,value,1,31709121,31715137,31711694.0,31711966.0,273.0,273.0,1918.4,1375.5,1920.0,700.0,Object_Land_Pattern_Small,11.999467667075804,18.015831709024496,1.0,Object_Land_Pattern_Small,-3.0,,,,,,,,,,,
encoding,value,1,31709121,31715137,31711981.0,31712325.0,345.0,345.0,1927.9,1435.8,1920.0,700.0,Object_Land_Pattern_Small,11.999467667075804,18.015831709024496,1.0,Object_Land_Pattern_Small,-3.0,,,,,,,,,,,
encoding,value,1,31709121,31715137,31712336.0,31712516.0,181.0,181.0,1937.6,1378.6,1920.0,700.0,Object_Land_Pattern_Small,11.999467667075804,18.015831709024496,1.0,Object_Land_Pattern_Small,-3.0,,,,,,,,,,,
encoding,value,1,31709121,31715137,31712531.0,31712717.0,187.0,187.0,1924.7,1447.7,1920.0,700.0,Object_Land_Pattern_Small,11.999467667075804,18.015831709024496,1.0,Object_Land_Pattern_Small,-3.0,,,,,,,,,,,
encoding,value,1,31709121,31715137,31712734.0,31713287.0,554.0,554.0,1935.8,1380.1,1920.0,700.0,Object_Land_Pattern_Small,11.999467667075804,18.015831709024496,1.0,Object_Land_Pattern_Small,-3.0,,,,,,,,,,,
encoding,value,1,31709121,31715137,31713298.0,31713363.0,66.0,66.0,1899.9,1345.7,1920.0,700.0,Object_Land_Pattern_Small,11.999467667075804,18.015831709024496,1.0,Object_Land_Pattern_Small,-3.0,,,,,,,,,,,
encoding,value,1,31709121,31715137,31713383.0,31713457.0,75.0,75.0,1876.6,1225.5,1920.0,700.0,Object_Land_Pattern_Small,11.999467667075804,18.015831709024496,1.0,Object_Land_Pattern_Small,-3.0,,,,,,,,,,,
encoding,value,1,31709121,31715137,31713625.0,31713786.0,162.0,162.0,1944.3,1388.2,1920.0,700.0,Object_Land_Pattern_Small,11.999467667075804,18.015831709024496,1.0,Object_Land_Pattern_Small,-3.0,,,,,,,,,,,
encoding,value,1,31709121,31715137,31713797.0,31714241.0,445.0,445.0,1925.5,1359.0,1920.0,700.0,Object_Land_Pattern_Small,11.999467667075804,18.015831709024496,1.0,Object_Land_Pattern_Small,-3.0,,,,,,,,,,,
encoding,value,1,31709121,31715137,31714251.0,31714710.0,460.0,460.0,1929.0,1314.7,1920.0,700.0,Object_Land_Pattern_Small,11.999467667075804,18.015831709024496,1.0,Object_Land_Pattern_Small,-3.0,,,,,,,,,,,
encoding,value,1,31709121,31715137,31714723.0,31714828.0,106.0,106.0,1915.1,1158.4,1920.0,700.0,Object_Land_Pattern_Small,11.999467667075804,18.015831709024496,1.0,Object_Land_Pattern_Small,-3.0,,,,,,,,,,,
encoding,value,1,31709121,31715137,31715009.0,31715197.0,189.0,128.0,1962.5,1362.0,1920.0,700.0,Object_Land_Pattern_Small,11.999467667075804,18.015831709024496,1.0,Object_Land_Pattern_Small,-3.0,,,,,,,,,,,
encoding,attention,1,31715137,31718207,31715208.0,31715505.0,298.0,298.0,1912.7,1339.2,1920.0,700.0,Object_Land_Pattern_Small,18.015950542059727,21.085277916979976,1.0,Object_Land_Pattern_Small,-3.0,-3.0,1.0,1.5182182079879567,,,,,,,,
encoding,attention,1,31715137,31718207,31715514.0,31715862.0,349.0,349.0,1958.8,1329.7,1920.0,700.0,Object_Land_Pattern_Small,18.015950542059727,21.085277916979976,1.0,Object_Land_Pattern_Small,-3.0,-3.0,1.0,1.5182182079879567,,,,,,,,
encoding,attention,1,31715137,31718207,31715875.0,31716496.0,622.0,622.0,1911.9,1348.2,1920.0,700.0,Object_Land_Pattern_Small,18.015950542059727,21.085277916979976,1.0,Object_Land_Pattern_Small,-3.0,-3.0,1.0,1.5182182079879567,,,,,,,,
encoding,attention,1,31715137,31718207,31716506.0,31717367.0,862.0,862.0,1895.0,1342.6,1920.0,700.0,Object_Land_Pattern_Small,18.015950542059727,21.085277916979976,1.0,Object_Land_Pattern_Small,-3.0,-3.0,1.0,1.5182182079879567,,,,,,,,
encoding,attention,1,31715137,31718207,31717525.0,31717555.0,31.0,31.0,1936.7,1432.9,1920.0,700.0,Object_Land_Pattern_Small,18.015950542059727,21.085277916979976,1.0,Object_Land_Pattern_Small,-3.0,-3.0,1.0,1.5182182079879567,,,,,,,,
encoding,attention,1,31715137,31718207,31717568.0,31718054.0,487.0,487.0,1935.2,1403.9,1920.0,700.0,Object_Land_Pattern_Small,18.015950542059727,21.085277916979976,1.0,Object_Land_Pattern_Small,-3.0,-3.0,1.0,1.5182182079879567,,,,,,,,
encoding,fixation,2,31718207,31719712,31718477.0,31718737.0,261.0,261.0,1922.5,1033.0,1920.0,1080.0,fixation,21.08544279204216,22.590588417020623,1.0,Animal_Sea_Solid_Large,-9.0,,,,,,,,,,,
encoding,fixation,2,31718207,31719712,31719059.0,31719555.0,497.0,497.0,1934.2,1107.1,1920.0,1080.0,fixation,21.08544279204216,22.590588417020623,1.0,Animal_Sea_Solid_Large,-9.0,,,,,,,,,,,
encoding,fixation,2,31718207,31719712,31719597.0,31719650.0,54.0,54.0,1853.9,625.4000000000001,1920.0,1460.0,Animal_Sea_Solid_Large,21.08544279204216,22.590588417020623,1.0,Animal_Sea_Solid_Large,-9.0,,,,,,,,,,,
encoding,image,2,31719712,31720725,31719862.0,31720025.0,164.0,164.0,1891.9,1080.1,1920.0,1080.0,fixation,22.59072004200425,23.603304333984852,1.0,Animal_Sea_Solid_Large,-9.0,,,,,,,,,,,
encoding,image,2,31719712,31720725,31720058.0,31720839.0,782.0,667.0,1941.9,728.9000000000001,1920.0,1460.0,Animal_Sea_Solid_Large,22.59072004200425,23.603304333984852,1.0,Animal_Sea_Solid_Large,-9.0,,,,,,,,,,,
encoding,value,2,31720725,31726738,31721073.0,31721286.0,214.0,214.0,1916.1,620.5999999999999,1920.0,1460.0,Animal_Sea_Solid_Large,23.603416542056948,29.616110792034306,1.0,Animal_Sea_Solid_Large,-9.0,,,,,,,,,,,
encoding,value,2,31720725,31726738,31721304.0,31722323.0,1020.0,1020.0,1935.7,723.5,1920.0,1460.0,Animal_Sea_Solid_Large,23.603416542056948,29.616110792034306,1.0,Animal_Sea_Solid_Large,-9.0,,,,,,,,,,,
encoding,value,2,31720725,31726738,31722334.0,31722608.0,275.0,275.0,1945.0,674.5999999999999,1920.0,1460.0,Animal_Sea_Solid_Large,23.603416542056948,29.616110792034306,1.0,Animal_Sea_Solid_Large,-9.0,,,,,,,,,,,
encoding,value,2,31720725,31726738,31722620.0,31722904.0,285.0,285.0,1934.0,717.0999999999999,1920.0,1460.0,Animal_Sea_Solid_Large,23.603416542056948,29.616110792034306,1.0,Animal_Sea_Solid_Large,-9.0,,,,,,,,,,,
encoding,value,2,31720725,31726738,31722923.0,31723182.0,260.0,260.0,1951.5,608.0999999999999,1920.0,1460.0,Animal_Sea_Solid_Large,23.603416542056948,29.616110792034306,1.0,Animal_Sea_Solid_Large,-9.0,,,,,,,,,,,
encoding,value,2,31720725,31726738,31723198.0,31723589.0,392.0,392.0,1923.0,686.2,1920.0,1460.0,Animal_Sea_Solid_Large,23.603416542056948,29.616110792034306,1.0,Animal_Sea_Solid_Large,-9.0,,,,,,,,,,,
encoding,value,2,31720725,31726738,31723871.0,31723903.0,33.0,33.0,1898.5,809.0,1920.0,1460.0,Animal_Sea_Solid_Large,23.603416542056948,29.616110792034306,1.0,Animal_Sea_Solid_Large,-9.0,,,,,,,,,,,
encoding,value,2,31720725,31726738,31723913.0,31724348.0,436.0,436.0,1908.0,732.5,1920.0,1460.0,Animal_Sea_Solid_Large,23.603416542056948,29.616110792034306,1.0,Animal_Sea_Solid_Large,-9.0,,,,,,,,,,,
encoding,value,2,31720725,31726738,31724366.0,31724654.0,289.0,289.0,1832.5,637.2,1920.0,1460.0,Animal_Sea_Solid_Large,23.603416542056948,29.616110792034306,1.0,Animal_Sea_Solid_Large,-9.0,,,,,,,,,,,
encoding,value,2,31720725,31726738,31724670.0,31725248.0,579.0,579.0,1920.6,631.7,1920.0,1460.0,Animal_Sea_Solid_Large,23.603416542056948,29.616110792034306,1.0,Animal_Sea_Solid_Large,-9.0,,,,,,,,,,,
encoding,value,2,31720725,31726738,31725258.0,31725511.0,254.0,254.0,1928.6,609.5,1920.0,1460.0,Animal_Sea_Solid_Large,23.603416542056948,29.616110792034306,1.0,Animal_Sea_Solid_Large,-9.0,,,,,,,,,,,
encoding,value,2,31720725,31726738,31725522.0,31726338.0,817.0,817.0,1933.9,633.0,1920.0,1460.0,Animal_Sea_Solid_Large,23.603416542056948,29.616110792034306,1.0,Animal_Sea_Solid_Large,-9.0,,,,,,,,,,,
encoding,value,2,31720725,31726738,31726352.0,31726582.0,231.0,231.0,1925.4,685.3,1920.0,1460.0,Animal_Sea_Solid_Large,23.603416542056948,29.616110792034306,1.0,Animal_Sea_Solid_Large,-9.0,,,,,,,,,,,
encoding,value,2,31720725,31726738,31726591.0,31726810.0,220.0,147.0,1961.3,708.0999999999999,1920.0,1460.0,Animal_Sea_Solid_Large,23.603416542056948,29.616110792034306,1.0,Animal_Sea_Solid_Large,-9.0,,,,,,,,,,,
encoding,attention,2,31726738,31729757,31726827.0,31726977.0,151.0,151.0,1921.4,629.4000000000001,1920.0,1460.0,Animal_Sea_Solid_Large,29.616272667073645,32.63480904197786,1.0,Animal_Sea_Solid_Large,-9.0,-9.0,1.0,1.1170002500293776,,,,,,,,
encoding,attention,2,31726738,31729757,31727348.0,31727410.0,63.0,63.0,1877.5,706.7,1920.0,1460.0,Animal_Sea_Solid_Large,29.616272667073645,32.63480904197786,1.0,Animal_Sea_Solid_Large,-9.0,-9.0,1.0,1.1170002500293776,,,,,,,,
encoding,attention,2,31726738,31729757,31727426.0,31728388.0,963.0,963.0,1900.5,631.9000000000001,1920.0,1460.0,Animal_Sea_Solid_Large,29.616272667073645,32.63480904197786,1.0,Animal_Sea_Solid_Large,-9.0,-9.0,1.0,1.1170002500293776,,,,,,,,
encoding,attention,2,31726738,31729757,31728401.0,31728618.0,218.0,218.0,1966.8,660.5999999999999,1920.0,1460.0,Animal_Sea_Solid_Large,29.616272667073645,32.63480904197786,1.0,Animal_Sea_Solid_Large,-9.0,-9.0,1.0,1.1170002500293776,,,,,,,,
encoding,attention,2,31726738,31729757,31728631.0,31728825.0,195.0,195.0,1923.9,704.8,1920.0,1460.0,Animal_Sea_Solid_Large,29.616272667073645,32.63480904197786,1.0,Animal_Sea_Solid_Large,-9.0,-9.0,1.0,1.1170002500293776,,,,,,,,
encoding,attention,2,31726738,31729757,31729102.0,31729165.0,64.0,64.0,1928.7,885.5,1920.0,1460.0,Animal_Sea_Solid_Large,29.616272667073645,32.63480904197786,1.0,Animal_Sea_Solid_Large,-9.0,-9.0,1.0,1.1170002500293776,,,,,,,,
encoding,attention,2,31726738,31729757,31729174.0,31729216.0,43.0,43.0,1932.6,816.2,1920.0,1460.0,Animal_Sea_Solid_Large,29.616272667073645,32.63480904197786,1.0,Animal_Sea_Solid_Large,-9.0,-9.0,1.0,1.1170002500293776,,,,,,,,
encoding,attention,2,31726738,31729757,31729231.0,31729575.0,345.0,345.0,1925.7,738.2,1920.0,1460.0,Animal_Sea_Solid_Large,29.616272667073645,32.63480904197786,1.0,Animal_Sea_Solid_Large,-9.0,-9.0,1.0,1.1170002500293776,,,,,,,,
encoding,fixation,3,31729757,31730514,31729995.0,31730300.0,306.0,306.0,1914.1,1053.7,1920.0,1080.0,fixation,32.63496850000229,33.39198829198722,1.0,Object_Sea_Pattern_Large,1.0,,,,,,,,,,,
encoding,image,3,31730514,31731527,31730586.0,31730614.0,29.0,29.0,1933.9,986.8,1920.0,1460.0,Animal_Sea_Solid_Large,33.39211483404506,34.404826209065504,1.0,Object_Sea_Pattern_Large,1.0,,,,,,,,,,,
encoding,image,3,31730514,31731527,31730626.0,31730723.0,98.0,98.0,1937.1,911.5999999999999,1920.0,1460.0,Animal_Sea_Solid_Large,33.39211483404506,34.404826209065504,1.0,Object_Sea_Pattern_Large,1.0,,,,,,,,,,,
encoding,image,3,31730514,31731527,31730747.0,31730872.0,126.0,126.0,1908.8,1075.2,1920.0,1080.0,fixation,33.39211483404506,34.404826209065504,1.0,Object_Sea_Pattern_Large,1.0,,,,,,,,,,,
encoding,image,3,31730514,31731527,31730909.0,31731141.0,233.0,233.0,1590.8,847.8,1591.0,1269.0,Object_Sea_Pattern_Large,33.39211483404506,34.404826209065504,1.0,Object_Sea_Pattern_Large,1.0,,,,,,,,,,,
encoding,image,3,31730514,31731527,31731152.0,31731724.0,573.0,375.0,1572.0,793.2,1591.0,1269.0,Object_Sea_Pattern_Large,33.39211483404506,34.404826209065504,1.0,Object_Sea_Pattern_Large,1.0,,,,,,,,,,,
encoding,value,3,31731527,31737539,31731733.0,31732200.0,468.0,468.0,1600.3,741.5999999999999,1591.0,1269.0,Object_Sea_Pattern_Large,34.404941334039904,40.41689254203811,1.0,Object_Sea_Pattern_Large,1.0,,,,,,,,,,,
encoding,value,3,31731527,31737539,31732553.0,31732581.0,29.0,29.0,1667.0,818.0,1591.0,1269.0,Object_Sea_Pattern_Large,34.404941334039904,40.41689254203811,1.0,Object_Sea_Pattern_Large,1.0,,,,,,,,,,,
encoding,value,3,31731527,31737539,31732599.0,31732942.0,344.0,344.0,1650.1,740.5,1591.0,1269.0,Object_Sea_Pattern_Large,34.404941334039904,40.41689254203811,1.0,Object_Sea_Pattern_Large,1.0,,,,,,,,,,,
encoding,value,3,31731527,31737539,31732961.0,31733258.0,298.0,298.0,1732.1,716.8,1920.0,1460.0,Animal_Sea_Solid_Large,34.404941334039904,40.41689254203811,1.0,Object_Sea_Pattern_Large,1.0,,,,,,,,,,,
encoding,value,3,31731527,31737539,31733273.0,31733495.0,223.0,223.0,1645.3,729.3,1591.0,1269.0,Object_Sea_Pattern_Large,34.404941334039904,40.41689254203811,1.0,Object_Sea_Pattern_Large,1.0,,,,,,,,,,,
encoding,value,3,31731527,31737539,31733506.0,31733761.0,256.0,256.0,1585.0,736.7,1591.0,1269.0,Object_Sea_Pattern_Large,34.404941334039904,40.41689254203811,1.0,Object_Sea_Pattern_Large,1.0,,,,,,,,,,,
encoding,value,3,31731527,31737539,31733769.0,31734168.0,400.0,400.0,1610.9,776.9000000000001,1591.0,1269.0,Object_Sea_Pattern_Large,34.404941334039904,40.41689254203811,1.0,Object_Sea_Pattern_Large,1.0,,,,,,,,,,,
encoding,value,3,31731527,31737539,31734175.0,31734492.0,318.0,318.0,1608.6,778.3,1591.0,1269.0,Object_Sea_Pattern_Large,34.404941334039904,40.41689254203811,1.0,Object_Sea_Pattern_Large,1.0,,,,,,,,,,,
encoding,value,3,31731527,31737539,31734748.0,31734908.0,161.0,161.0,1592.3,767.0999999999999,1591.0,1269.0,Object_Sea_Pattern_Large,34.404941334039904,40.41689254203811,1.0,Object_Sea_Pattern_Large,1.0,,,,,,,,,,,
encoding,value,3,31731527,31737539,31734927.0,31735178.0,252.0,252.0,1563.4,843.7,1591.0,1269.0,Object_Sea_Pattern_Large,34.404941334039904,40.41689254203811,1.0,Object_Sea_Pattern_Large,1.0,,,,,,,,,,,
encoding,value,3,31731527,31737539,31735196.0,31735574.0,379.0,379.0,1597.3,763.7,1591.0,1269.0,Object_Sea_Pattern_Large,34.404941334039904,40.41689254203811,1.0,Object_Sea_Pattern_Large,1.0,,,,,,,,,,,
encoding,value,3,31731527,31737539,31735586.0,31735745.0,160.0,160.0,1646.3,776.7,1591.0,1269.0,Object_Sea_Pattern_Large,34.404941334039904,40.41689254203811,1.0,Object_Sea_Pattern_Large,1.0,,,,,,,,,,,
encoding,value,3,31731527,31737539,31735755.0,31736170.0,416.0,416.0,1606.3,769.7,1591.0,1269.0,Object_Sea_Pattern_Large,34.404941334039904,40.41689254203811,1.0,Object_Sea_Pattern_Large,1.0,,,,,,,,,,,
encoding,value,3,31731527,31737539,31736398.0,31736609.0,212.0,212.0,1594.4,852.0,1591.0,1269.0,Object_Sea_Pattern_Large,34.404941334039904,40.41689254203811,1.0,Object_Sea_Pattern_Large,1.0,,,,,,,,,,,
encoding,value,3,31731527,31737539,31736620.0,31737336.0,717.0,717.0,1568.7,822.0,1591.0,1269.0,Object_Sea_Pattern_Large,34.404941334039904,40.41689254203811,1.0,Object_Sea_Pattern_Large,1.0,,,,,,,,,,,
encoding,value,3,31731527,31737539,31737343.0,31737482.0,140.0,140.0,1614.3,752.5,1591.0,1269.0,Object_Sea_Pattern_Large,34.404941334039904,40.41689254203811,1.0,Object_Sea_Pattern_Large,1.0,,,,,,,,,,,
encoding,value,3,31731527,31737539,31737496.0,31737774.0,279.0,43.0,1704.5,1006.8,1591.0,1269.0,Object_Sea_Pattern_Large,34.404941334039904,40.41689254203811,1.0,Object_Sea_Pattern_Large,1.0,,,,,,,,,,,
encoding,attention,3,31737539,31740558,31737812.0,31738035.0,224.0,224.0,1631.2,769.3,1591.0,1269.0,Object_Sea_Pattern_Large,40.417022875044495,43.43499774998054,1.0,Object_Sea_Pattern_Large,1.0,1.0,1.0,2.125793791958131,,,,,,,,
encoding,attention,3,31737539,31740558,31738042.0,31738527.0,486.0,486.0,1625.4,738.4000000000001,1591.0,1269.0,Object_Sea_Pattern_Large,40.417022875044495,43.43499774998054,1.0,Object_Sea_Pattern_Large,1.0,1.0,1.0,2.125793791958131,,,,,,,,
encoding,attention,3,31737539,31740558,31738541.0,31738844.0,304.0,304.0,1544.3,724.9000000000001,1591.0,1269.0,Object_Sea_Pattern_Large,40.417022875044495,43.43499774998054,1.0,Object_Sea_Pattern_Large,1.0,1.0,1.0,2.125793791958131,,,,,,,,
encoding,attention,3,31737539,31740558,31738859.0,31739042.0,184.0,184.0,1592.9,795.3,1591.0,1269.0,Object_Sea_Pattern_Large,40.417022875044495,43.43499774998054,1.0,Object_Sea_Pattern_Large,1.0,1.0,1.0,2.125793791958131,,,,,,,,
encoding,attention,3,31737539,31740558,31739057.0,31739247.0,191.0,191.0,1646.9,742.4000000000001,1591.0,1269.0,Object_Sea_Pattern_Large,40.417022875044495,43.43499774998054,1.0,Object_Sea_Pattern_Large,1.0,1.0,1.0,2.125793791958131,,,,,,,,
encoding,attention,3,31737539,31740558,31739265.0,31739328.0,64.0,64.0,1644.8,797.9000000000001,1591.0,1269.0,Object_Sea_Pattern_Large,40.417022875044495,43.43499774998054,1.0,Object_Sea_Pattern_Large,1.0,1.0,1.0,2.125793791958131,,,,,,,,
encoding,attention,3,31737539,31740558,31739676.0,31739839.0,164.0,164.0,1649.0,846.2,1591.0,1269.0,Object_Sea_Pattern_Large,40.417022875044495,43.43499774998054,1.0,Object_Sea_Pattern_Large,1.0,1.0,1.0,2.125793791958131,,,,,,,,
encoding,attention,3,31737539,31740558,31739862.0,31740149.0,288.0,288.0,1650.1,775.5,1591.0,1269.0,Object_Sea_Pattern_Large,40.417022875044495,43.43499774998054,1.0,Object_Sea_Pattern_Large,1.0,1.0,1.0,2.125793791958131,,,,,,,,
encoding,fixation,4,31740558,31741064,31740817.0,31740944.0,128.0,128.0,1882.8,1043.0,1920.0,1080.0,fixation,43.43514816707466,43.94135358405765,1.0,Animal_Sea_Pattern_Large,3.0,,,,,,,,,,,
encoding,image,4,31741064,31742075,31741298.0,31741326.0,29.0,29.0,2026.7,1061.8,2249.0,1269.0,Animal_Sea_Pattern_Large,43.941471375059336,44.9520132499747,1.0,Animal_Sea_Pattern_Large,3.0,,,,,,,,,,,
encoding,image,4,31741064,31742075,31741335.0,31741462.0,128.0,128.0,2026.2,984.5,2249.0,1269.0,Animal_Sea_Pattern_Large,43.941471375059336,44.9520132499747,1.0,Animal_Sea_Pattern_Large,3.0,,,,,,,,,,,
encoding,image,4,31741064,31742075,31741486.0,31742164.0,679.0,589.0,2217.9,926.0,2249.0,1269.0,Animal_Sea_Pattern_Large,43.941471375059336,44.9520132499747,1.0,Animal_Sea_Pattern_Large,3.0,,,,,,,,,,,
encoding,value,4,31742075,31748086,31742181.0,31742275.0,95.0,95.0,2113.9,881.9000000000001,2249.0,1269.0,Animal_Sea_Pattern_Large,44.95213275006972,50.96275462501217,1.0,Animal_Sea_Pattern_Large,3.0,,,,,,,,,,,
encoding,value,4,31742075,31748086,31742495.0,31742661.0,167.0,167.0,2225.0,814.4000000000001,2249.0,1269.0,Animal_Sea_Pattern_Large,44.95213275006972,50.96275462501217,1.0,Animal_Sea_Pattern_Large,3.0,,,,,,,,,,,
encoding,value,4,31742075,31748086,31742678.0,31743263.0,586.0,586.0,2233.0,893.4000000000001,2249.0,1269.0,Animal_Sea_Pattern_Large,44.95213275006972,50.96275462501217,1.0,Animal_Sea_Pattern_Large,3.0,,,,,,,,,,,
encoding,value,4,31742075,31748086,31743275.0,31743418.0,144.0,144.0,2176.7,905.8,2249.0,1269.0,Animal_Sea_Pattern_Large,44.95213275006972,50.96275462501217,1.0,Animal_Sea_Pattern_Large,3.0,,,,,,,,,,,
encoding,value,4,31742075,31748086,31743462.0,31743688.0,227.0,227.0,1623.2,951.5,1591.0,1269.0,Object_Sea_Pattern_Large,44.95213275006972,50.96275462501217,1.0,Animal_Sea_Pattern_Large,3.0,,,,,,,,,,,
encoding,value,4,31742075,31748086,31743711.0,31744052.0,342.0,342.0,1376.3,918.3,1591.0,1269.0,Object_Sea_Pattern_Large,44.95213275006972,50.96275462501217,1.0,Animal_Sea_Pattern_Large,3.0,,,,,,,,,,,
encoding,value,4,31742075,31748086,31744102.0,31744252.0,151.0,151.0,1947.8,845.9000000000001,1920.0,1460.0,Animal_Sea_Solid_Large,44.95213275006972,50.96275462501217,1.0,Animal_Sea_Pattern_Large,3.0,,,,,,,,,,,
encoding,value,4,31742075,31748086,31744277.0,31744528.0,252.0,252.0,2228.3,821.8,2249.0,1269.0,Animal_Sea_Pattern_Large,44.95213275006972,50.96275462501217,1.0,Animal_Sea_Pattern_Large,3.0,,,,,,,,,,,
encoding,value,4,31742075,31748086,31744544.0,31745165.0,622.0,622.0,2227.3,878.5,2249.0,1269.0,Animal_Sea_Pattern_Large,44.95213275006972,50.96275462501217,1.0,Animal_Sea_Pattern_Large,3.0,,,,,,,,,,,
encoding,value,4,31742075,31748086,31745183.0,31745349.0,167.0,167.0,2255.7,783.7,2249.0,1269.0,Animal_Sea_Pattern_Large,44.95213275006972,50.96275462501217,1.0,Animal_Sea_Pattern_Large,3.0,,,,,,,,,,,
encoding,value,4,31742075,31748086,31745366.0,31745742.0,377.0,377.0,2210.1,871.2,2249.0,1269.0,Animal_Sea_Pattern_Large,44.95213275006972,50.96275462501217,1.0,Animal_Sea_Pattern_Large,3.0,,,,,,,,,,,
encoding,value,4,31742075,31748086,31745756.0,31746197.0,442.0,442.0,2256.3,795.8,2249.0,1269.0,Animal_Sea_Pattern_Large,44.95213275006972,50.96275462501217,1.0,Animal_Sea_Pattern_Large,3.0,,,,,,,,,,,
encoding,value,4,31742075,31748086,31746430.0,31746451.0,22.0,22.0,2238.8,979.4000000000001,2249.0,1269.0,Animal_Sea_Pattern_Large,44.95213275006972,50.96275462501217,1.0,Animal_Sea_Pattern_Large,3.0,,,,,,,,,,,
encoding,value,4,31742075,31748086,31746488.0,31746643.0,156.0,156.0,2237.3,910.3,2249.0,1269.0,Animal_Sea_Pattern_Large,44.95213275006972,50.96275462501217,1.0,Animal_Sea_Pattern_Large,3.0,,,,,,,,,,,
encoding,value,4,31742075,31748086,31746654.0,31746980.0,327.0,327.0,2196.7,908.8,2249.0,1269.0,Animal_Sea_Pattern_Large,44.95213275006972,50.96275462501217,1.0,Animal_Sea_Pattern_Large,3.0,,,,,,,,,,,
encoding,value,4,31742075,31748086,31746994.0,31747247.0,254.0,254.0,2260.1,840.5999999999999,2249.0,1269.0,Animal_Sea_Pattern_Large,44.95213275006972,50.96275462501217,1.0,Animal_Sea_Pattern_Large,3.0,,,,,,,,,,,
encoding,value,4,31742075,31748086,31747261.0,31747477.0,217.0,217.0,2208.6,896.8,2249.0,1269.0,Animal_Sea_Pattern_Large,44.95213275006972,50.96275462501217,1.0,Animal_Sea_Pattern_Large,3.0,,,,,,,,,,,
encoding,value,4,31742075,31748086,31747538.0,31747622.0,85.0,85.0,1929.7,1136.6,1920.0,1080.0,fixation,44.95213275006972,50.96275462501217,1.0,Animal_Sea_Pattern_Large,3.0,,,,,,,,,,,
encoding,value,4,31742075,31748086,31747904.0,31748016.0,113.0,113.0,2226.3,983.5,2249.0,1269.0,Animal_Sea_Pattern_Large,44.95213275006972,50.96275462501217,1.0,Animal_Sea_Pattern_Large,3.0,,,,,,,,,,,
encoding,value,4,31742075,31748086,31748034.0,31748383.0,350.0,52.0,2259.5,868.4000000000001,2249.0,1269.0,Animal_Sea_Pattern_Large,44.95213275006972,50.96275462501217,1.0,Animal_Sea_Pattern_Large,3.0,,,,,,,,,,,
encoding,attention,4,31748086,31751103,31748395.0,31748647.0,253.0,253.0,2285.6,815.0999999999999,2249.0,1269.0,Animal_Sea_Pattern_Large,50.96288183401339,53.97996508399956,1.0,Animal_Sea_Pattern_Large,3.0,3.0,1.0,1.7240637090289963,,,,,,,,
encoding,attention,4,31748086,31751103,31748660.0,31748847.0,188.0,188.0,2215.1,803.9000000000001,2249.0,1269.0,Animal_Sea_Pattern_Large,50.96288183401339,53.97996508399956,1.0,Animal_Sea_Pattern_Large,3.0,3.0,1.0,1.7240637090289963,,,,,,,,
encoding,attention,4,31748086,31751103,31749110.0,31749212.0,103.0,103.0,2208.4,932.5999999999999,2249.0,1269.0,Animal_Sea_Pattern_Large,50.96288183401339,53.97996508399956,1.0,Animal_Sea_Pattern_Large,3.0,3.0,1.0,1.7240637090289963,,,,,,,,
encoding,attention,4,31748086,31751103,31749226.0,31749903.0,678.0,678.0,2220.4,832.5,2249.0,1269.0,Animal_Sea_Pattern_Large,50.96288183401339,53.97996508399956,1.0,Animal_Sea_Pattern_Large,3.0,3.0,1.0,1.7240637090289963,,,,,,,,
encoding,attention,4,31748086,31751103,31750002.0,31750057.0,56.0,56.0,2217.6,887.5,2249.0,1269.0,Animal_Sea_Pattern_Large,50.96288183401339,53.97996508399956,1.0,Animal_Sea_Pattern_Large,3.0,3.0,1.0,1.7240637090289963,,,,,,,,
encoding,attention,4,31748086,31751103,31750086.0,31750236.0,151.0,151.0,2210.6,885.2,2249.0,1269.0,Animal_Sea_Pattern_Large,50.96288183401339,53.97996508399956,1.0,Animal_Sea_Pattern_Large,3.0,3.0,1.0,1.7240637090289963,,,,,,,,
encoding,attention,4,31748086,31751103,31750268.0,31750484.0,217.0,217.0,2203.8,796.0999999999999,2249.0,1269.0,Animal_Sea_Pattern_Large,50.96288183401339,53.97996508399956,1.0,Animal_Sea_Pattern_Large,3.0,3.0,1.0,1.7240637090289963,,,,,,,,
encoding,attention,4,31748086,31751103,31750501.0,31751079.0,579.0,579.0,2210.2,871.7,2249.0,1269.0,Animal_Sea_Pattern_Large,50.96288183401339,53.97996508399956,1.0,Animal_Sea_Pattern_Large,3.0,3.0,1.0,1.7240637090289963,,,,,,,,
encoding,fixation,5,31751103,31752609,31751317.0,31751337.0,21.0,21.0,1855.9,1209.4,1920.0,700.0,Object_Land_Pattern_Small,53.98012675007339,55.48598495905753,1.0,Animal_Land_Solid_Small,9.0,,,,,,,,,,,
encoding,fixation,5,31751103,31752609,31751354.0,31751530.0,177.0,177.0,1857.6,1149.7,1591.0,891.0,Animal_Land_Solid_Small,53.98012675007339,55.48598495905753,1.0,Animal_Land_Solid_Small,9.0,,,,,,,,,,,
encoding,fixation,5,31751103,31752609,31751544.0,31751841.0,298.0,298.0,1899.1,1097.5,1920.0,1080.0,fixation,53.98012675007339,55.48598495905753,1.0,Animal_Land_Solid_Small,9.0,,,,,,,,,,,
encoding,fixation,5,31751103,31752609,31751914.0,31752038.0,125.0,125.0,1370.9,621.2,,,none,53.98012675007339,55.48598495905753,1.0,Animal_Land_Solid_Small,9.0,,,,,,,,,,,
encoding,fixation,5,31751103,31752609,31752078.0,31752198.0,121.0,121.0,1059.5,415.4000000000001,,,none,53.98012675007339,55.48598495905753,1.0,Animal_Land_Solid_Small,9.0,,,,,,,,,,,
encoding,fixation,5,31751103,31752609,31752429.0,31752616.0,188.0,180.0,1855.6,1079.8,1920.0,1080.0,fixation,53.98012675007339,55.48598495905753,1.0,Animal_Land_Solid_Small,9.0,,,,,,,,,,,
encoding,image,5,31752609,31753620,31752627.0,31752794.0,168.0,168.0,1904.6,1094.1,1920.0,1080.0,fixation,55.48608974996023,56.49719420901965,1.0,Animal_Land_Solid_Small,9.0,,,,,,,,,,,
encoding,image,5,31752609,31753620,31752822.0,31753020.0,199.0,199.0,1600.1,1222.5,1591.0,891.0,Animal_Land_Solid_Small,55.48608974996023,56.49719420901965,1.0,Animal_Land_Solid_Small,9.0,,,,,,,,,,,
encoding,image,5,31752609,31753620,31753032.0,31753808.0,777.0,588.0,1611.9,1274.0,1591.0,891.0,Animal_Land_Solid_Small,55.48608974996023,56.49719420901965,1.0,Animal_Land_Solid_Small,9.0,,,,,,,,,,,
encoding,value,5,31753620,31759632,31753829.0,31754598.0,770.0,770.0,1593.4,1141.7,1591.0,891.0,Animal_Land_Solid_Small,56.49733250006102,62.50822199997492,1.0,Animal_Land_Solid_Small,9.0,,,,,,,,,,,
encoding,value,5,31753620,31759632,31754889.0,31755688.0,800.0,800.0,1599.4,1302.2,1591.0,891.0,Animal_Land_Solid_Small,56.49733250006102,62.50822199997492,1.0,Animal_Land_Solid_Small,9.0,,,,,,,,,,,
encoding,value,5,31753620,31759632,31755703.0,31756042.0,340.0,340.0,1600.2,1190.7,1591.0,891.0,Animal_Land_Solid_Small,56.49733250006102,62.50822199997492,1.0,Animal_Land_Solid_Small,9.0,,,,,,,,,,,
encoding,value,5,31753620,31759632,31756058.0,31757221.0,1164.0,1164.0,1626.4,1261.6,1591.0,891.0,Animal_Land_Solid_Small,56.49733250006102,62.50822199997492,1.0,Animal_Land_Solid_Small,9.0,,,,,,,,,,,
encoding,value,5,31753620,31759632,31757241.0,31758014.0,774.0,774.0,1598.8,1135.2,1591.0,891.0,Animal_Land_Solid_Small,56.49733250006102,62.50822199997492,1.0,Animal_Land_Solid_Small,9.0,,,,,,,,,,,
encoding,value,5,31753620,31759632,31758030.0,31758322.0,293.0,293.0,1594.4,1228.4,1591.0,891.0,Animal_Land_Solid_Small,56.49733250006102,62.50822199997492,1.0,Animal_Land_Solid_Small,9.0,,,,,,,,,,,
encoding,value,5,31753620,31759632,31758331.0,31759091.0,761.0,761.0,1613.4,1260.6,1591.0,891.0,Animal_Land_Solid_Small,56.49733250006102,62.50822199997492,1.0,Animal_Land_Solid_Small,9.0,,,,,,,,,,,
encoding,value,5,31753620,31759632,31759103.0,31759452.0,350.0,350.0,1596.9,1166.1,1591.0,891.0,Animal_Land_Solid_Small,56.49733250006102,62.50822199997492,1.0,Animal_Land_Solid_Small,9.0,,,,,,,,,,,
encoding,value,5,31753620,31759632,31759465.0,31759590.0,126.0,126.0,1592.9,1103.8,1591.0,891.0,Animal_Land_Solid_Small,56.49733250006102,62.50822199997492,1.0,Animal_Land_Solid_Small,9.0,,,,,,,,,,,
encoding,attention,5,31759632,31762654,31759861.0,31760003.0,143.0,143.0,1644.3,1376.3,1591.0,891.0,Animal_Land_Solid_Small,62.50835370901041,65.53060545900371,1.0,Animal_Land_Solid_Small,9.0,9.0,1.0,1.629950916976668,,,,,,,,
encoding,attention,5,31759632,31762654,31760019.0,31760132.0,114.0,114.0,1596.3,1304.3,1591.0,891.0,Animal_Land_Solid_Small,62.50835370901041,65.53060545900371,1.0,Animal_Land_Solid_Small,9.0,9.0,1.0,1.629950916976668,,,,,,,,
encoding,attention,5,31759632,31762654,31760154.0,31760616.0,463.0,463.0,1616.3,1164.2,1591.0,891.0,Animal_Land_Solid_Small,62.50835370901041,65.53060545900371,1.0,Animal_Land_Solid_Small,9.0,9.0,1.0,1.629950916976668,,,,,,,,
encoding,attention,5,31759632,31762654,31760627.0,31761136.0,510.0,510.0,1549.2,1133.3,1591.0,891.0,Animal_Land_Solid_Small,62.50835370901041,65.53060545900371,1.0,Animal_Land_Solid_Small,9.0,9.0,1.0,1.629950916976668,,,,,,,,
encoding,attention,5,31759632,31762654,31761146.0,31761557.0,412.0,412.0,1597.0,1137.3,1591.0,891.0,Animal_Land_Solid_Small,62.50835370901041,65.53060545900371,1.0,Animal_Land_Solid_Small,9.0,9.0,1.0,1.629950916976668,,,,,,,,
encoding,attention,5,31759632,31762654,31761565.0,31761827.0,263.0,263.0,1551.2,1126.4,1591.0,891.0,Animal_Land_Solid_Small,62.50835370901041,65.53060545900371,1.0,Animal_Land_Solid_Small,9.0,9.0,1.0,1.629950916976668,,,,,,,,
encoding,attention,5,31759632,31762654,31761842.0,31762074.0,233.0,233.0,1635.9,1134.7,1591.0,891.0,Animal_Land_Solid_Small,62.50835370901041,65.53060545900371,1.0,Animal_Land_Solid_Small,9.0,9.0,1.0,1.629950916976668,,,,,,,,
encoding,attention,5,31759632,31762654,31762085.0,31762389.0,305.0,305.0,1585.9,1165.2,1591.0,891.0,Animal_Land_Solid_Small,62.50835370901041,65.53060545900371,1.0,Animal_Land_Solid_Small,9.0,9.0,1.0,1.629950916976668,,,,,,,,
encoding,fixation,6,31762654,31764160,31763384.0,31763540.0,157.0,157.0,2116.1,1008.8,2249.0,1269.0,Animal_Sea_Pattern_Large,65.5307607089635,67.03590187500231,1.0,Object_Land_Solid_Small,-4.0,,,,,,,,,,,
encoding,fixation,6,31762654,31764160,31763564.0,31763731.0,168.0,168.0,1919.2,1083.4,1920.0,1080.0,fixation,65.5307607089635,67.03590187500231,1.0,Object_Land_Solid_Small,-4.0,,,,,,,,,,,
encoding,fixation,6,31762654,31764160,31763826.0,31763984.0,159.0,159.0,2336.3,-126.09999999999991,,,none,65.5307607089635,67.03590187500231,1.0,Object_Land_Solid_Small,-4.0,,,,,,,,,,,
encoding,image,6,31764160,31765171,31764181.0,31764370.0,190.0,190.0,1912.9,1214.3,1920.0,700.0,Object_Land_Pattern_Small,67.0360048749717,68.0474169170484,1.0,Object_Land_Solid_Small,-4.0,,,,,,,,,,,
encoding,image,6,31764160,31765171,31764406.0,31764963.0,558.0,558.0,2254.3,1284.3,2249.0,891.0,Object_Land_Solid_Small,67.0360048749717,68.0474169170484,1.0,Object_Land_Solid_Small,-4.0,,,,,,,,,,,
encoding,image,6,31764160,31765171,31764981.0,31765488.0,508.0,190.0,2192.3,1201.0,2249.0,891.0,Object_Land_Solid_Small,67.0360048749717,68.0474169170484,1.0,Object_Land_Solid_Small,-4.0,,,,,,,,,,,
encoding,value,6,31765171,31771185,31765500.0,31765902.0,403.0,403.0,2254.7,1169.1,2249.0,891.0,Object_Land_Solid_Small,68.04752420901787,74.06072545901407,1.0,Object_Land_Solid_Small,-4.0,,,,,,,,,,,
encoding,value,6,31765171,31771185,31765920.0,31766229.0,310.0,310.0,2252.4,1258.2,2249.0,891.0,Object_Land_Solid_Small,68.04752420901787,74.06072545901407,1.0,Object_Land_Solid_Small,-4.0,,,,,,,,,,,
encoding,value,6,31765171,31771185,31766318.0,31766412.0,95.0,95.0,1909.2,297.9000000000001,,,none,68.04752420901787,74.06072545901407,1.0,Object_Land_Solid_Small,-4.0,,,,,,,,,,,
encoding,value,6,31765171,31771185,31766697.0,31766910.0,214.0,214.0,2273.1,1286.7,2249.0,891.0,Object_Land_Solid_Small,68.04752420901787,74.06072545901407,1.0,Object_Land_Solid_Small,-4.0,,,,,,,,,,,
encoding,value,6,31765171,31771185,31766920.0,31767202.0,283.0,283.0,2241.8,1303.4,2249.0,891.0,Object_Land_Solid_Small,68.04752420901787,74.06072545901407,1.0,Object_Land_Solid_Small,-4.0,,,,,,,,,,,
encoding,value,6,31765171,31771185,31767254.0,31767601.0,348.0,348.0,1589.3,1212.9,1591.0,891.0,Animal_Land_Solid_Small,68.04752420901787,74.06072545901407,1.0,Object_Land_Solid_Small,-4.0,,,,,,,,,,,
encoding,value,6,31765171,31771185,31767636.0,31767750.0,115.0,115.0,1359.4,858.0,,,none,68.04752420901787,74.06072545901407,1.0,Object_Land_Solid_Small,-4.0,,,,,,,,,,,
encoding,value,6,31765171,31771185,31768123.0,31768345.0,223.0,223.0,2193.2,1160.0,2249.0,891.0,Object_Land_Solid_Small,68.04752420901787,74.06072545901407,1.0,Object_Land_Solid_Small,-4.0,,,,,,,,,,,
encoding,value,6,31765171,31771185,31768361.0,31768796.0,436.0,436.0,2225.0,1231.0,2249.0,891.0,Object_Land_Solid_Small,68.04752420901787,74.06072545901407,1.0,Object_Land_Solid_Small,-4.0,,,,,,,,,,,
encoding,value,6,31765171,31771185,31768804.0,31769134.0,331.0,331.0,2258.7,1257.0,2249.0,891.0,Object_Land_Solid_Small,68.04752420901787,74.06072545901407,1.0,Object_Land_Solid_Small,-4.0,,,,,,,,,,,
encoding,value,6,31765171,31771185,31769147.0,31770370.0,1224.0,1224.0,2232.2,1214.8,2249.0,891.0,Object_Land_Solid_Small,68.04752420901787,74.06072545901407,1.0,Object_Land_Solid_Small,-4.0,,,,,,,,,,,
encoding,value,6,31765171,31771185,31770380.0,31771288.0,909.0,805.0,2252.5,1176.8,2249.0,891.0,Object_Land_Solid_Small,68.04752420901787,74.06072545901407,1.0,Object_Land_Solid_Small,-4.0,,,,,,,,,,,
encoding,attention,6,31771185,31774204,31771302.0,31771490.0,189.0,189.0,2172.9,1155.5,2249.0,891.0,Object_Land_Solid_Small,74.06083995907102,77.08043895906303,1.0,Object_Land_Solid_Small,-4.0,-4.0,1.0,0.6712837079539895,,,,,,,,
encoding,attention,6,31771185,31774204,31771500.0,31771739.0,240.0,240.0,2230.0,1151.5,2249.0,891.0,Object_Land_Solid_Small,74.06083995907102,77.08043895906303,1.0,Object_Land_Solid_Small,-4.0,-4.0,1.0,0.6712837079539895,,,,,,,,
encoding,attention,6,31771185,31774204,31771750.0,31772396.0,647.0,647.0,2300.2,1134.4,2249.0,891.0,Object_Land_Solid_Small,74.06083995907102,77.08043895906303,1.0,Object_Land_Solid_Small,-4.0,-4.0,1.0,0.6712837079539895,,,,,,,,
encoding,attention,6,31771185,31774204,31772413.0,31772623.0,211.0,211.0,2248.3,1220.1,2249.0,891.0,Object_Land_Solid_Small,74.06083995907102,77.08043895906303,1.0,Object_Land_Solid_Small,-4.0,-4.0,1.0,0.6712837079539895,,,,,,,,
encoding,attention,6,31771185,31774204,31772801.0,31772946.0,146.0,146.0,2173.3,1282.0,2249.0,891.0,Object_Land_Solid_Small,74.06083995907102,77.08043895906303,1.0,Object_Land_Solid_Small,-4.0,-4.0,1.0,0.6712837079539895,,,,,,,,
encoding,attention,6,31771185,31774204,31772969.0,31773179.0,211.0,211.0,1945.7,1346.7,1920.0,700.0,Object_Land_Pattern_Small,74.06083995907102,77.08043895906303,1.0,Object_Land_Solid_Small,-4.0,-4.0,1.0,0.6712837079539895,,,,,,,,
encoding,attention,6,31771185,31774204,31773217.0,31773415.0,199.0,199.0,1698.3,1100.3,1591.0,891.0,Animal_Land_Solid_Small,74.06083995907102,77.08043895906303,1.0,Object_Land_Solid_Small,-4.0,-4.0,1.0,0.6712837079539895,,,,,,,,
encoding,attention,6,31771185,31774204,31773456.0,31773663.0,208.0,208.0,2176.3,1187.8,2249.0,891.0,Object_Land_Solid_Small,74.06083995907102,77.08043895906303,1.0,Object_Land_Solid_Small,-4.0,-4.0,1.0,0.6712837079539895,,,,,,,,
encoding,fixation,7,32176208,32177213,32176442.0,32176730.0,289.0,289.0,1903.8,1167.7,1920.0,700.0,Animal_Land_Solid_Large,8.988160875043832,9.993717292090878,2.0,Object_Sea_Pattern_Small,7.0,,,,,,,,,,,
encoding,fixation,7,32176208,32177213,32176756.0,32177085.0,330.0,330.0,1945.3,1392.4,1920.0,700.0,Animal_Land_Solid_Large,8.988160875043832,9.993717292090878,2.0,Object_Sea_Pattern_Small,7.0,,,,,,,,,,,
encoding,fixation,7,32176208,32177213,32177102.0,32177354.0,253.0,111.0,1903.2,1447.6,1920.0,700.0,Animal_Land_Solid_Large,8.988160875043832,9.993717292090878,2.0,Object_Sea_Pattern_Small,7.0,,,,,,,,,,,
encoding,image,7,32177213,32178225,32177388.0,32177583.0,196.0,196.0,2217.5,1286.0,2249.0,891.0,Object_Sea_Pattern_Small,9.993817834067158,11.005476292106325,2.0,Object_Sea_Pattern_Small,7.0,,,,,,,,,,,
encoding,image,7,32177213,32178225,32177737.0,32177760.0,24.0,24.0,2286.0,1384.8,2249.0,891.0,Object_Sea_Pattern_Small,9.993817834067158,11.005476292106325,2.0,Object_Sea_Pattern_Small,7.0,,,,,,,,,,,
encoding,image,7,32177213,32178225,32177774.0,32178145.0,372.0,372.0,2272.5,1291.2,2249.0,891.0,Object_Sea_Pattern_Small,9.993817834067158,11.005476292106325,2.0,Object_Sea_Pattern_Small,7.0,,,,,,,,,,,
encoding,image,7,32177213,32178225,32178156.0,32178408.0,253.0,69.0,2237.9,1231.8,2249.0,891.0,Object_Sea_Pattern_Small,9.993817834067158,11.005476292106325,2.0,Object_Sea_Pattern_Small,7.0,,,,,,,,,,,
encoding,value,7,32178225,32184237,32178421.0,32178722.0,302.0,302.0,2273.8,1172.3,2249.0,891.0,Object_Sea_Pattern_Small,11.005584167083724,17.017502125003375,2.0,Object_Sea_Pattern_Small,7.0,,,,,,,,,,,
encoding,value,7,32178225,32184237,32178739.0,32179135.0,397.0,397.0,2268.2,1245.8,2249.0,891.0,Object_Sea_Pattern_Small,11.005584167083724,17.017502125003375,2.0,Object_Sea_Pattern_Small,7.0,,,,,,,,,,,
encoding,value,7,32178225,32184237,32179148.0,32179393.0,246.0,246.0,2230.2,1223.5,2249.0,891.0,Object_Sea_Pattern_Small,11.005584167083724,17.017502125003375,2.0,Object_Sea_Pattern_Small,7.0,,,,,,,,,,,
encoding,value,7,32178225,32184237,32179404.0,32179707.0,304.0,304.0,2265.2,1249.8,2249.0,891.0,Object_Sea_Pattern_Small,11.005584167083724,17.017502125003375,2.0,Object_Sea_Pattern_Small,7.0,,,,,,,,,,,
encoding,value,7,32178225,32184237,32179718.0,32179947.0,230.0,230.0,2279.2,1176.2,2249.0,891.0,Object_Sea_Pattern_Small,11.005584167083724,17.017502125003375,2.0,Object_Sea_Pattern_Small,7.0,,,,,,,,,,,
encoding,value,7,32178225,32184237,32179959.0,32180803.0,845.0,845.0,2264.4,1129.3,2249.0,891.0,Object_Sea_Pattern_Small,11.005584167083724,17.017502125003375,2.0,Object_Sea_Pattern_Small,7.0,,,,,,,,,,,
encoding,value,7,32178225,32184237,32180820.0,32181444.0,625.0,625.0,2265.9,1224.0,2249.0,891.0,Object_Sea_Pattern_Small,11.005584167083724,17.017502125003375,2.0,Object_Sea_Pattern_Small,7.0,,,,,,,,,,,
encoding,value,7,32178225,32184237,32181453.0,32181682.0,230.0,230.0,2221.1,1189.5,2249.0,891.0,Object_Sea_Pattern_Small,11.005584167083724,17.017502125003375,2.0,Object_Sea_Pattern_Small,7.0,,,,,,,,,,,
encoding,value,7,32178225,32184237,32181690.0,32182155.0,466.0,466.0,2267.7,1222.5,2249.0,891.0,Object_Sea_Pattern_Small,11.005584167083724,17.017502125003375,2.0,Object_Sea_Pattern_Small,7.0,,,,,,,,,,,
encoding,value,7,32178225,32184237,32182171.0,32183261.0,1091.0,1091.0,2260.9,1147.9,2249.0,891.0,Object_Sea_Pattern_Small,11.005584167083724,17.017502125003375,2.0,Object_Sea_Pattern_Small,7.0,,,,,,,,,,,
encoding,value,7,32178225,32184237,32183276.0,32183545.0,270.0,270.0,2244.6,1240.4,2249.0,891.0,Object_Sea_Pattern_Small,11.005584167083724,17.017502125003375,2.0,Object_Sea_Pattern_Small,7.0,,,,,,,,,,,
encoding,value,7,32178225,32184237,32183565.0,32183785.0,221.0,221.0,2247.2,1157.4,2249.0,891.0,Object_Sea_Pattern_Small,11.005584167083724,17.017502125003375,2.0,Object_Sea_Pattern_Small,7.0,,,,,,,,,,,
encoding,value,7,32178225,32184237,32183799.0,32183992.0,194.0,194.0,2179.5,1109.5,2249.0,891.0,Object_Sea_Pattern_Small,11.005584167083724,17.017502125003375,2.0,Object_Sea_Pattern_Small,7.0,,,,,,,,,,,
encoding,value,7,32178225,32184237,32184004.0,32184218.0,215.0,215.0,2230.4,1136.4,2249.0,891.0,Object_Sea_Pattern_Small,11.005584167083724,17.017502125003375,2.0,Object_Sea_Pattern_Small,7.0,,,,,,,,,,,
encoding,value,7,32178225,32184237,32184234.0,32184477.0,244.0,3.0,2247.5,1209.0,2249.0,891.0,Object_Sea_Pattern_Small,11.005584167083724,17.017502125003375,2.0,Object_Sea_Pattern_Small,7.0,,,,,,,,,,,
encoding,attention,7,32184238,32187256,32184493.0,32185433.0,941.0,941.0,2286.7,1127.2,2249.0,891.0,Object_Sea_Pattern_Small,17.017628584057093,20.036447999998927,2.0,Object_Sea_Pattern_Small,7.0,7.0,1.0,0.9486256249947472,,,,,,,,
encoding,attention,7,32184238,32187256,32185476.0,32185548.0,73.0,73.0,1737.8,1285.2,1591.0,891.0,Animal_Land_Pattern_Small,17.017628584057093,20.036447999998927,2.0,Object_Sea_Pattern_Small,7.0,7.0,1.0,0.9486256249947472,,,,,,,,
encoding,attention,7,32184238,32187256,32185619.0,32185642.0,24.0,24.0,999.1,1171.8,,,none,17.017628584057093,20.036447999998927,2.0,Object_Sea_Pattern_Small,7.0,7.0,1.0,0.9486256249947472,,,,,,,,
encoding,attention,7,32184238,32187256,32185822.0,32185858.0,37.0,37.0,2233.2,1288.2,2249.0,891.0,Object_Sea_Pattern_Small,17.017628584057093,20.036447999998927,2.0,Object_Sea_Pattern_Small,7.0,7.0,1.0,0.9486256249947472,,,,,,,,
encoding,attention,7,32184238,32187256,32186307.0,32186395.0,89.0,89.0,2478.4,1378.2,,,none,17.017628584057093,20.036447999998927,2.0,Object_Sea_Pattern_Small,7.0,7.0,1.0,0.9486256249947472,,,,,,,,
encoding,attention,7,32184238,32187256,32186507.0,32186891.0,385.0,385.0,2286.8,1282.0,2249.0,891.0,Object_Sea_Pattern_Small,17.017628584057093,20.036447999998927,2.0,Object_Sea_Pattern_Small,7.0,7.0,1.0,0.9486256249947472,,,,,,,,
encoding,attention,7,32184238,32187256,32186902.0,32187158.0,257.0,257.0,2240.8,1262.6,2249.0,891.0,Object_Sea_Pattern_Small,17.017628584057093,20.036447999998927,2.0,Object_Sea_Pattern_Small,7.0,7.0,1.0,0.9486256249947472,,,,,,,,
encoding,fixation,8,32187256,32188512,32187467.0,32187577.0,111.0,111.0,1946.6,1081.2,1920.0,1080.0,fixation,20.036596167017706,21.29171512508765,2.0,Animal_Land_Pattern_Small,-2.0,,,,,,,,,,,
encoding,fixation,8,32187256,32188512,32187772.0,32188703.0,932.0,740.0,1966.7,1115.8,1920.0,1080.0,fixation,20.036596167017706,21.29171512508765,2.0,Animal_Land_Pattern_Small,-2.0,,,,,,,,,,,
encoding,image,8,32188512,32189523,32188733.0,32189274.0,542.0,542.0,1644.1,1235.2,1591.0,891.0,Animal_Land_Pattern_Small,21.291818334022537,22.302895084023476,2.0,Animal_Land_Pattern_Small,-2.0,,,,,,,,,,,
encoding,image,8,32188512,32189523,32189488.0,32189516.0,29.0,29.0,1598.0,1402.1,1591.0,891.0,Animal_Land_Pattern_Small,21.291818334022537,22.302895084023476,2.0,Animal_Land_Pattern_Small,-2.0,,,,,,,,,,,
encoding,value,8,32189523,32195536,32189535.0,32189820.0,286.0,286.0,1600.9,1318.7,1591.0,891.0,Animal_Land_Pattern_Small,22.30299920903053,28.315205042017624,2.0,Animal_Land_Pattern_Small,-2.0,,,,,,,,,,,
encoding,value,8,32189523,32195536,32189849.0,32190050.0,202.0,202.0,1952.2,1198.6,1920.0,700.0,Animal_Land_Solid_Large,22.30299920903053,28.315205042017624,2.0,Animal_Land_Pattern_Small,-2.0,,,,,,,,,,,
encoding,value,8,32189523,32195536,32190086.0,32190584.0,499.0,499.0,1618.3,1199.3,1591.0,891.0,Animal_Land_Pattern_Small,22.30299920903053,28.315205042017624,2.0,Animal_Land_Pattern_Small,-2.0,,,,,,,,,,,
encoding,value,8,32189523,32195536,32190626.0,32190706.0,81.0,81.0,2012.7,1177.1,2249.0,891.0,Object_Sea_Pattern_Small,22.30299920903053,28.315205042017624,2.0,Animal_Land_Pattern_Small,-2.0,,,,,,,,,,,
encoding,value,8,32189523,32195536,32191082.0,32191102.0,21.0,21.0,1598.2,1312.2,1591.0,891.0,Animal_Land_Pattern_Small,22.30299920903053,28.315205042017624,2.0,Animal_Land_Pattern_Small,-2.0,,,,,,,,,,,
encoding,value,8,32189523,32195536,32191120.0,32191451.0,332.0,332.0,1602.8,1234.7,1591.0,891.0,Animal_Land_Pattern_Small,22.30299920903053,28.315205042017624,2.0,Animal_Land_Pattern_Small,-2.0,,,,,,,,,,,
encoding,value,8,32189523,32195536,32191460.0,32191612.0,153.0,153.0,1634.2,1185.4,1591.0,891.0,Animal_Land_Pattern_Small,22.30299920903053,28.315205042017624,2.0,Animal_Land_Pattern_Small,-2.0,,,,,,,,,,,
encoding,value,8,32189523,32195536,32191631.0,32192199.0,569.0,569.0,1609.0,1266.6,1591.0,891.0,Animal_Land_Pattern_Small,22.30299920903053,28.315205042017624,2.0,Animal_Land_Pattern_Small,-2.0,,,,,,,,,,,
encoding,value,8,32189523,32195536,32192507.0,32193244.0,738.0,738.0,1574.8,1327.1,1591.0,891.0,Animal_Land_Pattern_Small,22.30299920903053,28.315205042017624,2.0,Animal_Land_Pattern_Small,-2.0,,,,,,,,,,,
encoding,value,8,32189523,32195536,32193266.0,32193488.0,223.0,223.0,1629.9,1201.1,1591.0,891.0,Animal_Land_Pattern_Small,22.30299920903053,28.315205042017624,2.0,Animal_Land_Pattern_Small,-2.0,,,,,,,,,,,
encoding,value,8,32189523,32195536,32193501.0,32194153.0,653.0,653.0,1590.2,1226.9,1591.0,891.0,Animal_Land_Pattern_Small,22.30299920903053,28.315205042017624,2.0,Animal_Land_Pattern_Small,-2.0,,,,,,,,,,,
encoding,value,8,32189523,32195536,32194168.0,32194217.0,50.0,50.0,1630.3,1152.2,1591.0,891.0,Animal_Land_Pattern_Small,22.30299920903053,28.315205042017624,2.0,Animal_Land_Pattern_Small,-2.0,,,,,,,,,,,
encoding,value,8,32189523,32195536,32194436.0,32194467.0,32.0,32.0,1605.3,1284.0,1591.0,891.0,Animal_Land_Pattern_Small,22.30299920903053,28.315205042017624,2.0,Animal_Land_Pattern_Small,-2.0,,,,,,,,,,,
encoding,value,8,32189523,32195536,32194485.0,32194660.0,176.0,176.0,1600.9,1225.0,1591.0,891.0,Animal_Land_Pattern_Small,22.30299920903053,28.315205042017624,2.0,Animal_Land_Pattern_Small,-2.0,,,,,,,,,,,
encoding,value,8,32189523,32195536,32194678.0,32195194.0,517.0,517.0,1609.6,1266.3,1591.0,891.0,Animal_Land_Pattern_Small,22.30299920903053,28.315205042017624,2.0,Animal_Land_Pattern_Small,-2.0,,,,,,,,,,,
encoding,value,8,32189523,32195536,32195208.0,32195487.0,280.0,280.0,1608.5,1171.9,1591.0,891.0,Animal_Land_Pattern_Small,22.30299920903053,28.315205042017624,2.0,Animal_Land_Pattern_Small,-2.0,,,,,,,,,,,
encoding,value,8,32189523,32195536,32195497.0,32195743.0,247.0,39.0,1599.6,1222.2,1591.0,891.0,Animal_Land_Pattern_Small,22.30299920903053,28.315205042017624,2.0,Animal_Land_Pattern_Small,-2.0,,,,,,,,,,,
encoding,attention,8,32195536,32198554,32195755.0,32196091.0,337.0,337.0,1636.9,1160.3,1591.0,891.0,Animal_Land_Pattern_Small,28.31534662505146,31.33398787502665,2.0,Animal_Land_Pattern_Small,-2.0,-2.0,1.0,1.322076917043887,,,,,,,,
encoding,attention,8,32195536,32198554,32196101.0,32196721.0,621.0,621.0,1577.0,1146.4,1591.0,891.0,Animal_Land_Pattern_Small,28.31534662505146,31.33398787502665,2.0,Animal_Land_Pattern_Small,-2.0,-2.0,1.0,1.322076917043887,,,,,,,,
encoding,attention,8,32195536,32198554,32196929.0,32196962.0,34.0,34.0,1599.6,1255.6,1591.0,891.0,Animal_Land_Pattern_Small,28.31534662505146,31.33398787502665,2.0,Animal_Land_Pattern_Small,-2.0,-2.0,1.0,1.322076917043887,,,,,,,,
encoding,attention,8,32195536,32198554,32196979.0,32197347.0,369.0,369.0,1581.9,1177.2,1591.0,891.0,Animal_Land_Pattern_Small,28.31534662505146,31.33398787502665,2.0,Animal_Land_Pattern_Small,-2.0,-2.0,1.0,1.322076917043887,,,,,,,,
encoding,attention,8,32195536,32198554,32197360.0,32197589.0,230.0,230.0,1650.6,1180.9,1591.0,891.0,Animal_Land_Pattern_Small,28.31534662505146,31.33398787502665,2.0,Animal_Land_Pattern_Small,-2.0,-2.0,1.0,1.322076917043887,,,,,,,,
encoding,attention,8,32195536,32198554,32197834.0,32198215.0,382.0,382.0,1594.6,1329.4,1591.0,891.0,Animal_Land_Pattern_Small,28.31534662505146,31.33398787502665,2.0,Animal_Land_Pattern_Small,-2.0,-2.0,1.0,1.322076917043887,,,,,,,,
encoding,fixation,9,32198555,32199560,32198986.0,32199007.0,22.0,22.0,1992.1,1140.3,2249.0,891.0,Object_Sea_Pattern_Small,31.33415308408439,32.33914541709237,2.0,Object_Sea_Solid_Large,7.0,,,,,,,,,,,
encoding,fixation,9,32198555,32199560,32199025.0,32199104.0,80.0,80.0,1987.2,1049.4,2249.0,1269.0,Object_Sea_Solid_Large,31.33415308408439,32.33914541709237,2.0,Object_Sea_Solid_Large,7.0,,,,,,,,,,,
encoding,fixation,9,32198555,32199560,32199115.0,32199280.0,166.0,166.0,1929.0,1059.3,1920.0,1080.0,fixation,31.33415308408439,32.33914541709237,2.0,Object_Sea_Solid_Large,7.0,,,,,,,,,,,
encoding,fixation,9,32198555,32199560,32199374.0,32199598.0,225.0,186.0,2040.8,90.09999999999991,,,none,31.33415308408439,32.33914541709237,2.0,Object_Sea_Solid_Large,7.0,,,,,,,,,,,
encoding,image,9,32199560,32200572,32199861.0,32199965.0,105.0,105.0,1930.1,1167.6,1920.0,700.0,Animal_Land_Solid_Large,32.339261375018395,33.35098170908168,2.0,Object_Sea_Solid_Large,7.0,,,,,,,,,,,
encoding,image,9,32199560,32200572,32199998.0,32200610.0,613.0,574.0,2228.7,884.0999999999999,2249.0,1269.0,Object_Sea_Solid_Large,32.339261375018395,33.35098170908168,2.0,Object_Sea_Solid_Large,7.0,,,,,,,,,,,
encoding,value,9,32200572,32206585,32200620.0,32200820.0,201.0,201.0,2282.6,881.4000000000001,2249.0,1269.0,Object_Sea_Solid_Large,33.35110504203476,39.36399570910726,2.0,Object_Sea_Solid_Large,7.0,,,,,,,,,,,
encoding,value,9,32200572,32206585,32200835.0,32201189.0,355.0,355.0,2255.4,823.5999999999999,2249.0,1269.0,Object_Sea_Solid_Large,33.35110504203476,39.36399570910726,2.0,Object_Sea_Solid_Large,7.0,,,,,,,,,,,
encoding,value,9,32200572,32206585,32201201.0,32201396.0,196.0,196.0,2242.1,885.2,2249.0,1269.0,Object_Sea_Solid_Large,33.35110504203476,39.36399570910726,2.0,Object_Sea_Solid_Large,7.0,,,,,,,,,,,
encoding,value,9,32200572,32206585,32201451.0,32201604.0,154.0,154.0,1960.7,1312.6,1920.0,700.0,Animal_Land_Solid_Large,33.35110504203476,39.36399570910726,2.0,Object_Sea_Solid_Large,7.0,,,,,,,,,,,
encoding,value,9,32200572,32206585,32201694.0,32201806.0,113.0,113.0,890.3,1183.4,,,none,33.35110504203476,39.36399570910726,2.0,Object_Sea_Solid_Large,7.0,,,,,,,,,,,
encoding,value,9,32200572,32206585,32201973.0,32201995.0,23.0,23.0,2126.6,1171.0,2249.0,891.0,Object_Sea_Pattern_Small,33.35110504203476,39.36399570910726,2.0,Object_Sea_Solid_Large,7.0,,,,,,,,,,,
encoding,value,9,32200572,32206585,32202007.0,32202225.0,219.0,219.0,2139.3,1106.5,2249.0,891.0,Object_Sea_Pattern_Small,33.35110504203476,39.36399570910726,2.0,Object_Sea_Solid_Large,7.0,,,,,,,,,,,
encoding,value,9,32200572,32206585,32202261.0,32202559.0,299.0,299.0,1874.2,1174.5,1920.0,700.0,Animal_Land_Solid_Large,33.35110504203476,39.36399570910726,2.0,Object_Sea_Solid_Large,7.0,,,,,,,,,,,
encoding,value,9,32200572,32206585,32202577.0,32202752.0,176.0,176.0,1966.8,1116.9,1920.0,1080.0,fixation,33.35110504203476,39.36399570910726,2.0,Object_Sea_Solid_Large,7.0,,,,,,,,,,,
encoding,value,9,32200572,32206585,32202793.0,32203109.0,317.0,317.0,2254.5,885.5999999999999,2249.0,1269.0,Object_Sea_Solid_Large,33.35110504203476,39.36399570910726,2.0,Object_Sea_Solid_Large,7.0,,,,,,,,,,,
encoding,value,9,32200572,32206585,32203148.0,32203262.0,115.0,115.0,2078.3,1184.6,2249.0,891.0,Object_Sea_Pattern_Small,33.35110504203476,39.36399570910726,2.0,Object_Sea_Solid_Large,7.0,,,,,,,,,,,
encoding,value,9,32200572,32206585,32203466.0,32203675.0,210.0,210.0,2153.9,1288.7,2249.0,891.0,Object_Sea_Pattern_Small,33.35110504203476,39.36399570910726,2.0,Object_Sea_Solid_Large,7.0,,,,,,,,,,,
encoding,value,9,32200572,32206585,32203718.0,32203985.0,268.0,268.0,2238.8,918.3,2249.0,1269.0,Object_Sea_Solid_Large,33.35110504203476,39.36399570910726,2.0,Object_Sea_Solid_Large,7.0,,,,,,,,,,,
encoding,value,9,32200572,32206585,32203993.0,32204304.0,312.0,312.0,2263.5,891.5999999999999,2249.0,1269.0,Object_Sea_Solid_Large,33.35110504203476,39.36399570910726,2.0,Object_Sea_Solid_Large,7.0,,,,,,,,,,,
encoding,value,9,32200572,32206585,32204314.0,32204947.0,634.0,634.0,2239.1,880.5999999999999,2249.0,1269.0,Object_Sea_Solid_Large,33.35110504203476,39.36399570910726,2.0,Object_Sea_Solid_Large,7.0,,,,,,,,,,,
encoding,value,9,32200572,32206585,32204962.0,32205144.0,183.0,183.0,2261.5,802.0999999999999,2249.0,1269.0,Object_Sea_Solid_Large,33.35110504203476,39.36399570910726,2.0,Object_Sea_Solid_Large,7.0,,,,,,,,,,,
encoding,value,9,32200572,32206585,32205346.0,32205367.0,22.0,22.0,2256.0,970.0999999999999,2249.0,1269.0,Object_Sea_Solid_Large,33.35110504203476,39.36399570910726,2.0,Object_Sea_Solid_Large,7.0,,,,,,,,,,,
encoding,value,9,32200572,32206585,32205396.0,32206613.0,1218.0,1189.0,2251.0,871.5999999999999,2249.0,1269.0,Object_Sea_Solid_Large,33.35110504203476,39.36399570910726,2.0,Object_Sea_Solid_Large,7.0,,,,,,,,,,,
encoding,attention,9,32206585,32209603,32206621.0,32207250.0,630.0,630.0,2273.8,783.8,2249.0,1269.0,Object_Sea_Solid_Large,39.36411429208238,42.38191412505694,2.0,Object_Sea_Solid_Large,7.0,7.0,1.0,1.1350795840844512,,,,,,,,
encoding,attention,9,32206585,32209603,32207262.0,32207450.0,189.0,189.0,2206.3,785.8,2249.0,1269.0,Object_Sea_Solid_Large,39.36411429208238,42.38191412505694,2.0,Object_Sea_Solid_Large,7.0,7.0,1.0,1.1350795840844512,,,,,,,,
encoding,attention,9,32206585,32209603,32207638.0,32207707.0,70.0,70.0,2260.5,892.8,2249.0,1269.0,Object_Sea_Solid_Large,39.36411429208238,42.38191412505694,2.0,Object_Sea_Solid_Large,7.0,7.0,1.0,1.1350795840844512,,,,,,,,
encoding,attention,9,32206585,32209603,32207771.0,32208008.0,238.0,238.0,2257.5,820.0999999999999,2249.0,1269.0,Object_Sea_Solid_Large,39.36411429208238,42.38191412505694,2.0,Object_Sea_Solid_Large,7.0,7.0,1.0,1.1350795840844512,,,,,,,,
encoding,attention,9,32206585,32209603,32208018.0,32208170.0,153.0,153.0,2309.4,819.2,2249.0,1269.0,Object_Sea_Solid_Large,39.36411429208238,42.38191412505694,2.0,Object_Sea_Solid_Large,7.0,7.0,1.0,1.1350795840844512,,,,,,,,
encoding,attention,9,32206585,32209603,32208211.0,32208423.0,213.0,213.0,2180.3,1155.6,2249.0,891.0,Object_Sea_Pattern_Small,39.36411429208238,42.38191412505694,2.0,Object_Sea_Solid_Large,7.0,7.0,1.0,1.1350795840844512,,,,,,,,
encoding,attention,9,32206585,32209603,32208462.0,32208740.0,279.0,279.0,2252.1,880.0999999999999,2249.0,1269.0,Object_Sea_Solid_Large,39.36411429208238,42.38191412505694,2.0,Object_Sea_Solid_Large,7.0,7.0,1.0,1.1350795840844512,,,,,,,,
encoding,attention,9,32206585,32209603,32208757.0,32209032.0,276.0,276.0,2304.5,807.4000000000001,2249.0,1269.0,Object_Sea_Solid_Large,39.36411429208238,42.38191412505694,2.0,Object_Sea_Solid_Large,7.0,7.0,1.0,1.1350795840844512,,,,,,,,
encoding,attention,9,32206585,32209603,32209046.0,32209387.0,342.0,342.0,2204.4,781.5999999999999,2249.0,1269.0,Object_Sea_Solid_Large,39.36411429208238,42.38191412505694,2.0,Object_Sea_Solid_Large,7.0,7.0,1.0,1.1350795840844512,,,,,,,,
encoding,fixation,10,32209603,32210608,32209627.0,32209663.0,37.0,37.0,2256.5,994.5,2249.0,1269.0,Object_Sea_Solid_Large,42.38209033408202,43.38724350009579,2.0,Animal_Land_Solid_Large,9.0,,,,,,,,,,,
encoding,fixation,10,32209603,32210608,32209696.0,32209800.0,105.0,105.0,2248.4,917.5999999999999,2249.0,1269.0,Object_Sea_Solid_Large,42.38209033408202,43.38724350009579,2.0,Animal_Land_Solid_Large,9.0,,,,,,,,,,,
encoding,fixation,10,32209603,32210608,32209839.0,32210025.0,187.0,187.0,1945.6,1111.6,1920.0,1080.0,fixation,42.38209033408202,43.38724350009579,2.0,Animal_Land_Solid_Large,9.0,,,,,,,,,,,
encoding,fixation,10,32209603,32210608,32210041.0,32210209.0,169.0,169.0,1890.7,1074.5,1920.0,1080.0,fixation,42.38209033408202,43.38724350009579,2.0,Animal_Land_Solid_Large,9.0,,,,,,,,,,,
encoding,fixation,10,32209603,32210608,32210233.0,32210435.0,203.0,203.0,2129.6,892.8,2249.0,1269.0,Object_Sea_Solid_Large,42.38209033408202,43.38724350009579,2.0,Animal_Land_Solid_Large,9.0,,,,,,,,,,,
encoding,fixation,10,32209603,32210608,32210472.0,32210795.0,324.0,136.0,1952.0,1100.3,1920.0,1080.0,fixation,42.38209033408202,43.38724350009579,2.0,Animal_Land_Solid_Large,9.0,,,,,,,,,,,
encoding,image,10,32210608,32211620,32210825.0,32211008.0,184.0,184.0,1922.9,1437.7,1920.0,700.0,Animal_Land_Solid_Large,43.38736379204784,44.39932604203932,2.0,Animal_Land_Solid_Large,9.0,,,,,,,,,,,
encoding,image,10,32210608,32211620,32211020.0,32211417.0,398.0,398.0,1946.1,1473.8,1920.0,700.0,Animal_Land_Solid_Large,43.38736379204784,44.39932604203932,2.0,Animal_Land_Solid_Large,9.0,,,,,,,,,,,
encoding,image,10,32210608,32211620,32211440.0,32211653.0,214.0,180.0,1931.8,1343.7,1920.0,700.0,Animal_Land_Solid_Large,43.38736379204784,44.39932604203932,2.0,Animal_Land_Solid_Large,9.0,,,,,,,,,,,
encoding,value,10,32211621,32217632,32211668.0,32211919.0,252.0,252.0,1949.6,1286.8,1920.0,700.0,Animal_Land_Solid_Large,44.39944162510801,50.41091691702604,2.0,Animal_Land_Solid_Large,9.0,,,,,,,,,,,
encoding,value,10,32211621,32217632,32211929.0,32212145.0,217.0,217.0,1946.5,1326.4,1920.0,700.0,Animal_Land_Solid_Large,44.39944162510801,50.41091691702604,2.0,Animal_Land_Solid_Large,9.0,,,,,,,,,,,
encoding,value,10,32211621,32217632,32212165.0,32212368.0,204.0,204.0,1956.2,1464.3,1920.0,700.0,Animal_Land_Solid_Large,44.39944162510801,50.41091691702604,2.0,Animal_Land_Solid_Large,9.0,,,,,,,,,,,
encoding,value,10,32211621,32217632,32212715.0,32212927.0,213.0,213.0,2078.1,1374.9,1920.0,700.0,Animal_Land_Solid_Large,44.39944162510801,50.41091691702604,2.0,Animal_Land_Solid_Large,9.0,,,,,,,,,,,
encoding,value,10,32211621,32217632,32212963.0,32213109.0,147.0,147.0,2194.4,1215.0,2249.0,891.0,Object_Sea_Pattern_Small,44.39944162510801,50.41091691702604,2.0,Animal_Land_Solid_Large,9.0,,,,,,,,,,,
encoding,value,10,32211621,32217632,32213146.0,32213281.0,136.0,136.0,1954.8,1339.2,1920.0,700.0,Animal_Land_Solid_Large,44.39944162510801,50.41091691702604,2.0,Animal_Land_Solid_Large,9.0,,,,,,,,,,,
encoding,value,10,32211621,32217632,32213304.0,32214975.0,1672.0,1672.0,1958.2,1467.5,1920.0,700.0,Animal_Land_Solid_Large,44.39944162510801,50.41091691702604,2.0,Animal_Land_Solid_Large,9.0,,,,,,,,,,,
encoding,value,10,32211621,32217632,32215011.0,32215295.0,285.0,285.0,1929.6,1297.4,1920.0,700.0,Animal_Land_Solid_Large,44.39944162510801,50.41091691702604,2.0,Animal_Land_Solid_Large,9.0,,,,,,,,,,,
encoding,value,10,32211621,32217632,32215306.0,32215481.0,176.0,176.0,1968.8,1256.8,1920.0,700.0,Animal_Land_Solid_Large,44.39944162510801,50.41091691702604,2.0,Animal_Land_Solid_Large,9.0,,,,,,,,,,,
encoding,value,10,32211621,32217632,32215496.0,32215925.0,430.0,430.0,1919.0,1317.1,1920.0,700.0,Animal_Land_Solid_Large,44.39944162510801,50.41091691702604,2.0,Animal_Land_Solid_Large,9.0,,,,,,,,,,,
encoding,value,10,32211621,32217632,32216281.0,32216558.0,278.0,278.0,1976.3,1537.9,1920.0,700.0,Animal_Land_Solid_Large,44.39944162510801,50.41091691702604,2.0,Animal_Land_Solid_Large,9.0,,,,,,,,,,,
encoding,value,10,32211621,32217632,32216583.0,32216821.0,239.0,239.0,2137.6,1374.4,2249.0,891.0,Object_Sea_Pattern_Small,44.39944162510801,50.41091691702604,2.0,Animal_Land_Solid_Large,9.0,,,,,,,,,,,
encoding,value,10,32211621,32217632,32216847.0,32217485.0,639.0,639.0,1951.7,1471.0,1920.0,700.0,Animal_Land_Solid_Large,44.39944162510801,50.41091691702604,2.0,Animal_Land_Solid_Large,9.0,,,,,,,,,,,
encoding,value,10,32211621,32217632,32217510.0,32217632.0,123.0,123.0,1926.9,1300.5,1920.0,700.0,Animal_Land_Solid_Large,44.39944162510801,50.41091691702604,2.0,Animal_Land_Solid_Large,9.0,,,,,,,,,,,
encoding,attention,10,32217632,32220650,32217994.0,32218164.0,171.0,171.0,1928.4,1459.9,1920.0,700.0,Animal_Land_Solid_Large,50.41102900006808,53.42858425003942,2.0,Animal_Land_Solid_Large,9.0,9.0,1.0,1.8294678749516609,,,,,,,,
encoding,attention,10,32217632,32220650,32218180.0,32218395.0,216.0,216.0,1924.7,1520.0,1920.0,700.0,Animal_Land_Solid_Large,50.41102900006808,53.42858425003942,2.0,Animal_Land_Solid_Large,9.0,9.0,1.0,1.8294678749516609,,,,,,,,
encoding,attention,10,32217632,32220650,32218419.0,32218590.0,172.0,172.0,1957.3,1381.3,1920.0,700.0,Animal_Land_Solid_Large,50.41102900006808,53.42858425003942,2.0,Animal_Land_Solid_Large,9.0,9.0,1.0,1.8294678749516609,,,,,,,,
encoding,attention,10,32217632,32220650,32218608.0,32219068.0,461.0,461.0,1879.0,1359.8,1920.0,700.0,Animal_Land_Solid_Large,50.41102900006808,53.42858425003942,2.0,Animal_Land_Solid_Large,9.0,9.0,1.0,1.8294678749516609,,,,,,,,
encoding,attention,10,32217632,32220650,32219080.0,32219293.0,214.0,214.0,1953.0,1375.9,1920.0,700.0,Animal_Land_Solid_Large,50.41102900006808,53.42858425003942,2.0,Animal_Land_Solid_Large,9.0,9.0,1.0,1.8294678749516609,,,,,,,,
encoding,attention,10,32217632,32220650,32219303.0,32219769.0,467.0,467.0,1982.0,1338.1,1920.0,700.0,Animal_Land_Solid_Large,50.41102900006808,53.42858425003942,2.0,Animal_Land_Solid_Large,9.0,9.0,1.0,1.8294678749516609,,,,,,,,
encoding,fixation,11,32220650,32221406,32220708.0,32220923.0,216.0,216.0,1906.7,1283.1,1920.0,700.0,Animal_Land_Solid_Large,53.42875762504991,54.18408929207362,2.0,Object_Sea_Solid_Small,-7.0,,,,,,,,,,,
encoding,fixation,11,32220650,32221406,32220951.0,32221090.0,140.0,140.0,1916.7,986.4000000000001,1920.0,1460.0,Object_Sea_Solid_Small,53.42875762504991,54.18408929207362,2.0,Object_Sea_Solid_Small,-7.0,,,,,,,,,,,
encoding,fixation,11,32220650,32221406,32221371.0,32221534.0,164.0,35.0,1912.1,1001.5,1920.0,1460.0,Object_Sea_Solid_Small,53.42875762504991,54.18408929207362,2.0,Object_Sea_Solid_Small,-7.0,,,,,,,,,,,
encoding,image,11,32221406,32222418,32221547.0,32221659.0,113.0,113.0,1838.7,998.0,1591.0,1269.0,Animal_Land_Pattern_Large,54.18420345906634,55.19678591703996,2.0,Object_Sea_Solid_Small,-7.0,,,,,,,,,,,
encoding,image,11,32221406,32222418,32221687.0,32221949.0,263.0,263.0,1912.6,727.9000000000001,1920.0,1460.0,Object_Sea_Solid_Small,54.18420345906634,55.19678591703996,2.0,Object_Sea_Solid_Small,-7.0,,,,,,,,,,,
encoding,image,11,32221406,32222418,32221959.0,32222409.0,451.0,451.0,1937.1,690.2,1920.0,1460.0,Object_Sea_Solid_Small,54.18420345906634,55.19678591703996,2.0,Object_Sea_Solid_Small,-7.0,,,,,,,,,,,
encoding,value,11,32222418,32228429,32222436.0,32222659.0,224.0,224.0,1828.4,852.7,1920.0,1460.0,Object_Sea_Solid_Small,55.19690766709391,61.20739995909389,2.0,Object_Sea_Solid_Small,-7.0,,,,,,,,,,,
encoding,value,11,32222418,32228429,32222693.0,32222885.0,193.0,193.0,1942.5,643.5999999999999,1920.0,1460.0,Object_Sea_Solid_Small,55.19690766709391,61.20739995909389,2.0,Object_Sea_Solid_Small,-7.0,,,,,,,,,,,
encoding,value,11,32222418,32228429,32222895.0,32223083.0,189.0,189.0,1947.2,610.5999999999999,1920.0,1460.0,Object_Sea_Solid_Small,55.19690766709391,61.20739995909389,2.0,Object_Sea_Solid_Small,-7.0,,,,,,,,,,,
encoding,value,11,32222418,32228429,32223102.0,32223204.0,103.0,103.0,1958.8,724.3,1920.0,1460.0,Object_Sea_Solid_Small,55.19690766709391,61.20739995909389,2.0,Object_Sea_Solid_Small,-7.0,,,,,,,,,,,
encoding,value,11,32222418,32228429,32223266.0,32223298.0,33.0,33.0,1696.5,1282.9,1591.0,891.0,Animal_Land_Pattern_Small,55.19690766709391,61.20739995909389,2.0,Object_Sea_Solid_Small,-7.0,,,,,,,,,,,
encoding,value,11,32222418,32228429,32223379.0,32223554.0,176.0,176.0,1693.0,1228.4,1591.0,891.0,Animal_Land_Pattern_Small,55.19690766709391,61.20739995909389,2.0,Object_Sea_Solid_Small,-7.0,,,,,,,,,,,
encoding,value,11,32222418,32228429,32223576.0,32223898.0,323.0,323.0,1849.1,1315.0,1920.0,700.0,Animal_Land_Solid_Large,55.19690766709391,61.20739995909389,2.0,Object_Sea_Solid_Small,-7.0,,,,,,,,,,,
encoding,value,11,32222418,32228429,32223920.0,32224072.0,153.0,153.0,1752.4,1169.9,1591.0,891.0,Animal_Land_Pattern_Small,55.19690766709391,61.20739995909389,2.0,Object_Sea_Solid_Small,-7.0,,,,,,,,,,,
encoding,value,11,32222418,32228429,32224425.0,32224881.0,457.0,457.0,1922.5,723.0999999999999,1920.0,1460.0,Object_Sea_Solid_Small,55.19690766709391,61.20739995909389,2.0,Object_Sea_Solid_Small,-7.0,,,,,,,,,,,
encoding,value,11,32222418,32228429,32224900.0,32225469.0,570.0,570.0,1954.6,642.0,1920.0,1460.0,Object_Sea_Solid_Small,55.19690766709391,61.20739995909389,2.0,Object_Sea_Solid_Small,-7.0,,,,,,,,,,,
encoding,value,11,32222418,32228429,32225488.0,32225741.0,254.0,254.0,1911.0,704.0999999999999,1920.0,1460.0,Object_Sea_Solid_Small,55.19690766709391,61.20739995909389,2.0,Object_Sea_Solid_Small,-7.0,,,,,,,,,,,
encoding,value,11,32222418,32228429,32225759.0,32225955.0,197.0,197.0,1938.4,605.4000000000001,1920.0,1460.0,Object_Sea_Solid_Small,55.19690766709391,61.20739995909389,2.0,Object_Sea_Solid_Small,-7.0,,,,,,,,,,,
encoding,value,11,32222418,32228429,32225973.0,32226060.0,88.0,88.0,1938.7,713.5999999999999,1920.0,1460.0,Object_Sea_Solid_Small,55.19690766709391,61.20739995909389,2.0,Object_Sea_Solid_Small,-7.0,,,,,,,,,,,
encoding,value,11,32222418,32228429,32226313.0,32226357.0,45.0,45.0,1993.0,811.5999999999999,1920.0,1460.0,Object_Sea_Solid_Small,55.19690766709391,61.20739995909389,2.0,Object_Sea_Solid_Small,-7.0,,,,,,,,,,,
encoding,value,11,32222418,32228429,32226408.0,32226850.0,443.0,443.0,2078.9,1293.1,2249.0,891.0,Object_Sea_Pattern_Small,55.19690766709391,61.20739995909389,2.0,Object_Sea_Solid_Small,-7.0,,,,,,,,,,,
encoding,value,11,32222418,32228429,32226909.0,32227253.0,345.0,345.0,1939.0,803.2,1920.0,1460.0,Object_Sea_Solid_Small,55.19690766709391,61.20739995909389,2.0,Object_Sea_Solid_Small,-7.0,,,,,,,,,,,
encoding,value,11,32222418,32228429,32227270.0,32227697.0,428.0,428.0,1940.1,670.9000000000001,1920.0,1460.0,Object_Sea_Solid_Small,55.19690766709391,61.20739995909389,2.0,Object_Sea_Solid_Small,-7.0,,,,,,,,,,,
encoding,value,11,32222418,32228429,32227709.0,32227994.0,286.0,286.0,1896.8,690.0999999999999,1920.0,1460.0,Object_Sea_Solid_Small,55.19690766709391,61.20739995909389,2.0,Object_Sea_Solid_Small,-7.0,,,,,,,,,,,
encoding,value,11,32222418,32228429,32228005.0,32228412.0,408.0,408.0,1953.7,680.4000000000001,1920.0,1460.0,Object_Sea_Solid_Small,55.19690766709391,61.20739995909389,2.0,Object_Sea_Solid_Small,-7.0,,,,,,,,,,,
encoding,attention,11,32228429,32231447,32228430.0,32228668.0,239.0,239.0,1933.9,607.2,1920.0,1460.0,Object_Sea_Solid_Small,61.20751475007273,64.22490845900029,2.0,Object_Sea_Solid_Small,-7.0,-7.0,1.0,0.904712374904193,,,,,,,,
encoding,attention,11,32228429,32231447,32228676.0,32228813.0,138.0,138.0,1970.8,599.0999999999999,1920.0,1460.0,Object_Sea_Solid_Small,61.20751475007273,64.22490845900029,2.0,Object_Sea_Solid_Small,-7.0,-7.0,1.0,0.904712374904193,,,,,,,,
encoding,attention,11,32228429,32231447,32228824.0,32229027.0,204.0,204.0,1907.8,588.5,1920.0,1460.0,Object_Sea_Solid_Small,61.20751475007273,64.22490845900029,2.0,Object_Sea_Solid_Small,-7.0,-7.0,1.0,0.904712374904193,,,,,,,,
encoding,attention,11,32228429,32231447,32229037.0,32229594.0,558.0,558.0,1973.0,595.3,1920.0,1460.0,Object_Sea_Solid_Small,61.20751475007273,64.22490845900029,2.0,Object_Sea_Solid_Small,-7.0,-7.0,1.0,0.904712374904193,,,,,,,,
encoding,attention,11,32228429,32231447,32229904.0,32229978.0,75.0,75.0,1918.3,897.0,1920.0,1460.0,Object_Sea_Solid_Small,61.20751475007273,64.22490845900029,2.0,Object_Sea_Solid_Small,-7.0,-7.0,1.0,0.904712374904193,,,,,,,,
encoding,attention,11,32228429,32231447,32229991.0,32230078.0,88.0,88.0,1923.1,808.7,1920.0,1460.0,Object_Sea_Solid_Small,61.20751475007273,64.22490845900029,2.0,Object_Sea_Solid_Small,-7.0,-7.0,1.0,0.904712374904193,,,,,,,,
encoding,attention,11,32228429,32231447,32230113.0,32230396.0,284.0,284.0,1871.4,1043.8,1920.0,1080.0,fixation,61.20751475007273,64.22490845900029,2.0,Object_Sea_Solid_Small,-7.0,-7.0,1.0,0.904712374904193,,,,,,,,
encoding,attention,11,32228429,32231447,32230421.0,32230553.0,133.0,133.0,1830.6,786.5,1920.0,1460.0,Object_Sea_Solid_Small,61.20751475007273,64.22490845900029,2.0,Object_Sea_Solid_Small,-7.0,-7.0,1.0,0.904712374904193,,,,,,,,
encoding,attention,11,32228429,32231447,32230577.0,32231306.0,730.0,730.0,1947.0,674.4000000000001,1920.0,1460.0,Object_Sea_Solid_Small,61.20751475007273,64.22490845900029,2.0,Object_Sea_Solid_Small,-7.0,-7.0,1.0,0.904712374904193,,,,,,,,
encoding,fixation,12,32231447,32231952,32231837.0,32231924.0,88.0,88.0,1896.9,786.2,1920.0,1460.0,Object_Sea_Solid_Small,64.22505912510678,64.73022962501273,2.0,Animal_Land_Pattern_Large,-3.0,,,,,,,,,,,
encoding,image,12,32231952,32232964,32231959.0,32232150.0,192.0,192.0,1874.3,1141.2,1591.0,891.0,Animal_Land_Pattern_Small,64.73033220903017,65.74158275010996,2.0,Animal_Land_Pattern_Large,-3.0,,,,,,,,,,,
encoding,image,12,32231952,32232964,32232178.0,32232366.0,189.0,189.0,1645.1,901.5,1591.0,1269.0,Animal_Land_Pattern_Large,64.73033220903017,65.74158275010996,2.0,Animal_Land_Pattern_Large,-3.0,,,,,,,,,,,
encoding,image,12,32231952,32232964,32232378.0,32232884.0,507.0,507.0,1565.4,870.9000000000001,1591.0,1269.0,Animal_Land_Pattern_Large,64.73033220903017,65.74158275010996,2.0,Animal_Land_Pattern_Large,-3.0,,,,,,,,,,,
encoding,image,12,32231952,32232964,32232907.0,32233158.0,252.0,57.0,1687.4,1013.8,1591.0,1269.0,Animal_Land_Pattern_Large,64.73033220903017,65.74158275010996,2.0,Animal_Land_Pattern_Large,-3.0,,,,,,,,,,,
encoding,value,12,32232964,32238976,32233185.0,32233718.0,534.0,534.0,1602.6,743.7,1591.0,1269.0,Animal_Land_Pattern_Large,65.74170020909514,71.75386237504426,2.0,Animal_Land_Pattern_Large,-3.0,,,,,,,,,,,
encoding,value,12,32232964,32238976,32233736.0,32234246.0,511.0,511.0,1568.4,849.7,1591.0,1269.0,Animal_Land_Pattern_Large,65.74170020909514,71.75386237504426,2.0,Animal_Land_Pattern_Large,-3.0,,,,,,,,,,,
encoding,value,12,32232964,32238976,32234269.0,32235856.0,1588.0,1588.0,1624.0,732.0999999999999,1591.0,1269.0,Animal_Land_Pattern_Large,65.74170020909514,71.75386237504426,2.0,Animal_Land_Pattern_Large,-3.0,,,,,,,,,,,
encoding,value,12,32232964,32238976,32235878.0,32236014.0,137.0,137.0,1575.0,831.4000000000001,1591.0,1269.0,Animal_Land_Pattern_Large,65.74170020909514,71.75386237504426,2.0,Animal_Land_Pattern_Large,-3.0,,,,,,,,,,,
encoding,value,12,32232964,32238976,32236288.0,32236365.0,78.0,78.0,1550.9,941.4000000000001,1591.0,1269.0,Animal_Land_Pattern_Large,65.74170020909514,71.75386237504426,2.0,Animal_Land_Pattern_Large,-3.0,,,,,,,,,,,
encoding,value,12,32232964,32238976,32236384.0,32236854.0,471.0,471.0,1600.3,793.5,1591.0,1269.0,Animal_Land_Pattern_Large,65.74170020909514,71.75386237504426,2.0,Animal_Land_Pattern_Large,-3.0,,,,,,,,,,,
encoding,value,12,32232964,32238976,32236872.0,32237204.0,333.0,333.0,1569.1,862.8,1591.0,1269.0,Animal_Land_Pattern_Large,65.74170020909514,71.75386237504426,2.0,Animal_Land_Pattern_Large,-3.0,,,,,,,,,,,
encoding,value,12,32232964,32238976,32237222.0,32237353.0,132.0,132.0,1638.4,986.8,1591.0,1269.0,Animal_Land_Pattern_Large,65.74170020909514,71.75386237504426,2.0,Animal_Land_Pattern_Large,-3.0,,,,,,,,,,,
encoding,value,12,32232964,32238976,32237377.0,32237533.0,157.0,157.0,1599.2,1174.4,1591.0,891.0,Animal_Land_Pattern_Small,65.74170020909514,71.75386237504426,2.0,Animal_Land_Pattern_Large,-3.0,,,,,,,,,,,
encoding,value,12,32232964,32238976,32237577.0,32237844.0,268.0,268.0,1611.2,822.8,1591.0,1269.0,Animal_Land_Pattern_Large,65.74170020909514,71.75386237504426,2.0,Animal_Land_Pattern_Large,-3.0,,,,,,,,,,,
encoding,value,12,32232964,32238976,32237854.0,32238267.0,414.0,414.0,1568.6,845.8,1591.0,1269.0,Animal_Land_Pattern_Large,65.74170020909514,71.75386237504426,2.0,Animal_Land_Pattern_Large,-3.0,,,,,,,,,,,
encoding,value,12,32232964,32238976,32238522.0,32238686.0,165.0,165.0,1762.7,1337.4,1591.0,891.0,Animal_Land_Pattern_Small,65.74170020909514,71.75386237504426,2.0,Animal_Land_Pattern_Large,-3.0,,,,,,,,,,,
encoding,value,12,32232964,32238976,32238736.0,32239184.0,449.0,240.0,1586.8,800.7,1591.0,1269.0,Animal_Land_Pattern_Large,65.74170020909514,71.75386237504426,2.0,Animal_Land_Pattern_Large,-3.0,,,,,,,,,,,
encoding,attention,12,32238976,32241995,32239198.0,32239439.0,242.0,242.0,1622.9,738.3,1591.0,1269.0,Animal_Land_Pattern_Large,71.75400091707706,74.77252291701734,2.0,Animal_Land_Pattern_Large,-3.0,-3.0,1.0,0.8065015829633921,,,,,,,,
encoding,attention,12,32238976,32241995,32239452.0,32240067.0,616.0,616.0,1562.0,725.8,1591.0,1269.0,Animal_Land_Pattern_Large,71.75400091707706,74.77252291701734,2.0,Animal_Land_Pattern_Large,-3.0,-3.0,1.0,0.8065015829633921,,,,,,,,
encoding,attention,12,32238976,32241995,32240127.0,32240186.0,60.0,60.0,1616.9,989.7,1591.0,1269.0,Animal_Land_Pattern_Large,71.75400091707706,74.77252291701734,2.0,Animal_Land_Pattern_Large,-3.0,-3.0,1.0,0.8065015829633921,,,,,,,,
encoding,attention,12,32238976,32241995,32240414.0,32240441.0,28.0,28.0,1905.8,1256.0,1920.0,700.0,Animal_Land_Solid_Large,71.75400091707706,74.77252291701734,2.0,Animal_Land_Pattern_Large,-3.0,-3.0,1.0,0.8065015829633921,,,,,,,,
encoding,attention,12,32238976,32241995,32240474.0,32240740.0,267.0,267.0,1893.9,1180.0,1920.0,700.0,Animal_Land_Solid_Large,71.75400091707706,74.77252291701734,2.0,Animal_Land_Pattern_Large,-3.0,-3.0,1.0,0.8065015829633921,,,,,,,,
encoding,attention,12,32238976,32241995,32240763.0,32240926.0,164.0,164.0,1738.2,1217.9,1591.0,891.0,Animal_Land_Pattern_Small,71.75400091707706,74.77252291701734,2.0,Animal_Land_Pattern_Large,-3.0,-3.0,1.0,0.8065015829633921,,,,,,,,
encoding,attention,12,32238976,32241995,32240960.0,32241122.0,163.0,163.0,1622.8,869.4000000000001,1591.0,1269.0,Animal_Land_Pattern_Large,71.75400091707706,74.77252291701734,2.0,Animal_Land_Pattern_Large,-3.0,-3.0,1.0,0.8065015829633921,,,,,,,,
encoding,attention,12,32238976,32241995,32241141.0,32241460.0,320.0,320.0,1598.8,760.5,1591.0,1269.0,Animal_Land_Pattern_Large,71.75400091707706,74.77252291701734,2.0,Animal_Land_Pattern_Large,-3.0,-3.0,1.0,0.8065015829633921,,,,,,,,
encoding,attention,12,32238976,32241995,32241508.0,32241816.0,309.0,309.0,1859.3,1010.3,1591.0,1269.0,Animal_Land_Pattern_Large,71.75400091707706,74.77252291701734,2.0,Animal_Land_Pattern_Large,-3.0,-3.0,1.0,0.8065015829633921,,,,,,,,
encoding,fixation,13,32509713,32510219,32509753.0,32509936.0,184.0,184.0,1732.9,1213.3,1591.0,891.0,Animal_Land_Solid_Small,3.937664249911904,4.443810291937552,3.0,Object_Sea_Pattern_Large,-5.0,,,,,,,,,,,
encoding,fixation,13,32509713,32510219,32509959.0,32510046.0,88.0,88.0,1915.7,1115.4,1920.0,1080.0,fixation,3.937664249911904,4.443810291937552,3.0,Object_Sea_Pattern_Large,-5.0,,,,,,,,,,,
encoding,fixation,13,32509713,32510219,32510194.0,32510408.0,215.0,25.0,1909.0,1284.2,1920.0,700.0,Animal_Sea_Pattern_Small,3.937664249911904,4.443810291937552,3.0,Object_Sea_Pattern_Large,-5.0,,,,,,,,,,,
encoding,image,13,32510219,32511231,32510445.0,32510505.0,61.0,61.0,1701.3,967.0999999999999,1591.0,1269.0,Object_Sea_Pattern_Large,4.443914667004719,5.4564095420064405,3.0,Object_Sea_Pattern_Large,-5.0,,,,,,,,,,,
encoding,image,13,32510219,32511231,32510531.0,32511410.0,880.0,700.0,1615.9,808.5,1591.0,1269.0,Object_Sea_Pattern_Large,4.443914667004719,5.4564095420064405,3.0,Object_Sea_Pattern_Large,-5.0,,,,,,,,,,,
encoding,value,13,32511231,32517248,32511422.0,32511661.0,240.0,240.0,1618.2,739.8,1591.0,1269.0,Object_Sea_Pattern_Large,5.456555749988183,11.472690249909649,3.0,Object_Sea_Pattern_Large,-5.0,,,,,,,,,,,
encoding,value,13,32511231,32517248,32511902.0,32512024.0,123.0,123.0,1609.8,831.4000000000001,1591.0,1269.0,Object_Sea_Pattern_Large,5.456555749988183,11.472690249909649,3.0,Object_Sea_Pattern_Large,-5.0,,,,,,,,,,,
encoding,value,13,32511231,32517248,32512038.0,32512608.0,571.0,571.0,1634.6,768.5,1591.0,1269.0,Object_Sea_Pattern_Large,5.456555749988183,11.472690249909649,3.0,Object_Sea_Pattern_Large,-5.0,,,,,,,,,,,
encoding,value,13,32511231,32517248,32512626.0,32512805.0,180.0,180.0,1604.4,809.9000000000001,1591.0,1269.0,Object_Sea_Pattern_Large,5.456555749988183,11.472690249909649,3.0,Object_Sea_Pattern_Large,-5.0,,,,,,,,,,,
encoding,value,13,32511231,32517248,32512812.0,32513057.0,246.0,246.0,1635.8,787.9000000000001,1591.0,1269.0,Object_Sea_Pattern_Large,5.456555749988183,11.472690249909649,3.0,Object_Sea_Pattern_Large,-5.0,,,,,,,,,,,
encoding,value,13,32511231,32517248,32513067.0,32513346.0,280.0,280.0,1611.1,822.9000000000001,1591.0,1269.0,Object_Sea_Pattern_Large,5.456555749988183,11.472690249909649,3.0,Object_Sea_Pattern_Large,-5.0,,,,,,,,,,,
encoding,value,13,32511231,32517248,32513357.0,32513568.0,212.0,212.0,1662.0,847.0999999999999,1591.0,1269.0,Object_Sea_Pattern_Large,5.456555749988183,11.472690249909649,3.0,Object_Sea_Pattern_Large,-5.0,,,,,,,,,,,
encoding,value,13,32511231,32517248,32513812.0,32513855.0,44.0,44.0,1661.9,962.4000000000001,1591.0,1269.0,Object_Sea_Pattern_Large,5.456555749988183,11.472690249909649,3.0,Object_Sea_Pattern_Large,-5.0,,,,,,,,,,,
encoding,value,13,32511231,32517248,32513871.0,32514054.0,184.0,184.0,1618.3,889.4000000000001,1591.0,1269.0,Object_Sea_Pattern_Large,5.456555749988183,11.472690249909649,3.0,Object_Sea_Pattern_Large,-5.0,,,,,,,,,,,
encoding,value,13,32511231,32517248,32514069.0,32514658.0,590.0,590.0,1603.1,808.2,1591.0,1269.0,Object_Sea_Pattern_Large,5.456555749988183,11.472690249909649,3.0,Object_Sea_Pattern_Large,-5.0,,,,,,,,,,,
encoding,value,13,32511231,32517248,32514667.0,32514860.0,194.0,194.0,1622.9,757.2,1591.0,1269.0,Object_Sea_Pattern_Large,5.456555749988183,11.472690249909649,3.0,Object_Sea_Pattern_Large,-5.0,,,,,,,,,,,
encoding,value,13,32511231,32517248,32514874.0,32515061.0,188.0,188.0,1604.7,815.4000000000001,1591.0,1269.0,Object_Sea_Pattern_Large,5.456555749988183,11.472690249909649,3.0,Object_Sea_Pattern_Large,-5.0,,,,,,,,,,,
encoding,value,13,32511231,32517248,32515288.0,32515972.0,685.0,685.0,1616.5,847.8,1591.0,1269.0,Object_Sea_Pattern_Large,5.456555749988183,11.472690249909649,3.0,Object_Sea_Pattern_Large,-5.0,,,,,,,,,,,
encoding,value,13,32511231,32517248,32515984.0,32516347.0,364.0,364.0,1600.3,791.7,1591.0,1269.0,Object_Sea_Pattern_Large,5.456555749988183,11.472690249909649,3.0,Object_Sea_Pattern_Large,-5.0,,,,,,,,,,,
encoding,value,13,32511231,32517248,32516357.0,32516639.0,283.0,283.0,1607.8,826.2,1591.0,1269.0,Object_Sea_Pattern_Large,5.456555749988183,11.472690249909649,3.0,Object_Sea_Pattern_Large,-5.0,,,,,,,,,,,
encoding,value,13,32511231,32517248,32516656.0,32516736.0,81.0,81.0,1621.8,727.3,1591.0,1269.0,Object_Sea_Pattern_Large,5.456555749988183,11.472690249909649,3.0,Object_Sea_Pattern_Large,-5.0,,,,,,,,,,,
encoding,value,13,32511231,32517248,32516971.0,32517128.0,158.0,158.0,1619.0,761.0999999999999,1591.0,1269.0,Object_Sea_Pattern_Large,5.456555749988183,11.472690249909649,3.0,Object_Sea_Pattern_Large,-5.0,,,,,,,,,,,
encoding,value,13,32511231,32517248,32517147.0,32517445.0,299.0,101.0,1604.0,853.0,1591.0,1269.0,Object_Sea_Pattern_Large,5.456555749988183,11.472690249909649,3.0,Object_Sea_Pattern_Large,-5.0,,,,,,,,,,,
encoding,attention,13,32517248,32520267,32517462.0,32517680.0,219.0,219.0,1624.4,768.2,1591.0,1269.0,Object_Sea_Pattern_Large,11.472816666937431,14.491186667000877,3.0,Object_Sea_Pattern_Large,-5.0,-5.0,1.0,0.8432427500374615,,,,,,,,
encoding,attention,13,32517248,32520267,32517690.0,32518006.0,317.0,317.0,1580.1,745.0999999999999,1591.0,1269.0,Object_Sea_Pattern_Large,11.472816666937431,14.491186667000877,3.0,Object_Sea_Pattern_Large,-5.0,-5.0,1.0,0.8432427500374615,,,,,,,,
encoding,attention,13,32517248,32520267,32518024.0,32518330.0,307.0,307.0,1618.7,827.3,1591.0,1269.0,Object_Sea_Pattern_Large,11.472816666937431,14.491186667000877,3.0,Object_Sea_Pattern_Large,-5.0,-5.0,1.0,0.8432427500374615,,,,,,,,
encoding,attention,13,32517248,32520267,32518581.0,32519276.0,696.0,696.0,1613.0,781.8,1591.0,1269.0,Object_Sea_Pattern_Large,11.472816666937431,14.491186667000877,3.0,Object_Sea_Pattern_Large,-5.0,-5.0,1.0,0.8432427500374615,,,,,,,,
encoding,attention,13,32517248,32520267,32519292.0,32519633.0,342.0,342.0,1635.0,838.5999999999999,1591.0,1269.0,Object_Sea_Pattern_Large,11.472816666937431,14.491186667000877,3.0,Object_Sea_Pattern_Large,-5.0,-5.0,1.0,0.8432427500374615,,,,,,,,
encoding,attention,13,32517248,32520267,32519870.0,32519890.0,21.0,21.0,1716.1,1112.1,1591.0,891.0,Animal_Land_Solid_Small,11.472816666937431,14.491186667000877,3.0,Object_Sea_Pattern_Large,-5.0,-5.0,1.0,0.8432427500374615,,,,,,,,
encoding,attention,13,32517248,32520267,32519908.0,32519956.0,49.0,49.0,1717.6,1035.0,1591.0,1269.0,Object_Sea_Pattern_Large,11.472816666937431,14.491186667000877,3.0,Object_Sea_Pattern_Large,-5.0,-5.0,1.0,0.8432427500374615,,,,,,,,
encoding,attention,13,32517248,32520267,32519982.0,32520144.0,163.0,163.0,1617.5,849.9000000000001,1591.0,1269.0,Object_Sea_Pattern_Large,11.472816666937431,14.491186667000877,3.0,Object_Sea_Pattern_Large,-5.0,-5.0,1.0,0.8432427500374615,,,,,,,,
encoding,fixation,14,32520267,32521772,32520472.0,32521070.0,599.0,599.0,1903.0,1033.2,1920.0,1080.0,fixation,14.491348124924116,15.996418832917698,3.0,Animal_Land_Solid_Small,-5.0,,,,,,,,,,,
encoding,fixation,14,32520267,32521772,32521100.0,32521332.0,233.0,233.0,1918.2,1333.9,1920.0,700.0,Animal_Sea_Pattern_Small,14.491348124924116,15.996418832917698,3.0,Animal_Land_Solid_Small,-5.0,,,,,,,,,,,
encoding,fixation,14,32520267,32521772,32521349.0,32521573.0,225.0,225.0,1893.5,1431.7,1920.0,700.0,Animal_Sea_Pattern_Small,14.491348124924116,15.996418832917698,3.0,Animal_Land_Solid_Small,-5.0,,,,,,,,,,,
encoding,fixation,14,32520267,32521772,32521616.0,32521649.0,34.0,34.0,1885.2,1147.2,1920.0,700.0,Animal_Sea_Pattern_Small,14.491348124924116,15.996418832917698,3.0,Animal_Land_Solid_Small,-5.0,,,,,,,,,,,
encoding,image,14,32521772,32522784,32521835.0,32521966.0,132.0,132.0,1896.5,1042.1,1920.0,1080.0,fixation,15.996522416942751,17.00810166692827,3.0,Animal_Land_Solid_Small,-5.0,,,,,,,,,,,
encoding,image,14,32521772,32522784,32521996.0,32522763.0,768.0,768.0,1630.5,1285.0,1591.0,891.0,Animal_Land_Solid_Small,15.996522416942751,17.00810166692827,3.0,Animal_Land_Solid_Small,-5.0,,,,,,,,,,,
encoding,value,14,32522784,32528795,32522786.0,32522921.0,136.0,136.0,1570.4,1089.4,1591.0,891.0,Animal_Land_Solid_Small,17.008225874975324,23.01969699992333,3.0,Animal_Land_Solid_Small,-5.0,,,,,,,,,,,
encoding,value,14,32522784,32528795,32523165.0,32523222.0,58.0,58.0,1645.1,1109.3,1591.0,891.0,Animal_Land_Solid_Small,17.008225874975324,23.01969699992333,3.0,Animal_Land_Solid_Small,-5.0,,,,,,,,,,,
encoding,value,14,32522784,32528795,32523235.0,32523619.0,385.0,385.0,1594.9,1153.9,1591.0,891.0,Animal_Land_Solid_Small,17.008225874975324,23.01969699992333,3.0,Animal_Land_Solid_Small,-5.0,,,,,,,,,,,
encoding,value,14,32522784,32528795,32523650.0,32523796.0,147.0,147.0,1558.8,881.5999999999999,1591.0,1269.0,Object_Sea_Pattern_Large,17.008225874975324,23.01969699992333,3.0,Animal_Land_Solid_Small,-5.0,,,,,,,,,,,
encoding,value,14,32522784,32528795,32524023.0,32524090.0,68.0,68.0,1440.3,902.0,1591.0,1269.0,Object_Sea_Pattern_Large,17.008225874975324,23.01969699992333,3.0,Animal_Land_Solid_Small,-5.0,,,,,,,,,,,
encoding,value,14,32522784,32528795,32524133.0,32524327.0,195.0,195.0,1604.8,1294.8,1591.0,891.0,Animal_Land_Solid_Small,17.008225874975324,23.01969699992333,3.0,Animal_Land_Solid_Small,-5.0,,,,,,,,,,,
encoding,value,14,32522784,32528795,32524345.0,32524502.0,158.0,158.0,1599.0,1334.1,1591.0,891.0,Animal_Land_Solid_Small,17.008225874975324,23.01969699992333,3.0,Animal_Land_Solid_Small,-5.0,,,,,,,,,,,
encoding,value,14,32522784,32528795,32524530.0,32524638.0,109.0,109.0,1174.7,1168.3,,,none,17.008225874975324,23.01969699992333,3.0,Animal_Land_Solid_Small,-5.0,,,,,,,,,,,
encoding,value,14,32522784,32528795,32524836.0,32525038.0,203.0,203.0,1392.2,1248.7,1591.0,891.0,Animal_Land_Solid_Small,17.008225874975324,23.01969699992333,3.0,Animal_Land_Solid_Small,-5.0,,,,,,,,,,,
encoding,value,14,32522784,32528795,32525266.0,32525403.0,138.0,138.0,1661.5,1244.3,1591.0,891.0,Animal_Land_Solid_Small,17.008225874975324,23.01969699992333,3.0,Animal_Land_Solid_Small,-5.0,,,,,,,,,,,
encoding,value,14,32522784,32528795,32525417.0,32525951.0,535.0,535.0,1598.8,1183.1,1591.0,891.0,Animal_Land_Solid_Small,17.008225874975324,23.01969699992333,3.0,Animal_Land_Solid_Small,-5.0,,,,,,,,,,,
encoding,value,14,32522784,32528795,32525964.0,32526154.0,191.0,191.0,1624.1,1255.9,1591.0,891.0,Animal_Land_Solid_Small,17.008225874975324,23.01969699992333,3.0,Animal_Land_Solid_Small,-5.0,,,,,,,,,,,
encoding,value,14,32522784,32528795,32526172.0,32527349.0,1178.0,1178.0,1629.0,1138.5,1591.0,891.0,Animal_Land_Solid_Small,17.008225874975324,23.01969699992333,3.0,Animal_Land_Solid_Small,-5.0,,,,,,,,,,,
encoding,value,14,32522784,32528795,32527778.0,32527992.0,215.0,215.0,1618.9,1212.2,1591.0,891.0,Animal_Land_Solid_Small,17.008225874975324,23.01969699992333,3.0,Animal_Land_Solid_Small,-5.0,,,,,,,,,,,
encoding,value,14,32522784,32528795,32528000.0,32528477.0,478.0,478.0,1615.6,1157.6,1591.0,891.0,Animal_Land_Solid_Small,17.008225874975324,23.01969699992333,3.0,Animal_Land_Solid_Small,-5.0,,,,,,,,,,,
encoding,value,14,32522784,32528795,32528490.0,32528626.0,137.0,137.0,1661.4,1174.7,1591.0,891.0,Animal_Land_Solid_Small,17.008225874975324,23.01969699992333,3.0,Animal_Land_Solid_Small,-5.0,,,,,,,,,,,
encoding,attention,14,32528795,32531814,32528854.0,32529129.0,276.0,276.0,1619.6,1191.4,1591.0,891.0,Animal_Land_Solid_Small,23.019830166944303,26.037910541985184,3.0,Animal_Land_Solid_Small,-5.0,-5.0,1.0,1.4613367080455646,,,,,,,,
encoding,attention,14,32528795,32531814,32529141.0,32529352.0,212.0,212.0,1572.2,1172.7,1591.0,891.0,Animal_Land_Solid_Small,23.019830166944303,26.037910541985184,3.0,Animal_Land_Solid_Small,-5.0,-5.0,1.0,1.4613367080455646,,,,,,,,
encoding,attention,14,32528795,32531814,32529475.0,32529690.0,216.0,216.0,2370.0,-365.5,,,none,23.019830166944303,26.037910541985184,3.0,Animal_Land_Solid_Small,-5.0,-5.0,1.0,1.4613367080455646,,,,,,,,
encoding,attention,14,32528795,32531814,32529704.0,32529794.0,91.0,91.0,2486.7,-408.6999999999998,,,none,23.019830166944303,26.037910541985184,3.0,Animal_Land_Solid_Small,-5.0,-5.0,1.0,1.4613367080455646,,,,,,,,
encoding,attention,14,32528795,32531814,32530013.0,32530159.0,147.0,147.0,1581.5,1210.5,1591.0,891.0,Animal_Land_Solid_Small,23.019830166944303,26.037910541985184,3.0,Animal_Land_Solid_Small,-5.0,-5.0,1.0,1.4613367080455646,,,,,,,,
encoding,attention,14,32528795,32531814,32530319.0,32530477.0,159.0,159.0,1627.2,1215.5,1591.0,891.0,Animal_Land_Solid_Small,23.019830166944303,26.037910541985184,3.0,Animal_Land_Solid_Small,-5.0,-5.0,1.0,1.4613367080455646,,,,,,,,
encoding,attention,14,32528795,32531814,32530487.0,32530857.0,371.0,371.0,1664.6,1162.0,1591.0,891.0,Animal_Land_Solid_Small,23.019830166944303,26.037910541985184,3.0,Animal_Land_Solid_Small,-5.0,-5.0,1.0,1.4613367080455646,,,,,,,,
encoding,attention,14,32528795,32531814,32531041.0,32531238.0,198.0,198.0,1574.2,1273.5,1591.0,891.0,Animal_Land_Solid_Small,23.019830166944303,26.037910541985184,3.0,Animal_Land_Solid_Small,-5.0,-5.0,1.0,1.4613367080455646,,,,,,,,
encoding,attention,14,32528795,32531814,32531247.0,32531586.0,340.0,340.0,1626.0,1282.7,1591.0,891.0,Animal_Land_Solid_Small,23.019830166944303,26.037910541985184,3.0,Animal_Land_Solid_Small,-5.0,-5.0,1.0,1.4613367080455646,,,,,,,,
encoding,fixation,15,32531814,32532569,32531929.0,32532086.0,158.0,158.0,1623.3,1171.8,1591.0,891.0,Animal_Land_Solid_Small,26.03805662493687,26.79341870790813,3.0,Object_Land_Pattern_Large,-5.0,,,,,,,,,,,
encoding,fixation,15,32531814,32532569,32532112.0,32532215.0,104.0,104.0,1909.1,1081.5,1920.0,1080.0,fixation,26.03805662493687,26.79341870790813,3.0,Object_Land_Pattern_Large,-5.0,,,,,,,,,,,
encoding,fixation,15,32531814,32532569,32532409.0,32532522.0,114.0,114.0,1926.6,999.9000000000001,1920.0,1460.0,Object_Land_Pattern_Large,26.03805662493687,26.79341870790813,3.0,Object_Land_Pattern_Large,-5.0,,,,,,,,,,,
encoding,fixation,15,32531814,32532569,32532534.0,32532825.0,292.0,35.0,1937.8,1058.8,1920.0,1080.0,fixation,26.03805662493687,26.79341870790813,3.0,Object_Land_Pattern_Large,-5.0,,,,,,,,,,,
encoding,image,15,32532569,32533582,32532852.0,32533157.0,306.0,306.0,1953.4,722.0999999999999,1920.0,1460.0,Object_Land_Pattern_Large,26.793540957965888,27.805736791924573,3.0,Object_Land_Pattern_Large,-5.0,,,,,,,,,,,
encoding,image,15,32532569,32533582,32533164.0,32533554.0,391.0,391.0,1939.9,679.2,1920.0,1460.0,Object_Land_Pattern_Large,26.793540957965888,27.805736791924573,3.0,Object_Land_Pattern_Large,-5.0,,,,,,,,,,,
encoding,value,15,32533582,32539594,32534025.0,32534149.0,125.0,125.0,1930.7,703.5,1920.0,1460.0,Object_Land_Pattern_Large,27.805854749982245,33.817831708001904,3.0,Object_Land_Pattern_Large,-5.0,,,,,,,,,,,
encoding,value,15,32533582,32539594,32534162.0,32534321.0,160.0,160.0,1922.3,647.4000000000001,1920.0,1460.0,Object_Land_Pattern_Large,27.805854749982245,33.817831708001904,3.0,Object_Land_Pattern_Large,-5.0,,,,,,,,,,,
encoding,value,15,32533582,32539594,32534368.0,32534888.0,521.0,521.0,1722.7,1009.5,1591.0,1269.0,Object_Sea_Pattern_Large,27.805854749982245,33.817831708001904,3.0,Object_Land_Pattern_Large,-5.0,,,,,,,,,,,
encoding,value,15,32533582,32539594,32534905.0,32535200.0,296.0,296.0,1628.5,898.5,1591.0,1269.0,Object_Sea_Pattern_Large,27.805854749982245,33.817831708001904,3.0,Object_Land_Pattern_Large,-5.0,,,,,,,,,,,
encoding,value,15,32533582,32539594,32535407.0,32535429.0,23.0,23.0,1940.6,721.5,1920.0,1460.0,Object_Land_Pattern_Large,27.805854749982245,33.817831708001904,3.0,Object_Land_Pattern_Large,-5.0,,,,,,,,,,,
encoding,value,15,32533582,32539594,32535456.0,32535644.0,189.0,189.0,1933.2,644.4000000000001,1920.0,1460.0,Object_Land_Pattern_Large,27.805854749982245,33.817831708001904,3.0,Object_Land_Pattern_Large,-5.0,,,,,,,,,,,
encoding,value,15,32533582,32539594,32535660.0,32536041.0,382.0,382.0,1925.4,716.4000000000001,1920.0,1460.0,Object_Land_Pattern_Large,27.805854749982245,33.817831708001904,3.0,Object_Land_Pattern_Large,-5.0,,,,,,,,,,,
encoding,value,15,32533582,32539594,32536054.0,32536096.0,43.0,43.0,1943.5,645.5999999999999,1920.0,1460.0,Object_Land_Pattern_Large,27.805854749982245,33.817831708001904,3.0,Object_Land_Pattern_Large,-5.0,,,,,,,,,,,
encoding,value,15,32533582,32539594,32536654.0,32536896.0,243.0,243.0,1948.4,729.5999999999999,1920.0,1460.0,Object_Land_Pattern_Large,27.805854749982245,33.817831708001904,3.0,Object_Land_Pattern_Large,-5.0,,,,,,,,,,,
encoding,value,15,32533582,32539594,32536940.0,32537092.0,153.0,153.0,1967.6,962.0999999999999,1920.0,1460.0,Object_Land_Pattern_Large,27.805854749982245,33.817831708001904,3.0,Object_Land_Pattern_Large,-5.0,,,,,,,,,,,
encoding,value,15,32533582,32539594,32537122.0,32537317.0,196.0,196.0,1971.1,679.8,1920.0,1460.0,Object_Land_Pattern_Large,27.805854749982245,33.817831708001904,3.0,Object_Land_Pattern_Large,-5.0,,,,,,,,,,,
encoding,value,15,32533582,32539594,32537354.0,32537441.0,88.0,88.0,1855.5,1056.3,1920.0,1080.0,fixation,27.805854749982245,33.817831708001904,3.0,Object_Land_Pattern_Large,-5.0,,,,,,,,,,,
encoding,value,15,32533582,32539594,32537464.0,32537816.0,353.0,353.0,1677.8,1222.2,1591.0,891.0,Animal_Land_Solid_Small,27.805854749982245,33.817831708001904,3.0,Object_Land_Pattern_Large,-5.0,,,,,,,,,,,
encoding,value,15,32533582,32539594,32537858.0,32538102.0,245.0,245.0,1920.8,725.0999999999999,1920.0,1460.0,Object_Land_Pattern_Large,27.805854749982245,33.817831708001904,3.0,Object_Land_Pattern_Large,-5.0,,,,,,,,,,,
encoding,value,15,32533582,32539594,32538119.0,32538287.0,169.0,169.0,1933.3,652.3,1920.0,1460.0,Object_Land_Pattern_Large,27.805854749982245,33.817831708001904,3.0,Object_Land_Pattern_Large,-5.0,,,,,,,,,,,
encoding,value,15,32533582,32539594,32538779.0,32538930.0,152.0,152.0,1858.4,915.0999999999999,1920.0,1460.0,Object_Land_Pattern_Large,27.805854749982245,33.817831708001904,3.0,Object_Land_Pattern_Large,-5.0,,,,,,,,,,,
encoding,value,15,32533582,32539594,32538961.0,32539134.0,174.0,174.0,1827.4,1147.8,1591.0,891.0,Animal_Land_Solid_Small,27.805854749982245,33.817831708001904,3.0,Object_Land_Pattern_Large,-5.0,,,,,,,,,,,
encoding,value,15,32533582,32539594,32539181.0,32539620.0,440.0,413.0,1975.6,712.4000000000001,1920.0,1460.0,Object_Land_Pattern_Large,27.805854749982245,33.817831708001904,3.0,Object_Land_Pattern_Large,-5.0,,,,,,,,,,,
encoding,attention,15,32539594,32542612,32539644.0,32539724.0,81.0,81.0,1928.3,898.9000000000001,1920.0,1460.0,Object_Land_Pattern_Large,33.81794941693079,36.83603295800276,3.0,Object_Land_Pattern_Large,-5.0,-5.0,1.0,1.0473942919634285,,,,,,,,
encoding,attention,15,32539594,32542612,32539990.0,32540169.0,180.0,180.0,1936.8,637.7,1920.0,1460.0,Object_Land_Pattern_Large,33.81794941693079,36.83603295800276,3.0,Object_Land_Pattern_Large,-5.0,-5.0,1.0,1.0473942919634285,,,,,,,,
encoding,attention,15,32539594,32542612,32540183.0,32540894.0,712.0,712.0,1895.4,608.8,1920.0,1460.0,Object_Land_Pattern_Large,33.81794941693079,36.83603295800276,3.0,Object_Land_Pattern_Large,-5.0,-5.0,1.0,1.0473942919634285,,,,,,,,
encoding,attention,15,32539594,32542612,32541171.0,32541273.0,103.0,103.0,1908.9,730.0,1920.0,1460.0,Object_Land_Pattern_Large,33.81794941693079,36.83603295800276,3.0,Object_Land_Pattern_Large,-5.0,-5.0,1.0,1.0473942919634285,,,,,,,,
encoding,attention,15,32539594,32542612,32541282.0,32541826.0,545.0,545.0,1963.1,712.9000000000001,1920.0,1460.0,Object_Land_Pattern_Large,33.81794941693079,36.83603295800276,3.0,Object_Land_Pattern_Large,-5.0,-5.0,1.0,1.0473942919634285,,,,,,,,
encoding,attention,15,32539594,32542612,32541875.0,32542249.0,375.0,375.0,1793.3,1093.8,1591.0,891.0,Animal_Land_Solid_Small,33.81794941693079,36.83603295800276,3.0,Object_Land_Pattern_Large,-5.0,-5.0,1.0,1.0473942919634285,,,,,,,,
encoding,attention,15,32539594,32542612,32542497.0,32542591.0,95.0,95.0,1974.8,1209.4,1920.0,700.0,Animal_Sea_Pattern_Small,33.81794941693079,36.83603295800276,3.0,Object_Land_Pattern_Large,-5.0,-5.0,1.0,1.0473942919634285,,,,,,,,
encoding,fixation,16,32542612,32544118,32542641.0,32542818.0,178.0,178.0,1926.7,678.0999999999999,1920.0,1460.0,Object_Land_Pattern_Large,36.83617491694167,38.34185354190413,3.0,Object_Land_Solid_Large,7.0,,,,,,,,,,,
encoding,fixation,16,32542612,32544118,32542862.0,32543105.0,244.0,244.0,1871.8,1193.9,1920.0,700.0,Animal_Sea_Pattern_Small,36.83617491694167,38.34185354190413,3.0,Object_Land_Solid_Large,7.0,,,,,,,,,,,
encoding,fixation,16,32542612,32544118,32543126.0,32543212.0,87.0,87.0,1850.1,1097.2,1591.0,891.0,Animal_Land_Solid_Small,36.83617491694167,38.34185354190413,3.0,Object_Land_Solid_Large,7.0,,,,,,,,,,,
encoding,fixation,16,32542612,32544118,32543252.0,32543431.0,180.0,180.0,1731.2,765.2,1591.0,1269.0,Object_Sea_Pattern_Large,36.83617491694167,38.34185354190413,3.0,Object_Land_Solid_Large,7.0,,,,,,,,,,,
encoding,fixation,16,32542612,32544118,32543471.0,32543804.0,334.0,334.0,1915.1,1080.1,1920.0,1080.0,fixation,36.83617491694167,38.34185354190413,3.0,Object_Land_Solid_Large,7.0,,,,,,,,,,,
encoding,fixation,16,32542612,32544118,32543825.0,32544078.0,254.0,254.0,1897.4,1215.0,1920.0,700.0,Animal_Sea_Pattern_Small,36.83617491694167,38.34185354190413,3.0,Object_Land_Solid_Large,7.0,,,,,,,,,,,
encoding,fixation,16,32542612,32544118,32544100.0,32544308.0,209.0,18.0,1950.8,1440.2,1920.0,700.0,Animal_Sea_Pattern_Small,36.83617491694167,38.34185354190413,3.0,Object_Land_Solid_Large,7.0,,,,,,,,,,,
encoding,image,16,32544118,32545129,32544351.0,32544871.0,521.0,521.0,2244.3,883.8,2249.0,1269.0,Object_Land_Solid_Large,38.3419642499648,39.352115666959435,3.0,Object_Land_Solid_Large,7.0,,,,,,,,,,,
encoding,image,16,32544118,32545129,32544881.0,32545673.0,793.0,248.0,2241.9,811.5,2249.0,1269.0,Object_Land_Solid_Large,38.3419642499648,39.352115666959435,3.0,Object_Land_Solid_Large,7.0,,,,,,,,,,,
encoding,value,16,32545129,32551141,32545685.0,32546007.0,323.0,323.0,2274.9,867.5999999999999,2249.0,1269.0,Object_Land_Solid_Large,39.35221620800439,45.3641279169824,3.0,Object_Land_Solid_Large,7.0,,,,,,,,,,,
encoding,value,16,32545129,32551141,32546212.0,32546250.0,39.0,39.0,2270.8,1009.4000000000001,2249.0,1269.0,Object_Land_Solid_Large,39.35221620800439,45.3641279169824,3.0,Object_Land_Solid_Large,7.0,,,,,,,,,,,
encoding,value,16,32545129,32551141,32546275.0,32546625.0,351.0,351.0,2267.6,932.5999999999999,2249.0,1269.0,Object_Land_Solid_Large,39.35221620800439,45.3641279169824,3.0,Object_Land_Solid_Large,7.0,,,,,,,,,,,
encoding,value,16,32545129,32551141,32546635.0,32546989.0,355.0,355.0,2224.7,882.9000000000001,2249.0,1269.0,Object_Land_Solid_Large,39.35221620800439,45.3641279169824,3.0,Object_Land_Solid_Large,7.0,,,,,,,,,,,
encoding,value,16,32545129,32551141,32547024.0,32547192.0,169.0,169.0,2257.9,769.2,2249.0,1269.0,Object_Land_Solid_Large,39.35221620800439,45.3641279169824,3.0,Object_Land_Solid_Large,7.0,,,,,,,,,,,
encoding,value,16,32545129,32551141,32547210.0,32547326.0,117.0,117.0,2153.8,784.7,2249.0,1269.0,Object_Land_Solid_Large,39.35221620800439,45.3641279169824,3.0,Object_Land_Solid_Large,7.0,,,,,,,,,,,
encoding,value,16,32545129,32551141,32547677.0,32547847.0,171.0,171.0,1782.6,1056.0,1591.0,1269.0,Object_Sea_Pattern_Large,39.35221620800439,45.3641279169824,3.0,Object_Land_Solid_Large,7.0,,,,,,,,,,,
encoding,value,16,32545129,32551141,32547889.0,32548135.0,247.0,247.0,2195.8,828.3,2249.0,1269.0,Object_Land_Solid_Large,39.35221620800439,45.3641279169824,3.0,Object_Land_Solid_Large,7.0,,,,,,,,,,,
encoding,value,16,32545129,32551141,32548146.0,32548342.0,197.0,197.0,2259.3,802.8,2249.0,1269.0,Object_Land_Solid_Large,39.35221620800439,45.3641279169824,3.0,Object_Land_Solid_Large,7.0,,,,,,,,,,,
encoding,value,16,32545129,32551141,32548577.0,32548825.0,249.0,249.0,2270.5,929.2,2249.0,1269.0,Object_Land_Solid_Large,39.35221620800439,45.3641279169824,3.0,Object_Land_Solid_Large,7.0,,,,,,,,,,,
encoding,value,16,32545129,32551141,32548833.0,32550094.0,1262.0,1262.0,2249.3,893.3,2249.0,1269.0,Object_Land_Solid_Large,39.35221620800439,45.3641279169824,3.0,Object_Land_Solid_Large,7.0,,,,,,,,,,,
encoding,value,16,32545129,32551141,32550106.0,32550339.0,234.0,234.0,2266.4,824.8,2249.0,1269.0,Object_Land_Solid_Large,39.35221620800439,45.3641279169824,3.0,Object_Land_Solid_Large,7.0,,,,,,,,,,,
encoding,value,16,32545129,32551141,32550348.0,32551191.0,844.0,793.0,2243.0,802.0999999999999,2249.0,1269.0,Object_Land_Solid_Large,39.35221620800439,45.3641279169824,3.0,Object_Land_Solid_Large,7.0,,,,,,,,,,,
encoding,attention,16,32551141,32554158,32551206.0,32551446.0,241.0,241.0,2255.1,858.3,2249.0,1269.0,Object_Land_Solid_Large,45.364257916924544,48.38097479194403,3.0,Object_Land_Solid_Large,7.0,7.0,1.0,0.7795087499544024,,,,,,,,
encoding,attention,16,32551141,32554158,32551461.0,32552275.0,815.0,815.0,2282.8,782.3,2249.0,1269.0,Object_Land_Solid_Large,45.364257916924544,48.38097479194403,3.0,Object_Land_Solid_Large,7.0,7.0,1.0,0.7795087499544024,,,,,,,,
encoding,attention,16,32551141,32554158,32552288.0,32552426.0,139.0,139.0,2296.0,841.4000000000001,2249.0,1269.0,Object_Land_Solid_Large,45.364257916924544,48.38097479194403,3.0,Object_Land_Solid_Large,7.0,7.0,1.0,0.7795087499544024,,,,,,,,
encoding,attention,16,32551141,32554158,32552655.0,32552789.0,135.0,135.0,2015.0,1134.6,2249.0,891.0,Animal_Sea_Solid_Small,45.364257916924544,48.38097479194403,3.0,Object_Land_Solid_Large,7.0,7.0,1.0,0.7795087499544024,,,,,,,,
encoding,attention,16,32551141,32554158,32552805.0,32553020.0,216.0,216.0,1940.6,1078.3,1920.0,1080.0,fixation,45.364257916924544,48.38097479194403,3.0,Object_Land_Solid_Large,7.0,7.0,1.0,0.7795087499544024,,,,,,,,
encoding,attention,16,32551141,32554158,32553058.0,32553339.0,282.0,282.0,2252.4,869.7,2249.0,1269.0,Object_Land_Solid_Large,45.364257916924544,48.38097479194403,3.0,Object_Land_Solid_Large,7.0,7.0,1.0,0.7795087499544024,,,,,,,,
encoding,attention,16,32551141,32554158,32553537.0,32553558.0,22.0,22.0,2288.4,985.5999999999999,2249.0,1269.0,Object_Land_Solid_Large,45.364257916924544,48.38097479194403,3.0,Object_Land_Solid_Large,7.0,7.0,1.0,0.7795087499544024,,,,,,,,
encoding,attention,16,32551141,32554158,32553575.0,32553866.0,292.0,292.0,2279.9,911.4000000000001,2249.0,1269.0,Object_Land_Solid_Large,45.364257916924544,48.38097479194403,3.0,Object_Land_Solid_Large,7.0,7.0,1.0,0.7795087499544024,,,,,,,,
encoding,fixation,17,32554158,32554913,32554247.0,32554279.0,33.0,33.0,2351.1,685.3,,,none,48.381118707940914,49.136298583005555,3.0,Animal_Sea_Pattern_Small,1.0,,,,,,,,,,,
encoding,fixation,17,32554158,32554913,32554488.0,32554585.0,98.0,98.0,1984.1,983.0,2249.0,1269.0,Object_Land_Solid_Large,48.381118707940914,49.136298583005555,3.0,Animal_Sea_Pattern_Small,1.0,,,,,,,,,,,
encoding,fixation,17,32554158,32554913,32554601.0,32555087.0,487.0,312.0,1904.7,1042.0,1920.0,1080.0,fixation,48.381118707940914,49.136298583005555,3.0,Animal_Sea_Pattern_Small,1.0,,,,,,,,,,,
encoding,image,17,32554913,32555926,32555124.0,32555321.0,198.0,198.0,1911.9,1415.1,1920.0,700.0,Animal_Sea_Pattern_Small,49.13655570789706,50.1492273749318,3.0,Animal_Sea_Pattern_Small,1.0,,,,,,,,,,,
