phase,event,trial_number,eyetracker_onset,eyetracker_offset,fix_start,fix_end,fix_duration_full,fix_duration_bounded,fix_x,fix_y,roi_x,roi_y,roi_content,onset,offset,game,image,outcome,choice,correct,rt,letter,match,response,option,true_value,true_position,recalled_position,Unnamed: 18
encoding,fixation,1,3260952,3262470,3261199.0,3261351.0,153.0,153.0,1928.0,1145.9,1920.0,1080.0,fixation,12.804351208964365,14.322501791873949,1.0,Object_Land_Solid_Small,2.0,,,,,,,,,,,
encoding,fixation,1,3260952,3262470,3261361.0,3262763.0,1403.0,1109.0,1913.1,1085.9,1920.0,1080.0,fixation,12.804351208964365,14.322501791873949,1.0,Object_Land_Solid_Small,2.0,,,,,,,,,,,
encoding,image,1,3262470,3263491,3262805.0,3263732.0,928.0,686.0,1899.8,680.4000000000001,1920.0,1460.0,Object_Land_Solid_Small,14.322619708953424,15.34399341698736,1.0,Object_Land_Solid_Small,2.0,,,,,,,,,,,
encoding,value,1,3263491,3269509,3263751.0,3264192.0,442.0,442.0,1898.1,578.3,1920.0,1460.0,Object_Land_Solid_Small,15.34420616691932,21.36127687478438,1.0,Object_Land_Solid_Small,2.0,,,,,,,,,,,
encoding,value,1,3263491,3269509,3264214.0,3268220.0,4007.0,4007.0,1905.0,692.8,1920.0,1460.0,Object_Land_Solid_Small,15.34420616691932,21.36127687478438,1.0,Object_Land_Solid_Small,2.0,,,,,,,,,,,
encoding,value,1,3263491,3269509,3268235.0,3268513.0,279.0,279.0,1895.9,626.9000000000001,1920.0,1460.0,Object_Land_Solid_Small,15.34420616691932,21.36127687478438,1.0,Object_Land_Solid_Small,2.0,,,,,,,,,,,
encoding,value,1,3263491,3269509,3268529.0,3269099.0,571.0,571.0,1898.3,704.8,1920.0,1460.0,Object_Land_Solid_Small,15.34420616691932,21.36127687478438,1.0,Object_Land_Solid_Small,2.0,,,,,,,,,,,
encoding,value,1,3263491,3269509,3269114.0,3269548.0,435.0,395.0,1907.1,586.7,1920.0,1460.0,Object_Land_Solid_Small,15.34420616691932,21.36127687478438,1.0,Object_Land_Solid_Small,2.0,,,,,,,,,,,
encoding,attention,1,3269509,3272527,3269568.0,3269983.0,416.0,416.0,1905.9,703.5999999999999,1920.0,1460.0,Object_Land_Solid_Small,21.36141495895572,24.379193833796307,1.0,Object_Land_Solid_Small,2.0,2.0,1.0,2.562478832900524,,,,,,,,
encoding,attention,1,3269509,3272527,3270001.0,3270209.0,209.0,209.0,1886.4,624.7,1920.0,1460.0,Object_Land_Solid_Small,21.36141495895572,24.379193833796307,1.0,Object_Land_Solid_Small,2.0,2.0,1.0,2.562478832900524,,,,,,,,
encoding,attention,1,3269509,3272527,3270221.0,3270424.0,204.0,204.0,1949.4,625.5,1920.0,1460.0,Object_Land_Solid_Small,21.36141495895572,24.379193833796307,1.0,Object_Land_Solid_Small,2.0,2.0,1.0,2.562478832900524,,,,,,,,
encoding,attention,1,3269509,3272527,3270607.0,3270922.0,316.0,316.0,1928.3,724.9000000000001,1920.0,1460.0,Object_Land_Solid_Small,21.36141495895572,24.379193833796307,1.0,Object_Land_Solid_Small,2.0,2.0,1.0,2.562478832900524,,,,,,,,
encoding,attention,1,3269509,3272527,3270938.0,3271284.0,347.0,347.0,1883.0,647.4000000000001,1920.0,1460.0,Object_Land_Solid_Small,21.36141495895572,24.379193833796307,1.0,Object_Land_Solid_Small,2.0,2.0,1.0,2.562478832900524,,,,,,,,
encoding,attention,1,3269509,3272527,3271299.0,3271435.0,137.0,137.0,1865.2,582.3,1920.0,1460.0,Object_Land_Solid_Small,21.36141495895572,24.379193833796307,1.0,Object_Land_Solid_Small,2.0,2.0,1.0,2.562478832900524,,,,,,,,
encoding,attention,1,3269509,3272527,3271449.0,3272450.0,1002.0,1002.0,1889.8,654.0,1920.0,1460.0,Object_Land_Solid_Small,21.36141495895572,24.379193833796307,1.0,Object_Land_Solid_Small,2.0,2.0,1.0,2.562478832900524,,,,,,,,
encoding,fixation,2,3272527,3273782,3272762.0,3273976.0,1215.0,1020.0,1900.6,1059.9,1920.0,1080.0,fixation,24.379368291934952,25.6343953339383,1.0,Object_Sea_Solid_Large,-5.0,,,,,,,,,,,
encoding,image,2,3273782,3274794,3274010.0,3274546.0,537.0,537.0,1578.3,1266.0,1591.0,891.0,Object_Sea_Solid_Large,25.63450604188256,26.646492666797712,1.0,Object_Sea_Solid_Large,-5.0,,,,,,,,,,,
encoding,image,2,3273782,3274794,3274557.0,3274975.0,419.0,237.0,1528.9,1232.6,1591.0,891.0,Object_Sea_Solid_Large,25.63450604188256,26.646492666797712,1.0,Object_Sea_Solid_Large,-5.0,,,,,,,,,,,
encoding,value,2,3274794,3280808,3274991.0,3275208.0,218.0,218.0,1562.0,1155.6,1591.0,891.0,Object_Sea_Solid_Large,26.646609833929688,32.659643083810806,1.0,Object_Sea_Solid_Large,-5.0,,,,,,,,,,,
encoding,value,2,3274794,3280808,3275453.0,3275617.0,165.0,165.0,1556.3,1215.9,1591.0,891.0,Object_Sea_Solid_Large,26.646609833929688,32.659643083810806,1.0,Object_Sea_Solid_Large,-5.0,,,,,,,,,,,
encoding,value,2,3274794,3280808,3275624.0,3276025.0,402.0,402.0,1558.2,1184.5,1591.0,891.0,Object_Sea_Solid_Large,26.646609833929688,32.659643083810806,1.0,Object_Sea_Solid_Large,-5.0,,,,,,,,,,,
encoding,value,2,3274794,3280808,3276043.0,3276263.0,221.0,221.0,1551.2,1266.9,1591.0,891.0,Object_Sea_Solid_Large,26.646609833929688,32.659643083810806,1.0,Object_Sea_Solid_Large,-5.0,,,,,,,,,,,
encoding,value,2,3274794,3280808,3276281.0,3282086.0,5806.0,4527.0,1571.9,1164.9,1591.0,891.0,Object_Sea_Solid_Large,26.646609833929688,32.659643083810806,1.0,Object_Sea_Solid_Large,-5.0,,,,,,,,,,,
encoding,attention,2,3280808,3283826,3282098.0,3282459.0,362.0,362.0,1603.1,1178.4,1591.0,891.0,Object_Sea_Solid_Large,32.65976212499663,35.677875499939546,1.0,Object_Sea_Solid_Large,-5.0,-5.0,1.0,1.3709962908178568,,,,,,,,
encoding,attention,2,3280808,3283826,3282698.0,3282777.0,80.0,80.0,1571.2,1342.9,1591.0,891.0,Object_Sea_Solid_Large,32.65976212499663,35.677875499939546,1.0,Object_Sea_Solid_Large,-5.0,-5.0,1.0,1.3709962908178568,,,,,,,,
encoding,attention,2,3280808,3283826,3282784.0,3282997.0,214.0,214.0,1570.3,1254.9,1591.0,891.0,Object_Sea_Solid_Large,32.65976212499663,35.677875499939546,1.0,Object_Sea_Solid_Large,-5.0,-5.0,1.0,1.3709962908178568,,,,,,,,
encoding,fixation,3,3283826,3285082,3284082.0,3285087.0,1006.0,1000.0,1920.1,1074.1,1920.0,1080.0,fixation,35.6780219997745,36.93392941681668,1.0,Animal_Land_Pattern_Small,-1.0,,,,,,,,,,,
encoding,image,3,3285082,3286093,3285110.0,3285284.0,175.0,175.0,1877.6,1212.1,1920.0,700.0,Object_Sea_Pattern_Large,36.93403654196299,37.94497574982233,1.0,Animal_Land_Pattern_Small,-1.0,,,,,,,,,,,
encoding,image,3,3285082,3286093,3285327.0,3285633.0,307.0,307.0,1590.5,947.5,1591.0,1269.0,Animal_Land_Pattern_Small,36.93403654196299,37.94497574982233,1.0,Animal_Land_Pattern_Small,-1.0,,,,,,,,,,,
encoding,image,3,3285082,3286093,3285645.0,3286299.0,655.0,448.0,1587.8,888.5999999999999,1591.0,1269.0,Animal_Land_Pattern_Small,36.93403654196299,37.94497574982233,1.0,Animal_Land_Pattern_Small,-1.0,,,,,,,,,,,
encoding,value,3,3286093,3292105,3286316.0,3287963.0,1648.0,1648.0,1576.6,781.5,1591.0,1269.0,Animal_Land_Pattern_Small,37.94516199990176,43.9568275839556,1.0,Animal_Land_Pattern_Small,-1.0,,,,,,,,,,,
encoding,value,3,3286093,3292105,3287983.0,3288529.0,547.0,547.0,1588.4,882.0999999999999,1591.0,1269.0,Animal_Land_Pattern_Small,37.94516199990176,43.9568275839556,1.0,Animal_Land_Pattern_Small,-1.0,,,,,,,,,,,
encoding,value,3,3286093,3292105,3288545.0,3288797.0,253.0,253.0,1576.6,798.4000000000001,1591.0,1269.0,Animal_Land_Pattern_Small,37.94516199990176,43.9568275839556,1.0,Animal_Land_Pattern_Small,-1.0,,,,,,,,,,,
encoding,value,3,3286093,3292105,3288815.0,3289308.0,494.0,494.0,1566.2,879.5,1591.0,1269.0,Animal_Land_Pattern_Small,37.94516199990176,43.9568275839556,1.0,Animal_Land_Pattern_Small,-1.0,,,,,,,,,,,
encoding,value,3,3286093,3292105,3289324.0,3293352.0,4029.0,2781.0,1580.9,828.7,1591.0,1269.0,Animal_Land_Pattern_Small,37.94516199990176,43.9568275839556,1.0,Animal_Land_Pattern_Small,-1.0,,,,,,,,,,,
encoding,attention,3,3292106,3295124,3293362.0,3293644.0,283.0,283.0,1559.8,805.8,1591.0,1269.0,Animal_Land_Pattern_Small,43.95695345895365,46.97519070887938,1.0,Animal_Land_Pattern_Small,-1.0,-1.0,1.0,1.2512453750241548,,,,,,,,
encoding,attention,3,3292106,3295124,3293957.0,3293982.0,26.0,26.0,1559.0,1075.4,1591.0,1269.0,Animal_Land_Pattern_Small,43.95695345895365,46.97519070887938,1.0,Animal_Land_Pattern_Small,-1.0,-1.0,1.0,1.2512453750241548,,,,,,,,
encoding,fixation,4,3295124,3296381,3295377.0,3295535.0,159.0,159.0,1920.8,1017.3,1920.0,1080.0,fixation,46.975353333866224,48.23236458399333,1.0,Animal_Land_Solid_Small,1.0,,,,,,,,,,,
encoding,fixation,4,3295124,3296381,3295552.0,3296641.0,1090.0,829.0,1917.8,1092.4,1920.0,1080.0,fixation,46.975353333866224,48.23236458399333,1.0,Animal_Land_Solid_Small,1.0,,,,,,,,,,,
encoding,image,4,3296381,3297392,3296677.0,3296937.0,261.0,261.0,2296.1,1304.7,2249.0,891.0,Animal_Land_Solid_Small,48.232493249932304,49.24334299983457,1.0,Animal_Land_Solid_Small,1.0,,,,,,,,,,,
encoding,image,4,3296381,3297392,3296946.0,3297604.0,659.0,446.0,2283.0,1332.7,2249.0,891.0,Animal_Land_Solid_Small,48.232493249932304,49.24334299983457,1.0,Animal_Land_Solid_Small,1.0,,,,,,,,,,,
encoding,value,4,3297392,3303403,3297624.0,3300336.0,2713.0,2713.0,2264.9,1187.8,2249.0,891.0,Animal_Land_Solid_Small,49.24344899994321,55.2543981669005,1.0,Animal_Land_Solid_Small,1.0,,,,,,,,,,,
encoding,value,4,3297392,3303403,3300350.0,3302535.0,2186.0,2186.0,2267.7,1162.9,2249.0,891.0,Animal_Land_Solid_Small,49.24344899994321,55.2543981669005,1.0,Animal_Land_Solid_Small,1.0,,,,,,,,,,,
encoding,value,4,3297392,3303403,3302722.0,3302764.0,43.0,43.0,2231.8,1224.7,2249.0,891.0,Animal_Land_Solid_Small,49.24344899994321,55.2543981669005,1.0,Animal_Land_Solid_Small,1.0,,,,,,,,,,,
encoding,value,4,3297392,3303403,3302772.0,3303900.0,1129.0,631.0,2269.0,1175.9,2249.0,891.0,Animal_Land_Solid_Small,49.24344899994321,55.2543981669005,1.0,Animal_Land_Solid_Small,1.0,,,,,,,,,,,
encoding,attention,4,3303404,3306421,3303914.0,3304921.0,1008.0,1008.0,2309.9,1185.6,2249.0,891.0,Animal_Land_Solid_Small,55.25455104187131,58.27144491695799,1.0,Animal_Land_Solid_Small,1.0,1.0,1.0,0.9197737909853458,,,,,,,,
encoding,fixation,5,3306421,3307676,3306709.0,3307409.0,701.0,701.0,1916.7,1063.0,1920.0,1080.0,fixation,58.27160958386958,59.52654687478207,1.0,Object_Sea_Pattern_Large,5.0,,,,,,,,,,,
encoding,fixation,5,3306421,3307676,3307416.0,3307958.0,543.0,260.0,1933.6,1090.9,1920.0,1080.0,fixation,58.27160958386958,59.52654687478207,1.0,Object_Sea_Pattern_Large,5.0,,,,,,,,,,,
encoding,image,5,3307676,3308687,3307996.0,3308237.0,242.0,242.0,1932.4,1492.0,1920.0,700.0,Object_Sea_Pattern_Large,59.526674249907956,60.53813762497157,1.0,Object_Sea_Pattern_Large,5.0,,,,,,,,,,,
encoding,image,5,3307676,3308687,3308253.0,3308949.0,697.0,434.0,1901.7,1411.7,1920.0,700.0,Object_Sea_Pattern_Large,59.526674249907956,60.53813762497157,1.0,Object_Sea_Pattern_Large,5.0,,,,,,,,,,,
encoding,value,5,3308688,3314699,3308964.0,3310266.0,1303.0,1303.0,1919.9,1344.4,1920.0,700.0,Object_Sea_Pattern_Large,60.53825062490069,66.54899483383633,1.0,Object_Sea_Pattern_Large,5.0,,,,,,,,,,,
encoding,value,5,3308688,3314699,3310441.0,3310492.0,52.0,52.0,1900.5,1377.3,1920.0,700.0,Object_Sea_Pattern_Large,60.53825062490069,66.54899483383633,1.0,Object_Sea_Pattern_Large,5.0,,,,,,,,,,,
encoding,value,5,3308688,3314699,3310508.0,3313335.0,2828.0,2828.0,1913.6,1337.2,1920.0,700.0,Object_Sea_Pattern_Large,60.53825062490069,66.54899483383633,1.0,Object_Sea_Pattern_Large,5.0,,,,,,,,,,,
encoding,value,5,3308688,3314699,3313571.0,3315277.0,1707.0,1128.0,1911.3,1361.4,1920.0,700.0,Object_Sea_Pattern_Large,60.53825062490069,66.54899483383633,1.0,Object_Sea_Pattern_Large,5.0,,,,,,,,,,,
encoding,attention,5,3314699,3317772,,,,,,,,,none,66.5491739588324,69.6228139998857,1.0,Object_Sea_Pattern_Large,5.0,5.0,1.0,1.9163520839065311,,,,,,,,
encoding,fixation,6,3317773,3318278,3318041.0,3318560.0,520.0,237.0,1916.8,1064.8,1920.0,1080.0,fixation,69.6229735838715,70.12811633385718,1.0,Animal_Sea_Pattern_Large,-1.0,,,,,,,,,,,
encoding,image,6,3318278,3319288,3318597.0,3319135.0,539.0,539.0,2205.3,903.4000000000001,2249.0,1269.0,Animal_Sea_Pattern_Large,70.12822195887566,71.13816283387132,1.0,Animal_Sea_Pattern_Large,-1.0,,,,,,,,,,,
encoding,value,6,3319288,3325300,3319317.0,3319591.0,275.0,275.0,2170.8,898.3,2249.0,1269.0,Animal_Sea_Pattern_Large,71.13827062491328,77.1497775837779,1.0,Animal_Sea_Pattern_Large,-1.0,,,,,,,,,,,
encoding,value,6,3319288,3325300,3319612.0,3321287.0,1676.0,1676.0,2249.0,763.0,2249.0,1269.0,Animal_Sea_Pattern_Large,71.13827062491328,77.1497775837779,1.0,Animal_Sea_Pattern_Large,-1.0,,,,,,,,,,,
encoding,attention,6,3325300,3328317,,,,,,,,,none,77.14988262485713,80.16651416686364,1.0,Animal_Sea_Pattern_Large,-1.0,-1.0,1.0,0.9939427920617164,,,,,,,,
encoding,fixation,7,3766716,3767472,3766921.0,3767109.0,189.0,189.0,1889.9,1150.3,1920.0,700.0,Animal_Land_Pattern_Large,10.579419458052143,11.335152124986053,2.0,Object_Sea_Solid_Large,-8.0,,,,,,,,,,,
encoding,fixation,7,3766716,3767472,3767119.0,3767407.0,289.0,289.0,1894.7,1105.1,1920.0,1080.0,fixation,10.579419458052143,11.335152124986053,2.0,Object_Sea_Solid_Large,-8.0,,,,,,,,,,,
encoding,image,7,3767472,3768487,3767611.0,3767630.0,20.0,20.0,1807.2,1247.7,1591.0,891.0,Object_Sea_Solid_Large,11.335264875087889,12.350120417075232,2.0,Object_Sea_Solid_Large,-8.0,,,,,,,,,,,
encoding,image,7,3767472,3768487,3767636.0,3767742.0,107.0,107.0,1833.3,1194.2,1591.0,891.0,Object_Sea_Solid_Large,11.335264875087889,12.350120417075232,2.0,Object_Sea_Solid_Large,-8.0,,,,,,,,,,,
encoding,image,7,3767472,3768487,3767773.0,3767969.0,197.0,197.0,1573.8,1292.8,1591.0,891.0,Object_Sea_Solid_Large,11.335264875087889,12.350120417075232,2.0,Object_Sea_Solid_Large,-8.0,,,,,,,,,,,
encoding,image,7,3767472,3768487,3767979.0,3768766.0,788.0,508.0,1582.1,1247.9,1591.0,891.0,Object_Sea_Solid_Large,11.335264875087889,12.350120417075232,2.0,Object_Sea_Solid_Large,-8.0,,,,,,,,,,,
encoding,value,7,3768487,3774502,3768782.0,3770207.0,1426.0,1426.0,1583.6,1173.7,1591.0,891.0,Object_Sea_Solid_Large,12.35026687500067,18.36452641710639,2.0,Object_Sea_Solid_Large,-8.0,,,,,,,,,,,
encoding,value,7,3768487,3774502,3770224.0,3770904.0,681.0,681.0,1559.9,1256.8,1591.0,891.0,Object_Sea_Solid_Large,12.35026687500067,18.36452641710639,2.0,Object_Sea_Solid_Large,-8.0,,,,,,,,,,,
encoding,value,7,3768487,3774502,3770919.0,3771791.0,873.0,873.0,1556.3,1160.1,1591.0,891.0,Object_Sea_Solid_Large,12.35026687500067,18.36452641710639,2.0,Object_Sea_Solid_Large,-8.0,,,,,,,,,,,
encoding,value,7,3768487,3774502,3771799.0,3772192.0,394.0,394.0,1578.3,1198.0,1591.0,891.0,Object_Sea_Solid_Large,12.35026687500067,18.36452641710639,2.0,Object_Sea_Solid_Large,-8.0,,,,,,,,,,,
encoding,value,7,3768487,3774502,3772207.0,3772619.0,413.0,413.0,1549.8,1238.6,1591.0,891.0,Object_Sea_Solid_Large,12.35026687500067,18.36452641710639,2.0,Object_Sea_Solid_Large,-8.0,,,,,,,,,,,
encoding,value,7,3768487,3774502,3772633.0,3772979.0,347.0,347.0,1565.7,1183.2,1591.0,891.0,Object_Sea_Solid_Large,12.35026687500067,18.36452641710639,2.0,Object_Sea_Solid_Large,-8.0,,,,,,,,,,,
encoding,value,7,3768487,3774502,3772998.0,3773285.0,288.0,288.0,1561.1,1277.6,1591.0,891.0,Object_Sea_Solid_Large,12.35026687500067,18.36452641710639,2.0,Object_Sea_Solid_Large,-8.0,,,,,,,,,,,
encoding,value,7,3768487,3774502,3773303.0,3773692.0,390.0,390.0,1567.7,1179.8,1591.0,891.0,Object_Sea_Solid_Large,12.35026687500067,18.36452641710639,2.0,Object_Sea_Solid_Large,-8.0,,,,,,,,,,,
encoding,value,7,3768487,3774502,3773710.0,3774765.0,1056.0,792.0,1552.1,1234.9,1591.0,891.0,Object_Sea_Solid_Large,12.35026687500067,18.36452641710639,2.0,Object_Sea_Solid_Large,-8.0,,,,,,,,,,,
encoding,attention,7,3774502,3777522,3774775.0,3775398.0,624.0,624.0,1512.6,1165.9,1591.0,891.0,Object_Sea_Solid_Large,18.36465550004505,21.38464149995707,2.0,Object_Sea_Solid_Large,-8.0,-8.0,1.0,1.0200777919963002,,,,,,,,
encoding,attention,7,3774502,3777522,3775418.0,3776956.0,1539.0,1539.0,1535.5,1238.5,1591.0,891.0,Object_Sea_Solid_Large,18.36465550004505,21.38464149995707,2.0,Object_Sea_Solid_Large,-8.0,-8.0,1.0,1.0200777919963002,,,,,,,,
encoding,attention,7,3774502,3777522,3776970.0,3777240.0,271.0,271.0,1518.7,1168.2,1591.0,891.0,Object_Sea_Solid_Large,18.36465550004505,21.38464149995707,2.0,Object_Sea_Solid_Large,-8.0,-8.0,1.0,1.0200777919963002,,,,,,,,
encoding,fixation,8,3777522,3778277,3777905.0,3778157.0,253.0,253.0,1886.7,1102.4,1920.0,1080.0,fixation,21.384789125062525,22.14003554196097,2.0,Animal_Land_Pattern_Small,-4.0,,,,,,,,,,,
encoding,fixation,8,3777522,3778277,3778165.0,3778488.0,324.0,112.0,1905.2,1072.9,1920.0,1080.0,fixation,21.384789125062525,22.14003554196097,2.0,Animal_Land_Pattern_Small,-4.0,,,,,,,,,,,
encoding,image,8,3778277,3779289,3778532.0,3779028.0,497.0,497.0,1590.6,866.0,1591.0,1269.0,Animal_Land_Pattern_Small,22.140148042002693,23.151207542046905,2.0,Animal_Land_Pattern_Small,-4.0,,,,,,,,,,,
encoding,image,8,3778277,3779289,3779037.0,3779300.0,264.0,252.0,1547.2,882.0,1591.0,1269.0,Animal_Land_Pattern_Small,22.140148042002693,23.151207542046905,2.0,Animal_Land_Pattern_Small,-4.0,,,,,,,,,,,
encoding,value,8,3779289,3785303,3779308.0,3779985.0,678.0,678.0,1584.7,859.2,1591.0,1269.0,Animal_Land_Pattern_Small,23.151321167126294,29.165712000103667,2.0,Animal_Land_Pattern_Small,-4.0,,,,,,,,,,,
encoding,value,8,3779289,3785303,3779999.0,3780663.0,665.0,665.0,1585.0,777.2,1591.0,1269.0,Animal_Land_Pattern_Small,23.151321167126294,29.165712000103667,2.0,Animal_Land_Pattern_Small,-4.0,,,,,,,,,,,
encoding,attention,8,3785304,3788322,,,,,,,,,none,29.165911042131484,32.184438958065584,2.0,Animal_Land_Pattern_Small,-4.0,-4.0,1.0,2.329962874995545,,,,,,,,
encoding,fixation,9,3788322,3789578,3788813.0,3789302.0,490.0,490.0,1609.4,1040.2,1591.0,1269.0,Animal_Land_Pattern_Small,32.18458295799792,33.4396190000698,2.0,Object_Land_Solid_Large,1.0,,,,,,,,,,,
encoding,fixation,9,3788322,3789578,3789333.0,3789788.0,456.0,245.0,1788.2,997.5999999999999,1591.0,1269.0,Animal_Land_Pattern_Small,32.18458295799792,33.4396190000698,2.0,Object_Land_Solid_Large,1.0,,,,,,,,,,,
encoding,image,9,3789578,3790589,3789809.0,3790022.0,214.0,214.0,1884.8,1120.0,1920.0,1080.0,fixation,33.439758291933686,34.45094804209657,2.0,Object_Land_Solid_Large,1.0,,,,,,,,,,,
encoding,image,9,3789578,3790589,3790065.0,3790409.0,345.0,345.0,2215.7,929.5,2249.0,1269.0,Object_Land_Solid_Large,33.439758291933686,34.45094804209657,2.0,Object_Land_Solid_Large,1.0,,,,,,,,,,,
encoding,image,9,3789578,3790589,3790420.0,3790808.0,389.0,169.0,2146.1,905.0,2249.0,1269.0,Object_Land_Solid_Large,33.439758291933686,34.45094804209657,2.0,Object_Land_Solid_Large,1.0,,,,,,,,,,,
encoding,value,9,3790589,3796604,3790825.0,3791093.0,269.0,269.0,2191.4,816.2,2249.0,1269.0,Object_Land_Solid_Large,34.45108437514864,40.465552458073944,2.0,Object_Land_Solid_Large,1.0,,,,,,,,,,,
encoding,value,9,3790589,3796604,3791136.0,3791460.0,325.0,325.0,1872.5,1134.8,1591.0,891.0,Object_Sea_Solid_Large,34.45108437514864,40.465552458073944,2.0,Object_Land_Solid_Large,1.0,,,,,,,,,,,
encoding,value,9,3790589,3796604,3791472.0,3791670.0,199.0,199.0,1871.3,1098.0,1920.0,1080.0,fixation,34.45108437514864,40.465552458073944,2.0,Object_Land_Solid_Large,1.0,,,,,,,,,,,
encoding,value,9,3790589,3796604,3791712.0,3792202.0,491.0,491.0,2226.4,833.2,2249.0,1269.0,Object_Land_Solid_Large,34.45108437514864,40.465552458073944,2.0,Object_Land_Solid_Large,1.0,,,,,,,,,,,
encoding,value,9,3790589,3796604,3792226.0,3792499.0,274.0,274.0,2200.2,909.8,2249.0,1269.0,Object_Land_Solid_Large,34.45108437514864,40.465552458073944,2.0,Object_Land_Solid_Large,1.0,,,,,,,,,,,
encoding,value,9,3790589,3796604,3792517.0,3793107.0,591.0,591.0,2215.4,817.5,2249.0,1269.0,Object_Land_Solid_Large,34.45108437514864,40.465552458073944,2.0,Object_Land_Solid_Large,1.0,,,,,,,,,,,
encoding,value,9,3790589,3796604,3793127.0,3793571.0,445.0,445.0,2162.2,885.2,2249.0,1269.0,Object_Land_Solid_Large,34.45108437514864,40.465552458073944,2.0,Object_Land_Solid_Large,1.0,,,,,,,,,,,
encoding,value,9,3790589,3796604,3793579.0,3794008.0,430.0,430.0,2183.2,929.0,2249.0,1269.0,Object_Land_Solid_Large,34.45108437514864,40.465552458073944,2.0,Object_Land_Solid_Large,1.0,,,,,,,,,,,
encoding,value,9,3790589,3796604,3794022.0,3794356.0,335.0,335.0,2119.3,938.5999999999999,2249.0,1269.0,Object_Land_Solid_Large,34.45108437514864,40.465552458073944,2.0,Object_Land_Solid_Large,1.0,,,,,,,,,,,
encoding,value,9,3790589,3796604,3794367.0,3794926.0,560.0,560.0,2168.3,927.2,2249.0,1269.0,Object_Land_Solid_Large,34.45108437514864,40.465552458073944,2.0,Object_Land_Solid_Large,1.0,,,,,,,,,,,
encoding,value,9,3790589,3796604,3794941.0,3795563.0,623.0,623.0,2216.7,847.2,2249.0,1269.0,Object_Land_Solid_Large,34.45108437514864,40.465552458073944,2.0,Object_Land_Solid_Large,1.0,,,,,,,,,,,
encoding,value,9,3790589,3796604,3795577.0,3796151.0,575.0,575.0,2188.3,892.2,2249.0,1269.0,Object_Land_Solid_Large,34.45108437514864,40.465552458073944,2.0,Object_Land_Solid_Large,1.0,,,,,,,,,,,
encoding,value,9,3790589,3796604,3796160.0,3797337.0,1178.0,444.0,2194.1,832.4000000000001,2249.0,1269.0,Object_Land_Solid_Large,34.45108437514864,40.465552458073944,2.0,Object_Land_Solid_Large,1.0,,,,,,,,,,,
encoding,attention,9,3796604,3799624,3797349.0,3797639.0,291.0,291.0,2220.8,795.3,2249.0,1269.0,Object_Land_Solid_Large,40.46567808301188,43.48557287501171,2.0,Object_Land_Solid_Large,1.0,1.0,1.0,1.2297470001503823,,,,,,,,
encoding,attention,9,3796604,3799624,3797652.0,3798090.0,439.0,439.0,2165.1,813.4000000000001,2249.0,1269.0,Object_Land_Solid_Large,40.46567808301188,43.48557287501171,2.0,Object_Land_Solid_Large,1.0,1.0,1.0,1.2297470001503823,,,,,,,,
encoding,attention,9,3796604,3799624,3798306.0,3798490.0,185.0,185.0,2168.7,941.3,2249.0,1269.0,Object_Land_Solid_Large,40.46567808301188,43.48557287501171,2.0,Object_Land_Solid_Large,1.0,1.0,1.0,1.2297470001503823,,,,,,,,
encoding,attention,9,3796604,3799624,3798504.0,3798713.0,210.0,210.0,2216.1,868.5999999999999,2249.0,1269.0,Object_Land_Solid_Large,40.46567808301188,43.48557287501171,2.0,Object_Land_Solid_Large,1.0,1.0,1.0,1.2297470001503823,,,,,,,,
encoding,attention,9,3796604,3799624,3798741.0,3799065.0,325.0,325.0,1911.6,1021.3,1920.0,1080.0,fixation,40.46567808301188,43.48557287501171,2.0,Object_Land_Solid_Large,1.0,1.0,1.0,1.2297470001503823,,,,,,,,
encoding,fixation,10,3799624,3801130,3800592.0,3801445.0,854.0,538.0,1862.1,1092.6,1920.0,1080.0,fixation,43.48572662496008,44.99111649999395,2.0,Animal_Land_Pattern_Large,-3.0,,,,,,,,,,,
encoding,image,10,3801130,3802141,3801488.0,3801695.0,208.0,208.0,1875.4,1486.5,1920.0,700.0,Animal_Land_Pattern_Large,44.99123637494631,46.002133999951184,2.0,Animal_Land_Pattern_Large,-3.0,,,,,,,,,,,
encoding,image,10,3801130,3802141,3801702.0,3802234.0,533.0,439.0,1845.3,1482.7,1920.0,700.0,Animal_Land_Pattern_Large,44.99123637494631,46.002133999951184,2.0,Animal_Land_Pattern_Large,-3.0,,,,,,,,,,,
encoding,value,10,3802141,3808155,3802243.0,3802686.0,444.0,444.0,1889.6,1457.3,1920.0,700.0,Animal_Land_Pattern_Large,46.0022389581427,52.01585820806213,2.0,Animal_Land_Pattern_Large,-3.0,,,,,,,,,,,
encoding,value,10,3802141,3808155,3802704.0,3803506.0,803.0,803.0,1897.6,1375.8,1920.0,700.0,Animal_Land_Pattern_Large,46.0022389581427,52.01585820806213,2.0,Animal_Land_Pattern_Large,-3.0,,,,,,,,,,,
encoding,value,10,3802141,3808155,3803701.0,3803745.0,45.0,45.0,1885.8,1421.3,1920.0,700.0,Animal_Land_Pattern_Large,46.0022389581427,52.01585820806213,2.0,Animal_Land_Pattern_Large,-3.0,,,,,,,,,,,
encoding,value,10,3802141,3808155,3803755.0,3807618.0,3864.0,3864.0,1886.8,1373.4,1920.0,700.0,Animal_Land_Pattern_Large,46.0022389581427,52.01585820806213,2.0,Animal_Land_Pattern_Large,-3.0,,,,,,,,,,,
encoding,value,10,3802141,3808155,3807847.0,3809088.0,1242.0,308.0,1858.6,1383.9,1920.0,700.0,Animal_Land_Pattern_Large,46.0022389581427,52.01585820806213,2.0,Animal_Land_Pattern_Large,-3.0,,,,,,,,,,,
encoding,attention,10,3808155,3811167,3809104.0,3809511.0,408.0,408.0,1867.7,1467.5,1920.0,700.0,Animal_Land_Pattern_Large,52.015973708126694,55.02810470806435,2.0,Animal_Land_Pattern_Large,-3.0,,,,,,,,,,,
encoding,attention,10,3808155,3811167,3809528.0,3809802.0,275.0,275.0,1843.7,1405.3,1920.0,700.0,Animal_Land_Pattern_Large,52.015973708126694,55.02810470806435,2.0,Animal_Land_Pattern_Large,-3.0,,,,,,,,,,,
encoding,attention,10,3808155,3811167,3809818.0,3810083.0,266.0,266.0,1877.4,1503.4,1920.0,700.0,Animal_Land_Pattern_Large,52.015973708126694,55.02810470806435,2.0,Animal_Land_Pattern_Large,-3.0,,,,,,,,,,,
encoding,attention,10,3808155,3811167,3810090.0,3810501.0,412.0,412.0,1847.4,1494.8,1920.0,700.0,Animal_Land_Pattern_Large,52.015973708126694,55.02810470806435,2.0,Animal_Land_Pattern_Large,-3.0,,,,,,,,,,,
encoding,fixation,11,3811167,3811672,3811242.0,3811492.0,251.0,251.0,1922.7,1387.5,1920.0,700.0,Animal_Land_Pattern_Large,55.02824887493625,55.53336574998684,2.0,Animal_Sea_Pattern_Small,8.0,,,,,,,,,,,
encoding,fixation,11,3811167,3811672,3811522.0,3812070.0,549.0,150.0,1855.5,1103.1,1920.0,1080.0,fixation,55.02824887493625,55.53336574998684,2.0,Animal_Sea_Pattern_Small,8.0,,,,,,,,,,,
encoding,image,11,3811672,3812685,3812109.0,3812386.0,278.0,278.0,1859.6,739.5999999999999,1920.0,1460.0,Animal_Sea_Pattern_Small,55.53347458294593,56.54554254212417,2.0,Animal_Sea_Pattern_Small,8.0,,,,,,,,,,,
encoding,image,11,3811672,3812685,3812394.0,3812760.0,367.0,291.0,1880.8,725.0,1920.0,1460.0,Animal_Sea_Pattern_Small,55.53347458294593,56.54554254212417,2.0,Animal_Sea_Pattern_Small,8.0,,,,,,,,,,,
encoding,value,11,3812685,3818697,3812767.0,3813128.0,362.0,362.0,1828.1,706.3,1920.0,1460.0,Animal_Sea_Pattern_Small,56.545708999969065,62.5576657501515,2.0,Animal_Sea_Pattern_Small,8.0,,,,,,,,,,,
encoding,value,11,3812685,3818697,3813143.0,3813427.0,285.0,285.0,1847.3,609.5999999999999,1920.0,1460.0,Animal_Sea_Pattern_Small,56.545708999969065,62.5576657501515,2.0,Animal_Sea_Pattern_Small,8.0,,,,,,,,,,,
encoding,value,11,3812685,3818697,3813446.0,3813796.0,351.0,351.0,1838.2,718.9000000000001,1920.0,1460.0,Animal_Sea_Pattern_Small,56.545708999969065,62.5576657501515,2.0,Animal_Sea_Pattern_Small,8.0,,,,,,,,,,,
encoding,value,11,3812685,3818697,3813809.0,3814258.0,450.0,450.0,1846.9,683.5,1920.0,1460.0,Animal_Sea_Pattern_Small,56.545708999969065,62.5576657501515,2.0,Animal_Sea_Pattern_Small,8.0,,,,,,,,,,,
encoding,value,11,3812685,3818697,3814443.0,3814487.0,45.0,45.0,1841.4,760.0,1920.0,1460.0,Animal_Sea_Pattern_Small,56.545708999969065,62.5576657501515,2.0,Animal_Sea_Pattern_Small,8.0,,,,,,,,,,,
encoding,value,11,3812685,3818697,3814504.0,3815106.0,603.0,603.0,1865.6,717.0,1920.0,1460.0,Animal_Sea_Pattern_Small,56.545708999969065,62.5576657501515,2.0,Animal_Sea_Pattern_Small,8.0,,,,,,,,,,,
encoding,value,11,3812685,3818697,3815126.0,3815541.0,416.0,416.0,1891.6,743.3,1920.0,1460.0,Animal_Sea_Pattern_Small,56.545708999969065,62.5576657501515,2.0,Animal_Sea_Pattern_Small,8.0,,,,,,,,,,,
encoding,value,11,3812685,3818697,3815548.0,3815892.0,345.0,345.0,1860.8,736.0,1920.0,1460.0,Animal_Sea_Pattern_Small,56.545708999969065,62.5576657501515,2.0,Animal_Sea_Pattern_Small,8.0,,,,,,,,,,,
encoding,value,11,3812685,3818697,3815909.0,3816227.0,319.0,319.0,1895.9,733.7,1920.0,1460.0,Animal_Sea_Pattern_Small,56.545708999969065,62.5576657501515,2.0,Animal_Sea_Pattern_Small,8.0,,,,,,,,,,,
encoding,value,11,3812685,3818697,3816243.0,3818972.0,2730.0,2454.0,1881.8,732.0,1920.0,1460.0,Animal_Sea_Pattern_Small,56.545708999969065,62.5576657501515,2.0,Animal_Sea_Pattern_Small,8.0,,,,,,,,,,,
encoding,attention,11,3818697,3821718,3818989.0,3819231.0,243.0,243.0,1839.7,652.2,1920.0,1460.0,Animal_Sea_Pattern_Small,62.557785333134234,65.57867812504992,2.0,Animal_Sea_Pattern_Small,8.0,8.0,1.0,1.1539969169534745,,,,,,,,
encoding,attention,11,3818697,3821718,3819245.0,3819888.0,644.0,644.0,1918.4,646.5999999999999,1920.0,1460.0,Animal_Sea_Pattern_Small,62.557785333134234,65.57867812504992,2.0,Animal_Sea_Pattern_Small,8.0,8.0,1.0,1.1539969169534745,,,,,,,,
encoding,attention,11,3818697,3821718,3819916.0,3820405.0,490.0,490.0,1856.1,761.9000000000001,1920.0,1460.0,Animal_Sea_Pattern_Small,62.557785333134234,65.57867812504992,2.0,Animal_Sea_Pattern_Small,8.0,8.0,1.0,1.1539969169534745,,,,,,,,
encoding,attention,11,3818697,3821718,3820414.0,3820677.0,264.0,264.0,1887.9,705.7,1920.0,1460.0,Animal_Sea_Pattern_Small,62.557785333134234,65.57867812504992,2.0,Animal_Sea_Pattern_Small,8.0,8.0,1.0,1.1539969169534745,,,,,,,,
encoding,attention,11,3818697,3821718,3820684.0,3821029.0,346.0,346.0,1882.4,744.0999999999999,1920.0,1460.0,Animal_Sea_Pattern_Small,62.557785333134234,65.57867812504992,2.0,Animal_Sea_Pattern_Small,8.0,8.0,1.0,1.1539969169534745,,,,,,,,
encoding,fixation,12,3821718,3822973,3822101.0,3822315.0,215.0,215.0,1869.2,1162.8,1591.0,891.0,Object_Sea_Solid_Large,65.57882841699757,66.83392616710626,2.0,Object_Sea_Solid_Small,-8.0,,,,,,,,,,,
encoding,fixation,12,3821718,3822973,3822340.0,3822576.0,237.0,237.0,1870.3,1055.6,1920.0,1080.0,fixation,65.57882841699757,66.83392616710626,2.0,Object_Sea_Solid_Small,-8.0,,,,,,,,,,,
encoding,fixation,12,3821718,3822973,3822767.0,3823300.0,534.0,206.0,1877.1,839.9000000000001,1920.0,1460.0,Animal_Sea_Pattern_Small,65.57882841699757,66.83392616710626,2.0,Object_Sea_Solid_Small,-8.0,,,,,,,,,,,
encoding,image,12,3822973,3823984,3823355.0,3823985.0,631.0,629.0,2177.0,1292.9,2249.0,891.0,Object_Sea_Solid_Small,66.83402704214677,67.84452566714026,2.0,Object_Sea_Solid_Small,-8.0,,,,,,,,,,,
encoding,value,12,3823984,3829995,3823996.0,3824321.0,326.0,326.0,2163.9,1263.2,2249.0,891.0,Object_Sea_Solid_Small,67.84463308309205,73.85537462495267,2.0,Object_Sea_Solid_Small,-8.0,,,,,,,,,,,
encoding,value,12,3823984,3829995,3824339.0,3824662.0,324.0,324.0,2201.1,1233.0,2249.0,891.0,Object_Sea_Solid_Small,67.84463308309205,73.85537462495267,2.0,Object_Sea_Solid_Small,-8.0,,,,,,,,,,,
encoding,value,12,3823984,3829995,3824683.0,3824925.0,243.0,243.0,2186.1,1316.4,2249.0,891.0,Object_Sea_Solid_Small,67.84463308309205,73.85537462495267,2.0,Object_Sea_Solid_Small,-8.0,,,,,,,,,,,
encoding,value,12,3823984,3829995,3824945.0,3825498.0,554.0,554.0,2186.4,1218.0,2249.0,891.0,Object_Sea_Solid_Small,67.84463308309205,73.85537462495267,2.0,Object_Sea_Solid_Small,-8.0,,,,,,,,,,,
encoding,value,12,3823984,3829995,3825518.0,3826135.0,618.0,618.0,2185.2,1328.3,2249.0,891.0,Object_Sea_Solid_Small,67.84463308309205,73.85537462495267,2.0,Object_Sea_Solid_Small,-8.0,,,,,,,,,,,
encoding,value,12,3823984,3829995,3826155.0,3827160.0,1006.0,1006.0,2190.6,1215.9,2249.0,891.0,Object_Sea_Solid_Small,67.84463308309205,73.85537462495267,2.0,Object_Sea_Solid_Small,-8.0,,,,,,,,,,,
encoding,value,12,3823984,3829995,3827343.0,3828504.0,1162.0,1162.0,2196.3,1230.9,2249.0,891.0,Object_Sea_Solid_Small,67.84463308309205,73.85537462495267,2.0,Object_Sea_Solid_Small,-8.0,,,,,,,,,,,
encoding,value,12,3823984,3829995,3828514.0,3828793.0,280.0,280.0,2162.8,1218.2,2249.0,891.0,Object_Sea_Solid_Small,67.84463308309205,73.85537462495267,2.0,Object_Sea_Solid_Small,-8.0,,,,,,,,,,,
encoding,value,12,3823984,3829995,3828804.0,3830945.0,2142.0,1191.0,2210.7,1220.1,2249.0,891.0,Object_Sea_Solid_Small,67.84463308309205,73.85537462495267,2.0,Object_Sea_Solid_Small,-8.0,,,,,,,,,,,
encoding,attention,12,3829995,3833011,3830963.0,3831489.0,527.0,527.0,2150.8,1227.1,2249.0,891.0,Object_Sea_Solid_Small,73.85551004204899,76.87168308300897,2.0,Object_Sea_Solid_Small,-8.0,-8.0,1.0,1.1702500418759882,,,,,,,,
encoding,attention,12,3829995,3833011,3831673.0,3832297.0,625.0,625.0,2222.3,1297.5,2249.0,891.0,Object_Sea_Solid_Small,73.85551004204899,76.87168308300897,2.0,Object_Sea_Solid_Small,-8.0,-8.0,1.0,1.1702500418759882,,,,,,,,
encoding,attention,12,3829995,3833011,3832316.0,3832707.0,392.0,392.0,2168.1,1187.3,2249.0,891.0,Object_Sea_Solid_Small,73.85551004204899,76.87168308300897,2.0,Object_Sea_Solid_Small,-8.0,-8.0,1.0,1.1702500418759882,,,,,,,,
encoding,attention,12,3829995,3833011,3832729.0,3832938.0,210.0,210.0,1958.2,1167.6,1920.0,700.0,Animal_Land_Pattern_Large,73.85551004204899,76.87168308300897,2.0,Object_Sea_Solid_Small,-8.0,-8.0,1.0,1.1702500418759882,,,,,,,,
encoding,fixation,13,4152173,4153428,4152412.0,4152583.0,172.0,172.0,1916.7,1140.0,1920.0,1080.0,fixation,7.763529916061088,9.018993249861524,3.0,Animal_Land_Solid_Large,3.0,,,,,,,,,,,
encoding,fixation,13,4152173,4153428,4152591.0,4152766.0,176.0,176.0,1925.4,1093.3,1920.0,1080.0,fixation,7.763529916061088,9.018993249861524,3.0,Animal_Land_Solid_Large,3.0,,,,,,,,,,,
encoding,fixation,13,4152173,4153428,4152986.0,4153629.0,644.0,442.0,1899.6,1094.9,1920.0,1080.0,fixation,7.763529916061088,9.018993249861524,3.0,Animal_Land_Solid_Large,3.0,,,,,,,,,,,
encoding,image,13,4153428,4154442,4153674.0,4153789.0,116.0,116.0,1921.5,587.4000000000001,1920.0,1460.0,Animal_Land_Solid_Large,9.019093957962468,10.032369915861636,3.0,Animal_Land_Solid_Large,3.0,,,,,,,,,,,
encoding,image,13,4153428,4154442,4153806.0,4154756.0,951.0,636.0,1926.0,685.5999999999999,1920.0,1460.0,Animal_Land_Solid_Large,9.019093957962468,10.032369915861636,3.0,Animal_Land_Solid_Large,3.0,,,,,,,,,,,
encoding,value,13,4154442,4160456,4154771.0,4155305.0,535.0,535.0,1912.4,625.4000000000001,1920.0,1460.0,Animal_Land_Solid_Large,10.032486290903762,16.046278208028525,3.0,Animal_Land_Solid_Large,3.0,,,,,,,,,,,
encoding,value,13,4154442,4160456,4155324.0,4156925.0,1602.0,1602.0,1940.4,727.2,1920.0,1460.0,Animal_Land_Solid_Large,10.032486290903762,16.046278208028525,3.0,Animal_Land_Solid_Large,3.0,,,,,,,,,,,
encoding,value,13,4154442,4160456,4156943.0,4157267.0,325.0,325.0,1892.2,627.2,1920.0,1460.0,Animal_Land_Solid_Large,10.032486290903762,16.046278208028525,3.0,Animal_Land_Solid_Large,3.0,,,,,,,,,,,
encoding,value,13,4154442,4160456,4157480.0,4157550.0,71.0,71.0,1900.3,732.0999999999999,1920.0,1460.0,Animal_Land_Solid_Large,10.032486290903762,16.046278208028525,3.0,Animal_Land_Solid_Large,3.0,,,,,,,,,,,
encoding,value,13,4154442,4160456,4157562.0,4157789.0,228.0,228.0,1910.0,694.2,1920.0,1460.0,Animal_Land_Solid_Large,10.032486290903762,16.046278208028525,3.0,Animal_Land_Solid_Large,3.0,,,,,,,,,,,
encoding,value,13,4154442,4160456,4158044.0,4158097.0,54.0,54.0,1882.1,671.5999999999999,1920.0,1460.0,Animal_Land_Solid_Large,10.032486290903762,16.046278208028525,3.0,Animal_Land_Solid_Large,3.0,,,,,,,,,,,
encoding,value,13,4154442,4160456,4158107.0,4158493.0,387.0,387.0,1903.0,638.4000000000001,1920.0,1460.0,Animal_Land_Solid_Large,10.032486290903762,16.046278208028525,3.0,Animal_Land_Solid_Large,3.0,,,,,,,,,,,
encoding,value,13,4154442,4160456,4158515.0,4158898.0,384.0,384.0,1919.1,757.7,1920.0,1460.0,Animal_Land_Solid_Large,10.032486290903762,16.046278208028525,3.0,Animal_Land_Solid_Large,3.0,,,,,,,,,,,
encoding,value,13,4154442,4160456,4158905.0,4159347.0,443.0,443.0,1932.5,730.0,1920.0,1460.0,Animal_Land_Solid_Large,10.032486290903762,16.046278208028525,3.0,Animal_Land_Solid_Large,3.0,,,,,,,,,,,
encoding,value,13,4154442,4160456,4159356.0,4160505.0,1150.0,1100.0,1914.8,672.9000000000001,1920.0,1460.0,Animal_Land_Solid_Large,10.032486290903762,16.046278208028525,3.0,Animal_Land_Solid_Large,3.0,,,,,,,,,,,
encoding,attention,13,4160456,4163475,4160526.0,4160760.0,235.0,235.0,1929.1,752.9000000000001,1920.0,1460.0,Animal_Land_Solid_Large,16.046420415863395,19.06520341592841,3.0,Animal_Land_Solid_Large,3.0,3.0,1.0,0.9280154169537128,,,,,,,,
encoding,attention,13,4160456,4163475,4160779.0,4160938.0,160.0,160.0,1921.7,654.7,1920.0,1460.0,Animal_Land_Solid_Large,16.046420415863395,19.06520341592841,3.0,Animal_Land_Solid_Large,3.0,3.0,1.0,0.9280154169537128,,,,,,,,
encoding,attention,13,4160456,4163475,4161146.0,4161217.0,72.0,72.0,1903.7,778.5999999999999,1920.0,1460.0,Animal_Land_Solid_Large,16.046420415863395,19.06520341592841,3.0,Animal_Land_Solid_Large,3.0,3.0,1.0,0.9280154169537128,,,,,,,,
encoding,attention,13,4160456,4163475,4161226.0,4162068.0,843.0,843.0,1915.8,739.9000000000001,1920.0,1460.0,Animal_Land_Solid_Large,16.046420415863395,19.06520341592841,3.0,Animal_Land_Solid_Large,3.0,3.0,1.0,0.9280154169537128,,,,,,,,
encoding,attention,13,4160456,4163475,4162092.0,4162429.0,338.0,338.0,1925.0,870.0999999999999,1920.0,1460.0,Animal_Land_Solid_Large,16.046420415863395,19.06520341592841,3.0,Animal_Land_Solid_Large,3.0,3.0,1.0,0.9280154169537128,,,,,,,,
encoding,attention,13,4160456,4163475,4162451.0,4162869.0,419.0,419.0,1919.9,744.3,1920.0,1460.0,Animal_Land_Solid_Large,16.046420415863395,19.06520341592841,3.0,Animal_Land_Solid_Large,3.0,3.0,1.0,0.9280154169537128,,,,,,,,
encoding,attention,13,4160456,4163475,4162882.0,4163088.0,207.0,207.0,1907.8,689.7,1920.0,1460.0,Animal_Land_Solid_Large,16.046420415863395,19.06520341592841,3.0,Animal_Land_Solid_Large,3.0,3.0,1.0,0.9280154169537128,,,,,,,,
encoding,attention,13,4160456,4163475,4163101.0,4163451.0,351.0,351.0,1909.9,740.4000000000001,1920.0,1460.0,Animal_Land_Solid_Large,16.046420415863395,19.06520341592841,3.0,Animal_Land_Solid_Large,3.0,3.0,1.0,0.9280154169537128,,,,,,,,
encoding,fixation,14,4163475,4164731,4163685.0,4163866.0,182.0,182.0,1889.8,1081.6,1920.0,1080.0,fixation,19.06534579093568,20.320791540900245,3.0,Object_Land_Pattern_Small,-7.0,,,,,,,,,,,
encoding,fixation,14,4163475,4164731,4164078.0,4164118.0,41.0,41.0,1871.7,1134.3,1591.0,891.0,Object_Sea_Pattern_Small,19.06534579093568,20.320791540900245,3.0,Object_Land_Pattern_Small,-7.0,,,,,,,,,,,
encoding,fixation,14,4163475,4164731,4164124.0,4164258.0,135.0,135.0,1900.9,1131.2,1920.0,1080.0,fixation,19.06534579093568,20.320791540900245,3.0,Object_Land_Pattern_Small,-7.0,,,,,,,,,,,
encoding,fixation,14,4163475,4164731,4164269.0,4164978.0,710.0,462.0,1900.8,1076.9,1920.0,1080.0,fixation,19.06534579093568,20.320791540900245,3.0,Object_Land_Pattern_Small,-7.0,,,,,,,,,,,
encoding,image,14,4164731,4165743,4165017.0,4165346.0,330.0,330.0,2208.5,1260.9,2249.0,891.0,Object_Land_Pattern_Small,20.32090766588226,21.333130832994357,3.0,Object_Land_Pattern_Small,-7.0,,,,,,,,,,,
encoding,image,14,4164731,4165743,4165361.0,4165690.0,330.0,330.0,2213.6,1323.8,2249.0,891.0,Object_Land_Pattern_Small,20.32090766588226,21.333130832994357,3.0,Object_Land_Pattern_Small,-7.0,,,,,,,,,,,
encoding,image,14,4164731,4165743,4165705.0,4165965.0,261.0,38.0,2205.2,1277.6,2249.0,891.0,Object_Land_Pattern_Small,20.32090766588226,21.333130832994357,3.0,Object_Land_Pattern_Small,-7.0,,,,,,,,,,,
encoding,value,14,4165743,4171756,4165983.0,4166810.0,828.0,828.0,2224.1,1195.0,2249.0,891.0,Object_Land_Pattern_Small,21.3332712079864,27.34628895786591,3.0,Object_Land_Pattern_Small,-7.0,,,,,,,,,,,
encoding,value,14,4165743,4171756,4167015.0,4167679.0,665.0,665.0,2223.5,1195.5,2249.0,891.0,Object_Land_Pattern_Small,21.3332712079864,27.34628895786591,3.0,Object_Land_Pattern_Small,-7.0,,,,,,,,,,,
encoding,value,14,4165743,4171756,4167700.0,4167955.0,256.0,256.0,2227.7,1276.5,2249.0,891.0,Object_Land_Pattern_Small,21.3332712079864,27.34628895786591,3.0,Object_Land_Pattern_Small,-7.0,,,,,,,,,,,
encoding,value,14,4165743,4171756,4167971.0,4170115.0,2145.0,2145.0,2221.6,1206.0,2249.0,891.0,Object_Land_Pattern_Small,21.3332712079864,27.34628895786591,3.0,Object_Land_Pattern_Small,-7.0,,,,,,,,,,,
encoding,value,14,4165743,4171756,4170130.0,4170664.0,535.0,535.0,2235.2,1282.2,2249.0,891.0,Object_Land_Pattern_Small,21.3332712079864,27.34628895786591,3.0,Object_Land_Pattern_Small,-7.0,,,,,,,,,,,
encoding,value,14,4165743,4171756,4170852.0,4172328.0,1477.0,904.0,2228.3,1227.8,2249.0,891.0,Object_Land_Pattern_Small,21.3332712079864,27.34628895786591,3.0,Object_Land_Pattern_Small,-7.0,,,,,,,,,,,
encoding,attention,14,4171756,4174776,4172340.0,4173720.0,1381.0,1381.0,2264.4,1206.9,2249.0,891.0,Object_Land_Pattern_Small,27.34641212504357,30.36565045802854,3.0,Object_Land_Pattern_Small,-7.0,-7.0,1.0,1.2688638328108937,,,,,,,,
encoding,attention,14,4171756,4174776,4173736.0,4173926.0,191.0,191.0,2190.4,1205.7,2249.0,891.0,Object_Land_Pattern_Small,27.34641212504357,30.36565045802854,3.0,Object_Land_Pattern_Small,-7.0,-7.0,1.0,1.2688638328108937,,,,,,,,
encoding,attention,14,4171756,4174776,4174122.0,4174751.0,630.0,630.0,2227.1,1264.9,2249.0,891.0,Object_Land_Pattern_Small,27.34641212504357,30.36565045802854,3.0,Object_Land_Pattern_Small,-7.0,-7.0,1.0,1.2688638328108937,,,,,,,,
encoding,fixation,15,4174776,4175782,4175096.0,4176117.0,1022.0,686.0,1901.8,1102.3,1920.0,1080.0,fixation,30.365814415970817,31.37138770800084,3.0,Animal_Sea_Solid_Large,-7.0,,,,,,,,,,,
encoding,image,15,4175782,4176793,4176158.0,4176479.0,322.0,322.0,2218.3,907.9000000000001,2249.0,1269.0,Animal_Sea_Solid_Large,31.371513708028942,32.38254158291966,3.0,Animal_Sea_Solid_Large,-7.0,,,,,,,,,,,
encoding,image,15,4175782,4176793,4176492.0,4176632.0,141.0,141.0,2235.1,944.5999999999999,2249.0,1269.0,Animal_Sea_Solid_Large,31.371513708028942,32.38254158291966,3.0,Animal_Sea_Solid_Large,-7.0,,,,,,,,,,,
encoding,value,15,4176793,4182804,4176832.0,4176999.0,168.0,168.0,2222.7,950.9000000000001,2249.0,1269.0,Animal_Sea_Solid_Large,32.382657582871616,38.3937902499456,3.0,Animal_Sea_Solid_Large,-7.0,,,,,,,,,,,
encoding,value,15,4176793,4182804,4177022.0,4177400.0,379.0,379.0,2233.6,773.2,2249.0,1269.0,Animal_Sea_Solid_Large,32.382657582871616,38.3937902499456,3.0,Animal_Sea_Solid_Large,-7.0,,,,,,,,,,,
encoding,value,15,4176793,4182804,4177436.0,4177713.0,278.0,278.0,2230.0,965.8,2249.0,1269.0,Animal_Sea_Solid_Large,32.382657582871616,38.3937902499456,3.0,Animal_Sea_Solid_Large,-7.0,,,,,,,,,,,
encoding,value,15,4176793,4182804,4177722.0,4178210.0,489.0,489.0,2239.6,954.5,2249.0,1269.0,Animal_Sea_Solid_Large,32.382657582871616,38.3937902499456,3.0,Animal_Sea_Solid_Large,-7.0,,,,,,,,,,,
encoding,value,15,4176793,4182804,4178221.0,4178522.0,302.0,302.0,2190.8,964.3,2249.0,1269.0,Animal_Sea_Solid_Large,32.382657582871616,38.3937902499456,3.0,Animal_Sea_Solid_Large,-7.0,,,,,,,,,,,
encoding,value,15,4176793,4182804,4178538.0,4180570.0,2033.0,2033.0,2242.6,920.8,2249.0,1269.0,Animal_Sea_Solid_Large,32.382657582871616,38.3937902499456,3.0,Animal_Sea_Solid_Large,-7.0,,,,,,,,,,,
encoding,value,15,4176793,4182804,4180587.0,4181742.0,1156.0,1156.0,2236.1,832.0,2249.0,1269.0,Animal_Sea_Solid_Large,32.382657582871616,38.3937902499456,3.0,Animal_Sea_Solid_Large,-7.0,,,,,,,,,,,
encoding,value,15,4176793,4182804,4181765.0,4182167.0,403.0,403.0,2240.5,929.7,2249.0,1269.0,Animal_Sea_Solid_Large,32.382657582871616,38.3937902499456,3.0,Animal_Sea_Solid_Large,-7.0,,,,,,,,,,,
encoding,value,15,4176793,4182804,4182389.0,4183138.0,750.0,415.0,2222.0,947.2,2249.0,1269.0,Animal_Sea_Solid_Large,32.382657582871616,38.3937902499456,3.0,Animal_Sea_Solid_Large,-7.0,,,,,,,,,,,
encoding,attention,15,4182805,4185827,4183156.0,4183516.0,361.0,361.0,2253.3,824.8,2249.0,1269.0,Animal_Sea_Solid_Large,38.3939157910645,41.41603266587481,3.0,Animal_Sea_Solid_Large,-7.0,-7.0,1.0,1.23255354212597,,,,,,,,
encoding,attention,15,4182805,4185827,4183536.0,4183837.0,302.0,302.0,2234.6,917.2,2249.0,1269.0,Animal_Sea_Solid_Large,38.3939157910645,41.41603266587481,3.0,Animal_Sea_Solid_Large,-7.0,-7.0,1.0,1.23255354212597,,,,,,,,
encoding,attention,15,4182805,4185827,4183855.0,4184348.0,494.0,494.0,2271.3,827.4000000000001,2249.0,1269.0,Animal_Sea_Solid_Large,38.3939157910645,41.41603266587481,3.0,Animal_Sea_Solid_Large,-7.0,-7.0,1.0,1.23255354212597,,,,,,,,
encoding,fixation,16,4185827,4186332,4186110.0,4186277.0,168.0,168.0,1939.3,1111.8,1920.0,1080.0,fixation,41.41618458298035,41.92139841592871,3.0,Animal_Sea_Solid_Small,5.0,,,,,,,,,,,
encoding,image,16,4186332,4187343,4186509.0,4186598.0,90.0,90.0,1904.6,1166.0,1920.0,700.0,Animal_Sea_Solid_Small,41.92151812487282,42.93262195796706,3.0,Animal_Sea_Solid_Small,5.0,,,,,,,,,,,
encoding,image,16,4186332,4187343,4186606.0,4186763.0,158.0,158.0,1913.3,1126.1,1920.0,1080.0,fixation,41.92151812487282,42.93262195796706,3.0,Animal_Sea_Solid_Small,5.0,,,,,,,,,,,
encoding,image,16,4186332,4187343,4186812.0,4188116.0,1305.0,531.0,1918.3,1439.7,1920.0,700.0,Animal_Sea_Solid_Small,41.92151812487282,42.93262195796706,3.0,Animal_Sea_Solid_Small,5.0,,,,,,,,,,,
encoding,value,16,4187344,4193356,4188132.0,4188558.0,427.0,427.0,1890.5,1471.5,1920.0,700.0,Animal_Sea_Solid_Small,42.93278658296913,48.94503975007683,3.0,Animal_Sea_Solid_Small,5.0,,,,,,,,,,,
encoding,value,16,4187344,4193356,4188575.0,4193048.0,4474.0,4474.0,1904.0,1373.1,1920.0,700.0,Animal_Sea_Solid_Small,42.93278658296913,48.94503975007683,3.0,Animal_Sea_Solid_Small,5.0,,,,,,,,,,,
encoding,value,16,4187344,4193356,4193256.0,4193648.0,393.0,100.0,1897.0,1377.1,1920.0,700.0,Animal_Sea_Solid_Small,42.93278658296913,48.94503975007683,3.0,Animal_Sea_Solid_Small,5.0,,,,,,,,,,,
encoding,attention,16,4193356,4196370,4193657.0,4194256.0,600.0,600.0,1855.2,1376.3,1920.0,700.0,Animal_Sea_Solid_Small,48.94515037490055,51.95887858304195,3.0,Animal_Sea_Solid_Small,5.0,,,,,,,,,,,
encoding,attention,16,4193356,4196370,4194276.0,4195293.0,1018.0,1018.0,1905.0,1426.4,1920.0,700.0,Animal_Sea_Solid_Small,48.94515037490055,51.95887858304195,3.0,Animal_Sea_Solid_Small,5.0,,,,,,,,,,,
encoding,attention,16,4193356,4196370,4195307.0,4195902.0,596.0,596.0,1854.5,1383.3,1920.0,700.0,Animal_Sea_Solid_Small,48.94515037490055,51.95887858304195,3.0,Animal_Sea_Solid_Small,5.0,,,,,,,,,,,
encoding,attention,16,4193356,4196370,4195922.0,4196227.0,306.0,306.0,1905.1,1481.4,1920.0,700.0,Animal_Sea_Solid_Small,48.94515037490055,51.95887858304195,3.0,Animal_Sea_Solid_Small,5.0,,,,,,,,,,,
encoding,fixation,17,4196370,4197126,4196661.0,4197113.0,453.0,453.0,1872.1,1122.0,1920.0,1080.0,fixation,51.95902062486857,52.714417041046545,3.0,Object_Sea_Pattern_Small,3.0,,,,,,,,,,,
encoding,image,17,4197126,4198137,4197246.0,4197383.0,138.0,138.0,1877.9,1099.8,1920.0,1080.0,fixation,52.71453704102896,53.72583458293229,3.0,Object_Sea_Pattern_Small,3.0,,,,,,,,,,,
encoding,image,17,4197126,4198137,4197419.0,4198197.0,779.0,718.0,1588.8,1252.2,1591.0,891.0,Object_Sea_Pattern_Small,52.71453704102896,53.72583458293229,3.0,Object_Sea_Pattern_Small,3.0,,,,,,,,,,,
encoding,value,17,4198137,4204149,4198208.0,4198411.0,204.0,204.0,1570.6,1272.4,1591.0,891.0,Object_Sea_Pattern_Small,53.725952208042145,59.737110750051215,3.0,Object_Sea_Pattern_Small,3.0,,,,,,,,,,,
encoding,value,17,4198137,4204149,4198432.0,4198715.0,284.0,284.0,1572.7,1183.8,1591.0,891.0,Object_Sea_Pattern_Small,53.725952208042145,59.737110750051215,3.0,Object_Sea_Pattern_Small,3.0,,,,,,,,,,,
encoding,value,17,4198137,4204149,4198733.0,4199734.0,1002.0,1002.0,1580.1,1256.9,1591.0,891.0,Object_Sea_Pattern_Small,53.725952208042145,59.737110750051215,3.0,Object_Sea_Pattern_Small,3.0,,,,,,,,,,,
encoding,value,17,4198137,4204149,4199746.0,4199977.0,232.0,232.0,1563.1,1199.3,1591.0,891.0,Object_Sea_Pattern_Small,53.725952208042145,59.737110750051215,3.0,Object_Sea_Pattern_Small,3.0,,,,,,,,,,,
encoding,value,17,4198137,4204149,4199999.0,4200237.0,239.0,239.0,1566.1,1279.6,1591.0,891.0,Object_Sea_Pattern_Small,53.725952208042145,59.737110750051215,3.0,Object_Sea_Pattern_Small,3.0,,,,,,,,,,,
encoding,value,17,4198137,4204149,4200253.0,4202082.0,1830.0,1830.0,1579.2,1213.1,1591.0,891.0,Object_Sea_Pattern_Small,53.725952208042145,59.737110750051215,3.0,Object_Sea_Pattern_Small,3.0,,,,,,,,,,,
encoding,value,17,4198137,4204149,4202095.0,4203329.0,1235.0,1235.0,1578.7,1199.2,1591.0,891.0,Object_Sea_Pattern_Small,53.725952208042145,59.737110750051215,3.0,Object_Sea_Pattern_Small,3.0,,,,,,,,,,,
encoding,value,17,4198137,4204149,4203338.0,4204664.0,1327.0,811.0,1562.8,1225.0,1591.0,891.0,Object_Sea_Pattern_Small,53.725952208042145,59.737110750051215,3.0,Object_Sea_Pattern_Small,3.0,,,,,,,,,,,
encoding,attention,17,4204149,4207167,4204679.0,4205370.0,692.0,692.0,1621.0,1210.6,1591.0,891.0,Object_Sea_Pattern_Small,59.737233040854335,62.75495758303441,3.0,Object_Sea_Pattern_Small,3.0,3.0,1.0,0.9503932918887584,,,,,,,,
encoding,attention,17,4204149,4207167,4205600.0,4205716.0,117.0,117.0,1581.9,1376.2,1591.0,891.0,Object_Sea_Pattern_Small,59.737233040854335,62.75495758303441,3.0,Object_Sea_Pattern_Small,3.0,3.0,1.0,0.9503932918887584,,,,,,,,
encoding,attention,17,4204149,4207167,4205725.0,4205863.0,139.0,139.0,1567.8,1302.9,1591.0,891.0,Object_Sea_Pattern_Small,59.737233040854335,62.75495758303441,3.0,Object_Sea_Pattern_Small,3.0,3.0,1.0,0.9503932918887584,,,,,,,,
encoding,attention,17,4204149,4207167,4205876.0,4206419.0,544.0,544.0,1597.0,1244.2,1591.0,891.0,Object_Sea_Pattern_Small,59.737233040854335,62.75495758303441,3.0,Object_Sea_Pattern_Small,3.0,3.0,1.0,0.9503932918887584,,,,,,,,
encoding,attention,17,4204149,4207167,4206433.0,4207015.0,583.0,583.0,1650.0,1198.9,1591.0,891.0,Object_Sea_Pattern_Small,59.737233040854335,62.75495758303441,3.0,Object_Sea_Pattern_Small,3.0,3.0,1.0,0.9503932918887584,,,,,,,,
encoding,fixation,18,4207167,4207673,4207634.0,4207941.0,308.0,39.0,1868.7,1159.1,1591.0,891.0,Object_Sea_Pattern_Small,62.75516020786017,63.2607922910247,3.0,Object_Land_Pattern_Large,1.0,,,,,,,,,,,
encoding,image,18,4207673,4208685,4207981.0,4208231.0,251.0,251.0,1594.2,954.5999999999999,1591.0,1269.0,Object_Land_Pattern_Large,63.26095133298077,64.27282075001858,3.0,Object_Land_Pattern_Large,1.0,,,,,,,,,,,
encoding,image,18,4207673,4208685,4208240.0,4208919.0,680.0,445.0,1608.5,887.5,1591.0,1269.0,Object_Land_Pattern_Large,63.26095133298077,64.27282075001858,3.0,Object_Land_Pattern_Large,1.0,,,,,,,,,,,
encoding,value,18,4208685,4214697,4208934.0,4209731.0,798.0,798.0,1583.7,796.7,1591.0,1269.0,Object_Land_Pattern_Large,64.27294066594914,70.28505920805037,3.0,Object_Land_Pattern_Large,1.0,,,,,,,,,,,
encoding,value,18,4208685,4214697,4209739.0,4210031.0,293.0,293.0,1583.6,843.9000000000001,1591.0,1269.0,Object_Land_Pattern_Large,64.27294066594914,70.28505920805037,3.0,Object_Land_Pattern_Large,1.0,,,,,,,,,,,
encoding,value,18,4208685,4214697,4210041.0,4210212.0,172.0,172.0,1578.9,808.7,1591.0,1269.0,Object_Land_Pattern_Large,64.27294066594914,70.28505920805037,3.0,Object_Land_Pattern_Large,1.0,,,,,,,,,,,
encoding,value,18,4208685,4214697,4210461.0,4210506.0,46.0,46.0,1520.3,1010.5999999999999,1591.0,1269.0,Object_Land_Pattern_Large,64.27294066594914,70.28505920805037,3.0,Object_Land_Pattern_Large,1.0,,,,,,,,,,,
encoding,value,18,4208685,4214697,4210545.0,4213106.0,2562.0,2562.0,1589.5,829.5,1591.0,1269.0,Object_Land_Pattern_Large,64.27294066594914,70.28505920805037,3.0,Object_Land_Pattern_Large,1.0,,,,,,,,,,,
encoding,value,18,4208685,4214697,4213142.0,4213405.0,264.0,264.0,1608.7,966.0999999999999,1591.0,1269.0,Object_Land_Pattern_Large,64.27294066594914,70.28505920805037,3.0,Object_Land_Pattern_Large,1.0,,,,,,,,,,,
encoding,value,18,4208685,4214697,4213429.0,4214388.0,960.0,960.0,1575.9,834.0999999999999,1591.0,1269.0,Object_Land_Pattern_Large,64.27294066594914,70.28505920805037,3.0,Object_Land_Pattern_Large,1.0,,,,,,,,,,,
encoding,value,18,4208685,4214697,4214405.0,4214887.0,483.0,292.0,1586.0,889.0,1591.0,1269.0,Object_Land_Pattern_Large,64.27294066594914,70.28505920805037,3.0,Object_Land_Pattern_Large,1.0,,,,,,,,,,,
encoding,attention,18,4214697,4217715,4214904.0,4215218.0,315.0,315.0,1608.8,800.9000000000001,1591.0,1269.0,Object_Land_Pattern_Large,70.28519141604193,73.3032524578739,3.0,Object_Land_Pattern_Large,1.0,1.0,1.0,1.3627278748899698,,,,,,,,
encoding,attention,18,4214697,4217715,4215233.0,4215628.0,396.0,396.0,1591.8,886.4000000000001,1591.0,1269.0,Object_Land_Pattern_Large,70.28519141604193,73.3032524578739,3.0,Object_Land_Pattern_Large,1.0,1.0,1.0,1.3627278748899698,,,,,,,,
encoding,attention,18,4214697,4217715,4215644.0,4216052.0,409.0,409.0,1539.4,868.5,1591.0,1269.0,Object_Land_Pattern_Large,70.28519141604193,73.3032524578739,3.0,Object_Land_Pattern_Large,1.0,1.0,1.0,1.3627278748899698,,,,,,,,
encoding,attention,18,4214697,4217715,4216093.0,4216203.0,111.0,111.0,1546.6,951.5999999999999,1591.0,1269.0,Object_Land_Pattern_Large,70.28519141604193,73.3032524578739,3.0,Object_Land_Pattern_Large,1.0,1.0,1.0,1.3627278748899698,,,,,,,,
encoding,attention,18,4214697,4217715,4216227.0,4216254.0,28.0,28.0,1546.5,961.0999999999999,1591.0,1269.0,Object_Land_Pattern_Large,70.28519141604193,73.3032524578739,3.0,Object_Land_Pattern_Large,1.0,1.0,1.0,1.3627278748899698,,,,,,,,
encoding,attention,18,4214697,4217715,4216461.0,4216484.0,24.0,24.0,1566.7,1012.7,1591.0,1269.0,Object_Land_Pattern_Large,70.28519141604193,73.3032524578739,3.0,Object_Land_Pattern_Large,1.0,1.0,1.0,1.3627278748899698,,,,,,,,
encoding,attention,18,4214697,4217715,4216503.0,4216800.0,298.0,298.0,1566.9,924.4000000000001,1591.0,1269.0,Object_Land_Pattern_Large,70.28519141604193,73.3032524578739,3.0,Object_Land_Pattern_Large,1.0,1.0,1.0,1.3627278748899698,,,,,,,,
encoding,attention,18,4214697,4217715,4216811.0,4217049.0,239.0,239.0,1604.1,926.7,1591.0,1269.0,Object_Land_Pattern_Large,70.28519141604193,73.3032524578739,3.0,Object_Land_Pattern_Large,1.0,1.0,1.0,1.3627278748899698,,,,,,,,
encoding,attention,18,4214697,4217715,4217110.0,4217460.0,351.0,351.0,1652.6,1271.4,1591.0,891.0,Object_Sea_Pattern_Small,70.28519141604193,73.3032524578739,3.0,Object_Land_Pattern_Large,1.0,1.0,1.0,1.3627278748899698,,,,,,,,
encoding,fixation,19,4548175,4548680,4548213.0,4548449.0,237.0,237.0,2001.8,1050.8,2249.0,1269.0,Animal_Sea_Pattern_Large,7.234023874858394,7.739485583035275,4.0,Object_Sea_Solid_Large,-1.0,,,,,,,,,,,
encoding,fixation,19,4548175,4548680,4548465.0,4548833.0,369.0,215.0,1910.1,1073.7,1920.0,1080.0,fixation,7.234023874858394,7.739485583035275,4.0,Object_Sea_Solid_Large,-1.0,,,,,,,,,,,
encoding,image,19,4548680,4549693,4548867.0,4549373.0,507.0,507.0,1615.0,1242.4,1591.0,891.0,Object_Sea_Solid_Large,7.739593415986747,8.752037040889263,4.0,Object_Sea_Solid_Large,-1.0,,,,,,,,,,,
encoding,image,19,4548680,4549693,4549384.0,4549687.0,304.0,304.0,1554.8,1236.3,1591.0,891.0,Object_Sea_Solid_Large,7.739593415986747,8.752037040889263,4.0,Object_Sea_Solid_Large,-1.0,,,,,,,,,,,
encoding,value,19,4549693,4555707,4549697.0,4549891.0,195.0,195.0,1602.4,1226.4,1591.0,891.0,Object_Sea_Solid_Large,8.752156500006095,14.766266624908894,4.0,Object_Sea_Solid_Large,-1.0,,,,,,,,,,,
encoding,value,19,4549693,4555707,4549907.0,4550271.0,365.0,365.0,1593.2,1157.1,1591.0,891.0,Object_Sea_Solid_Large,8.752156500006095,14.766266624908894,4.0,Object_Sea_Solid_Large,-1.0,,,,,,,,,,,
encoding,value,19,4549693,4555707,4550290.0,4551491.0,1202.0,1202.0,1573.8,1250.8,1591.0,891.0,Object_Sea_Solid_Large,8.752156500006095,14.766266624908894,4.0,Object_Sea_Solid_Large,-1.0,,,,,,,,,,,
encoding,value,19,4549693,4555707,4551501.0,4551730.0,230.0,230.0,1593.3,1271.1,1591.0,891.0,Object_Sea_Solid_Large,8.752156500006095,14.766266624908894,4.0,Object_Sea_Solid_Large,-1.0,,,,,,,,,,,
encoding,value,19,4549693,4555707,4551738.0,4552124.0,387.0,387.0,1562.5,1242.7,1591.0,891.0,Object_Sea_Solid_Large,8.752156500006095,14.766266624908894,4.0,Object_Sea_Solid_Large,-1.0,,,,,,,,,,,
encoding,value,19,4549693,4555707,4552132.0,4552430.0,299.0,299.0,1602.1,1255.2,1591.0,891.0,Object_Sea_Solid_Large,8.752156500006095,14.766266624908894,4.0,Object_Sea_Solid_Large,-1.0,,,,,,,,,,,
encoding,value,19,4549693,4555707,4552437.0,4552608.0,172.0,172.0,1561.6,1241.9,1591.0,891.0,Object_Sea_Solid_Large,8.752156500006095,14.766266624908894,4.0,Object_Sea_Solid_Large,-1.0,,,,,,,,,,,
encoding,value,19,4549693,4555707,4552821.0,4552864.0,44.0,44.0,1579.7,1297.3,1591.0,891.0,Object_Sea_Solid_Large,8.752156500006095,14.766266624908894,4.0,Object_Sea_Solid_Large,-1.0,,,,,,,,,,,
encoding,value,19,4549693,4555707,4552883.0,4553269.0,387.0,387.0,1590.9,1167.5,1591.0,891.0,Object_Sea_Solid_Large,8.752156500006095,14.766266624908894,4.0,Object_Sea_Solid_Large,-1.0,,,,,,,,,,,
encoding,value,19,4549693,4555707,4553290.0,4554353.0,1064.0,1064.0,1595.2,1247.4,1591.0,891.0,Object_Sea_Solid_Large,8.752156500006095,14.766266624908894,4.0,Object_Sea_Solid_Large,-1.0,,,,,,,,,,,
encoding,value,19,4549693,4555707,4554370.0,4554792.0,423.0,423.0,1610.1,1170.9,1591.0,891.0,Object_Sea_Solid_Large,8.752156500006095,14.766266624908894,4.0,Object_Sea_Solid_Large,-1.0,,,,,,,,,,,
encoding,value,19,4549693,4555707,4554810.0,4555482.0,673.0,673.0,1611.6,1242.1,1591.0,891.0,Object_Sea_Solid_Large,8.752156500006095,14.766266624908894,4.0,Object_Sea_Solid_Large,-1.0,,,,,,,,,,,
encoding,value,19,4549693,4555707,4555500.0,4556179.0,680.0,207.0,1588.9,1165.3,1591.0,891.0,Object_Sea_Solid_Large,8.752156500006095,14.766266624908894,4.0,Object_Sea_Solid_Large,-1.0,,,,,,,,,,,
encoding,attention,19,4555707,4558726,4556191.0,4557548.0,1358.0,1358.0,1651.8,1162.4,1591.0,891.0,Object_Sea_Solid_Large,14.766400124877691,17.785266374936327,4.0,Object_Sea_Solid_Large,-1.0,-1.0,1.0,1.5300782087724656,,,,,,,,
encoding,attention,19,4555707,4558726,4557762.0,4557836.0,75.0,75.0,1587.2,1309.0,1591.0,891.0,Object_Sea_Solid_Large,14.766400124877691,17.785266374936327,4.0,Object_Sea_Solid_Large,-1.0,-1.0,1.0,1.5300782087724656,,,,,,,,
encoding,fixation,20,4558727,4559482,4558992.0,4559683.0,692.0,490.0,1908.9,1078.4,1920.0,1080.0,fixation,17.78541529085487,18.5411254579667,4.0,Animal_Land_Solid_Small,6.0,,,,,,,,,,,
encoding,image,20,4559482,4560493,4559722.0,4560173.0,452.0,452.0,2224.8,1284.9,2249.0,891.0,Animal_Land_Solid_Small,18.54126566601917,19.552047665929425,4.0,Animal_Land_Solid_Small,6.0,,,,,,,,,,,
encoding,image,20,4559482,4560493,4560191.0,4560433.0,243.0,243.0,2185.3,1207.4,2249.0,891.0,Animal_Land_Solid_Small,18.54126566601917,19.552047665929425,4.0,Animal_Land_Solid_Small,6.0,,,,,,,,,,,
encoding,image,20,4559482,4560493,4560450.0,4560685.0,236.0,43.0,2227.1,1274.3,2249.0,891.0,Animal_Land_Solid_Small,18.54126566601917,19.552047665929425,4.0,Animal_Land_Solid_Small,6.0,,,,,,,,,,,
encoding,value,20,4560493,4566506,4560703.0,4561166.0,464.0,464.0,2231.0,1185.6,2249.0,891.0,Animal_Land_Solid_Small,19.5521692908369,25.564430124824867,4.0,Animal_Land_Solid_Small,6.0,,,,,,,,,,,
encoding,value,20,4560493,4566506,4561352.0,4561687.0,336.0,336.0,2236.8,1273.8,2249.0,891.0,Animal_Land_Solid_Small,19.5521692908369,25.564430124824867,4.0,Animal_Land_Solid_Small,6.0,,,,,,,,,,,
encoding,value,20,4560493,4566506,4561702.0,4562709.0,1008.0,1008.0,2236.4,1196.9,2249.0,891.0,Animal_Land_Solid_Small,19.5521692908369,25.564430124824867,4.0,Animal_Land_Solid_Small,6.0,,,,,,,,,,,
encoding,value,20,4560493,4566506,4562729.0,4563088.0,360.0,360.0,2249.6,1307.7,2249.0,891.0,Animal_Land_Solid_Small,19.5521692908369,25.564430124824867,4.0,Animal_Land_Solid_Small,6.0,,,,,,,,,,,
encoding,value,20,4560493,4566506,4563103.0,4563860.0,758.0,758.0,2231.9,1219.1,2249.0,891.0,Animal_Land_Solid_Small,19.5521692908369,25.564430124824867,4.0,Animal_Land_Solid_Small,6.0,,,,,,,,,,,
encoding,value,20,4560493,4566506,4563878.0,4564720.0,843.0,843.0,2229.5,1278.8,2249.0,891.0,Animal_Land_Solid_Small,19.5521692908369,25.564430124824867,4.0,Animal_Land_Solid_Small,6.0,,,,,,,,,,,
encoding,value,20,4560493,4566506,4564732.0,4564940.0,209.0,209.0,2242.5,1311.4,2249.0,891.0,Animal_Land_Solid_Small,19.5521692908369,25.564430124824867,4.0,Animal_Land_Solid_Small,6.0,,,,,,,,,,,
encoding,value,20,4560493,4566506,4564962.0,4566992.0,2031.0,1544.0,2234.4,1199.3,2249.0,891.0,Animal_Land_Solid_Small,19.5521692908369,25.564430124824867,4.0,Animal_Land_Solid_Small,6.0,,,,,,,,,,,
encoding,attention,20,4566506,4569523,4567005.0,4567226.0,222.0,222.0,2277.3,1208.6,2249.0,891.0,Animal_Land_Solid_Small,25.56456699990667,28.581539124948904,4.0,Animal_Land_Solid_Small,6.0,6.0,1.0,0.7933613329660147,,,,,,,,
encoding,attention,20,4566506,4569523,4567417.0,4567787.0,371.0,371.0,2181.0,1297.3,2249.0,891.0,Animal_Land_Solid_Small,25.56456699990667,28.581539124948904,4.0,Animal_Land_Solid_Small,6.0,6.0,1.0,0.7933613329660147,,,,,,,,
encoding,attention,20,4566506,4569523,4567798.0,4568063.0,266.0,266.0,2226.4,1270.2,2249.0,891.0,Animal_Land_Solid_Small,25.56456699990667,28.581539124948904,4.0,Animal_Land_Solid_Small,6.0,6.0,1.0,0.7933613329660147,,,,,,,,
encoding,attention,20,4566506,4569523,4568073.0,4568451.0,379.0,379.0,2235.5,1291.0,2249.0,891.0,Animal_Land_Solid_Small,25.56456699990667,28.581539124948904,4.0,Animal_Land_Solid_Small,6.0,6.0,1.0,0.7933613329660147,,,,,,,,
encoding,attention,20,4566506,4569523,4568468.0,4568789.0,322.0,322.0,2230.4,1195.9,2249.0,891.0,Animal_Land_Solid_Small,25.56456699990667,28.581539124948904,4.0,Animal_Land_Solid_Small,6.0,6.0,1.0,0.7933613329660147,,,,,,,,
encoding,attention,20,4566506,4569523,4568801.0,4569093.0,293.0,293.0,2277.4,1167.8,2249.0,891.0,Animal_Land_Solid_Small,25.56456699990667,28.581539124948904,4.0,Animal_Land_Solid_Small,6.0,6.0,1.0,0.7933613329660147,,,,,,,,
encoding,fixation,21,4569523,4570279,4569749.0,4569912.0,164.0,164.0,1950.3,1129.2,1920.0,1080.0,fixation,28.58168741595,29.33719537500292,4.0,Animal_Sea_Pattern_Large,-4.0,,,,,,,,,,,
encoding,fixation,21,4569523,4570279,4569927.0,4570538.0,612.0,352.0,1898.4,1058.6,1920.0,1080.0,fixation,28.58168741595,29.33719537500292,4.0,Animal_Sea_Pattern_Large,-4.0,,,,,,,,,,,
encoding,image,21,4570279,4571289,4570573.0,4570924.0,352.0,352.0,2214.8,926.0,2249.0,1269.0,Animal_Sea_Pattern_Large,29.33730270783417,30.347700875019655,4.0,Animal_Sea_Pattern_Large,-4.0,,,,,,,,,,,
encoding,image,21,4570279,4571289,4570932.0,4571356.0,425.0,357.0,2192.6,898.7,2249.0,1269.0,Animal_Sea_Pattern_Large,29.33730270783417,30.347700875019655,4.0,Animal_Sea_Pattern_Large,-4.0,,,,,,,,,,,
encoding,value,21,4571289,4577300,4571364.0,4571654.0,291.0,291.0,2231.0,876.4000000000001,2249.0,1269.0,Animal_Sea_Pattern_Large,30.34780262503773,36.35846699983813,4.0,Animal_Sea_Pattern_Large,-4.0,,,,,,,,,,,
encoding,value,21,4571289,4577300,4571671.0,4572675.0,1005.0,1005.0,2234.2,795.4000000000001,2249.0,1269.0,Animal_Sea_Pattern_Large,30.34780262503773,36.35846699983813,4.0,Animal_Sea_Pattern_Large,-4.0,,,,,,,,,,,
encoding,value,21,4571289,4577300,4572694.0,4573100.0,407.0,407.0,2223.5,900.5,2249.0,1269.0,Animal_Sea_Pattern_Large,30.34780262503773,36.35846699983813,4.0,Animal_Sea_Pattern_Large,-4.0,,,,,,,,,,,
encoding,value,21,4571289,4577300,4573117.0,4573564.0,448.0,448.0,2237.9,835.4000000000001,2249.0,1269.0,Animal_Sea_Pattern_Large,30.34780262503773,36.35846699983813,4.0,Animal_Sea_Pattern_Large,-4.0,,,,,,,,,,,
encoding,value,21,4571289,4577300,4573579.0,4573948.0,370.0,370.0,2203.9,915.7,2249.0,1269.0,Animal_Sea_Pattern_Large,30.34780262503773,36.35846699983813,4.0,Animal_Sea_Pattern_Large,-4.0,,,,,,,,,,,
encoding,value,21,4571289,4577300,4573968.0,4574348.0,381.0,381.0,2248.6,825.7,2249.0,1269.0,Animal_Sea_Pattern_Large,30.34780262503773,36.35846699983813,4.0,Animal_Sea_Pattern_Large,-4.0,,,,,,,,,,,
encoding,value,21,4571289,4577300,4574392.0,4574927.0,536.0,536.0,2002.9,1137.3,2249.0,891.0,Animal_Land_Solid_Small,30.34780262503773,36.35846699983813,4.0,Animal_Sea_Pattern_Large,-4.0,,,,,,,,,,,
encoding,value,21,4571289,4577300,4574946.0,4575147.0,202.0,202.0,2138.4,1167.2,2249.0,891.0,Animal_Land_Solid_Small,30.34780262503773,36.35846699983813,4.0,Animal_Sea_Pattern_Large,-4.0,,,,,,,,,,,
encoding,value,21,4571289,4577300,4575188.0,4575406.0,219.0,219.0,2246.5,799.4000000000001,2249.0,1269.0,Animal_Sea_Pattern_Large,30.34780262503773,36.35846699983813,4.0,Animal_Sea_Pattern_Large,-4.0,,,,,,,,,,,
encoding,value,21,4571289,4577300,4575416.0,4575836.0,421.0,421.0,2243.3,818.0999999999999,2249.0,1269.0,Animal_Sea_Pattern_Large,30.34780262503773,36.35846699983813,4.0,Animal_Sea_Pattern_Large,-4.0,,,,,,,,,,,
encoding,value,21,4571289,4577300,4575858.0,4576456.0,599.0,599.0,2223.5,915.0,2249.0,1269.0,Animal_Sea_Pattern_Large,30.34780262503773,36.35846699983813,4.0,Animal_Sea_Pattern_Large,-4.0,,,,,,,,,,,
encoding,value,21,4571289,4577300,4576466.0,4576657.0,192.0,192.0,2179.0,933.8,2249.0,1269.0,Animal_Sea_Pattern_Large,30.34780262503773,36.35846699983813,4.0,Animal_Sea_Pattern_Large,-4.0,,,,,,,,,,,
encoding,value,21,4571289,4577300,4576697.0,4577060.0,364.0,364.0,1998.0,1166.0,2249.0,891.0,Animal_Land_Solid_Small,30.34780262503773,36.35846699983813,4.0,Animal_Sea_Pattern_Large,-4.0,,,,,,,,,,,
encoding,value,21,4571289,4577300,4577101.0,4577290.0,190.0,190.0,2212.7,896.8,2249.0,1269.0,Animal_Sea_Pattern_Large,30.34780262503773,36.35846699983813,4.0,Animal_Sea_Pattern_Large,-4.0,,,,,,,,,,,
encoding,attention,21,4577300,4580318,4577528.0,4577696.0,169.0,169.0,2250.6,882.7,2249.0,1269.0,Animal_Sea_Pattern_Large,36.35859699989669,39.37582374992781,4.0,Animal_Sea_Pattern_Large,-4.0,-4.0,1.0,1.075776332989335,,,,,,,,
encoding,attention,21,4577300,4580318,4577707.0,4578313.0,607.0,607.0,2205.6,830.3,2249.0,1269.0,Animal_Sea_Pattern_Large,36.35859699989669,39.37582374992781,4.0,Animal_Sea_Pattern_Large,-4.0,-4.0,1.0,1.075776332989335,,,,,,,,
encoding,attention,21,4577300,4580318,4578328.0,4578620.0,293.0,293.0,2191.9,858.0999999999999,2249.0,1269.0,Animal_Sea_Pattern_Large,36.35859699989669,39.37582374992781,4.0,Animal_Sea_Pattern_Large,-4.0,-4.0,1.0,1.075776332989335,,,,,,,,
encoding,attention,21,4577300,4580318,4578641.0,4578870.0,230.0,230.0,2185.1,970.0,2249.0,1269.0,Animal_Sea_Pattern_Large,36.35859699989669,39.37582374992781,4.0,Animal_Sea_Pattern_Large,-4.0,-4.0,1.0,1.075776332989335,,,,,,,,
encoding,attention,21,4577300,4580318,4578913.0,4579329.0,417.0,417.0,2138.3,1290.8,2249.0,891.0,Animal_Land_Solid_Small,36.35859699989669,39.37582374992781,4.0,Animal_Sea_Pattern_Large,-4.0,-4.0,1.0,1.075776332989335,,,,,,,,
encoding,attention,21,4577300,4580318,4579372.0,4579680.0,309.0,309.0,2218.4,929.8,2249.0,1269.0,Animal_Sea_Pattern_Large,36.35859699989669,39.37582374992781,4.0,Animal_Sea_Pattern_Large,-4.0,-4.0,1.0,1.075776332989335,,,,,,,,
encoding,attention,21,4577300,4580318,4579695.0,4579930.0,236.0,236.0,2184.5,856.5,2249.0,1269.0,Animal_Sea_Pattern_Large,36.35859699989669,39.37582374992781,4.0,Animal_Sea_Pattern_Large,-4.0,-4.0,1.0,1.075776332989335,,,,,,,,
encoding,attention,21,4577300,4580318,4579940.0,4580101.0,162.0,162.0,2189.6,817.5999999999999,2249.0,1269.0,Animal_Sea_Pattern_Large,36.35859699989669,39.37582374992781,4.0,Animal_Sea_Pattern_Large,-4.0,-4.0,1.0,1.075776332989335,,,,,,,,
encoding,fixation,22,4580318,4581573,4580645.0,4580877.0,233.0,233.0,1845.8,1175.0,1591.0,891.0,Object_Sea_Solid_Large,39.37600849987939,40.631339124869555,4.0,Object_Sea_Pattern_Large,4.0,,,,,,,,,,,
encoding,fixation,22,4580318,4581573,4580897.0,4581117.0,221.0,221.0,1919.3,1103.4,1920.0,1080.0,fixation,39.37600849987939,40.631339124869555,4.0,Object_Sea_Pattern_Large,4.0,,,,,,,,,,,
encoding,fixation,22,4580318,4581573,4581406.0,4581814.0,409.0,167.0,1918.4,1109.4,1920.0,1080.0,fixation,39.37600849987939,40.631339124869555,4.0,Object_Sea_Pattern_Large,4.0,,,,,,,,,,,
encoding,image,22,4581574,4582588,4581849.0,4583240.0,1392.0,739.0,1915.4,1377.6,1920.0,700.0,Object_Sea_Pattern_Large,40.63145033293404,41.64557962492108,4.0,Object_Sea_Pattern_Large,4.0,,,,,,,,,,,
encoding,value,22,4582588,4588599,4583251.0,4585674.0,2424.0,2424.0,1907.6,1380.5,1920.0,700.0,Object_Sea_Pattern_Large,41.645715415943414,47.657043415820226,4.0,Object_Sea_Pattern_Large,4.0,,,,,,,,,,,
encoding,value,22,4582588,4588599,4585685.0,4585930.0,246.0,246.0,1910.4,1331.7,1920.0,700.0,Object_Sea_Pattern_Large,41.645715415943414,47.657043415820226,4.0,Object_Sea_Pattern_Large,4.0,,,,,,,,,,,
encoding,value,22,4582588,4588599,4585942.0,4586190.0,249.0,249.0,1907.7,1373.1,1920.0,700.0,Object_Sea_Pattern_Large,41.645715415943414,47.657043415820226,4.0,Object_Sea_Pattern_Large,4.0,,,,,,,,,,,
encoding,value,22,4582588,4588599,4586209.0,4586883.0,675.0,675.0,1998.7,1296.6,1920.0,700.0,Object_Sea_Pattern_Large,41.645715415943414,47.657043415820226,4.0,Object_Sea_Pattern_Large,4.0,,,,,,,,,,,
encoding,value,22,4582588,4588599,4586903.0,4588233.0,1331.0,1331.0,1885.7,1344.8,1920.0,700.0,Object_Sea_Pattern_Large,41.645715415943414,47.657043415820226,4.0,Object_Sea_Pattern_Large,4.0,,,,,,,,,,,
encoding,value,22,4582588,4588599,4588256.0,4588662.0,407.0,343.0,2032.9,1247.9,2249.0,891.0,Animal_Land_Solid_Small,41.645715415943414,47.657043415820226,4.0,Object_Sea_Pattern_Large,4.0,,,,,,,,,,,
encoding,attention,22,4588600,4591619,4588681.0,4588942.0,262.0,262.0,1888.7,1346.0,1920.0,700.0,Object_Sea_Pattern_Large,47.65723854093813,50.67621258297004,4.0,Object_Sea_Pattern_Large,4.0,4.0,1.0,0.701295749982819,,,,,,,,
encoding,attention,22,4588600,4591619,4588949.0,4589392.0,444.0,444.0,1853.7,1357.8,1920.0,700.0,Object_Sea_Pattern_Large,47.65723854093813,50.67621258297004,4.0,Object_Sea_Pattern_Large,4.0,4.0,1.0,0.701295749982819,,,,,,,,
encoding,attention,22,4588600,4591619,4589399.0,4589699.0,301.0,301.0,1884.4,1361.2,1920.0,700.0,Object_Sea_Pattern_Large,47.65723854093813,50.67621258297004,4.0,Object_Sea_Pattern_Large,4.0,4.0,1.0,0.701295749982819,,,,,,,,
encoding,attention,22,4588600,4591619,4589718.0,4589952.0,235.0,235.0,1844.8,1296.1,1920.0,700.0,Object_Sea_Pattern_Large,47.65723854093813,50.67621258297004,4.0,Object_Sea_Pattern_Large,4.0,4.0,1.0,0.701295749982819,,,,,,,,
encoding,attention,22,4588600,4591619,4590179.0,4590531.0,353.0,353.0,2099.6,1296.6,2249.0,891.0,Animal_Land_Solid_Small,47.65723854093813,50.67621258297004,4.0,Object_Sea_Pattern_Large,4.0,4.0,1.0,0.701295749982819,,,,,,,,
encoding,attention,22,4588600,4591619,4590569.0,4590993.0,425.0,425.0,2146.7,978.8,2249.0,1269.0,Animal_Sea_Pattern_Large,47.65723854093813,50.67621258297004,4.0,Object_Sea_Pattern_Large,4.0,4.0,1.0,0.701295749982819,,,,,,,,
encoding,attention,22,4588600,4591619,4591042.0,4591286.0,245.0,245.0,1922.3,1348.4,1920.0,700.0,Object_Sea_Pattern_Large,47.65723854093813,50.67621258297004,4.0,Object_Sea_Pattern_Large,4.0,4.0,1.0,0.701295749982819,,,,,,,,
encoding,attention,22,4588600,4591619,4591293.0,4591535.0,243.0,243.0,1878.9,1337.6,1920.0,700.0,Object_Sea_Pattern_Large,47.65723854093813,50.67621258297004,4.0,Object_Sea_Pattern_Large,4.0,4.0,1.0,0.701295749982819,,,,,,,,
encoding,fixation,23,4591619,4592375,4591913.0,4592271.0,359.0,359.0,2064.2,1191.1,2249.0,891.0,Animal_Land_Solid_Small,50.67638383293525,51.43260983284563,4.0,Object_Land_Solid_Small,-2.0,,,,,,,,,,,
encoding,fixation,23,4591619,4592375,4592312.0,4592679.0,368.0,63.0,2072.3,1020.8,2249.0,1269.0,Animal_Sea_Pattern_Large,50.67638383293525,51.43260983284563,4.0,Object_Land_Solid_Small,-2.0,,,,,,,,,,,
encoding,image,23,4592375,4593388,4592716.0,4593222.0,507.0,507.0,1699.5,1180.6,1591.0,891.0,Object_Sea_Solid_Large,51.43271808302961,52.44581541582011,4.0,Object_Land_Solid_Small,-2.0,,,,,,,,,,,
encoding,image,23,4592375,4593388,4593260.0,4593854.0,595.0,128.0,2002.6,1109.9,2249.0,891.0,Animal_Land_Solid_Small,51.43271808302961,52.44581541582011,4.0,Object_Land_Solid_Small,-2.0,,,,,,,,,,,
encoding,value,23,4593389,4599400,4593897.0,4594225.0,329.0,329.0,1920.7,653.0,1920.0,1460.0,Object_Land_Solid_Small,52.44601924996823,58.457337375031784,4.0,Object_Land_Solid_Small,-2.0,,,,,,,,,,,
encoding,value,23,4593389,4599400,4594243.0,4594634.0,392.0,392.0,1907.2,701.5999999999999,1920.0,1460.0,Object_Land_Solid_Small,52.44601924996823,58.457337375031784,4.0,Object_Land_Solid_Small,-2.0,,,,,,,,,,,
encoding,value,23,4593389,4599400,4594644.0,4594959.0,316.0,316.0,1887.8,733.4000000000001,1920.0,1460.0,Object_Land_Solid_Small,52.44601924996823,58.457337375031784,4.0,Object_Land_Solid_Small,-2.0,,,,,,,,,,,
encoding,value,23,4593389,4599400,4594989.0,4595296.0,308.0,308.0,1926.5,1024.9,1920.0,1080.0,fixation,52.44601924996823,58.457337375031784,4.0,Object_Land_Solid_Small,-2.0,,,,,,,,,,,
encoding,value,23,4593389,4599400,4595310.0,4596170.0,861.0,861.0,1970.8,1100.0,1920.0,1080.0,fixation,52.44601924996823,58.457337375031784,4.0,Object_Land_Solid_Small,-2.0,,,,,,,,,,,
encoding,value,23,4593389,4599400,4596186.0,4596886.0,701.0,701.0,1938.7,1081.6,1920.0,1080.0,fixation,52.44601924996823,58.457337375031784,4.0,Object_Land_Solid_Small,-2.0,,,,,,,,,,,
encoding,value,23,4593389,4599400,4597115.0,4597234.0,120.0,120.0,1933.9,975.8,1920.0,1460.0,Object_Land_Solid_Small,52.44601924996823,58.457337375031784,4.0,Object_Land_Solid_Small,-2.0,,,,,,,,,,,
encoding,value,23,4593389,4599400,4597252.0,4597400.0,149.0,149.0,1944.2,1020.8,1920.0,1080.0,fixation,52.44601924996823,58.457337375031784,4.0,Object_Land_Solid_Small,-2.0,,,,,,,,,,,
encoding,value,23,4593389,4599400,4597416.0,4597786.0,371.0,371.0,1891.6,1042.7,1920.0,1080.0,fixation,52.44601924996823,58.457337375031784,4.0,Object_Land_Solid_Small,-2.0,,,,,,,,,,,
encoding,value,23,4593389,4599400,4597803.0,4597959.0,157.0,157.0,1915.9,1094.2,1920.0,1080.0,fixation,52.44601924996823,58.457337375031784,4.0,Object_Land_Solid_Small,-2.0,,,,,,,,,,,
encoding,value,23,4593389,4599400,4598001.0,4598297.0,297.0,297.0,1916.3,632.3,1920.0,1460.0,Object_Land_Solid_Small,52.44601924996823,58.457337375031784,4.0,Object_Land_Solid_Small,-2.0,,,,,,,,,,,
encoding,value,23,4593389,4599400,4598335.0,4599319.0,985.0,985.0,1934.3,826.2,1920.0,1460.0,Object_Land_Solid_Small,52.44601924996823,58.457337375031784,4.0,Object_Land_Solid_Small,-2.0,,,,,,,,,,,
encoding,value,23,4593389,4599400,4599353.0,4600040.0,688.0,47.0,1911.7,652.7,1920.0,1460.0,Object_Land_Solid_Small,52.44601924996823,58.457337375031784,4.0,Object_Land_Solid_Small,-2.0,,,,,,,,,,,
encoding,attention,23,4599400,4602418,4600064.0,4600871.0,808.0,808.0,1882.5,763.7,1920.0,1460.0,Object_Land_Solid_Small,58.45745995803736,61.47468491597101,4.0,Object_Land_Solid_Small,-2.0,-2.0,1.0,2.2447583749890327,,,,,,,,
encoding,attention,23,4599400,4602418,4600911.0,4601230.0,320.0,320.0,1937.9,1203.3,1920.0,700.0,Object_Sea_Pattern_Large,58.45745995803736,61.47468491597101,4.0,Object_Land_Solid_Small,-2.0,-2.0,1.0,2.2447583749890327,,,,,,,,
encoding,attention,23,4599400,4602418,4601239.0,4601975.0,737.0,737.0,1904.9,1174.2,1920.0,700.0,Object_Sea_Pattern_Large,58.45745995803736,61.47468491597101,4.0,Object_Land_Solid_Small,-2.0,-2.0,1.0,2.2447583749890327,,,,,,,,
encoding,fixation,24,4602418,4603173,4602476.0,4602893.0,418.0,418.0,2037.8,1198.0,2249.0,891.0,Animal_Land_Solid_Small,61.4748512909282,62.229895915836096,4.0,Animal_Land_Pattern_Small,-3.0,,,,,,,,,,,
encoding,fixation,24,4602418,4603173,4602912.0,4603571.0,660.0,261.0,1996.7,1308.4,1920.0,700.0,Object_Sea_Pattern_Large,61.4748512909282,62.229895915836096,4.0,Animal_Land_Pattern_Small,-3.0,,,,,,,,,,,
encoding,image,24,4603173,4604185,4603772.0,4604030.0,259.0,259.0,2039.7,1203.4,2249.0,891.0,Animal_Land_Solid_Small,62.230005874997005,63.24211020790972,4.0,Animal_Land_Pattern_Small,-3.0,,,,,,,,,,,
encoding,image,24,4603173,4604185,4604052.0,4604493.0,442.0,133.0,1965.0,1114.0,1920.0,1080.0,fixation,62.230005874997005,63.24211020790972,4.0,Animal_Land_Pattern_Small,-3.0,,,,,,,,,,,
encoding,value,24,4604185,4610197,4604511.0,4604765.0,255.0,255.0,1878.8,1149.5,1591.0,891.0,Object_Sea_Solid_Large,63.242211665958166,69.25358316581696,4.0,Animal_Land_Pattern_Small,-3.0,,,,,,,,,,,
encoding,value,24,4604185,4610197,4604785.0,4605184.0,400.0,400.0,1920.3,1067.6,1920.0,1080.0,fixation,63.242211665958166,69.25358316581696,4.0,Animal_Land_Pattern_Small,-3.0,,,,,,,,,,,
encoding,value,24,4604185,4610197,4605220.0,4605683.0,464.0,464.0,1672.1,889.9000000000001,1591.0,1269.0,Animal_Land_Pattern_Small,63.242211665958166,69.25358316581696,4.0,Animal_Land_Pattern_Small,-3.0,,,,,,,,,,,
encoding,value,24,4604185,4610197,4605696.0,4606017.0,322.0,322.0,1591.8,895.7,1591.0,1269.0,Animal_Land_Pattern_Small,63.242211665958166,69.25358316581696,4.0,Animal_Land_Pattern_Small,-3.0,,,,,,,,,,,
encoding,value,24,4604185,4610197,4606032.0,4606932.0,901.0,901.0,1599.0,830.3,1591.0,1269.0,Animal_Land_Pattern_Small,63.242211665958166,69.25358316581696,4.0,Animal_Land_Pattern_Small,-3.0,,,,,,,,,,,
encoding,value,24,4604185,4610197,4606945.0,4607312.0,368.0,368.0,1684.0,841.7,1591.0,1269.0,Animal_Land_Pattern_Small,63.242211665958166,69.25358316581696,4.0,Animal_Land_Pattern_Small,-3.0,,,,,,,,,,,
encoding,value,24,4604185,4610197,4607327.0,4608533.0,1207.0,1207.0,1594.1,843.5999999999999,1591.0,1269.0,Animal_Land_Pattern_Small,63.242211665958166,69.25358316581696,4.0,Animal_Land_Pattern_Small,-3.0,,,,,,,,,,,
encoding,value,24,4604185,4610197,4608551.0,4609075.0,525.0,525.0,1610.6,923.5999999999999,1591.0,1269.0,Animal_Land_Pattern_Small,63.242211665958166,69.25358316581696,4.0,Animal_Land_Pattern_Small,-3.0,,,,,,,,,,,
encoding,value,24,4604185,4610197,4609092.0,4609937.0,846.0,846.0,1607.6,846.9000000000001,1591.0,1269.0,Animal_Land_Pattern_Small,63.242211665958166,69.25358316581696,4.0,Animal_Land_Pattern_Small,-3.0,,,,,,,,,,,
encoding,value,24,4604185,4610197,4609953.0,4610008.0,56.0,56.0,1604.0,855.2,1591.0,1269.0,Animal_Land_Pattern_Small,63.242211665958166,69.25358316581696,4.0,Animal_Land_Pattern_Small,-3.0,,,,,,,,,,,
encoding,value,24,4604185,4610197,4610016.0,4610127.0,112.0,112.0,1614.0,891.9000000000001,1591.0,1269.0,Animal_Land_Pattern_Small,63.242211665958166,69.25358316581696,4.0,Animal_Land_Pattern_Small,-3.0,,,,,,,,,,,
encoding,attention,24,4610197,4613215,4610357.0,4610461.0,105.0,105.0,1539.3,910.3,1591.0,1269.0,Animal_Land_Pattern_Small,69.2536927498877,72.27136604092084,4.0,Animal_Land_Pattern_Small,-3.0,-3.0,1.0,1.6288259588181973,,,,,,,,
encoding,attention,24,4610197,4613215,4610499.0,4610635.0,137.0,137.0,1584.9,983.8,1591.0,1269.0,Animal_Land_Pattern_Small,69.2536927498877,72.27136604092084,4.0,Animal_Land_Pattern_Small,-3.0,-3.0,1.0,1.6288259588181973,,,,,,,,
encoding,attention,24,4610197,4613215,4610656.0,4610702.0,47.0,47.0,1584.1,992.3,1591.0,1269.0,Animal_Land_Pattern_Small,69.2536927498877,72.27136604092084,4.0,Animal_Land_Pattern_Small,-3.0,-3.0,1.0,1.6288259588181973,,,,,,,,
encoding,attention,24,4610197,4613215,4610825.0,4610952.0,128.0,128.0,1521.3,991.3,1591.0,1269.0,Animal_Land_Pattern_Small,69.2536927498877,72.27136604092084,4.0,Animal_Land_Pattern_Small,-3.0,-3.0,1.0,1.6288259588181973,,,,,,,,
encoding,attention,24,4610197,4613215,4611119.0,4611287.0,169.0,169.0,1511.1,994.0,1591.0,1269.0,Animal_Land_Pattern_Small,69.2536927498877,72.27136604092084,4.0,Animal_Land_Pattern_Small,-3.0,-3.0,1.0,1.6288259588181973,,,,,,,,
encoding,attention,24,4610197,4613215,4611473.0,4611797.0,325.0,325.0,1545.9,1025.7,1591.0,1269.0,Animal_Land_Pattern_Small,69.2536927498877,72.27136604092084,4.0,Animal_Land_Pattern_Small,-3.0,-3.0,1.0,1.6288259588181973,,,,,,,,
encoding,attention,24,4610197,4613215,4611816.0,4611923.0,108.0,108.0,1687.4,1120.6,1591.0,891.0,Object_Sea_Solid_Large,69.2536927498877,72.27136604092084,4.0,Animal_Land_Pattern_Small,-3.0,-3.0,1.0,1.6288259588181973,,,,,,,,
encoding,attention,24,4610197,4613215,4611999.0,4612048.0,50.0,50.0,1703.1,1062.1,1591.0,1269.0,Animal_Land_Pattern_Small,69.2536927498877,72.27136604092084,4.0,Animal_Land_Pattern_Small,-3.0,-3.0,1.0,1.6288259588181973,,,,,,,,
encoding,attention,24,4610197,4613215,4612088.0,4612637.0,550.0,550.0,1965.3,1156.2,2249.0,891.0,Animal_Land_Solid_Small,69.2536927498877,72.27136604092084,4.0,Animal_Land_Pattern_Small,-3.0,-3.0,1.0,1.6288259588181973,,,,,,,,
encoding,attention,24,4610197,4613215,4612660.0,4612987.0,328.0,328.0,2020.5,964.0,2249.0,1269.0,Animal_Sea_Pattern_Large,69.2536927498877,72.27136604092084,4.0,Animal_Land_Pattern_Small,-3.0,-3.0,1.0,1.6288259588181973,,,,,,,,
encoding,fixation,25,5010642,5011400,5010864.0,5011068.0,205.0,205.0,1893.9,1156.5,1920.0,700.0,Animal_Land_Pattern_Large,6.38002641685307,7.138096208916977,5.0,Animal_Land_Pattern_Large,5.0,,,,,,,,,,,
encoding,fixation,25,5010642,5011400,5011081.0,5011195.0,115.0,115.0,1897.3,1110.0,1920.0,1080.0,fixation,6.38002641685307,7.138096208916977,5.0,Animal_Land_Pattern_Large,5.0,,,,,,,,,,,
encoding,fixation,25,5010642,5011400,5011349.0,5011430.0,82.0,51.0,1860.6,1152.6,1591.0,891.0,Object_Sea_Solid_Large,6.38002641685307,7.138096208916977,5.0,Animal_Land_Pattern_Large,5.0,,,,,,,,,,,
encoding,image,25,5011400,5012413,5011452.0,5011639.0,188.0,188.0,1896.1,1116.0,1920.0,1080.0,fixation,7.138194917002693,8.150948708876967,5.0,Animal_Land_Pattern_Large,5.0,,,,,,,,,,,
encoding,image,25,5011400,5012413,5011677.0,5011943.0,267.0,267.0,1916.9,1448.9,1920.0,700.0,Animal_Land_Pattern_Large,7.138194917002693,8.150948708876967,5.0,Animal_Land_Pattern_Large,5.0,,,,,,,,,,,
encoding,image,25,5011400,5012413,5011951.0,5012686.0,736.0,462.0,1904.9,1455.0,1920.0,700.0,Animal_Land_Pattern_Large,7.138194917002693,8.150948708876967,5.0,Animal_Land_Pattern_Large,5.0,,,,,,,,,,,
encoding,value,25,5012413,5018426,5012703.0,5013074.0,372.0,372.0,1899.8,1348.4,1920.0,700.0,Animal_Land_Pattern_Large,8.15107245882973,14.16408120887354,5.0,Animal_Land_Pattern_Large,5.0,,,,,,,,,,,
encoding,value,25,5012413,5018426,5013093.0,5013295.0,203.0,203.0,1888.5,1458.0,1920.0,700.0,Animal_Land_Pattern_Large,8.15107245882973,14.16408120887354,5.0,Animal_Land_Pattern_Large,5.0,,,,,,,,,,,
encoding,value,25,5012413,5018426,5013477.0,5013544.0,68.0,68.0,1891.3,1495.1,1920.0,700.0,Animal_Land_Pattern_Large,8.15107245882973,14.16408120887354,5.0,Animal_Land_Pattern_Large,5.0,,,,,,,,,,,
encoding,value,25,5012413,5018426,5013553.0,5014660.0,1108.0,1108.0,1892.5,1461.2,1920.0,700.0,Animal_Land_Pattern_Large,8.15107245882973,14.16408120887354,5.0,Animal_Land_Pattern_Large,5.0,,,,,,,,,,,
encoding,value,25,5012413,5018426,5014674.0,5014897.0,224.0,224.0,1918.9,1424.5,1920.0,700.0,Animal_Land_Pattern_Large,8.15107245882973,14.16408120887354,5.0,Animal_Land_Pattern_Large,5.0,,,,,,,,,,,
encoding,value,25,5012413,5018426,5014911.0,5015507.0,597.0,597.0,1897.9,1366.9,1920.0,700.0,Animal_Land_Pattern_Large,8.15107245882973,14.16408120887354,5.0,Animal_Land_Pattern_Large,5.0,,,,,,,,,,,
encoding,value,25,5012413,5018426,5015528.0,5016117.0,590.0,590.0,1903.3,1456.1,1920.0,700.0,Animal_Land_Pattern_Large,8.15107245882973,14.16408120887354,5.0,Animal_Land_Pattern_Large,5.0,,,,,,,,,,,
encoding,value,25,5012413,5018426,5016132.0,5016727.0,596.0,596.0,1900.7,1375.1,1920.0,700.0,Animal_Land_Pattern_Large,8.15107245882973,14.16408120887354,5.0,Animal_Land_Pattern_Large,5.0,,,,,,,,,,,
encoding,value,25,5012413,5018426,5016892.0,5016941.0,50.0,50.0,1893.0,1485.7,1920.0,700.0,Animal_Land_Pattern_Large,8.15107245882973,14.16408120887354,5.0,Animal_Land_Pattern_Large,5.0,,,,,,,,,,,
encoding,value,25,5012413,5018426,5016950.0,5017181.0,232.0,232.0,1895.4,1444.0,1920.0,700.0,Animal_Land_Pattern_Large,8.15107245882973,14.16408120887354,5.0,Animal_Land_Pattern_Large,5.0,,,,,,,,,,,
encoding,value,25,5012413,5018426,5017189.0,5017504.0,316.0,316.0,1917.5,1466.9,1920.0,700.0,Animal_Land_Pattern_Large,8.15107245882973,14.16408120887354,5.0,Animal_Land_Pattern_Large,5.0,,,,,,,,,,,
encoding,value,25,5012413,5018426,5017523.0,5018717.0,1195.0,903.0,1901.3,1375.3,1920.0,700.0,Animal_Land_Pattern_Large,8.15107245882973,14.16408120887354,5.0,Animal_Land_Pattern_Large,5.0,,,,,,,,,,,
encoding,attention,25,5018427,5021446,5018724.0,5019542.0,819.0,819.0,1863.2,1381.9,1920.0,700.0,Animal_Land_Pattern_Large,14.164219124941155,17.183278916869313,5.0,Animal_Land_Pattern_Large,5.0,5.0,1.0,1.4676460418850183,,,,,,,,
encoding,attention,25,5018427,5021446,5019553.0,5019774.0,222.0,222.0,1909.0,1407.4,1920.0,700.0,Animal_Land_Pattern_Large,14.164219124941155,17.183278916869313,5.0,Animal_Land_Pattern_Large,5.0,5.0,1.0,1.4676460418850183,,,,,,,,
encoding,attention,25,5018427,5021446,5019785.0,5020287.0,503.0,503.0,1868.4,1396.8,1920.0,700.0,Animal_Land_Pattern_Large,14.164219124941155,17.183278916869313,5.0,Animal_Land_Pattern_Large,5.0,5.0,1.0,1.4676460418850183,,,,,,,,
encoding,attention,25,5018427,5021446,5020302.0,5021135.0,834.0,834.0,1864.4,1478.3,1920.0,700.0,Animal_Land_Pattern_Large,14.164219124941155,17.183278916869313,5.0,Animal_Land_Pattern_Large,5.0,5.0,1.0,1.4676460418850183,,,,,,,,
encoding,fixation,26,5021446,5022451,5021468.0,5021646.0,179.0,179.0,1843.2,1369.9,1920.0,700.0,Animal_Land_Pattern_Large,17.18342591682449,18.18870854191482,5.0,Object_Sea_Solid_Large,7.0,,,,,,,,,,,
encoding,fixation,26,5021446,5022451,5021833.0,5021946.0,114.0,114.0,1864.6,1347.9,1920.0,700.0,Animal_Land_Pattern_Large,17.18342591682449,18.18870854191482,5.0,Object_Sea_Solid_Large,7.0,,,,,,,,,,,
encoding,fixation,26,5021446,5022451,5021954.0,5022042.0,89.0,89.0,1882.0,1315.6,1920.0,700.0,Animal_Land_Pattern_Large,17.18342591682449,18.18870854191482,5.0,Object_Sea_Solid_Large,7.0,,,,,,,,,,,
encoding,fixation,26,5021446,5022451,5022067.0,5022628.0,562.0,384.0,1880.7,1114.0,1920.0,1080.0,fixation,17.18342591682449,18.18870854191482,5.0,Object_Sea_Solid_Large,7.0,,,,,,,,,,,
encoding,image,26,5022451,5023463,5022660.0,5023686.0,1027.0,803.0,1590.0,1241.9,1591.0,891.0,Object_Sea_Solid_Large,18.18882937496528,19.200565916951746,5.0,Object_Sea_Solid_Large,7.0,,,,,,,,,,,
encoding,value,26,5023463,5029476,5023701.0,5024305.0,605.0,605.0,1577.4,1176.5,1591.0,891.0,Object_Sea_Solid_Large,19.20068845897913,25.212816999992356,5.0,Object_Sea_Solid_Large,7.0,,,,,,,,,,,
encoding,value,26,5023463,5029476,5024326.0,5024657.0,332.0,332.0,1581.1,1282.3,1591.0,891.0,Object_Sea_Solid_Large,19.20068845897913,25.212816999992356,5.0,Object_Sea_Solid_Large,7.0,,,,,,,,,,,
encoding,value,26,5023463,5029476,5024674.0,5024978.0,305.0,305.0,1569.7,1216.0,1591.0,891.0,Object_Sea_Solid_Large,19.20068845897913,25.212816999992356,5.0,Object_Sea_Solid_Large,7.0,,,,,,,,,,,
encoding,value,26,5023463,5029476,5024997.0,5025277.0,281.0,281.0,1576.9,1305.8,1591.0,891.0,Object_Sea_Solid_Large,19.20068845897913,25.212816999992356,5.0,Object_Sea_Solid_Large,7.0,,,,,,,,,,,
encoding,value,26,5023463,5029476,5025292.0,5026173.0,882.0,882.0,1574.8,1206.8,1591.0,891.0,Object_Sea_Solid_Large,19.20068845897913,25.212816999992356,5.0,Object_Sea_Solid_Large,7.0,,,,,,,,,,,
encoding,value,26,5023463,5029476,5026191.0,5027306.0,1116.0,1116.0,1564.6,1273.7,1591.0,891.0,Object_Sea_Solid_Large,19.20068845897913,25.212816999992356,5.0,Object_Sea_Solid_Large,7.0,,,,,,,,,,,
encoding,value,26,5023463,5029476,5027323.0,5028308.0,986.0,986.0,1561.5,1281.7,1591.0,891.0,Object_Sea_Solid_Large,19.20068845897913,25.212816999992356,5.0,Object_Sea_Solid_Large,7.0,,,,,,,,,,,
encoding,value,26,5023463,5029476,5028322.0,5029820.0,1499.0,1154.0,1566.4,1196.5,1591.0,891.0,Object_Sea_Solid_Large,19.20068845897913,25.212816999992356,5.0,Object_Sea_Solid_Large,7.0,,,,,,,,,,,
encoding,attention,26,5029476,5032495,5029828.0,5030083.0,256.0,256.0,1519.0,1188.3,1591.0,891.0,Object_Sea_Solid_Large,25.212922167032957,28.23157587484457,5.0,Object_Sea_Solid_Large,7.0,7.0,1.0,0.8816029168665409,,,,,,,,
encoding,attention,26,5029476,5032495,5030105.0,5030925.0,821.0,821.0,1555.0,1253.0,1591.0,891.0,Object_Sea_Solid_Large,25.212922167032957,28.23157587484457,5.0,Object_Sea_Solid_Large,7.0,7.0,1.0,0.8816029168665409,,,,,,,,
encoding,attention,26,5029476,5032495,5031148.0,5031214.0,67.0,67.0,1560.1,1362.3,1591.0,891.0,Object_Sea_Solid_Large,25.212922167032957,28.23157587484457,5.0,Object_Sea_Solid_Large,7.0,7.0,1.0,0.8816029168665409,,,,,,,,
encoding,fixation,27,5032495,5033001,5032713.0,5033252.0,540.0,288.0,1892.7,1114.0,1920.0,1080.0,fixation,28.23178399982862,28.737463666824624,5.0,Animal_Land_Pattern_Small,2.0,,,,,,,,,,,
encoding,image,27,5033001,5034012,5033286.0,5034002.0,717.0,717.0,1596.7,901.5,1591.0,1269.0,Animal_Land_Pattern_Small,28.73757104203105,29.74889662489295,5.0,Animal_Land_Pattern_Small,2.0,,,,,,,,,,,
encoding,value,27,5034012,5040024,5034015.0,5034232.0,218.0,218.0,1629.5,992.4000000000001,1591.0,1269.0,Animal_Land_Pattern_Small,29.74900387483649,35.76001987489872,5.0,Animal_Land_Pattern_Small,2.0,,,,,,,,,,,
encoding,value,27,5034012,5040024,5034282.0,5034743.0,462.0,462.0,1825.6,1268.1,1920.0,700.0,Animal_Land_Pattern_Large,29.74900387483649,35.76001987489872,5.0,Animal_Land_Pattern_Small,2.0,,,,,,,,,,,
encoding,value,27,5034012,5040024,5034789.0,5034856.0,68.0,68.0,1622.1,1353.5,1591.0,891.0,Object_Sea_Solid_Large,29.74900387483649,35.76001987489872,5.0,Animal_Land_Pattern_Small,2.0,,,,,,,,,,,
encoding,value,27,5034012,5040024,5034864.0,5034943.0,80.0,80.0,1669.4,1357.4,1591.0,891.0,Object_Sea_Solid_Large,29.74900387483649,35.76001987489872,5.0,Animal_Land_Pattern_Small,2.0,,,,,,,,,,,
encoding,value,27,5034012,5040024,5034950.0,5035247.0,298.0,298.0,1664.7,1278.0,1591.0,891.0,Object_Sea_Solid_Large,29.74900387483649,35.76001987489872,5.0,Animal_Land_Pattern_Small,2.0,,,,,,,,,,,
encoding,value,27,5034012,5040024,5035289.0,5035639.0,351.0,351.0,1560.2,987.0999999999999,1591.0,1269.0,Animal_Land_Pattern_Small,29.74900387483649,35.76001987489872,5.0,Animal_Land_Pattern_Small,2.0,,,,,,,,,,,
encoding,value,27,5034012,5040024,5035660.0,5035855.0,196.0,196.0,1574.7,1139.6,1591.0,891.0,Object_Sea_Solid_Large,29.74900387483649,35.76001987489872,5.0,Animal_Land_Pattern_Small,2.0,,,,,,,,,,,
encoding,value,27,5034012,5040024,5035892.0,5037369.0,1478.0,1478.0,1571.7,814.8,1591.0,1269.0,Animal_Land_Pattern_Small,29.74900387483649,35.76001987489872,5.0,Animal_Land_Pattern_Small,2.0,,,,,,,,,,,
encoding,value,27,5034012,5040024,5037387.0,5039926.0,2540.0,2540.0,1579.9,920.3,1591.0,1269.0,Animal_Land_Pattern_Small,29.74900387483649,35.76001987489872,5.0,Animal_Land_Pattern_Small,2.0,,,,,,,,,,,
encoding,value,27,5034012,5040024,5039937.0,5040337.0,401.0,87.0,1608.5,928.5,1591.0,1269.0,Animal_Land_Pattern_Small,29.74900387483649,35.76001987489872,5.0,Animal_Land_Pattern_Small,2.0,,,,,,,,,,,
encoding,attention,27,5040024,5043041,5040390.0,5040745.0,356.0,356.0,1591.5,1125.1,1591.0,891.0,Object_Sea_Solid_Large,35.76014008396305,38.777919083833694,5.0,Animal_Land_Pattern_Small,2.0,2.0,1.0,1.8323175420518965,,,,,,,,
encoding,attention,27,5040024,5043041,5040959.0,5041303.0,345.0,345.0,1518.9,1028.5,1591.0,1269.0,Animal_Land_Pattern_Small,35.76014008396305,38.777919083833694,5.0,Animal_Land_Pattern_Small,2.0,2.0,1.0,1.8323175420518965,,,,,,,,
encoding,attention,27,5040024,5043041,5041395.0,5042452.0,1058.0,1058.0,1563.6,876.7,1591.0,1269.0,Animal_Land_Pattern_Small,35.76014008396305,38.777919083833694,5.0,Animal_Land_Pattern_Small,2.0,2.0,1.0,1.8323175420518965,,,,,,,,
encoding,fixation,28,5043041,5043547,5043337.0,5044083.0,747.0,210.0,1887.2,1111.2,1920.0,1080.0,fixation,38.778081291820854,39.28347729193047,5.0,Object_Land_Solid_Large,-8.0,,,,,,,,,,,
encoding,image,28,5043547,5044558,5044095.0,5044249.0,155.0,155.0,1892.5,1149.9,1920.0,700.0,Animal_Land_Pattern_Large,39.28359454195015,40.2943329999689,5.0,Object_Land_Solid_Large,-8.0,,,,,,,,,,,
encoding,image,28,5043547,5044558,5044291.0,5044537.0,247.0,247.0,2197.5,941.0999999999999,2249.0,1269.0,Object_Land_Solid_Large,39.28359454195015,40.2943329999689,5.0,Object_Land_Solid_Large,-8.0,,,,,,,,,,,
encoding,value,28,5044558,5050569,5044578.0,5044985.0,408.0,408.0,1908.1,1201.5,1920.0,700.0,Animal_Land_Pattern_Large,40.29445325001143,46.305416374932975,5.0,Object_Land_Solid_Large,-8.0,,,,,,,,,,,
encoding,value,28,5044558,5050569,5045005.0,5045311.0,307.0,307.0,1774.1,1220.7,1591.0,891.0,Object_Sea_Solid_Large,40.29445325001143,46.305416374932975,5.0,Object_Land_Solid_Large,-8.0,,,,,,,,,,,
encoding,value,28,5044558,5050569,5045520.0,5045661.0,142.0,142.0,2186.9,881.5,2249.0,1269.0,Object_Land_Solid_Large,40.29445325001143,46.305416374932975,5.0,Object_Land_Solid_Large,-8.0,,,,,,,,,,,
encoding,value,28,5044558,5050569,5045675.0,5046011.0,337.0,337.0,2225.5,811.3,2249.0,1269.0,Object_Land_Solid_Large,40.29445325001143,46.305416374932975,5.0,Object_Land_Solid_Large,-8.0,,,,,,,,,,,
encoding,value,28,5044558,5050569,5046032.0,5046293.0,262.0,262.0,2205.0,918.8,2249.0,1269.0,Object_Land_Solid_Large,40.29445325001143,46.305416374932975,5.0,Object_Land_Solid_Large,-8.0,,,,,,,,,,,
encoding,value,28,5044558,5050569,5046313.0,5046865.0,553.0,553.0,2222.5,828.8,2249.0,1269.0,Object_Land_Solid_Large,40.29445325001143,46.305416374932975,5.0,Object_Land_Solid_Large,-8.0,,,,,,,,,,,
encoding,value,28,5044558,5050569,5046884.0,5047215.0,332.0,332.0,2214.8,930.2,2249.0,1269.0,Object_Land_Solid_Large,40.29445325001143,46.305416374932975,5.0,Object_Land_Solid_Large,-8.0,,,,,,,,,,,
encoding,value,28,5044558,5050569,5047223.0,5047567.0,345.0,345.0,2223.5,903.7,2249.0,1269.0,Object_Land_Solid_Large,40.29445325001143,46.305416374932975,5.0,Object_Land_Solid_Large,-8.0,,,,,,,,,,,
encoding,value,28,5044558,5050569,5047584.0,5048684.0,1101.0,1101.0,2224.1,823.0,2249.0,1269.0,Object_Land_Solid_Large,40.29445325001143,46.305416374932975,5.0,Object_Land_Solid_Large,-8.0,,,,,,,,,,,
encoding,value,28,5044558,5050569,5048706.0,5049053.0,348.0,348.0,2222.8,928.0999999999999,2249.0,1269.0,Object_Land_Solid_Large,40.29445325001143,46.305416374932975,5.0,Object_Land_Solid_Large,-8.0,,,,,,,,,,,
encoding,value,28,5044558,5050569,5049066.0,5049404.0,339.0,339.0,2231.5,877.9000000000001,2249.0,1269.0,Object_Land_Solid_Large,40.29445325001143,46.305416374932975,5.0,Object_Land_Solid_Large,-8.0,,,,,,,,,,,
encoding,value,28,5044558,5050569,5049418.0,5050927.0,1510.0,1151.0,2234.2,816.0,2249.0,1269.0,Object_Land_Solid_Large,40.29445325001143,46.305416374932975,5.0,Object_Land_Solid_Large,-8.0,,,,,,,,,,,
encoding,attention,28,5050569,5053586,5050934.0,5051345.0,412.0,412.0,2266.4,819.8,2249.0,1269.0,Object_Land_Solid_Large,46.30554224993102,49.322033958975226,5.0,Object_Land_Solid_Large,-8.0,-8.0,1.0,0.8805573750287294,,,,,,,,
encoding,attention,28,5050569,5053586,5051360.0,5051804.0,445.0,445.0,2203.5,884.0,2249.0,1269.0,Object_Land_Solid_Large,46.30554224993102,49.322033958975226,5.0,Object_Land_Solid_Large,-8.0,-8.0,1.0,0.8805573750287294,,,,,,,,
encoding,attention,28,5050569,5053586,5051815.0,5052374.0,560.0,560.0,2158.6,915.5,2249.0,1269.0,Object_Land_Solid_Large,46.30554224993102,49.322033958975226,5.0,Object_Land_Solid_Large,-8.0,-8.0,1.0,0.8805573750287294,,,,,,,,
encoding,attention,28,5050569,5053586,5052388.0,5053102.0,715.0,715.0,2173.7,888.0999999999999,2249.0,1269.0,Object_Land_Solid_Large,46.30554224993102,49.322033958975226,5.0,Object_Land_Solid_Large,-8.0,-8.0,1.0,0.8805573750287294,,,,,,,,
encoding,attention,28,5050569,5053586,5053113.0,5053330.0,218.0,218.0,2179.9,849.5999999999999,2249.0,1269.0,Object_Land_Solid_Large,46.30554224993102,49.322033958975226,5.0,Object_Land_Solid_Large,-8.0,-8.0,1.0,0.8805573750287294,,,,,,,,
encoding,fixation,29,5053586,5054342,5053596.0,5053805.0,210.0,210.0,2171.4,924.0,2249.0,1269.0,Object_Land_Solid_Large,49.32218925002962,50.07745337486267,5.0,Object_Sea_Solid_Small,8.0,,,,,,,,,,,
encoding,fixation,29,5053586,5054342,5053837.0,5054595.0,759.0,505.0,1892.6,1118.0,1920.0,1080.0,fixation,49.32218925002962,50.07745337486267,5.0,Object_Sea_Solid_Small,8.0,,,,,,,,,,,
encoding,image,29,5054342,5055352,5054630.0,5054892.0,263.0,263.0,2186.0,1314.6,2249.0,891.0,Object_Sea_Solid_Small,50.07763779186644,51.08783066691831,5.0,Object_Sea_Solid_Small,8.0,,,,,,,,,,,
encoding,image,29,5054342,5055352,5054900.0,5055541.0,642.0,452.0,2206.1,1307.8,2249.0,891.0,Object_Sea_Solid_Small,50.07763779186644,51.08783066691831,5.0,Object_Sea_Solid_Small,8.0,,,,,,,,,,,
encoding,value,29,5055352,5061363,5055557.0,5055879.0,323.0,323.0,2203.9,1212.8,2249.0,891.0,Object_Sea_Solid_Small,51.08793487492949,57.09818495903164,5.0,Object_Sea_Solid_Small,8.0,,,,,,,,,,,
encoding,value,29,5055352,5061363,5055898.0,5056819.0,922.0,922.0,2194.1,1314.2,2249.0,891.0,Object_Sea_Solid_Small,51.08793487492949,57.09818495903164,5.0,Object_Sea_Solid_Small,8.0,,,,,,,,,,,
encoding,value,29,5055352,5061363,5056837.0,5058724.0,1888.0,1888.0,2213.5,1219.0,2249.0,891.0,Object_Sea_Solid_Small,51.08793487492949,57.09818495903164,5.0,Object_Sea_Solid_Small,8.0,,,,,,,,,,,
encoding,value,29,5055352,5061363,5058746.0,5059737.0,992.0,992.0,2201.7,1308.5,2249.0,891.0,Object_Sea_Solid_Small,51.08793487492949,57.09818495903164,5.0,Object_Sea_Solid_Small,8.0,,,,,,,,,,,
encoding,value,29,5055352,5061363,5059750.0,5059951.0,202.0,202.0,2212.2,1255.1,2249.0,891.0,Object_Sea_Solid_Small,51.08793487492949,57.09818495903164,5.0,Object_Sea_Solid_Small,8.0,,,,,,,,,,,
encoding,value,29,5055352,5061363,5059962.0,5060939.0,978.0,978.0,2208.7,1207.8,2249.0,891.0,Object_Sea_Solid_Small,51.08793487492949,57.09818495903164,5.0,Object_Sea_Solid_Small,8.0,,,,,,,,,,,
encoding,value,29,5055352,5061363,5060958.0,5061399.0,442.0,405.0,2211.9,1324.0,2249.0,891.0,Object_Sea_Solid_Small,51.08793487492949,57.09818495903164,5.0,Object_Sea_Solid_Small,8.0,,,,,,,,,,,
encoding,attention,29,5061363,5064379,5061414.0,5061754.0,341.0,341.0,2225.9,1250.5,2249.0,891.0,Object_Sea_Solid_Small,57.09831312485039,60.11470258398913,5.0,Object_Sea_Solid_Small,8.0,8.0,1.0,0.8989164580125362,,,,,,,,
encoding,attention,29,5061363,5064379,5061765.0,5062500.0,736.0,736.0,2176.4,1216.4,2249.0,891.0,Object_Sea_Solid_Small,57.09831312485039,60.11470258398913,5.0,Object_Sea_Solid_Small,8.0,8.0,1.0,0.8989164580125362,,,,,,,,
encoding,attention,29,5061363,5064379,5063269.0,5063753.0,485.0,485.0,2180.2,1299.2,2249.0,891.0,Object_Sea_Solid_Small,57.09831312485039,60.11470258398913,5.0,Object_Sea_Solid_Small,8.0,8.0,1.0,0.8989164580125362,,,,,,,,
encoding,attention,29,5061363,5064379,5063792.0,5064239.0,448.0,448.0,1953.8,1194.9,1920.0,700.0,Animal_Land_Pattern_Large,57.09831312485039,60.11470258398913,5.0,Object_Sea_Solid_Small,8.0,8.0,1.0,0.8989164580125362,,,,,,,,
encoding,fixation,30,5064379,5065384,5064676.0,5064967.0,292.0,292.0,1892.8,1129.1,1920.0,1080.0,fixation,60.11484416690655,61.11992104188539,5.0,Animal_Sea_Pattern_Small,-8.0,,,,,,,,,,,
encoding,fixation,30,5064379,5065384,5064974.0,5065646.0,673.0,410.0,1893.7,1092.9,1920.0,1080.0,fixation,60.11484416690655,61.11992104188539,5.0,Animal_Sea_Pattern_Small,-8.0,,,,,,,,,,,
encoding,image,30,5065384,5066396,5065688.0,5066612.0,925.0,708.0,1904.2,710.3,1920.0,1460.0,Animal_Sea_Pattern_Small,61.12004291685298,62.13135849987157,5.0,Animal_Sea_Pattern_Small,-8.0,,,,,,,,,,,
encoding,value,30,5066396,5072408,5066627.0,5066877.0,251.0,251.0,1887.1,618.5999999999999,1920.0,1460.0,Animal_Sea_Pattern_Small,62.131477209040895,68.1432337090373,5.0,Animal_Sea_Pattern_Small,-8.0,,,,,,,,,,,
encoding,value,30,5066396,5072408,5066897.0,5067246.0,350.0,350.0,1892.7,704.0,1920.0,1460.0,Animal_Sea_Pattern_Small,62.131477209040895,68.1432337090373,5.0,Animal_Sea_Pattern_Small,-8.0,,,,,,,,,,,
encoding,value,30,5066396,5072408,5067293.0,5067648.0,356.0,356.0,1885.9,1091.2,1920.0,1080.0,fixation,62.131477209040895,68.1432337090373,5.0,Animal_Sea_Pattern_Small,-8.0,,,,,,,,,,,
encoding,value,30,5066396,5072408,5067679.0,5067898.0,220.0,220.0,1881.5,978.7,1920.0,1460.0,Animal_Sea_Pattern_Small,62.131477209040895,68.1432337090373,5.0,Animal_Sea_Pattern_Small,-8.0,,,,,,,,,,,
encoding,value,30,5066396,5072408,5067919.0,5068150.0,232.0,232.0,1876.7,1109.2,1920.0,1080.0,fixation,62.131477209040895,68.1432337090373,5.0,Animal_Sea_Pattern_Small,-8.0,,,,,,,,,,,
encoding,value,30,5066396,5072408,5068160.0,5068480.0,321.0,321.0,1892.6,1083.9,1920.0,1080.0,fixation,62.131477209040895,68.1432337090373,5.0,Animal_Sea_Pattern_Small,-8.0,,,,,,,,,,,
encoding,value,30,5066396,5072408,5068516.0,5068719.0,204.0,204.0,1898.6,918.5,1920.0,1460.0,Animal_Sea_Pattern_Small,62.131477209040895,68.1432337090373,5.0,Animal_Sea_Pattern_Small,-8.0,,,,,,,,,,,
encoding,value,30,5066396,5072408,5068744.0,5069418.0,675.0,675.0,1901.6,727.4000000000001,1920.0,1460.0,Animal_Sea_Pattern_Small,62.131477209040895,68.1432337090373,5.0,Animal_Sea_Pattern_Small,-8.0,,,,,,,,,,,
encoding,value,30,5066396,5072408,5069426.0,5069745.0,320.0,320.0,1864.4,714.4000000000001,1920.0,1460.0,Animal_Sea_Pattern_Small,62.131477209040895,68.1432337090373,5.0,Animal_Sea_Pattern_Small,-8.0,,,,,,,,,,,
encoding,value,30,5066396,5072408,5069752.0,5070061.0,310.0,310.0,1897.7,713.7,1920.0,1460.0,Animal_Sea_Pattern_Small,62.131477209040895,68.1432337090373,5.0,Animal_Sea_Pattern_Small,-8.0,,,,,,,,,,,
encoding,value,30,5066396,5072408,5070296.0,5070335.0,40.0,40.0,1886.0,776.4000000000001,1920.0,1460.0,Animal_Sea_Pattern_Small,62.131477209040895,68.1432337090373,5.0,Animal_Sea_Pattern_Small,-8.0,,,,,,,,,,,
encoding,value,30,5066396,5072408,5070353.0,5070917.0,565.0,565.0,1868.7,718.4000000000001,1920.0,1460.0,Animal_Sea_Pattern_Small,62.131477209040895,68.1432337090373,5.0,Animal_Sea_Pattern_Small,-8.0,,,,,,,,,,,
encoding,value,30,5066396,5072408,5070926.0,5071520.0,595.0,595.0,1884.8,688.2,1920.0,1460.0,Animal_Sea_Pattern_Small,62.131477209040895,68.1432337090373,5.0,Animal_Sea_Pattern_Small,-8.0,,,,,,,,,,,
