phase,event,onset,offset,trial_number,game,image,outcome,choice,correct,rt,letter,match,response,option,true_value,true_position,recalled_position,
encoding,fixation,12.804351208964363,14.322501791873947,1,1,Object_Land_Solid_Small,2,,,,,,,,,,,
encoding,image,14.322619708953425,15.34399341698736,1,1,Object_Land_Solid_Small,2,,,,,,,,,,,
encoding,value,15.34420616691932,21.36127687478438,1,1,Object_Land_Solid_Small,2,,,,,,,,,,,
encoding,attention,21.36141495895572,24.379193833796307,1,1,Object_Land_Solid_Small,2,+2,1,2.562478832900524,,,,,,,,
encoding,fixation,24.379368291934952,25.6343953339383,2,1,Object_Sea_Solid_Large,-5,,,,,,,,,,,
encoding,image,25.63450604188256,26.646492666797712,2,1,Object_Sea_Solid_Large,-5,,,,,,,,,,,
encoding,value,26.646609833929688,32.659643083810806,2,1,Object_Sea_Solid_Large,-5,,,,,,,,,,,
encoding,attention,32.65976212499663,35.677875499939546,2,1,Object_Sea_Solid_Large,-5,-5,1,1.3709962908178568,,,,,,,,
encoding,fixation,35.6780219997745,36.93392941681668,3,1,Animal_Land_Pattern_Small,-1,,,,,,,,,,,
encoding,image,36.934036541962996,37.94497574982233,3,1,Animal_Land_Pattern_Small,-1,,,,,,,,,,,
encoding,value,37.94516199990176,43.9568275839556,3,1,Animal_Land_Pattern_Small,-1,,,,,,,,,,,
encoding,attention,43.95695345895365,46.97519070887938,3,1,Animal_Land_Pattern_Small,-1,-1,1,1.2512453750241548,,,,,,,,
encoding,fixation,46.975353333866224,48.23236458399333,4,1,Animal_Land_Solid_Small,1,,,,,,,,,,,
encoding,image,48.232493249932304,49.24334299983457,4,1,Animal_Land_Solid_Small,1,,,,,,,,,,,
encoding,value,49.24344899994321,55.2543981669005,4,1,Animal_Land_Solid_Small,1,,,,,,,,,,,
encoding,attention,55.25455104187131,58.27144491695799,4,1,Animal_Land_Solid_Small,1,+1,1,0.9197737909853458,,,,,,,,
encoding,fixation,58.27160958386958,59.52654687478207,5,1,Object_Sea_Pattern_Large,5,,,,,,,,,,,
encoding,image,59.526674249907956,60.53813762497157,5,1,Object_Sea_Pattern_Large,5,,,,,,,,,,,
encoding,value,60.538250624900684,66.54899483383633,5,1,Object_Sea_Pattern_Large,5,,,,,,,,,,,
encoding,attention,66.5491739588324,69.6228139998857,5,1,Object_Sea_Pattern_Large,5,+5,1,1.9163520839065313,,,,,,,,
encoding,fixation,69.6229735838715,70.12811633385718,6,1,Animal_Sea_Pattern_Large,-1,,,,,,,,,,,
encoding,image,70.12822195887566,71.13816283387132,6,1,Animal_Sea_Pattern_Large,-1,,,,,,,,,,,
encoding,value,71.13827062491328,77.1497775837779,6,1,Animal_Sea_Pattern_Large,-1,,,,,,,,,,,
encoding,attention,77.14988262485713,80.16651416686364,6,1,Animal_Sea_Pattern_Large,-1,-1,1,0.9939427920617163,,,,,,,,
n-back,,,,1,1,,,,1,None,V,False,None,,,,,
n-back,,,,2,1,,,,0,None,B,True,None,,,,,
n-back,,,,3,1,,,,1,0.9490401670336723,V,True,1,,,,,
n-back,,,,4,1,,,,1,None,C,False,None,,,,,
n-back,,,,5,1,,,,0,None,V,True,None,,,,,
n-back,,,,6,1,,,,1,None,N,False,None,,,,,
n-back,,,,7,1,,,,1,None,Z,False,None,,,,,
n-back,,,,8,1,,,,1,None,Z,False,None,,,,,
n-back,,,,9,1,,,,1,0.6389008748810738,Z,True,1,,,,,
n-back,,,,10,1,,,,0,None,Z,True,None,,,,,
n-back,,,,11,1,,,,1,None,B,False,None,,,,,
n-back,,,,12,1,,,,1,None,C,False,None,,,,,
n-back,,,,13,1,,,,1,None,V,False,None,,,,,
n-back,,,,14,1,,,,1,0.42652379209175706,C,True,1,,,,,
n-back,,,,15,1,,,,1,None,X,False,None,,,,,
n-back,,,,16,1,,,,0,None,C,True,None,,,,,
n-back,,,,17,1,,,,1,None,Z,False,None,,,,,
n-back,,,,18,1,,,,1,None,B,False,None,,,,,
n-back,,,,19,1,,,,1,None,N,False,None,,,,,
n-back,,,,20,1,,,,1,None,Z,False,None,,,,,
n-back,,,,21,1,,,,1,1.2657031249254942,N,True,1,,,,,
n-back,,,,22,1,,,,1,None,C,False,None,,,,,
n-back,,,,23,1,,,,1,None,V,False,None,,,,,
n-back,,,,24,1,,,,1,None,X,False,None,,,,,
n-back,,,,25,1,,,,1,0.8702414170838892,V,True,1,,,,,
n-back,,,,26,1,,,,0,None,X,True,None,,,,,
n-back,,,,27,1,,,,1,None,N,False,None,,,,,
n-back,,,,28,1,,,,1,None,C,False,None,,,,,
n-back,,,,29,1,,,,1,None,X,False,None,,,,,
n-back,,,,30,1,,,,1,None,V,False,None,,,,,
choice,fixation,170.8599801249802,171.86678699986078,1,1,,,,,,,,,Sea,,,,
choice,option,171.8758580419235,173.11609304184094,1,1,,,,,,,,,Sea,,,,
choice,choice,173.11620774981566,185.01097799977288,1,1,,,2,1,10.883506458019838,,,,Sea,,,,
choice,fixation,185.01112033380195,185.76612108387053,2,1,,,,,,,,,Small,,,,
choice,option,185.7753756667953,186.8036108338274,2,1,,,,,,,,,Small,,,,
choice,choice,186.803795583779,200.0737834998872,2,1,,,1,1,12.2591008329764,,,,Small,,,,
choice,fixation,200.0739079588093,200.57946833386086,3,1,,,,,,,,,Solid,,,,
choice,option,200.58894370892085,201.6167807499878,3,1,,,,,,,,,Solid,,,,
choice,choice,201.61687879194506,205.29764824989252,3,1,,,1,0,2.6702032920438796,,,,Solid,,,,
choice,fixation,205.29777237493545,206.30276008392684,4,1,,,,,,,,,Large,,,,
choice,option,206.31166629190557,207.33966995892115,4,1,,,,,,,,,Large,,,,
choice,choice,207.33984087477438,215.21591979195364,4,1,,,2,1,6.86613754206337,,,,Large,,,,
choice,fixation,215.21606470877305,216.22093491698615,5,1,,,,,,,,,Animal,,,,
choice,option,216.23044445877895,217.2577032088302,5,1,,,,,,,,,Animal,,,,
choice,choice,217.25783712486736,231.13846245897003,5,1,,,2,1,12.868410875089467,,,,Animal,,,,
choice,fixation,231.13867804198526,231.8936671668198,6,1,,,,,,,,,Land,,,,
choice,option,231.90263308398426,232.92994104186073,6,1,,,,,,,,,Land,,,,
choice,choice,232.93004991696216,235.37702049990185,6,1,,,1,1,1.4376003749202937,,,,Land,,,,
choice,fixation,235.37717429199256,236.13330641691573,7,1,,,,,,,,,Object,,,,
choice,option,236.14276954182424,237.16931158397347,7,1,,,,,,,,,Object,,,,
choice,choice,237.16945824981667,239.1681738749612,7,1,,,1,1,0.9891647500917315,,,,Object,,,,
choice,fixation,239.16836595884524,239.92366887489334,8,1,,,,,,,,,Pattern,,,,
choice,option,239.9330709169153,240.96077033388428,8,1,,,,,,,,,Pattern,,,,
choice,choice,240.96087412489578,246.40878104185686,8,1,,,2,0,4.437147167045623,,,,Pattern,,,,
memory,free_recall,301.29107420891523,321.2267509168014,0,1,,,,,,,,,,,,,
memory,value_recall,362.0716539998539,370.2018004998099,1,1,Object_Sea_Pattern_Large,,,,8.126161125022918,,,,,5,,,
memory,value_recall,371.50130849983543,375.1397964998614,2,1,Object_Sea_Solid_Large,,,,3.6342208748683333,,,,,-5,,,
memory,value_recall,377.18639095895924,386.7817305419594,3,1,Animal_Sea_Pattern_Large,,,,9.591441708151251,,,,,-1,,,
memory,value_recall,388.3328119998332,392.3559910419863,4,1,Animal_Land_Solid_Small,,,,4.0191979999653995,,,,,1,,,
memory,value_recall,393.4026718749665,395.3635711669922,5,1,Animal_Land_Pattern_Small,,,,1.9578764159232378,,,,,-1,,,
memory,value_recall,396.4091989588924,398.5079225418158,6,1,Object_Land_Solid_Small,,,,2.093568499898538,,,,,2,,,
memory,spatial_recall,419.68586287484504,431.5592840418685,6,1,Object_Land_Solid_Small,,,1,11.86941641708836,,,,,,"[0, -380]","[0, -380]",
memory,spatial_recall,433.11651558382437,445.37536874995567,6,1,Animal_Land_Solid_Small,,,1,12.254694832954556,,,,,,"[329, 189]","[329, 189]",
memory,spatial_recall,447.4363403338939,451.99758224980906,6,1,Object_Sea_Solid_Large,,,1,4.556975542102009,,,,,,"[-329, 190]","[-329, 190]",
memory,spatial_recall,453.81126720877364,456.926448041806,6,1,Animal_Land_Pattern_Small,,,1,3.110194875160232,,,,,,"[-329, -190]","[-329, -190]",
memory,spatial_recall,458.2338674168568,461.6812527917791,6,1,Object_Sea_Pattern_Large,,,1,3.443353916052729,,,,,,"[0, 380]","[0, 380]",
memory,spatial_recall,463.4925059999805,466.2595255419146,6,1,Animal_Sea_Pattern_Large,,,1,2.7620956250466406,,,,,,"[329, -190]","[329, -190]",
encoding,fixation,10.579419458052143,11.335152124986053,7,2,Object_Sea_Solid_Large,-8,,,,,,,,,,,
encoding,image,11.335264875087887,12.350120417075232,7,2,Object_Sea_Solid_Large,-8,,,,,,,,,,,
encoding,value,12.35026687500067,18.36452641710639,7,2,Object_Sea_Solid_Large,-8,,,,,,,,,,,
encoding,attention,18.364655500045046,21.38464149995707,7,2,Object_Sea_Solid_Large,-8,-8,1,1.0200777919963002,,,,,,,,
encoding,fixation,21.384789125062525,22.14003554196097,8,2,Animal_Land_Pattern_Small,-4,,,,,,,,,,,
encoding,image,22.140148042002693,23.151207542046905,8,2,Animal_Land_Pattern_Small,-4,,,,,,,,,,,
encoding,value,23.151321167126298,29.165712000103667,8,2,Animal_Land_Pattern_Small,-4,,,,,,,,,,,
encoding,attention,29.165911042131484,32.184438958065584,8,2,Animal_Land_Pattern_Small,-4,-4,1,2.3299628749955446,,,,,,,,
encoding,fixation,32.18458295799792,33.4396190000698,9,2,Object_Land_Solid_Large,1,,,,,,,,,,,
encoding,image,33.439758291933686,34.45094804209657,9,2,Object_Land_Solid_Large,1,,,,,,,,,,,
encoding,value,34.45108437514864,40.465552458073944,9,2,Object_Land_Solid_Large,1,,,,,,,,,,,
encoding,attention,40.46567808301188,43.48557287501171,9,2,Object_Land_Solid_Large,1,+1,1,1.2297470001503825,,,,,,,,
encoding,fixation,43.48572662496008,44.99111649999395,10,2,Animal_Land_Pattern_Large,-3,,,,,,,,,,,
encoding,image,44.99123637494631,46.002133999951184,10,2,Animal_Land_Pattern_Large,-3,,,,,,,,,,,
encoding,value,46.0022389581427,52.01585820806213,10,2,Animal_Land_Pattern_Large,-3,,,,,,,,,,,
encoding,attention,52.015973708126694,55.02810470806435,10,2,Animal_Land_Pattern_Large,-3,None,None,None,,,,,,,,
encoding,fixation,55.02824887493625,55.53336574998684,11,2,Animal_Sea_Pattern_Small,8,,,,,,,,,,,
encoding,image,55.53347458294593,56.54554254212417,11,2,Animal_Sea_Pattern_Small,8,,,,,,,,,,,
encoding,value,56.545708999969065,62.5576657501515,11,2,Animal_Sea_Pattern_Small,8,,,,,,,,,,,
encoding,attention,62.557785333134234,65.57867812504992,11,2,Animal_Sea_Pattern_Small,8,+8,1,1.1539969169534743,,,,,,,,
encoding,fixation,65.57882841699757,66.83392616710626,12,2,Object_Sea_Solid_Small,-8,,,,,,,,,,,
encoding,image,66.83402704214677,67.84452566714026,12,2,Object_Sea_Solid_Small,-8,,,,,,,,,,,
encoding,value,67.84463308309205,73.85537462495267,12,2,Object_Sea_Solid_Small,-8,,,,,,,,,,,
encoding,attention,73.85551004204899,76.87168308300897,12,2,Object_Sea_Solid_Small,-8,-8,1,1.1702500418759882,,,,,,,,
n-back,,,,31,2,,,,0,None,N,True,None,,,,,
n-back,,,,32,2,,,,0,None,X,True,None,,,,,
n-back,,,,33,2,,,,1,1.1372189160902053,N,True,1,,,,,
n-back,,,,34,2,,,,0,None,X,True,None,,,,,
n-back,,,,35,2,,,,0,None,N,True,None,,,,,
n-back,,,,36,2,,,,1,None,Z,False,None,,,,,
n-back,,,,37,2,,,,1,None,C,False,None,,,,,
n-back,,,,38,2,,,,1,0.5000980000477284,Z,True,1,,,,,
n-back,,,,39,2,,,,0,None,C,True,None,,,,,
n-back,,,,40,2,,,,1,None,N,False,None,,,,,
n-back,,,,41,2,,,,1,None,Z,False,None,,,,,
n-back,,,,42,2,,,,1,None,Z,False,None,,,,,
n-back,,,,43,2,,,,1,None,N,False,None,,,,,
n-back,,,,44,2,,,,1,0.46330995904281735,Z,True,1,,,,,
n-back,,,,45,2,,,,1,None,C,False,None,,,,,
n-back,,,,46,2,,,,1,None,X,False,None,,,,,
n-back,,,,47,2,,,,1,None,V,False,None,,,,,
n-back,,,,48,2,,,,1,None,C,False,None,,,,,
n-back,,,,49,2,,,,1,0.35915416688658297,V,True,1,,,,,
n-back,,,,50,2,,,,1,None,N,False,None,,,,,
n-back,,,,51,2,,,,1,None,B,False,None,,,,,
n-back,,,,52,2,,,,1,None,X,False,None,,,,,
n-back,,,,53,2,,,,1,None,C,False,None,,,,,
n-back,,,,54,2,,,,1,None,Z,False,None,,,,,
n-back,,,,55,2,,,,1,None,B,False,None,,,,,
n-back,,,,56,2,,,,1,None,X,False,None,,,,,
n-back,,,,57,2,,,,1,None,C,False,None,,,,,
n-back,,,,58,2,,,,1,0.6047069160267711,X,True,1,,,,,
n-back,,,,59,2,,,,1,None,V,False,None,,,,,
n-back,,,,60,2,,,,1,None,N,False,None,,,,,
choice,fixation,158.95918225008063,160.46318633295596,9,2,,,,,,,,,Object,,,,
choice,option,160.47229450009763,161.50100391707383,9,2,,,,,,,,,Object,,,,
choice,choice,161.50118479202501,167.30413195793517,9,2,,,2,1,4.793305583996698,,,,Object,,,,
choice,fixation,167.3042620830238,167.80925212497823,10,2,,,,,,,,,Small,,,,
choice,option,167.8186181250494,168.8479962919373,10,2,,,,,,,,,Small,,,,
choice,choice,168.84811054193415,173.42509791697375,10,2,,,1,0,3.566961041186005,,,,Small,,,,
choice,fixation,173.42521966714412,174.68033233308233,11,2,,,,,,,,,Animal,,,,
choice,option,174.68979225005023,175.71761562512256,11,2,,,,,,,,,Animal,,,,
choice,choice,175.71771595813334,189.52285662502982,11,2,,,2,0,12.794126666849479,,,,Animal,,,,
choice,fixation,189.52298787492327,190.27888433309272,12,2,,,,,,,,,Sea,,,,
choice,option,190.2874041250907,191.31536704208702,12,2,,,,,,,,,Sea,,,,
choice,choice,191.31548241712153,195.18499354203232,12,2,,,2,1,2.8598915829788893,,,,Sea,,,,
choice,fixation,195.1851161669474,195.6900949580595,13,2,,,,,,,,,Solid,,,,
choice,option,195.6993234171532,196.72617758298293,13,2,,,,,,,,,Solid,,,,
choice,choice,196.72630262514576,200.91239079204388,13,2,,,2,1,3.176030083093792,,,,Solid,,,,
choice,fixation,200.91252466710284,201.66745487507433,14,2,,,,,,,,,Land,,,,
choice,option,201.67570875003003,202.7031129579991,14,2,,,,,,,,,Land,,,,
choice,choice,202.70329049997963,211.12111870804802,14,2,,,1,0,7.407914124894887,,,,Land,,,,
choice,fixation,211.12123558297753,211.62650008313358,15,2,,,,,,,,,Large,,,,
choice,option,211.63526612496935,212.66279520792887,15,2,,,,,,,,,Large,,,,
choice,choice,212.66297954204492,221.11484854202718,15,2,,,2,1,7.440494915936142,,,,Large,,,,
choice,fixation,221.11497595813125,221.61993833305314,16,2,,,,,,,,,Pattern,,,,
choice,option,221.62896929192357,222.65635091695003,16,2,,,,,,,,,Pattern,,,,
choice,choice,222.65652237506583,226.09643699997105,16,2,,,1,1,2.4296570408623666,,,,Pattern,,,,
memory,free_recall,253.1544228750281,271.34635862498544,6,2,,,,,,,,,,,,,
memory,value_recall,285.5148317499552,292.1243225829676,7,2,Object_Land_Solid_Large,,,,6.605309084057808,,,,,1,,,
memory,value_recall,294.1715053329244,299.877950708149,8,2,Animal_Sea_Pattern_Small,,,,5.7019916251301765,,,,,8,,,
memory,value_recall,301.17571987514384,305.4360322081484,9,2,Object_Sea_Solid_Small,,,,4.2561830000486225,,,,,-8,,,
memory,value_recall,307.2318162501324,309.9072693749331,10,2,Object_Sea_Solid_Large,,,,2.6714952080510557,,,,,-8,,,
memory,value_recall,311.7046336249914,314.5233756250236,11,2,Animal_Land_Pattern_Small,,,,2.8146023340523243,,,,,-4,,,
memory,value_recall,316.56930041708983,320.5999399579596,12,2,Animal_Land_Pattern_Large,,,,4.026558874873444,,,,,-3,,,
memory,spatial_recall,328.3969157501124,330.67416545795277,12,2,Object_Sea_Solid_Small,,,1,2.2733386671170592,,,,,,"[329, 189]","[329, 189]",
memory,spatial_recall,332.23103908309713,334.35838483297266,12,2,Animal_Land_Pattern_Small,,,1,2.1232361670117825,,,,,,"[-329, -190]","[-329, -190]",
memory,spatial_recall,335.91732916701585,339.82519908295944,12,2,Animal_Sea_Pattern_Small,,,1,3.903652000008151,,,,,,"[0, -380]","[0, -380]",
memory,spatial_recall,340.8813355830498,343.7464415000286,12,2,Animal_Land_Pattern_Large,,,1,2.861036916030571,,,,,,"[0, 380]","[0, 380]",
memory,spatial_recall,345.55377875012346,348.44158049998805,12,2,Object_Land_Solid_Large,,,1,2.8834797081071883,,,,,,"[329, -190]","[329, -190]",
memory,spatial_recall,349.4995097499341,352.0751715830993,12,2,Object_Sea_Solid_Large,,,1,2.5732141660992056,,,,,,"[-329, 190]","[-329, 190]",
encoding,fixation,7.763529916061088,9.018993249861524,13,3,Animal_Land_Solid_Large,3,,,,,,,,,,,
encoding,image,9.019093957962468,10.032369915861636,13,3,Animal_Land_Solid_Large,3,,,,,,,,,,,
encoding,value,10.032486290903762,16.046278208028525,13,3,Animal_Land_Solid_Large,3,,,,,,,,,,,
encoding,attention,16.046420415863395,19.06520341592841,13,3,Animal_Land_Solid_Large,3,+3,1,0.9280154169537127,,,,,,,,
encoding,fixation,19.06534579093568,20.320791540900245,14,3,Object_Land_Pattern_Small,-7,,,,,,,,,,,
encoding,image,20.32090766588226,21.333130832994357,14,3,Object_Land_Pattern_Small,-7,,,,,,,,,,,
encoding,value,21.3332712079864,27.34628895786591,14,3,Object_Land_Pattern_Small,-7,,,,,,,,,,,
encoding,attention,27.34641212504357,30.36565045802854,14,3,Object_Land_Pattern_Small,-7,-7,1,1.2688638328108937,,,,,,,,
encoding,fixation,30.365814415970817,31.37138770800084,15,3,Animal_Sea_Solid_Large,-7,,,,,,,,,,,
encoding,image,31.371513708028942,32.38254158291966,15,3,Animal_Sea_Solid_Large,-7,,,,,,,,,,,
encoding,value,32.382657582871616,38.393790249945596,15,3,Animal_Sea_Solid_Large,-7,,,,,,,,,,,
encoding,attention,38.3939157910645,41.41603266587481,15,3,Animal_Sea_Solid_Large,-7,-7,1,1.2325535421259701,,,,,,,,
encoding,fixation,41.41618458298035,41.92139841592871,16,3,Animal_Sea_Solid_Small,5,,,,,,,,,,,
encoding,image,41.92151812487282,42.93262195796706,16,3,Animal_Sea_Solid_Small,5,,,,,,,,,,,
encoding,value,42.93278658296913,48.94503975007683,16,3,Animal_Sea_Solid_Small,5,,,,,,,,,,,
encoding,attention,48.94515037490055,51.95887858304195,16,3,Animal_Sea_Solid_Small,5,None,None,None,,,,,,,,
encoding,fixation,51.95902062486857,52.714417041046545,17,3,Object_Sea_Pattern_Small,3,,,,,,,,,,,
encoding,image,52.71453704102896,53.72583458293229,17,3,Object_Sea_Pattern_Small,3,,,,,,,,,,,
encoding,value,53.725952208042145,59.737110750051215,17,3,Object_Sea_Pattern_Small,3,,,,,,,,,,,
encoding,attention,59.737233040854335,62.75495758303441,17,3,Object_Sea_Pattern_Small,3,+3,1,0.9503932918887585,,,,,,,,
encoding,fixation,62.75516020786017,63.2607922910247,18,3,Object_Land_Pattern_Large,1,,,,,,,,,,,
encoding,image,63.26095133298077,64.27282075001858,18,3,Object_Land_Pattern_Large,1,,,,,,,,,,,
encoding,value,64.27294066594914,70.28505920805037,18,3,Object_Land_Pattern_Large,1,,,,,,,,,,,
encoding,attention,70.28519141604193,73.3032524578739,18,3,Object_Land_Pattern_Large,1,+1,1,1.3627278748899698,,,,,,,,
n-back,,,,61,3,,,,1,None,X,False,None,,,,,
n-back,,,,62,3,,,,1,None,N,False,None,,,,,
n-back,,,,63,3,,,,1,None,C,False,None,,,,,
n-back,,,,64,3,,,,1,0.661420667078346,N,True,1,,,,,
n-back,,,,65,3,,,,1,None,V,False,None,,,,,
n-back,,,,66,3,,,,0,None,N,True,None,,,,,
n-back,,,,67,3,,,,1,None,N,False,None,,,,,
n-back,,,,68,3,,,,1,None,B,False,None,,,,,
n-back,,,,69,3,,,,1,None,V,False,None,,,,,
n-back,,,,70,3,,,,1,None,C,False,None,,,,,
n-back,,,,71,3,,,,1,None,B,False,None,,,,,
n-back,,,,72,3,,,,1,None,X,False,None,,,,,
n-back,,,,73,3,,,,1,1.097733125090599,B,True,1,,,,,
n-back,,,,74,3,,,,0,None,X,True,None,,,,,
n-back,,,,75,3,,,,0,None,B,True,None,,,,,
n-back,,,,76,3,,,,1,0.6579632500652224,X,True,1,,,,,
n-back,,,,77,3,,,,1,None,Z,False,None,,,,,
n-back,,,,78,3,,,,1,None,C,False,None,,,,,
n-back,,,,79,3,,,,0,None,Z,True,None,,,,,
n-back,,,,80,3,,,,1,None,X,False,None,,,,,
n-back,,,,81,3,,,,1,None,N,False,None,,,,,
n-back,,,,82,3,,,,0,None,X,True,None,,,,,
n-back,,,,83,3,,,,1,0.8241520419251174,N,True,1,,,,,
n-back,,,,84,3,,,,0,None,X,True,None,,,,,
n-back,,,,85,3,,,,1,None,V,False,None,,,,,
n-back,,,,86,3,,,,1,None,B,False,None,,,,,
n-back,,,,87,3,,,,1,None,X,False,None,,,,,
n-back,,,,88,3,,,,1,None,X,False,None,,,,,
n-back,,,,89,3,,,,1,None,V,False,None,,,,,
n-back,,,,90,3,,,,1,None,Z,False,None,,,,,
choice,fixation,155.42921420792118,156.68250624998473,17,3,,,,,,,,,Animal,,,,
choice,option,156.69178649992682,157.72086087497883,17,3,,,,,,,,,Animal,,,,
choice,choice,157.7210057908669,166.20102962502278,17,3,,,1,1,7.469988957978785,,,,Animal,,,,
choice,fixation,166.20115970796905,166.95620479085483,18,3,,,,,,,,,Pattern,,,,
choice,option,166.96529387496412,167.99286474986002,18,3,,,,,,,,,Pattern,,,,
choice,choice,167.99302837485448,178.1536809578538,18,3,,,2,1,9.149989708093926,,,,Pattern,,,,
choice,fixation,178.1538684158586,179.15922404103912,19,3,,,,,,,,,Object,,,,
choice,option,179.16878341604024,180.19592808303423,19,3,,,,,,,,,Object,,,,
choice,choice,180.19607437495142,188.61806624988094,19,3,,,1,0,7.411637665936723,,,,Object,,,,
choice,fixation,188.6182042909786,190.1243704580702,20,3,,,,,,,,,Large,,,,
choice,option,190.13306691590697,191.16040925006382,20,3,,,,,,,,,Large,,,,
choice,choice,191.16054458287545,194.83398250001483,20,3,,,1,0,2.664020041935146,,,,Large,,,,
choice,fixation,194.83410929096863,195.58939966605976,21,3,,,,,,,,,Small,,,,
choice,option,195.5982372078579,196.62484404095449,21,3,,,,,,,,,Small,,,,
choice,choice,196.62495154095814,200.64867366594262,21,3,,,2,0,3.013726333156228,,,,Small,,,,
choice,fixation,200.64880841597915,201.90392991597764,22,3,,,,,,,,,Land,,,,
choice,option,201.91238987492397,202.93939295806922,22,3,,,,,,,,,Land,,,,
choice,choice,202.9395020408556,219.47372341598384,22,3,,,2,1,15.52345791598782,,,,Land,,,,
choice,fixation,219.47383995796554,220.72880320786498,23,3,,,,,,,,,Sea,,,,
choice,option,220.73729062499478,221.76374620804563,23,3,,,,,,,,,Sea,,,,
choice,choice,221.76390729099512,229.14565183292143,23,3,,,1,1,6.372371207922697,,,,Sea,,,,
choice,fixation,229.1457702908665,230.15076250000857,24,3,,,,,,,,,Solid,,,,
choice,option,230.16030858294107,231.18713337485678,24,3,,,,,,,,,Solid,,,,
choice,choice,231.18724316591397,233.72212337492965,24,3,,,1,1,1.5251602921634912,,,,Solid,,,,
memory,free_recall,246.27663262491114,282.1868286249228,12,3,,,,,,,,,,,,,
memory,value_recall,287.67991266585886,298.33973970799707,13,3,Animal_Land_Solid_Large,,,,10.656461624894291,,,,,3,,,
memory,value_recall,300.13728024996817,304.10750791593455,14,3,Object_Land_Pattern_Small,,,,3.9661429170519114,,,,,-7,,,
memory,value_recall,305.4041500410531,308.3275907500647,15,3,Animal_Sea_Solid_Large,,,,2.9188928748480976,,,,,-7,,,
memory,value_recall,310.3737964578904,314.79509112495,16,3,Object_Land_Pattern_Large,,,,4.417284874944016,,,,,1,,,
memory,value_recall,316.0933154579252,320.11666670790873,17,3,Animal_Sea_Solid_Small,,,,4.019229667028412,,,,,5,,,
memory,value_recall,321.4131328749936,329.24377649999224,18,3,Object_Sea_Pattern_Small,,,,7.826471874956042,,,,,3,,,
memory,spatial_recall,333.8938873328734,338.93994766590185,18,3,Object_Land_Pattern_Small,,,1,5.041811417089775,,,,,,"[329, 189]","[329, 189]",
memory,spatial_recall,340.5082543750759,347.8086020408664,18,3,Animal_Land_Solid_Large,,,1,7.2962119579315186,,,,,,"[0, -380]","[0, -380]",
memory,spatial_recall,348.8695169580169,351.7656373749487,18,3,Object_Sea_Pattern_Small,,,1,2.893732791999355,,,,,,"[-329, 190]","[-329, 190]",
memory,spatial_recall,353.0713877498638,357.8663289998658,18,3,Animal_Sea_Solid_Large,,,1,4.790855583036318,,,,,,"[329, -190]","[329, -190]",
memory,spatial_recall,359.42519329092465,361.86921533290297,18,3,Animal_Sea_Solid_Small,,,1,2.4398691670503467,,,,,,"[0, 380]","[0, 380]",
memory,spatial_recall,363.9290824579075,366.919407249894,18,3,Object_Land_Pattern_Large,,,1,2.9862289580050856,,,,,,"[-329, -190]","[-329, -190]",
encoding,fixation,7.234023874858394,7.739485583035275,19,4,Object_Sea_Solid_Large,-1,,,,,,,,,,,
encoding,image,7.7395934159867465,8.752037040889263,19,4,Object_Sea_Solid_Large,-1,,,,,,,,,,,
encoding,value,8.752156500006095,14.766266624908894,19,4,Object_Sea_Solid_Large,-1,,,,,,,,,,,
encoding,attention,14.766400124877691,17.785266374936327,19,4,Object_Sea_Solid_Large,-1,-1,1,1.5300782087724656,,,,,,,,
encoding,fixation,17.78541529085487,18.5411254579667,20,4,Animal_Land_Solid_Small,6,,,,,,,,,,,
encoding,image,18.54126566601917,19.552047665929422,20,4,Animal_Land_Solid_Small,6,,,,,,,,,,,
encoding,value,19.5521692908369,25.564430124824867,20,4,Animal_Land_Solid_Small,6,,,,,,,,,,,
encoding,attention,25.564566999906674,28.581539124948904,20,4,Animal_Land_Solid_Small,6,+6,1,0.7933613329660147,,,,,,,,
encoding,fixation,28.58168741595,29.33719537500292,21,4,Animal_Sea_Pattern_Large,-4,,,,,,,,,,,
encoding,image,29.33730270783417,30.347700875019655,21,4,Animal_Sea_Pattern_Large,-4,,,,,,,,,,,
encoding,value,30.34780262503773,36.35846699983813,21,4,Animal_Sea_Pattern_Large,-4,,,,,,,,,,,
encoding,attention,36.35859699989669,39.375823749927804,21,4,Animal_Sea_Pattern_Large,-4,-4,1,1.075776332989335,,,,,,,,
encoding,fixation,39.37600849987939,40.631339124869555,22,4,Object_Sea_Pattern_Large,4,,,,,,,,,,,
encoding,image,40.63145033293404,41.64557962492108,22,4,Object_Sea_Pattern_Large,4,,,,,,,,,,,
encoding,value,41.645715415943414,47.657043415820226,22,4,Object_Sea_Pattern_Large,4,,,,,,,,,,,
encoding,attention,47.657238540938124,50.67621258297004,22,4,Object_Sea_Pattern_Large,4,+4,1,0.701295749982819,,,,,,,,
encoding,fixation,50.676383832935244,51.43260983284563,23,4,Object_Land_Solid_Small,-2,,,,,,,,,,,
encoding,image,51.43271808302961,52.44581541582011,23,4,Object_Land_Solid_Small,-2,,,,,,,,,,,
encoding,value,52.44601924996823,58.457337375031784,23,4,Object_Land_Solid_Small,-2,,,,,,,,,,,
encoding,attention,58.45745995803736,61.47468491597101,23,4,Object_Land_Solid_Small,-2,-2,1,2.2447583749890327,,,,,,,,
encoding,fixation,61.4748512909282,62.229895915836096,24,4,Animal_Land_Pattern_Small,-3,,,,,,,,,,,
encoding,image,62.230005874997005,63.24211020790972,24,4,Animal_Land_Pattern_Small,-3,,,,,,,,,,,
encoding,value,63.242211665958166,69.25358316581696,24,4,Animal_Land_Pattern_Small,-3,,,,,,,,,,,
encoding,attention,69.2536927498877,72.27136604092084,24,4,Animal_Land_Pattern_Small,-3,-3,1,1.6288259588181973,,,,,,,,
n-back,,,,91,4,,,,1,None,V,False,None,,,,,
n-back,,,,92,4,,,,1,None,Z,False,None,,,,,
n-back,,,,93,4,,,,1,0.5487618341576308,V,True,1,,,,,
n-back,,,,94,4,,,,0,None,Z,True,None,,,,,
n-back,,,,95,4,,,,1,None,X,False,None,,,,,
n-back,,,,96,4,,,,1,None,X,False,None,,,,,
n-back,,,,97,4,,,,1,None,C,False,None,,,,,
n-back,,,,98,4,,,,1,None,Z,False,None,,,,,
n-back,,,,99,4,,,,0,0.8665460420306772,Z,False,1,,,,,
n-back,,,,100,4,,,,1,None,C,False,None,,,,,
n-back,,,,101,4,,,,0,None,Z,True,None,,,,,
n-back,,,,102,4,,,,1,None,N,False,None,,,,,
n-back,,,,103,4,,,,1,0.6580642911139876,Z,True,1,,,,,
n-back,,,,104,4,,,,0,None,N,True,None,,,,,
n-back,,,,105,4,,,,0,None,Z,True,None,,,,,
n-back,,,,106,4,,,,1,None,B,False,None,,,,,
n-back,,,,107,4,,,,1,None,X,False,None,,,,,
n-back,,,,108,4,,,,1,None,V,False,None,,,,,
n-back,,,,109,4,,,,1,None,Z,False,None,,,,,
n-back,,,,110,4,,,,0,None,V,True,None,,,,,
n-back,,,,111,4,,,,1,0.6065693330019712,Z,True,1,,,,,
n-back,,,,112,4,,,,0,None,V,True,None,,,,,
n-back,,,,113,4,,,,1,None,C,False,None,,,,,
n-back,,,,114,4,,,,1,None,B,False,None,,,,,
n-back,,,,115,4,,,,1,None,N,False,None,,,,,
n-back,,,,116,4,,,,1,None,Z,False,None,,,,,
n-back,,,,117,4,,,,1,None,C,False,None,,,,,
n-back,,,,118,4,,,,1,None,X,False,None,,,,,
n-back,,,,119,4,,,,1,0.32323020906187594,C,True,1,,,,,
n-back,,,,120,4,,,,1,None,C,False,None,,,,,
choice,fixation,151.5881542910356,152.09546433296055,25,4,,,,,,,,,Pattern,,,,
choice,option,152.10424599982798,153.1317116250284,25,4,,,,,,,,,Pattern,,,,
choice,choice,153.1318236659281,176.74862383282743,25,4,,,1,0,22.60261525004171,,,,Pattern,,,,
choice,fixation,176.7489127079025,177.75463558291085,26,4,,,,,,,,,Solid,,,,
choice,option,177.76486687501892,178.79256079089828,26,4,,,,,,,,,Solid,,,,
choice,choice,178.7926994159352,205.10516637493856,26,4,,,1,1,25.30107062496245,,,,Solid,,,,
choice,fixation,205.10539658297785,206.11269329092465,27,4,,,,,,,,,Small,,,,
choice,option,206.12142241583206,207.1484111249447,27,4,,,,,,,,,Small,,,,
choice,choice,207.14853770798072,221.01663112500682,27,4,,,2,0,12.857286459067836,,,,Small,,,,
choice,fixation,221.01680695801042,221.77199170785025,28,4,,,,,,,,,Animal,,,,
choice,option,221.78113358281553,222.808816249948,28,4,,,,,,,,,Animal,,,,
choice,choice,222.8089316249825,226.49867683299817,28,4,,,1,0,2.6800621249713004,,,,Animal,,,,
choice,fixation,226.4987992499955,228.00377554097213,29,4,,,,,,,,,Large,,,,
choice,option,228.01247658301145,229.04052212485112,29,4,,,,,,,,,Large,,,,
choice,choice,229.04062295798212,234.56822212482803,29,4,,,2,1,4.517508666962385,,,,Large,,,,
choice,fixation,234.56834749993868,235.82330562500283,30,4,,,,,,,,,Land,,,,
choice,option,235.83243195782416,236.85998704098165,30,4,,,,,,,,,Land,,,,
choice,choice,236.86010787496343,247.75245758285746,30,4,,,1,1,9.882086500059813,,,,Land,,,,
choice,fixation,247.75257916585542,248.257562040817,31,4,,,,,,,,,Sea,,,,
choice,option,248.26623004092835,249.29518566583283,31,4,,,,,,,,,Sea,,,,
choice,choice,249.29530374985188,250.85439570783637,31,4,,,2,1,0.549345999956131,,,,Sea,,,,
choice,fixation,250.8545205409173,251.35949112498201,32,4,,,,,,,,,Object,,,,
choice,option,251.36889233300462,252.39575808285736,32,4,,,,,,,,,Object,,,,
choice,choice,252.3958645828534,254.67854104097933,32,4,,,1,1,1.2724917088635266,,,,Object,,,,
memory,free_recall,270.59534745803103,298.9217034999747,18,4,,,,,,,,,,,,,
memory,value_recall,307.1039841659367,311.7146130828187,19,4,Animal_Land_Pattern_Small,,,,4.605328833218664,,,,,-3,,,
memory,value_recall,313.5123113328591,317.08117037499323,20,4,Animal_Land_Solid_Small,,,,3.5644741249270737,,,,,6,,,
memory,value_recall,318.62736874981783,323.8428337909281,21,4,Object_Land_Solid_Small,,,,5.211547957966104,,,,,-2,,,
memory,value_recall,325.3887299578637,329.7146873329766,22,4,Object_Sea_Pattern_Large,,,,4.321031416999176,,,,,4,,,
memory,value_recall,330.76184637495317,334.8813732499257,23,4,Object_Sea_Solid_Large,,,,4.116264250129461,,,,,-1,,,
memory,value_recall,336.6780986250378,341.4105446250178,24,4,Animal_Sea_Pattern_Large,,,,4.728389083174989,,,,,-4,,,
memory,spatial_recall,348.9451112910174,353.376265874831,24,4,Animal_Land_Solid_Small,,,1,4.427077791886404,,,,,,"[329, 189]","[329, 189]",
memory,spatial_recall,355.19391574990004,359.1257405409124,24,4,Object_Sea_Pattern_Large,,,1,3.9276234169956297,,,,,,"[0, 380]","[0, 380]",
memory,spatial_recall,360.43785933288746,362.0220002080314,24,4,Animal_Land_Pattern_Small,,,1,1.576454499969259,,,,,,"[-329, -190]","[-329, -190]",
memory,spatial_recall,363.5766984159127,368.6387192499824,24,4,Animal_Sea_Pattern_Large,,,1,5.057994290953502,,,,,,"[329, -190]","[329, -190]",
memory,spatial_recall,369.94810037501156,372.99401529086754,24,4,Object_Land_Solid_Small,,,1,3.0419483750592917,,,,,,"[0, -380]","[0, -380]",
memory,spatial_recall,374.80769454082474,376.39370474987663,24,4,Object_Sea_Solid_Large,,,1,1.5819809169042856,,,,,,"[-329, 190]","[-329, 190]",
encoding,fixation,6.38002641685307,7.138096208916977,25,5,Animal_Land_Pattern_Large,5,,,,,,,,,,,
encoding,image,7.138194917002693,8.150948708876967,25,5,Animal_Land_Pattern_Large,5,,,,,,,,,,,
encoding,value,8.15107245882973,14.16408120887354,25,5,Animal_Land_Pattern_Large,5,,,,,,,,,,,
encoding,attention,14.164219124941155,17.183278916869313,25,5,Animal_Land_Pattern_Large,5,+5,1,1.4676460418850183,,,,,,,,
encoding,fixation,17.18342591682449,18.18870854191482,26,5,Object_Sea_Solid_Large,7,,,,,,,,,,,
encoding,image,18.18882937496528,19.200565916951746,26,5,Object_Sea_Solid_Large,7,,,,,,,,,,,
encoding,value,19.20068845897913,25.212816999992356,26,5,Object_Sea_Solid_Large,7,,,,,,,,,,,
encoding,attention,25.212922167032957,28.231575874844566,26,5,Object_Sea_Solid_Large,7,+7,1,0.8816029168665409,,,,,,,,
encoding,fixation,28.23178399982862,28.737463666824624,27,5,Animal_Land_Pattern_Small,2,,,,,,,,,,,
encoding,image,28.73757104203105,29.74889662489295,27,5,Animal_Land_Pattern_Small,2,,,,,,,,,,,
encoding,value,29.74900387483649,35.76001987489872,27,5,Animal_Land_Pattern_Small,2,,,,,,,,,,,
encoding,attention,35.76014008396305,38.777919083833694,27,5,Animal_Land_Pattern_Small,2,+2,1,1.8323175420518965,,,,,,,,
encoding,fixation,38.778081291820854,39.28347729193047,28,5,Object_Land_Solid_Large,-8,,,,,,,,,,,
encoding,image,39.28359454195015,40.2943329999689,28,5,Object_Land_Solid_Large,-8,,,,,,,,,,,
encoding,value,40.29445325001143,46.305416374932975,28,5,Object_Land_Solid_Large,-8,,,,,,,,,,,
encoding,attention,46.30554224993102,49.322033958975226,28,5,Object_Land_Solid_Large,-8,-8,1,0.8805573750287294,,,,,,,,
encoding,fixation,49.32218925002962,50.07745337486267,29,5,Object_Sea_Solid_Small,8,,,,,,,,,,,
encoding,image,50.07763779186644,51.08783066691831,29,5,Object_Sea_Solid_Small,8,,,,,,,,,,,
encoding,value,51.08793487492949,57.09818495903164,29,5,Object_Sea_Solid_Small,8,,,,,,,,,,,
encoding,attention,57.09831312485039,60.11470258398913,29,5,Object_Sea_Solid_Small,8,+8,1,0.8989164580125362,,,,,,,,
encoding,fixation,60.11484416690655,61.11992104188539,30,5,Animal_Sea_Pattern_Small,-8,,,,,,,,,,,
encoding,image,61.12004291685298,62.13135849987157,30,5,Animal_Sea_Pattern_Small,-8,,,,,,,,,,,
encoding,value,62.131477209040895,68.1432337090373,30,5,Animal_Sea_Pattern_Small,-8,,,,,,,,,,,
encoding,attention,68.14335012482479,71.1606092499569,30,5,Animal_Sea_Pattern_Small,-8,-8,1,2.057461667107418,,,,,,,,
n-back,,,,121,5,,,,1,None,B,False,None,,,,,
n-back,,,,122,5,,,,1,None,N,False,None,,,,,
n-back,,,,123,5,,,,1,None,V,False,None,,,,,
n-back,,,,124,5,,,,1,None,Z,False,None,,,,,
n-back,,,,125,5,,,,1,None,B,False,None,,,,,
n-back,,,,126,5,,,,1,0.9898514591623098,Z,True,1,,,,,
n-back,,,,127,5,,,,1,None,N,False,None,,,,,
n-back,,,,128,5,,,,0,None,Z,True,None,,,,,
n-back,,,,129,5,,,,1,None,B,False,None,,,,,
n-back,,,,130,5,,,,1,None,X,False,None,,,,,
n-back,,,,131,5,,,,1,0.4915572078898549,B,True,1,,,,,
n-back,,,,132,5,,,,1,None,C,False,None,,,,,
n-back,,,,133,5,,,,0,None,B,True,None,,,,,
n-back,,,,134,5,,,,1,None,Z,False,None,,,,,
n-back,,,,135,5,,,,1,None,V,False,None,,,,,
n-back,,,,136,5,,,,1,0.4392941249534488,Z,True,1,,,,,
n-back,,,,137,5,,,,0,None,V,True,None,,,,,
n-back,,,,138,5,,,,1,None,V,False,None,,,,,
n-back,,,,139,5,,,,1,None,Z,False,None,,,,,
n-back,,,,140,5,,,,1,0.38199629192240536,V,True,1,,,,,
n-back,,,,141,5,,,,1,None,C,False,None,,,,,
n-back,,,,142,5,,,,0,None,V,True,None,,,,,
n-back,,,,143,5,,,,1,None,N,False,None,,,,,
n-back,,,,144,5,,,,1,None,N,False,None,,,,,
n-back,,,,145,5,,,,1,None,X,False,None,,,,,
n-back,,,,146,5,,,,1,None,C,False,None,,,,,
n-back,,,,147,5,,,,1,0.5399337080307305,X,True,1,,,,,
n-back,,,,148,5,,,,1,None,V,False,None,,,,,
n-back,,,,149,5,,,,0,None,X,True,None,,,,,
n-back,,,,150,5,,,,1,None,C,False,None,,,,,
choice,fixation,151.7333946248982,153.23668149998412,33,5,,,,,,,,,Land,,,,
choice,option,153.2448845419567,154.27375949989073,33,5,,,,,,,,,Land,,,,
choice,choice,154.27388437488116,166.17114420887083,33,5,,,2,1,10.886277707992122,,,,Land,,,,
choice,fixation,166.17127099982463,166.92623429186642,34,5,,,,,,,,,Large,,,,
choice,option,166.93501954199746,167.96164562483318,34,5,,,,,,,,,Large,,,,
choice,choice,167.96176366694272,171.9501406669151,34,5,,,1,1,2.978840042138472,,,,Large,,,,
choice,fixation,171.95026208390482,173.45527404197492,35,5,,,,,,,,,Small,,,,
choice,option,173.46460583386943,174.49456029199064,35,5,,,,,,,,,Small,,,,
choice,choice,174.49468204192817,182.14765187492594,35,5,,,2,0,6.642352417111397,,,,Small,,,,
choice,fixation,182.14780754200183,183.40313983382657,36,5,,,,,,,,,Object,,,,
choice,option,183.4124922088813,184.43903179187328,36,5,,,,,,,,,Object,,,,
choice,choice,184.43915866687894,188.18514379183762,36,5,,,1,1,2.735191958025098,,,,Object,,,,
choice,fixation,188.18526958394796,189.44035704201087,37,5,,,,,,,,,Pattern,,,,
choice,option,189.44988145888783,190.4767380419653,37,5,,,,,,,,,Pattern,,,,
choice,choice,190.47686033393256,196.40199008397758,37,5,,,2,1,4.915327334078029,,,,Pattern,,,,
choice,fixation,196.40211958391592,197.65727137494832,38,5,,,,,,,,,Solid,,,,
choice,option,197.66672912496142,198.69398916698992,38,5,,,,,,,,,Solid,,,,
choice,choice,198.6941052498296,204.2186423339881,38,5,,,1,1,4.51476658298634,,,,Solid,,,,
choice,fixation,204.21881737490185,205.47392399981618,39,5,,,,,,,,,Animal,,,,
choice,option,205.48298983392306,206.51054245885462,39,5,,,,,,,,,Animal,,,,
choice,choice,206.51073008403182,208.92348937503994,39,5,,,1,0,1.4022950001526624,,,,Animal,,,,
choice,fixation,208.92366033396684,209.9288872918114,40,5,,,,,,,,,Sea,,,,
choice,option,209.93713270896114,210.9637134168297,40,5,,,,,,,,,Sea,,,,
choice,choice,210.9638253748417,214.0016699170228,40,5,,,1,1,2.0280460419598967,,,,Sea,,,,
memory,free_recall,234.70108087500557,255.8128811668139,24,5,,,,,,,,,,,,,
memory,value_recall,263.20331641682424,268.05334862484597,25,5,Animal_Sea_Pattern_Small,,,,4.845936875091866,,,,,-8,,,
memory,value_recall,269.85337279201485,273.61300808400847,26,5,Object_Sea_Solid_Large,,,,3.7548712079878896,,,,,7,,,
memory,value_recall,275.15959891700186,277.13149549998343,27,5,Object_Land_Solid_Large,,,,1.96770158293657,,,,,-8,,,
memory,value_recall,278.92811341700144,281.197120583849,28,5,Object_Sea_Solid_Small,,,,2.2649778749328107,,,,,8,,,
memory,value_recall,282.4940254588146,286.7791249589063,29,5,Animal_Land_Pattern_Small,,,,4.2809781660325825,,,,,2,,,
memory,value_recall,288.8268983748276,292.2131590419449,30,5,Animal_Land_Pattern_Large,,,,3.38155841617845,,,,,5,,,
memory,spatial_recall,296.4282494590152,298.44139233394526,30,5,Object_Sea_Solid_Large,,,1,2.009130374994129,,,,,,"[-329, 190]","[-329, 190]",
memory,spatial_recall,299.50673499982804,303.05387216689996,30,5,Animal_Sea_Pattern_Small,,,1,3.544808750040829,,,,,,"[0, -380]","[0, -380]",
memory,spatial_recall,304.1066992089618,305.3704482498579,30,5,Object_Land_Solid_Large,,,1,1.261358000105247,,,,,,"[329, -190]","[329, -190]",
memory,spatial_recall,306.4198263748549,308.62131604203023,30,5,Animal_Land_Pattern_Small,,,1,2.196813458111137,,,,,,"[-329, -190]","[-329, -190]",
memory,spatial_recall,310.4274139588233,312.257998917019,30,5,Object_Sea_Solid_Small,,,1,1.8263382920995355,,,,,,"[329, 189]","[329, 189]",
memory,spatial_recall,313.81930629187264,315.2607000840362,30,5,Animal_Land_Pattern_Large,,,1,1.436189291998744,,,,,,"[0, 380]","[0, 380]",
encoding,fixation,6.950377125060186,7.955863459035754,31,6,Animal_Land_Solid_Large,1,,,,,,,,,,,
encoding,image,7.955982666928321,8.967644499847665,31,6,Animal_Land_Solid_Large,1,,,,,,,,,,,
encoding,value,8.967746083857492,14.981181334005669,31,6,Animal_Land_Solid_Large,1,,,,,,,,,,,
encoding,attention,14.981286667054519,17.99959233403206,31,6,Animal_Land_Solid_Large,1,+1,1,1.3170607089996338,,,,,,,,
encoding,fixation,17.99974137498066,18.50536762503907,32,6,Animal_Sea_Solid_Large,-6,,,,,,,,,,,
encoding,image,18.50547429197468,19.51679400005378,32,6,Animal_Sea_Solid_Large,-6,,,,,,,,,,,
encoding,value,19.516902124974877,25.52871841704473,32,6,Animal_Sea_Solid_Large,-6,,,,,,,,,,,
encoding,attention,25.528822500025854,28.54598345886916,32,6,Animal_Sea_Solid_Large,-6,-6,1,0.8738622919190675,,,,,,,,
encoding,fixation,28.546154249925166,29.051425209036097,33,6,Object_Land_Pattern_Large,6,,,,,,,,,,,
encoding,image,29.05152283399366,30.06332933390513,33,6,Object_Land_Pattern_Large,6,,,,,,,,,,,
encoding,value,30.063432791968808,36.07542470889166,33,6,Object_Land_Pattern_Large,6,,,,,,,,,,,
encoding,attention,36.075538999866694,39.09441474988125,33,6,Object_Land_Pattern_Large,6,+6,1,0.6915702919941396,,,,,,,,
encoding,fixation,39.094568209024146,39.59995408402756,34,6,Object_Land_Pattern_Small,-8,,,,,,,,,,,
encoding,image,39.600165124982595,40.611576084047556,34,6,Object_Land_Pattern_Small,-8,,,,,,,,,,,
encoding,value,40.61168416705914,46.624785041902214,34,6,Object_Land_Pattern_Small,-8,,,,,,,,,,,
encoding,attention,46.62492220895365,49.64192624995485,34,6,Object_Land_Pattern_Small,-8,-8,1,0.7357114169280976,,,,,,,,
encoding,fixation,49.64208216685802,50.647582167061046,35,6,Object_Sea_Pattern_Small,1,,,,,,,,,,,
encoding,image,50.647688291966915,51.65856108395383,35,6,Object_Sea_Pattern_Small,1,,,,,,,,,,,
encoding,value,51.658672083867714,57.67106637498364,35,6,Object_Sea_Pattern_Small,1,,,,,,,,,,,
encoding,attention,57.67117049987428,60.69048999994993,35,6,Object_Sea_Pattern_Small,1,+1,1,1.26307454216294,,,,,,,,
encoding,fixation,60.690646041883156,61.94615883403458,36,6,Animal_Sea_Solid_Small,3,,,,,,,,,,,
encoding,image,61.94632604205981,62.95738354185596,36,6,Animal_Sea_Solid_Small,3,,,,,,,,,,,
encoding,value,62.9574940840248,68.9691921249032,36,6,Animal_Sea_Solid_Small,3,,,,,,,,,,,
encoding,attention,68.9693110419903,71.98679187498055,36,6,Animal_Sea_Solid_Small,3,+3,1,1.2555584169458598,,,,,,,,
n-back,,,,151,6,,,,1,None,N,False,None,,,,,
n-back,,,,152,6,,,,1,None,N,False,None,,,,,
n-back,,,,153,6,,,,1,0.7462137499824166,N,True,1,,,,,
n-back,,,,154,6,,,,0,None,N,True,None,,,,,
n-back,,,,155,6,,,,1,None,X,False,None,,,,,
n-back,,,,156,6,,,,1,None,C,False,None,,,,,
n-back,,,,157,6,,,,1,None,V,False,None,,,,,
n-back,,,,158,6,,,,1,None,X,False,None,,,,,
n-back,,,,159,6,,,,1,None,N,False,None,,,,,
n-back,,,,160,6,,,,1,None,B,False,None,,,,,
n-back,,,,161,6,,,,1,None,Z,False,None,,,,,
n-back,,,,162,6,,,,1,0.39409712492488325,B,True,1,,,,,
n-back,,,,163,6,,,,1,None,C,False,None,,,,,
n-back,,,,164,6,,,,1,None,C,False,None,,,,,
n-back,,,,165,6,,,,1,0.672125875018537,C,True,1,,,,,
n-back,,,,166,6,,,,0,None,C,True,None,,,,,
n-back,,,,167,6,,,,1,None,N,False,None,,,,,
n-back,,,,168,6,,,,1,0.5731633338145912,C,True,1,,,,,
n-back,,,,169,6,,,,1,None,V,False,None,,,,,
n-back,,,,170,6,,,,0,None,C,True,None,,,,,
n-back,,,,171,6,,,,1,None,N,False,None,,,,,
n-back,,,,172,6,,,,1,None,V,False,None,,,,,
n-back,,,,173,6,,,,1,None,Z,False,None,,,,,
n-back,,,,174,6,,,,1,None,B,False,None,,,,,
n-back,,,,175,6,,,,1,None,X,False,None,,,,,
n-back,,,,176,6,,,,1,0.3848713750485331,B,True,1,,,,,
n-back,,,,177,6,,,,1,None,V,False,None,,,,,
n-back,,,,178,6,,,,1,0.4300356248859316,B,True,1,,,,,
n-back,,,,179,6,,,,0,None,V,True,None,,,,,
n-back,,,,180,6,,,,1,None,V,False,None,,,,,
choice,fixation,146.11717949993908,147.37133300001733,41,6,,,,,,,,,Sea,,,,
choice,option,147.3796409170609,148.41249020886607,41,6,,,,,,,,,Sea,,,,
choice,choice,148.41261554206721,156.49119920888916,41,6,,,2,1,7.068049333058298,,,,Sea,,,,
choice,fixation,156.49132316699252,156.99659312493168,42,6,,,,,,,,,Pattern,,,,
choice,option,157.0060634589754,158.032851499971,42,6,,,,,,,,,Pattern,,,,
choice,choice,158.033004833851,165.83510704198852,42,6,,,2,1,6.792015083832666,,,,Pattern,,,,
choice,fixation,165.83523141685873,167.34083345904946,43,6,,,,,,,,,Solid,,,,
choice,option,167.3502096249722,168.3782735420391,43,6,,,,,,,,,Solid,,,,
choice,choice,168.3783903750591,174.61281049996614,43,6,,,1,0,5.223395250039175,,,,Solid,,,,
choice,fixation,174.61294633406214,175.86792862485163,44,6,,,,,,,,,Object,,,,
choice,option,175.8784431668464,176.9057747919578,44,6,,,,,,,,,Object,,,,
choice,choice,176.90588870900683,180.98633616697043,44,6,,,2,1,3.069318958092481,,,,Object,,,,
choice,fixation,180.9864647090435,181.9914873749949,45,6,,,,,,,,,Large,,,,
choice,option,182.00044750003144,183.0270285839215,45,6,,,,,,,,,Large,,,,
choice,choice,183.0271302089095,187.17190237506293,45,6,,,2,0,3.1344655419234186,,,,Large,,,,
choice,fixation,187.17204149998724,187.67816354194656,46,6,,,,,,,,,Animal,,,,
choice,option,187.68778566690162,188.71538633387536,46,6,,,,,,,,,Animal,,,,
choice,choice,188.71560154203326,193.28190720896237,46,6,,,2,1,3.556453709024936,,,,Animal,,,,
choice,fixation,193.28203070885502,194.2878440420609,47,6,,,,,,,,,Land,,,,
choice,option,194.29663970903493,195.32318091695197,47,6,,,,,,,,,Land,,,,
choice,choice,195.32335995906033,198.0862381248735,47,6,,,2,1,1.7516257918905467,,,,Land,,,,
choice,fixation,198.08637604187243,199.34220854192972,48,6,,,,,,,,,Small,,,,
choice,option,199.35111883399077,200.37948220898397,48,6,,,,,,,,,Small,,,,
choice,choice,200.37963462504558,203.37881512497552,48,6,,,2,1,1.9887436667922884,,,,Small,,,,
memory,free_recall,215.70064354198985,238.4371787919663,30,6,,,,,,,,,,,,,
memory,value_recall,245.04623929201625,247.75834029191174,31,6,Animal_Land_Solid_Large,,,,2.7077913749963045,,,,,1,,,
memory,value_recall,249.80545779201202,252.4046071670018,32,6,Object_Land_Pattern_Large,,,,2.59503083396703,,,,,6,,,
memory,value_recall,253.95095629198477,255.96623016684316,33,6,Animal_Sea_Solid_Small,,,,2.01121470797807,,,,,3,,,
memory,value_recall,257.7638078338932,260.26138945901766,34,6,Object_Land_Pattern_Small,,,,2.4935812500771135,,,,,-8,,,
memory,value_recall,261.80765941692516,263.9824067919981,35,6,Animal_Sea_Solid_Large,,,,2.1697974170092493,,,,,-6,,,
memory,value_recall,265.02906404202804,268.7664383749943,36,6,Object_Sea_Pattern_Small,,,,3.7338327921461314,,,,,1,,,
memory,spatial_recall,272.10653779190034,274.3373759589158,36,6,Animal_Sea_Solid_Small,,,1,2.2284697501454502,,,,,,"[0, 380]","[0, 380]",
memory,spatial_recall,275.3997954998631,278.08899591700174,36,6,Animal_Land_Solid_Large,,,1,2.6867814590223134,,,,,,"[0, -380]","[0, -380]",
memory,spatial_recall,279.89959220890887,284.38623487506993,36,6,Object_Land_Pattern_Large,,,1,4.482410874916241,,,,,,"[-329, -190]","[-329, -190]",
memory,spatial_recall,285.9414196249563,288.9016596248839,36,6,Object_Sea_Pattern_Small,,,1,2.956209958065301,,,,,,"[-329, 190]","[-329, 190]",
memory,spatial_recall,290.2093914998695,292.03801137488335,36,6,Object_Land_Pattern_Small,,,1,1.824673250084743,,,,,,"[329, 189]","[329, 189]",
memory,spatial_recall,293.3473414168693,294.2965714170132,36,6,Animal_Sea_Solid_Large,,,1,0.9451995410490781,,,,,,"[329, -190]","[329, -190]",
encoding,fixation,3.3720396670978516,4.3774495830293745,37,7,Animal_Sea_Solid_Large,-1,,,,,,,,,,,
encoding,image,4.377551958197728,5.390838042134419,37,7,Animal_Sea_Solid_Large,-1,,,,,,,,,,,
encoding,value,5.390938417054713,11.406623958144337,37,7,Animal_Sea_Solid_Large,-1,,,,,,,,,,,
encoding,attention,11.406744749983773,14.424278292106465,37,7,Animal_Sea_Solid_Large,-1,-1,1,1.1926938330288976,,,,,,,,
encoding,fixation,14.424434583168477,15.179597167065367,38,7,Object_Land_Pattern_Large,-1,,,,,,,,,,,
encoding,image,15.179705542046577,16.192761917132884,38,7,Object_Land_Pattern_Large,-1,,,,,,,,,,,
encoding,value,16.192935875151306,22.207658083178103,38,7,Object_Land_Pattern_Large,-1,,,,,,,,,,,
encoding,attention,22.2077836249955,25.228636250132695,38,7,Object_Land_Pattern_Large,-1,-1,1,0.7831564999651164,,,,,,,,
encoding,fixation,25.228784708073363,26.484079041983932,39,7,Animal_Land_Solid_Large,5,,,,,,,,,,,
encoding,image,26.484187667025253,27.49555804207921,39,7,Animal_Land_Solid_Large,5,,,,,,,,,,,
encoding,value,27.49567004200071,33.507681417046115,39,7,Animal_Land_Solid_Large,5,,,,,,,,,,,
encoding,attention,33.50781241711229,36.528663667151704,39,7,Animal_Land_Solid_Large,5,+5,1,0.7998659168370068,,,,,,,,
encoding,fixation,36.52881516702473,37.284426167141646,40,7,Animal_Sea_Solid_Small,-5,,,,,,,,,,,
encoding,image,37.284532624995336,38.29552387516014,40,7,Animal_Sea_Solid_Small,-5,,,,,,,,,,,
encoding,value,38.2956360001117,44.30698033305816,40,7,Animal_Sea_Solid_Small,-5,,,,,,,,,,,
encoding,attention,44.30709579214454,47.32405812502839,40,7,Animal_Sea_Solid_Small,-5,-5,1,1.5880256658419967,,,,,,,,
encoding,fixation,47.32421441702172,48.32914812513627,41,7,Object_Land_Pattern_Small,-1,,,,,,,,,,,
encoding,image,48.32927554217167,49.34066904219799,41,7,Object_Land_Pattern_Small,-1,,,,,,,,,,,
encoding,value,49.34078445821069,55.35196870821528,41,7,Object_Land_Pattern_Small,-1,,,,,,,,,,,
encoding,attention,55.35208333306946,58.36976625001989,41,7,Object_Land_Pattern_Small,-1,-1,1,1.360464375000447,,,,,,,,
encoding,fixation,58.369949208106846,59.124997708015144,42,7,Object_Sea_Pattern_Small,7,,,,,,,,,,,
encoding,image,59.125109292101115,60.136095208115876,42,7,Object_Sea_Pattern_Small,7,,,,,,,,,,,
encoding,value,60.136197542073205,66.14734841720201,42,7,Object_Sea_Pattern_Small,7,,,,,,,,,,,
encoding,attention,66.14747487520799,69.1674867500551,42,7,Object_Sea_Pattern_Small,7,+7,1,0.9867243750486523,,,,,,,,
n-back,,,,181,7,,,,0,None,Z,True,None,,,,,
n-back,,,,182,7,,,,1,None,N,False,None,,,,,
n-back,,,,183,7,,,,1,0.5469809998758137,Z,True,1,,,,,
n-back,,,,184,7,,,,0,None,N,True,None,,,,,
n-back,,,,185,7,,,,1,None,B,False,None,,,,,
n-back,,,,186,7,,,,1,None,Z,False,None,,,,,
n-back,,,,187,7,,,,1,None,Z,False,None,,,,,
n-back,,,,188,7,,,,1,None,N,False,None,,,,,
n-back,,,,189,7,,,,1,None,N,False,None,,,,,
n-back,,,,190,7,,,,1,None,X,False,None,,,,,
n-back,,,,191,7,,,,1,0.35709770885296166,N,True,1,,,,,
n-back,,,,192,7,,,,1,None,V,False,None,,,,,
n-back,,,,193,7,,,,0,None,N,True,None,,,,,
n-back,,,,194,7,,,,0,None,V,True,None,,,,,
n-back,,,,195,7,,,,1,0.3846152920741588,N,True,1,,,,,
n-back,,,,196,7,,,,1,None,N,False,None,,,,,
n-back,,,,197,7,,,,1,None,V,False,None,,,,,
n-back,,,,198,7,,,,1,None,B,False,None,,,,,
n-back,,,,199,7,,,,1,None,C,False,None,,,,,
n-back,,,,200,7,,,,1,0.9059184589423239,B,True,1,,,,,
n-back,,,,201,7,,,,1,None,X,False,None,,,,,
n-back,,,,202,7,,,,1,None,V,False,None,,,,,
n-back,,,,203,7,,,,1,None,N,False,None,,,,,
n-back,,,,204,7,,,,1,0.5159267920535058,V,True,1,,,,,
n-back,,,,205,7,,,,1,None,B,False,None,,,,,
n-back,,,,206,7,,,,1,None,C,False,None,,,,,
n-back,,,,207,7,,,,1,None,Z,False,None,,,,,
n-back,,,,208,7,,,,1,None,B,False,None,,,,,
n-back,,,,209,7,,,,1,None,X,False,None,,,,,
n-back,,,,210,7,,,,1,0.6180629169102758,B,True,1,,,,,
choice,fixation,146.62167904200032,147.37499337503687,49,7,,,,,,,,,Solid,,,,
choice,option,147.3841461671982,148.41096916701645,49,7,,,,,,,,,Solid,,,,
choice,choice,148.41109733306803,157.41207775007933,49,7,,,1,0,7.990656290901825,,,,Solid,,,,
choice,fixation,157.41221062513068,157.9176272500772,50,7,,,,,,,,,Sea,,,,
choice,option,157.92626066715457,158.95626083319075,50,7,,,,,,,,,Sea,,,,
choice,choice,158.9563727080822,161.75376337510534,50,7,,,2,0,1.7872456670738757,,,,Sea,,,,
choice,fixation,161.75388437509537,162.75889650010504,51,7,,,,,,,,,Large,,,,
choice,option,162.7672743331641,163.7947337080259,51,7,,,,,,,,,Large,,,,
choice,choice,163.7948537080083,167.56886983313598,51,7,,,1,1,2.763515207916498,,,,Large,,,,
choice,fixation,167.56900595803745,168.57417191704735,52,7,,,,,,,,,Animal,,,,
choice,option,168.58365783304907,169.61128366715275,52,7,,,,,,,,,Animal,,,,
choice,choice,169.61140654212795,175.67343250010163,52,7,,,1,0,5.0516157920937985,,,,Animal,,,,
choice,fixation,175.67356729204766,176.42872700002044,53,7,,,,,,,,,Pattern,,,,
choice,option,176.53121841698885,177.55945608299226,53,7,,,,,,,,,Pattern,,,,
choice,choice,177.55956841702573,180.53672612505034,53,7,,,1,1,1.9674489998724312,,,,Pattern,,,,
choice,fixation,180.53686087508686,181.29218537500128,54,7,,,,,,,,,Land,,,,
choice,option,181.30082708317786,182.32774775009602,54,7,,,,,,,,,Land,,,,
choice,choice,182.32785562518984,184.9996935420204,54,7,,,1,1,1.6616088340524584,,,,Land,,,,
choice,fixation,184.99983445811085,185.75809750007465,55,7,,,,,,,,,Small,,,,
choice,option,185.76699004205875,186.79338612500578,55,7,,,,,,,,,Small,,,,
choice,choice,186.7934971251525,188.5854968330823,55,7,,,2,0,0.7814654158428311,,,,Small,,,,
choice,fixation,188.58562629204243,189.84067220799625,56,7,,,,,,,,,Object,,,,
choice,option,189.84988733311184,190.87627066718414,56,7,,,,,,,,,Object,,,,
choice,choice,190.8763792081736,194.93572354200296,56,7,,,1,1,3.0491480838973075,,,,Object,,,,
memory,free_recall,205.37140200007707,223.06591033306904,36,7,,,,,,,,,,,,,
memory,value_recall,231.0530663751997,233.92256033304147,37,7,Animal_Sea_Solid_Small,,,,2.8653207500465214,,,,,-5,,,
memory,value_recall,235.71774691715837,239.41173845808953,38,7,Animal_Sea_Solid_Large,,,,3.6898522498086095,,,,,-1,,,
memory,value_recall,241.45807804213837,243.9153829170391,39,7,Object_Sea_Pattern_Small,,,,2.4530359169002622,,,,,7,,,
memory,value_recall,245.7110530422069,248.7736798331607,40,7,Object_Land_Pattern_Large,,,,3.05813774978742,,,,,-1,,,
memory,value_recall,250.81917533301748,253.59573775017634,41,7,Object_Land_Pattern_Small,,,,2.772480250103399,,,,,-1,,,
memory,value_recall,255.3918697501067,257.3303830421064,42,7,Animal_Land_Solid_Large,,,,1.9339590829331428,,,,,5,,,
memory,spatial_recall,260.6987862919923,263.3230600000825,42,7,Animal_Sea_Solid_Large,,,1,2.61842208285816,,,,,,"[329, -190]","[329, -190]",
memory,spatial_recall,264.38758916710503,265.3666607080959,42,7,Object_Land_Pattern_Large,,,1,0.9762857079040259,,,,,,"[-329, -190]","[-329, -190]",
memory,spatial_recall,267.1737246250268,269.2829621671699,42,7,Animal_Sea_Solid_Small,,,1,2.105209416942671,,,,,,"[0, 380]","[0, 380]",
memory,spatial_recall,270.58836054219864,271.8331006669905,42,7,Object_Land_Pattern_Small,,,1,1.2406085829716176,,,,,,"[329, 189]","[329, 189]",
memory,spatial_recall,272.8810591250658,275.2802610420622,42,7,Object_Sea_Pattern_Small,,,1,2.396165667101741,,,,,,"[-329, 190]","[-329, 190]",
memory,spatial_recall,276.33743070811033,277.3355832081288,42,7,Animal_Land_Solid_Large,,,1,0.9956903338897973,,,,,,"[0, -380]","[0, -380]",
