subject,phase,event,trial_number,game,option,choice,rt,roi_content,item_index,is_center,is_relevant,fix_start,fix_end,fix_duration_bounded
137,choice,choice,1,1.0,Solid,1.0,14.28652875003172,fixation,-1,1,0,2550516.0,2553991.0,3475.0
137,choice,choice,1,1.0,Solid,1.0,14.28652875003172,Animal_Sea_Solid_Small,0,0,1,2554028.0,2554240.0,212.0
137,choice,choice,1,1.0,Solid,1.0,14.28652875003172,fixation,-1,1,0,2554274.0,2564387.0,10113.0
137,choice,choice,2,1.0,Object,2.0,12.118630999990271,fixation,-1,1,0,2569143.0,2571793.0,2650.0
137,choice,choice,2,1.0,Object,2.0,12.118630999990271,Animal_Sea_Pattern_Small,1,0,0,2572142.0,2572275.0,133.0
137,choice,choice,2,1.0,Object,2.0,12.118630999990271,fixation,-1,1,0,2572305.0,2578124.0,5819.0
137,choice,choice,4,1.0,Small,2.0,13.89451337500941,fixation,-1,1,0,2589110.0,2594206.0,5096.0
137,choice,choice,4,1.0,Small,2.0,13.89451337500941,Animal_Sea_Pattern_Small,1,0,1,2594686.0,2594796.0,110.0
137,choice,choice,4,1.0,Small,2.0,13.89451337500941,fixation,-1,1,0,2594830.0,2600222.0,5392.0
137,choice,choice,5,1.0,Animal,2.0,12.201557916996537,fixation,-1,1,0,2605418.0,2606586.0,1168.0
137,choice,choice,5,1.0,Animal,2.0,12.201557916996537,Object_Sea_Pattern_Large,2,0,0,2606648.0,2606768.0,120.0
137,choice,choice,5,1.0,Animal,2.0,12.201557916996537,fixation,-1,1,0,2606822.0,2616155.0,9333.0
137,choice,choice,8,1.0,Pattern,1.0,5.175019624992274,fixation,-1,1,0,2626202.0,2627234.0,1032.0
137,choice,choice,8,1.0,Pattern,1.0,5.175019624992274,Animal_Sea_Pattern_Small,1,0,1,2627535.0,2627713.0,178.0
137,choice,choice,9,2.0,Solid,2.0,15.66020241600927,Animal_Sea_Pattern_Large,0,0,0,3114194.0,3119931.0,5737.0
137,choice,choice,9,2.0,Solid,2.0,15.66020241600927,Animal_Land_Pattern_Large,1,0,0,3120271.0,3120747.0,476.0
137,choice,choice,9,2.0,Solid,2.0,15.66020241600927,Object_Sea_Solid_Small,2,0,1,3120785.0,3121197.0,412.0
137,choice,choice,9,2.0,Solid,2.0,15.66020241600927,Animal_Land_Solid_Large,3,0,1,3121320.0,3121684.0,364.0
137,choice,choice,9,2.0,Solid,2.0,15.66020241600927,Object_Sea_Pattern_Small,4,0,0,3121737.0,3122191.0,454.0
137,choice,choice,9,2.0,Solid,2.0,15.66020241600927,Animal_Sea_Pattern_Large,0,0,0,3122251.0,3122464.0,213.0
137,choice,choice,9,2.0,Solid,2.0,15.66020241600927,Object_Land_Solid_Small,5,0,1,3122516.0,3123740.0,1224.0
137,choice,choice,9,2.0,Solid,2.0,15.66020241600927,Animal_Sea_Pattern_Large,0,0,0,3123825.0,3125360.0,1535.0
137,choice,choice,9,2.0,Solid,2.0,15.66020241600927,Animal_Land_Solid_Large,3,0,1,3125413.0,3126239.0,826.0
137,choice,choice,9,2.0,Solid,2.0,15.66020241600927,Object_Land_Solid_Small,5,0,1,3126310.0,3127162.0,852.0
137,choice,choice,9,2.0,Solid,2.0,15.66020241600927,Animal_Land_Pattern_Large,1,0,0,3127261.0,3127827.0,566.0
137,choice,choice,9,2.0,Solid,2.0,15.66020241600927,Object_Sea_Solid_Small,2,0,1,3127878.0,3128589.0,711.0
137,choice,choice,9,2.0,Solid,2.0,15.66020241600927,fixation,-1,1,0,3128627.0,3128778.0,151.0
137,choice,choice,9,2.0,Solid,2.0,15.66020241600927,Animal_Sea_Pattern_Large,0,0,0,3128808.0,3129077.0,269.0
137,choice,choice,9,2.0,Solid,2.0,15.66020241600927,Animal_Land_Solid_Large,3,0,1,3129131.0,3129216.0,85.0
137,choice,choice,9,2.0,Solid,2.0,15.66020241600927,fixation,-1,1,0,3129294.0,3129418.0,124.0
137,choice,choice,9,2.0,Solid,2.0,15.66020241600927,Animal_Sea_Pattern_Large,0,0,0,3129454.0,3129739.0,285.0
137,choice,choice,10,2.0,Animal,1.0,6.694102915993426,Animal_Land_Solid_Large,3,0,1,3133768.0,3136154.0,2386.0
137,choice,choice,10,2.0,Animal,1.0,6.694102915993426,Animal_Sea_Pattern_Large,0,0,1,3136822.0,3137784.0,962.0
137,choice,choice,10,2.0,Animal,1.0,6.694102915993426,Object_Land_Solid_Small,5,0,0,3137882.0,3138792.0,910.0
137,choice,choice,10,2.0,Animal,1.0,6.694102915993426,Animal_Land_Solid_Large,3,0,1,3138894.0,3139252.0,358.0
137,choice,choice,11,2.0,Small,2.0,10.574411417008378,Object_Land_Solid_Small,5,0,1,3144641.0,3146689.0,2048.0
137,choice,choice,11,2.0,Small,2.0,10.574411417008378,Object_Sea_Pattern_Small,4,0,1,3146777.0,3148985.0,2208.0
137,choice,choice,11,2.0,Small,2.0,10.574411417008378,Object_Sea_Solid_Small,2,0,1,3149214.0,3149507.0,293.0
137,choice,choice,11,2.0,Small,2.0,10.574411417008378,Animal_Land_Pattern_Large,1,0,0,3149546.0,3149768.0,222.0
137,choice,choice,11,2.0,Small,2.0,10.574411417008378,Object_Sea_Solid_Small,2,0,1,3149800.0,3150054.0,254.0
137,choice,choice,11,2.0,Small,2.0,10.574411417008378,Animal_Land_Pattern_Large,1,0,0,3150105.0,3151210.0,1105.0
137,choice,choice,11,2.0,Small,2.0,10.574411417008378,Animal_Sea_Pattern_Large,0,0,0,3151329.0,3152666.0,1337.0
137,choice,choice,11,2.0,Small,2.0,10.574411417008378,Object_Land_Solid_Small,5,0,1,3152785.0,3153203.0,418.0
137,choice,choice,11,2.0,Small,2.0,10.574411417008378,Animal_Sea_Pattern_Large,0,0,0,3153257.0,3153379.0,122.0
137,choice,choice,12,2.0,Large,1.0,5.6835984159843065,Animal_Land_Solid_Large,3,0,1,3157354.0,3157527.0,173.0
137,choice,choice,12,2.0,Large,1.0,5.6835984159843065,Animal_Sea_Pattern_Large,0,0,1,3157553.0,3158507.0,954.0
137,choice,choice,12,2.0,Large,1.0,5.6835984159843065,Animal_Land_Solid_Large,3,0,1,3158558.0,3159475.0,917.0
137,choice,choice,12,2.0,Large,1.0,5.6835984159843065,Animal_Land_Pattern_Large,1,0,1,3159558.0,3160922.0,1364.0
137,choice,choice,12,2.0,Large,1.0,5.6835984159843065,Animal_Sea_Pattern_Large,0,0,1,3161111.0,3161404.0,293.0
137,choice,choice,12,2.0,Large,1.0,5.6835984159843065,fixation,-1,1,0,3161456.0,3161677.0,221.0
137,choice,choice,12,2.0,Large,1.0,5.6835984159843065,Animal_Sea_Pattern_Large,0,0,1,3161695.0,3162364.0,669.0
137,choice,choice,13,2.0,Object,1.0,11.508762750017922,Animal_Sea_Pattern_Large,0,0,0,3165542.0,3166894.0,1352.0
137,choice,choice,13,2.0,Object,1.0,11.508762750017922,Animal_Land_Solid_Large,3,0,0,3166950.0,3167178.0,228.0
137,choice,choice,13,2.0,Object,1.0,11.508762750017922,Animal_Land_Pattern_Large,1,0,0,3167223.0,3167715.0,492.0
137,choice,choice,13,2.0,Object,1.0,11.508762750017922,Object_Sea_Solid_Small,2,0,1,3167758.0,3167919.0,161.0
137,choice,choice,13,2.0,Object,1.0,11.508762750017922,Object_Sea_Pattern_Small,4,0,1,3167958.0,3169053.0,1095.0
137,choice,choice,13,2.0,Object,1.0,11.508762750017922,Object_Land_Solid_Small,5,0,1,3169169.0,3170815.0,1646.0
137,choice,choice,13,2.0,Object,1.0,11.508762750017922,Animal_Land_Solid_Large,3,0,0,3170947.0,3171176.0,229.0
137,choice,choice,13,2.0,Object,1.0,11.508762750017922,Object_Sea_Pattern_Small,4,0,1,3171218.0,3171993.0,775.0
137,choice,choice,13,2.0,Object,1.0,11.508762750017922,Object_Sea_Solid_Small,2,0,1,3172076.0,3175451.0,3375.0
137,choice,choice,13,2.0,Object,1.0,11.508762750017922,Animal_Land_Pattern_Large,1,0,0,3175567.0,3176924.0,1357.0
137,choice,choice,14,2.0,Pattern,1.0,9.077010375040118,fixation,-1,1,0,3180425.0,3180654.0,229.0
137,choice,choice,14,2.0,Pattern,1.0,9.077010375040118,Animal_Sea_Pattern_Large,0,0,1,3180684.0,3181073.0,389.0
137,choice,choice,14,2.0,Pattern,1.0,9.077010375040118,Animal_Land_Pattern_Large,1,0,1,3181121.0,3183758.0,2637.0
137,choice,choice,14,2.0,Pattern,1.0,9.077010375040118,Object_Sea_Pattern_Small,4,0,1,3184057.0,3185862.0,1805.0
137,choice,choice,14,2.0,Pattern,1.0,9.077010375040118,Animal_Land_Pattern_Large,1,0,1,3186016.0,3186480.0,464.0
137,choice,choice,14,2.0,Pattern,1.0,9.077010375040118,Object_Sea_Solid_Small,2,0,0,3186500.0,3187961.0,1461.0
137,choice,choice,14,2.0,Pattern,1.0,9.077010375040118,Animal_Sea_Pattern_Large,0,0,1,3188010.0,3189022.0,1012.0
137,choice,choice,15,2.0,Sea,1.0,13.448418624990154,Object_Sea_Solid_Small,2,0,1,3192217.0,3193644.0,1427.0
137,choice,choice,15,2.0,Sea,1.0,13.448418624990154,Object_Sea_Pattern_Small,4,0,1,3194194.0,3194476.0,282.0
137,choice,choice,15,2.0,Sea,1.0,13.448418624990154,Animal_Land_Solid_Large,3,0,0,3194548.0,3195074.0,526.0
137,choice,choice,15,2.0,Sea,1.0,13.448418624990154,Animal_Land_Pattern_Large,1,0,0,3195114.0,3195913.0,799.0
137,choice,choice,15,2.0,Sea,1.0,13.448418624990154,fixation,-1,1,0,3195936.0,3196490.0,554.0
137,choice,choice,15,2.0,Sea,1.0,13.448418624990154,Object_Land_Solid_Small,5,0,0,3196522.0,3196685.0,163.0
137,choice,choice,15,2.0,Sea,1.0,13.448418624990154,Animal_Sea_Pattern_Large,0,0,1,3196720.0,3197371.0,651.0
137,choice,choice,15,2.0,Sea,1.0,13.448418624990154,Object_Sea_Solid_Small,2,0,1,3197442.0,3197675.0,233.0
137,choice,choice,15,2.0,Sea,1.0,13.448418624990154,Object_Sea_Pattern_Small,4,0,1,3197695.0,3198258.0,563.0
137,choice,choice,15,2.0,Sea,1.0,13.448418624990154,Object_Sea_Solid_Small,2,0,1,3198311.0,3198559.0,248.0
137,choice,choice,15,2.0,Sea,1.0,13.448418624990154,Animal_Land_Pattern_Large,1,0,0,3198586.0,3198711.0,125.0
137,choice,choice,15,2.0,Sea,1.0,13.448418624990154,Animal_Sea_Pattern_Large,0,0,1,3198798.0,3199783.0,985.0
137,choice,choice,15,2.0,Sea,1.0,13.448418624990154,Object_Sea_Solid_Small,2,0,1,3199865.0,3200804.0,939.0
137,choice,choice,15,2.0,Sea,1.0,13.448418624990154,Animal_Land_Pattern_Large,1,0,0,3201196.0,3201951.0,755.0
137,choice,choice,15,2.0,Sea,1.0,13.448418624990154,Object_Sea_Solid_Small,2,0,1,3201978.0,3203615.0,1637.0
137,choice,choice,15,2.0,Sea,1.0,13.448418624990154,Object_Sea_Pattern_Small,4,0,1,3203702.0,3204853.0,1151.0
137,choice,choice,16,2.0,Land,2.0,0.7359663749812171,Animal_Sea_Pattern_Large,0,0,0,3208674.0,3208847.0,173.0
137,choice,choice,17,3.0,Land,2.0,10.89976104197558,Object_Sea_Pattern_Small,0,0,0,3560053.0,3560482.0,429.0
137,choice,choice,17,3.0,Land,2.0,10.89976104197558,Object_Land_Pattern_Small,1,0,1,3560512.0,3560638.0,126.0
137,choice,choice,17,3.0,Land,2.0,10.89976104197558,Animal_Land_Pattern_Small,2,0,1,3560690.0,3562347.0,1657.0
137,choice,choice,17,3.0,Land,2.0,10.89976104197558,Object_Sea_Solid_Large,3,0,0,3562445.0,3563178.0,733.0
137,choice,choice,17,3.0,Land,2.0,10.89976104197558,Object_Land_Pattern_Small,1,0,1,3563255.0,3563448.0,193.0
137,choice,choice,17,3.0,Land,2.0,10.89976104197558,Object_Sea_Pattern_Small,0,0,0,3563473.0,3564255.0,782.0
137,choice,choice,17,3.0,Land,2.0,10.89976104197558,Animal_Land_Solid_Large,4,0,1,3564387.0,3565023.0,636.0
137,choice,choice,17,3.0,Land,2.0,10.89976104197558,Animal_Land_Pattern_Small,2,0,1,3565072.0,3567246.0,2174.0
137,choice,choice,17,3.0,Land,2.0,10.89976104197558,Object_Sea_Solid_Large,3,0,0,3567327.0,3567944.0,617.0
137,choice,choice,17,3.0,Land,2.0,10.89976104197558,Object_Land_Pattern_Small,1,0,1,3568009.0,3568511.0,502.0
137,choice,choice,17,3.0,Land,2.0,10.89976104197558,Object_Sea_Solid_Large,3,0,0,3568588.0,3568784.0,196.0
137,choice,choice,17,3.0,Land,2.0,10.89976104197558,Animal_Sea_Solid_Large,5,0,0,3568840.0,3569305.0,465.0
137,choice,choice,17,3.0,Land,2.0,10.89976104197558,Animal_Land_Pattern_Small,2,0,1,3569334.0,3570312.0,978.0
137,choice,choice,18,3.0,Large,1.0,8.764471875037998,Animal_Land_Solid_Large,4,0,1,3574013.0,3574710.0,697.0
137,choice,choice,18,3.0,Large,1.0,8.764471875037998,Object_Sea_Solid_Large,3,0,1,3574759.0,3574984.0,225.0
137,choice,choice,18,3.0,Large,1.0,8.764471875037998,fixation,-1,1,0,3575022.0,3575255.0,233.0
137,choice,choice,18,3.0,Large,1.0,8.764471875037998,Animal_Land_Pattern_Small,2,0,0,3575292.0,3576301.0,1009.0
137,choice,choice,18,3.0,Large,1.0,8.764471875037998,Object_Land_Pattern_Small,1,0,0,3576367.0,3577017.0,650.0
137,choice,choice,18,3.0,Large,1.0,8.764471875037998,Object_Sea_Pattern_Small,0,0,0,3577075.0,3580879.0,3804.0
137,choice,choice,18,3.0,Large,1.0,8.764471875037998,Animal_Land_Solid_Large,4,0,1,3581056.0,3581567.0,511.0
137,choice,choice,18,3.0,Large,1.0,8.764471875037998,Animal_Land_Pattern_Small,2,0,0,3581636.0,3582158.0,522.0
137,choice,choice,19,3.0,Object,2.0,17.706475167011376,Object_Sea_Pattern_Small,0,0,1,3585984.0,3586126.0,142.0
137,choice,choice,19,3.0,Object,2.0,17.706475167011376,Animal_Land_Solid_Large,4,0,0,3586185.0,3586674.0,489.0
137,choice,choice,19,3.0,Object,2.0,17.706475167011376,Object_Sea_Pattern_Small,0,0,1,3586734.0,3587537.0,803.0
137,choice,choice,19,3.0,Object,2.0,17.706475167011376,Object_Land_Pattern_Small,1,0,1,3587570.0,3588323.0,753.0
137,choice,choice,19,3.0,Object,2.0,17.706475167011376,Object_Sea_Solid_Large,3,0,1,3588372.0,3589229.0,857.0
137,choice,choice,19,3.0,Object,2.0,17.706475167011376,Animal_Sea_Solid_Large,5,0,0,3589284.0,3590437.0,1153.0
137,choice,choice,19,3.0,Object,2.0,17.706475167011376,Object_Sea_Pattern_Small,0,0,1,3590533.0,3592644.0,2111.0
137,choice,choice,19,3.0,Object,2.0,17.706475167011376,Object_Land_Pattern_Small,1,0,1,3592788.0,3593543.0,755.0
137,choice,choice,19,3.0,Object,2.0,17.706475167011376,Animal_Land_Pattern_Small,2,0,0,3593614.0,3595326.0,1712.0
137,choice,choice,19,3.0,Object,2.0,17.706475167011376,Object_Sea_Pattern_Small,0,0,1,3595437.0,3597114.0,1677.0
137,choice,choice,19,3.0,Object,2.0,17.706475167011376,Animal_Land_Pattern_Small,2,0,0,3597403.0,3597635.0,232.0
137,choice,choice,19,3.0,Object,2.0,17.706475167011376,Animal_Sea_Solid_Large,5,0,0,3597675.0,3597915.0,240.0
137,choice,choice,19,3.0,Object,2.0,17.706475167011376,Object_Sea_Solid_Large,3,0,1,3597965.0,3598355.0,390.0
137,choice,choice,19,3.0,Object,2.0,17.706475167011376,Animal_Sea_Solid_Large,5,0,0,3598404.0,3598799.0,395.0
137,choice,choice,19,3.0,Object,2.0,17.706475167011376,Object_Sea_Solid_Large,3,0,1,3598843.0,3600485.0,1642.0
137,choice,choice,19,3.0,Object,2.0,17.706475167011376,Animal_Sea_Solid_Large,5,0,0,3600602.0,3601166.0,564.0
137,choice,choice,19,3.0,Object,2.0,17.706475167011376,Animal_Land_Pattern_Small,2,0,0,3601232.0,3601387.0,155.0
137,choice,choice,20,3.0,Small,1.0,16.97284037497593,fixation,-1,1,0,3606695.0,3606819.0,124.0
137,choice,choice,20,3.0,Small,1.0,16.97284037497593,Animal_Land_Pattern_Small,2,0,1,3606849.0,3612715.0,5866.0
137,choice,choice,20,3.0,Small,1.0,16.97284037497593,Object_Sea_Solid_Large,3,0,0,3613000.0,3614480.0,1480.0
137,choice,choice,20,3.0,Small,1.0,16.97284037497593,Object_Land_Pattern_Small,1,0,1,3614569.0,3615417.0,848.0
137,choice,choice,20,3.0,Small,1.0,16.97284037497593,Animal_Land_Pattern_Small,2,0,1,3615503.0,3616049.0,546.0
137,choice,choice,20,3.0,Small,1.0,16.97284037497593,Animal_Land_Solid_Large,4,0,0,3616078.0,3616425.0,347.0
137,choice,choice,20,3.0,Small,1.0,16.97284037497593,Animal_Land_Pattern_Small,2,0,1,3616455.0,3616652.0,197.0
137,choice,choice,20,3.0,Small,1.0,16.97284037497593,Object_Sea_Solid_Large,3,0,0,3616714.0,3617407.0,693.0
137,choice,choice,20,3.0,Small,1.0,16.97284037497593,Animal_Land_Pattern_Small,2,0,1,3617455.0,3618782.0,1327.0
137,choice,choice,20,3.0,Small,1.0,16.97284037497593,Object_Land_Pattern_Small,1,0,1,3618833.0,3619428.0,595.0
137,choice,choice,20,3.0,Small,1.0,16.97284037497593,Object_Sea_Pattern_Small,0,0,1,3619468.0,3619836.0,368.0
137,choice,choice,20,3.0,Small,1.0,16.97284037497593,Object_Land_Pattern_Small,1,0,1,3620239.0,3620564.0,325.0
137,choice,choice,20,3.0,Small,1.0,16.97284037497593,Object_Sea_Solid_Large,3,0,0,3620603.0,3622181.0,1578.0
137,choice,choice,20,3.0,Small,1.0,16.97284037497593,Object_Land_Pattern_Small,1,0,1,3622222.0,3622832.0,610.0
137,choice,choice,21,3.0,Animal,2.0,5.001840958953835,Animal_Land_Pattern_Small,2,0,1,3627069.0,3627536.0,467.0
137,choice,choice,21,3.0,Animal,2.0,5.001840958953835,Animal_Land_Solid_Large,4,0,1,3627983.0,3629830.0,1847.0
137,choice,choice,21,3.0,Animal,2.0,5.001840958953835,Animal_Land_Pattern_Small,2,0,1,3629950.0,3631224.0,1274.0
137,choice,choice,22,3.0,Solid,2.0,6.01066308299778,Animal_Sea_Solid_Large,5,0,1,3635258.0,3636979.0,1721.0
137,choice,choice,22,3.0,Solid,2.0,6.01066308299778,Animal_Land_Solid_Large,4,0,1,3637121.0,3638511.0,1390.0
137,choice,choice,22,3.0,Solid,2.0,6.01066308299778,Animal_Land_Pattern_Small,2,0,0,3638550.0,3639226.0,676.0
137,choice,choice,22,3.0,Solid,2.0,6.01066308299778,Object_Land_Pattern_Small,1,0,0,3639313.0,3639623.0,310.0
137,choice,choice,22,3.0,Solid,2.0,6.01066308299778,Animal_Land_Pattern_Small,2,0,0,3639669.0,3639834.0,165.0
137,choice,choice,23,3.0,Pattern,1.0,1.0706934590125456,Object_Land_Pattern_Small,1,0,1,3644190.0,3644433.0,243.0
137,choice,choice,24,3.0,Sea,1.0,10.367834709002636,Animal_Sea_Solid_Large,5,0,1,3647339.0,3647924.0,585.0
137,choice,choice,24,3.0,Sea,1.0,10.367834709002636,Object_Sea_Solid_Large,3,0,1,3647964.0,3648264.0,300.0
137,choice,choice,24,3.0,Sea,1.0,10.367834709002636,Animal_Sea_Solid_Large,5,0,1,3648345.0,3649496.0,1151.0
137,choice,choice,24,3.0,Sea,1.0,10.367834709002636,Object_Land_Pattern_Small,1,0,0,3649591.0,3650148.0,557.0
137,choice,choice,24,3.0,Sea,1.0,10.367834709002636,fixation,-1,1,0,3650196.0,3650335.0,139.0
137,choice,choice,24,3.0,Sea,1.0,10.367834709002636,Animal_Sea_Solid_Large,5,0,1,3650412.0,3650914.0,502.0
137,choice,choice,24,3.0,Sea,1.0,10.367834709002636,Object_Sea_Pattern_Small,0,0,1,3650981.0,3652884.0,1903.0
137,choice,choice,24,3.0,Sea,1.0,10.367834709002636,Animal_Sea_Solid_Large,5,0,1,3653014.0,3655103.0,2089.0
137,choice,choice,24,3.0,Sea,1.0,10.367834709002636,Object_Land_Pattern_Small,1,0,0,3655259.0,3657250.0,1991.0
137,choice,choice,25,4.0,Large,1.0,14.49081325001316,Object_Land_Pattern_Large,0,0,1,3972380.0,3972482.0,102.0
137,choice,choice,25,4.0,Large,1.0,14.49081325001316,Object_Land_Solid_Large,1,0,1,3972515.0,3972827.0,312.0
137,choice,choice,25,4.0,Large,1.0,14.49081325001316,Object_Land_Pattern_Large,0,0,1,3972863.0,3973337.0,474.0
137,choice,choice,25,4.0,Large,1.0,14.49081325001316,Object_Land_Solid_Large,1,0,1,3973375.0,3974650.0,1275.0
137,choice,choice,25,4.0,Large,1.0,14.49081325001316,Animal_Sea_Solid_Small,2,0,0,3974776.0,3975124.0,348.0
137,choice,choice,25,4.0,Large,1.0,14.49081325001316,Object_Land_Solid_Large,1,0,1,3975202.0,3976563.0,1361.0
137,choice,choice,25,4.0,Large,1.0,14.49081325001316,Animal_Sea_Solid_Small,2,0,0,3976665.0,3977323.0,658.0
137,choice,choice,25,4.0,Large,1.0,14.49081325001316,Object_Sea_Pattern_Large,3,0,1,3977426.0,3981202.0,3776.0
137,choice,choice,25,4.0,Large,1.0,14.49081325001316,Animal_Sea_Solid_Small,2,0,0,3981614.0,3981830.0,216.0
137,choice,choice,25,4.0,Large,1.0,14.49081325001316,Animal_Sea_Pattern_Small,4,0,0,3981894.0,3982113.0,219.0
137,choice,choice,25,4.0,Large,1.0,14.49081325001316,Object_Land_Solid_Large,1,0,1,3982149.0,3985679.0,3530.0
137,choice,choice,27,4.0,Sea,1.0,18.555684124992695,Object_Sea_Pattern_Large,3,0,1,3992739.0,3994497.0,1758.0
137,choice,choice,27,4.0,Sea,1.0,18.555684124992695,Animal_Sea_Solid_Small,2,0,1,3994541.0,3995466.0,925.0
137,choice,choice,27,4.0,Sea,1.0,18.555684124992695,Animal_Sea_Pattern_Small,4,0,1,3995523.0,3998134.0,2611.0
137,choice,choice,27,4.0,Sea,1.0,18.555684124992695,Object_Sea_Pattern_Large,3,0,1,3998410.0,3999579.0,1169.0
137,choice,choice,27,4.0,Sea,1.0,18.555684124992695,Animal_Land_Solid_Small,5,0,0,3999681.0,3999823.0,142.0
137,choice,choice,27,4.0,Sea,1.0,18.555684124992695,Object_Land_Solid_Large,1,0,0,3999851.0,4000075.0,224.0
137,choice,choice,27,4.0,Sea,1.0,18.555684124992695,Animal_Land_Solid_Small,5,0,0,4000113.0,4000947.0,834.0
137,choice,choice,27,4.0,Sea,1.0,18.555684124992695,Object_Land_Pattern_Large,0,0,0,4001414.0,4002094.0,680.0
137,choice,choice,27,4.0,Sea,1.0,18.555684124992695,Object_Land_Solid_Large,1,0,0,4002619.0,4003061.0,442.0
137,choice,choice,27,4.0,Sea,1.0,18.555684124992695,Animal_Sea_Solid_Small,2,0,1,4003130.0,4003742.0,612.0
137,choice,choice,27,4.0,Sea,1.0,18.555684124992695,Animal_Sea_Pattern_Small,4,0,1,4003788.0,4004478.0,690.0
137,choice,choice,27,4.0,Sea,1.0,18.555684124992695,Object_Sea_Pattern_Large,3,0,1,4004583.0,4005226.0,643.0
137,choice,choice,27,4.0,Sea,1.0,18.555684124992695,Object_Land_Solid_Large,1,0,0,4005278.0,4006571.0,1293.0
137,choice,choice,27,4.0,Sea,1.0,18.555684124992695,Animal_Sea_Solid_Small,2,0,1,4007051.0,4008633.0,1582.0
137,choice,choice,27,4.0,Sea,1.0,18.555684124992695,Object_Land_Pattern_Large,0,0,0,4008784.0,4009033.0,249.0
137,choice,choice,27,4.0,Sea,1.0,18.555684124992695,Animal_Land_Solid_Small,5,0,0,4009076.0,4009695.0,619.0
137,choice,choice,27,4.0,Sea,1.0,18.555684124992695,Animal_Sea_Solid_Small,2,0,1,4009804.0,4010119.0,315.0
137,choice,choice,27,4.0,Sea,1.0,18.555684124992695,Object_Sea_Pattern_Large,3,0,1,4010157.0,4010881.0,724.0
137,choice,choice,27,4.0,Sea,1.0,18.555684124992695,Animal_Sea_Pattern_Small,4,0,1,4010921.0,4011273.0,352.0
137,choice,choice,28,4.0,Object,1.0,4.463261624972802,Object_Land_Solid_Large,1,0,1,4014633.0,4014860.0,227.0
137,choice,choice,28,4.0,Object,1.0,4.463261624972802,Animal_Sea_Pattern_Small,4,0,0,4015258.0,4015555.0,297.0
137,choice,choice,28,4.0,Object,1.0,4.463261624972802,Object_Land_Solid_Large,1,0,1,4015594.0,4018512.0,2918.0
137,choice,choice,29,4.0,Animal,2.0,2.7868949999683537,Object_Sea_Pattern_Large,3,0,0,4022071.0,4022648.0,577.0
137,choice,choice,29,4.0,Animal,2.0,2.7868949999683537,Animal_Land_Solid_Small,5,0,1,4022778.0,4023925.0,1147.0
137,choice,choice,29,4.0,Animal,2.0,2.7868949999683537,Animal_Sea_Solid_Small,2,0,1,4024021.0,4024379.0,358.0
137,choice,choice,31,4.0,Solid,2.0,3.984532375005074,Object_Sea_Pattern_Large,3,0,0,4033700.0,4036324.0,2624.0
137,choice,choice,33,5.0,Pattern,1.0,22.793308416963555,Animal_Land_Solid_Large,0,0,0,4371832.0,4372924.0,1092.0
137,choice,choice,33,5.0,Pattern,1.0,22.793308416963555,Object_Land_Solid_Small,1,0,0,4373018.0,4373286.0,268.0
137,choice,choice,33,5.0,Pattern,1.0,22.793308416963555,Animal_Sea_Pattern_Large,2,0,1,4373306.0,4374109.0,803.0
137,choice,choice,33,5.0,Pattern,1.0,22.793308416963555,Animal_Land_Pattern_Large,3,0,1,4374161.0,4375084.0,923.0
137,choice,choice,33,5.0,Pattern,1.0,22.793308416963555,Object_Sea_Solid_Small,4,0,0,4375154.0,4375286.0,132.0
137,choice,choice,33,5.0,Pattern,1.0,22.793308416963555,Object_Sea_Pattern_Small,5,0,1,4375353.0,4376577.0,1224.0
137,choice,choice,33,5.0,Pattern,1.0,22.793308416963555,Object_Sea_Solid_Small,4,0,0,4376615.0,4377523.0,908.0
137,choice,choice,33,5.0,Pattern,1.0,22.793308416963555,Animal_Sea_Pattern_Large,2,0,1,4377701.0,4378039.0,338.0
137,choice,choice,33,5.0,Pattern,1.0,22.793308416963555,Object_Sea_Solid_Small,4,0,0,4378115.0,4378518.0,403.0
137,choice,choice,33,5.0,Pattern,1.0,22.793308416963555,Animal_Sea_Pattern_Large,2,0,1,4378631.0,4379193.0,562.0
137,choice,choice,33,5.0,Pattern,1.0,22.793308416963555,fixation,-1,1,0,4379229.0,4380574.0,1345.0
137,choice,choice,33,5.0,Pattern,1.0,22.793308416963555,Object_Sea_Pattern_Small,5,0,1,4380627.0,4380865.0,238.0
137,choice,choice,33,5.0,Pattern,1.0,22.793308416963555,Animal_Land_Pattern_Large,3,0,1,4381011.0,4381204.0,193.0
137,choice,choice,33,5.0,Pattern,1.0,22.793308416963555,Animal_Sea_Pattern_Large,2,0,1,4381278.0,4381506.0,228.0
137,choice,choice,33,5.0,Pattern,1.0,22.793308416963555,Object_Sea_Pattern_Small,5,0,1,4381555.0,4381721.0,166.0
137,choice,choice,33,5.0,Pattern,1.0,22.793308416963555,Animal_Land_Pattern_Large,3,0,1,4381769.0,4382190.0,421.0
137,choice,choice,33,5.0,Pattern,1.0,22.793308416963555,Animal_Sea_Pattern_Large,2,0,1,4382242.0,4382703.0,461.0
137,choice,choice,33,5.0,Pattern,1.0,22.793308416963555,Animal_Land_Pattern_Large,3,0,1,4382770.0,4383073.0,303.0
137,choice,choice,33,5.0,Pattern,1.0,22.793308416963555,Object_Sea_Pattern_Small,5,0,1,4383124.0,4383586.0,462.0
137,choice,choice,33,5.0,Pattern,1.0,22.793308416963555,Animal_Land_Pattern_Large,3,0,1,4383638.0,4386477.0,2839.0
137,choice,choice,33,5.0,Pattern,1.0,22.793308416963555,Animal_Sea_Pattern_Large,2,0,1,4386644.0,4387924.0,1280.0
137,choice,choice,33,5.0,Pattern,1.0,22.793308416963555,Object_Land_Solid_Small,1,0,0,4388042.0,4389163.0,1121.0
137,choice,choice,33,5.0,Pattern,1.0,22.793308416963555,Animal_Land_Solid_Large,0,0,0,4389229.0,4389422.0,193.0
137,choice,choice,33,5.0,Pattern,1.0,22.793308416963555,fixation,-1,1,0,4389442.0,4389786.0,344.0
137,choice,choice,33,5.0,Pattern,1.0,22.793308416963555,Object_Sea_Pattern_Small,5,0,1,4389837.0,4392193.0,2356.0
137,choice,choice,33,5.0,Pattern,1.0,22.793308416963555,Animal_Land_Pattern_Large,3,0,1,4392326.0,4393200.0,874.0
137,choice,choice,34,5.0,Small,2.0,26.179327416000888,Object_Sea_Solid_Small,4,0,1,4397672.0,4398109.0,437.0
137,choice,choice,34,5.0,Small,2.0,26.179327416000888,Object_Sea_Pattern_Small,5,0,1,4398158.0,4398345.0,187.0
137,choice,choice,34,5.0,Small,2.0,26.179327416000888,Animal_Land_Solid_Large,0,0,0,4398387.0,4398592.0,205.0
137,choice,choice,34,5.0,Small,2.0,26.179327416000888,fixation,-1,1,0,4398626.0,4398866.0,240.0
137,choice,choice,34,5.0,Small,2.0,26.179327416000888,Animal_Land_Pattern_Large,3,0,0,4398917.0,4399503.0,586.0
137,choice,choice,34,5.0,Small,2.0,26.179327416000888,Object_Sea_Pattern_Small,5,0,1,4399569.0,4400322.0,753.0
137,choice,choice,34,5.0,Small,2.0,26.179327416000888,Object_Sea_Solid_Small,4,0,1,4400531.0,4400785.0,254.0
137,choice,choice,34,5.0,Small,2.0,26.179327416000888,Animal_Land_Pattern_Large,3,0,0,4400829.0,4401581.0,752.0
137,choice,choice,34,5.0,Small,2.0,26.179327416000888,Object_Land_Solid_Small,1,0,1,4401717.0,4403135.0,1418.0
137,choice,choice,34,5.0,Small,2.0,26.179327416000888,Animal_Sea_Pattern_Large,2,0,0,4403226.0,4403647.0,421.0
137,choice,choice,34,5.0,Small,2.0,26.179327416000888,fixation,-1,1,0,4403688.0,4403867.0,179.0
137,choice,choice,34,5.0,Small,2.0,26.179327416000888,Object_Sea_Solid_Small,4,0,1,4403905.0,4404335.0,430.0
137,choice,choice,34,5.0,Small,2.0,26.179327416000888,Animal_Land_Pattern_Large,3,0,0,4404382.0,4405039.0,657.0
137,choice,choice,34,5.0,Small,2.0,26.179327416000888,Object_Land_Solid_Small,1,0,1,4405094.0,4405389.0,295.0
137,choice,choice,34,5.0,Small,2.0,26.179327416000888,fixation,-1,1,0,4405437.0,4405819.0,382.0
137,choice,choice,34,5.0,Small,2.0,26.179327416000888,Object_Sea_Solid_Small,4,0,1,4405896.0,4406283.0,387.0
137,choice,choice,34,5.0,Small,2.0,26.179327416000888,Animal_Land_Pattern_Large,3,0,0,4406555.0,4408037.0,1482.0
137,choice,choice,34,5.0,Small,2.0,26.179327416000888,Animal_Sea_Pattern_Large,2,0,0,4408127.0,4408630.0,503.0
137,choice,choice,34,5.0,Small,2.0,26.179327416000888,Object_Land_Solid_Small,1,0,1,4408708.0,4413723.0,5015.0
137,choice,choice,34,5.0,Small,2.0,26.179327416000888,Animal_Sea_Pattern_Large,2,0,0,4414245.0,4414631.0,386.0
137,choice,choice,34,5.0,Small,2.0,26.179327416000888,fixation,-1,1,0,4414663.0,4415399.0,736.0
137,choice,choice,34,5.0,Small,2.0,26.179327416000888,Object_Land_Solid_Small,1,0,1,4415452.0,4416419.0,967.0
137,choice,choice,34,5.0,Small,2.0,26.179327416000888,Animal_Sea_Pattern_Large,2,0,0,4416500.0,4418174.0,1674.0
137,choice,choice,34,5.0,Small,2.0,26.179327416000888,Animal_Land_Pattern_Large,3,0,0,4418496.0,4418707.0,211.0
137,choice,choice,34,5.0,Small,2.0,26.179327416000888,fixation,-1,1,0,4418728.0,4419404.0,676.0
137,choice,choice,34,5.0,Small,2.0,26.179327416000888,Object_Sea_Solid_Small,4,0,1,4419462.0,4420819.0,1357.0
137,choice,choice,34,5.0,Small,2.0,26.179327416000888,Object_Land_Solid_Small,1,0,1,4420973.0,4421727.0,754.0
137,choice,choice,34,5.0,Small,2.0,26.179327416000888,Animal_Sea_Pattern_Large,2,0,0,4421771.0,4422067.0,296.0
137,choice,choice,34,5.0,Small,2.0,26.179327416000888,Object_Land_Solid_Small,1,0,1,4422131.0,4422696.0,565.0
137,choice,choice,34,5.0,Small,2.0,26.179327416000888,Animal_Sea_Pattern_Large,2,0,0,4422772.0,4422933.0,161.0
137,choice,choice,34,5.0,Small,2.0,26.179327416000888,fixation,-1,1,0,4422951.0,4423426.0,475.0
137,choice,choice,35,5.0,Sea,1.0,8.127623000007588,Animal_Land_Pattern_Large,3,0,0,4427293.0,4427514.0,221.0
137,choice,choice,35,5.0,Sea,1.0,8.127623000007588,Object_Sea_Pattern_Small,5,0,1,4427559.0,4428124.0,565.0
137,choice,choice,35,5.0,Sea,1.0,8.127623000007588,Object_Sea_Solid_Small,4,0,1,4428171.0,4428407.0,236.0
137,choice,choice,35,5.0,Sea,1.0,8.127623000007588,Object_Sea_Pattern_Small,5,0,1,4428433.0,4429730.0,1297.0
137,choice,choice,35,5.0,Sea,1.0,8.127623000007588,Object_Sea_Solid_Small,4,0,1,4429895.0,4430874.0,979.0
137,choice,choice,35,5.0,Sea,1.0,8.127623000007588,fixation,-1,1,0,4430977.0,4431007.0,30.0
137,choice,choice,35,5.0,Sea,1.0,8.127623000007588,Animal_Sea_Pattern_Large,2,0,1,4431030.0,4431237.0,207.0
137,choice,choice,35,5.0,Sea,1.0,8.127623000007588,fixation,-1,1,0,4431261.0,4434355.0,3094.0
137,choice,choice,36,5.0,Object,1.0,17.77180370897986,fixation,-1,1,0,4437499.0,4438583.0,1084.0
137,choice,choice,36,5.0,Object,1.0,17.77180370897986,Animal_Land_Pattern_Large,3,0,0,4438863.0,4439445.0,582.0
137,choice,choice,36,5.0,Object,1.0,17.77180370897986,Object_Sea_Solid_Small,4,0,1,4439467.0,4440912.0,1445.0
137,choice,choice,36,5.0,Object,1.0,17.77180370897986,Animal_Land_Pattern_Large,3,0,0,4441057.0,4441231.0,174.0
137,choice,choice,36,5.0,Object,1.0,17.77180370897986,fixation,-1,1,0,4441253.0,4441632.0,379.0
137,choice,choice,36,5.0,Object,1.0,17.77180370897986,Object_Land_Solid_Small,1,0,1,4441687.0,4446184.0,4497.0
137,choice,choice,36,5.0,Object,1.0,17.77180370897986,Animal_Land_Pattern_Large,3,0,0,4446399.0,4446544.0,145.0
137,choice,choice,36,5.0,Object,1.0,17.77180370897986,fixation,-1,1,0,4446582.0,4447976.0,1394.0
137,choice,choice,36,5.0,Object,1.0,17.77180370897986,Object_Land_Solid_Small,1,0,1,4448046.0,4449756.0,1710.0
137,choice,choice,36,5.0,Object,1.0,17.77180370897986,Object_Sea_Solid_Small,4,0,1,4449995.0,4451070.0,1075.0
137,choice,choice,36,5.0,Object,1.0,17.77180370897986,Object_Sea_Pattern_Small,5,0,1,4451219.0,4452042.0,823.0
137,choice,choice,36,5.0,Object,1.0,17.77180370897986,Object_Sea_Solid_Small,4,0,1,4452112.0,4452429.0,317.0
137,choice,choice,36,5.0,Object,1.0,17.77180370897986,Animal_Land_Pattern_Large,3,0,0,4452462.0,4453324.0,862.0
137,choice,choice,36,5.0,Object,1.0,17.77180370897986,Object_Land_Solid_Small,1,0,1,4453391.0,4453545.0,154.0
137,choice,choice,36,5.0,Object,1.0,17.77180370897986,fixation,-1,1,0,4453570.0,4455173.0,1603.0
137,choice,choice,37,5.0,Land,2.0,16.21465358301066,fixation,-1,1,0,4460550.0,4461053.0,503.0
137,choice,choice,37,5.0,Land,2.0,16.21465358301066,Animal_Land_Solid_Large,0,0,1,4461067.0,4461251.0,184.0
137,choice,choice,37,5.0,Land,2.0,16.21465358301066,Object_Sea_Solid_Small,4,0,0,4461289.0,4461906.0,617.0
137,choice,choice,37,5.0,Land,2.0,16.21465358301066,Animal_Land_Solid_Large,0,0,1,4462060.0,4462295.0,235.0
137,choice,choice,37,5.0,Land,2.0,16.21465358301066,Animal_Sea_Pattern_Large,2,0,0,4462333.0,4462582.0,249.0
137,choice,choice,37,5.0,Land,2.0,16.21465358301066,Object_Land_Solid_Small,1,0,1,4462615.0,4463374.0,759.0
137,choice,choice,37,5.0,Land,2.0,16.21465358301066,Animal_Sea_Pattern_Large,2,0,0,4463428.0,4463597.0,169.0
137,choice,choice,37,5.0,Land,2.0,16.21465358301066,fixation,-1,1,0,4463615.0,4464566.0,951.0
137,choice,choice,37,5.0,Land,2.0,16.21465358301066,Animal_Land_Pattern_Large,3,0,1,4464611.0,4465957.0,1346.0
137,choice,choice,37,5.0,Land,2.0,16.21465358301066,Animal_Land_Solid_Large,0,0,1,4466034.0,4466673.0,639.0
137,choice,choice,37,5.0,Land,2.0,16.21465358301066,Animal_Sea_Pattern_Large,2,0,0,4466708.0,4466857.0,149.0
137,choice,choice,37,5.0,Land,2.0,16.21465358301066,fixation,-1,1,0,4466868.0,4467447.0,579.0
137,choice,choice,37,5.0,Land,2.0,16.21465358301066,Object_Land_Solid_Small,1,0,1,4467493.0,4469562.0,2069.0
137,choice,choice,37,5.0,Land,2.0,16.21465358301066,Animal_Sea_Pattern_Large,2,0,0,4469704.0,4469887.0,183.0
137,choice,choice,37,5.0,Land,2.0,16.21465358301066,fixation,-1,1,0,4469901.0,4470782.0,881.0
137,choice,choice,37,5.0,Land,2.0,16.21465358301066,Animal_Sea_Pattern_Large,2,0,0,4470802.0,4471528.0,726.0
137,choice,choice,37,5.0,Land,2.0,16.21465358301066,Object_Land_Solid_Small,1,0,1,4471570.0,4472251.0,681.0
137,choice,choice,37,5.0,Land,2.0,16.21465358301066,fixation,-1,1,0,4472276.0,4472649.0,373.0
137,choice,choice,37,5.0,Land,2.0,16.21465358301066,Object_Sea_Solid_Small,4,0,0,4472727.0,4472937.0,210.0
137,choice,choice,37,5.0,Land,2.0,16.21465358301066,Object_Sea_Pattern_Small,5,0,0,4472959.0,4474026.0,1067.0
137,choice,choice,38,5.0,Animal,1.0,3.539214207965415,Animal_Land_Pattern_Large,3,0,1,4477549.0,4478080.0,531.0
137,choice,choice,38,5.0,Animal,1.0,3.539214207965415,Animal_Land_Solid_Large,0,0,1,4478137.0,4478399.0,262.0
137,choice,choice,38,5.0,Animal,1.0,3.539214207965415,fixation,-1,1,0,4478425.0,4478997.0,572.0
137,choice,choice,38,5.0,Animal,1.0,3.539214207965415,Object_Sea_Solid_Small,4,0,0,4479048.0,4479715.0,667.0
137,choice,choice,38,5.0,Animal,1.0,3.539214207965415,Animal_Sea_Pattern_Large,2,0,1,4479826.0,4480570.0,744.0
137,choice,choice,39,5.0,Large,1.0,12.36854024999775,Object_Sea_Solid_Small,4,0,0,4484134.0,4484771.0,637.0
137,choice,choice,39,5.0,Large,1.0,12.36854024999775,Object_Sea_Pattern_Small,5,0,0,4485124.0,4485425.0,301.0
137,choice,choice,39,5.0,Large,1.0,12.36854024999775,Animal_Land_Pattern_Large,3,0,1,4485490.0,4485747.0,257.0
137,choice,choice,39,5.0,Large,1.0,12.36854024999775,Object_Land_Solid_Small,1,0,0,4485808.0,4486688.0,880.0
137,choice,choice,39,5.0,Large,1.0,12.36854024999775,Animal_Land_Pattern_Large,3,0,1,4486772.0,4487117.0,345.0
137,choice,choice,39,5.0,Large,1.0,12.36854024999775,Object_Land_Solid_Small,1,0,0,4487174.0,4487518.0,344.0
137,choice,choice,39,5.0,Large,1.0,12.36854024999775,fixation,-1,1,0,4487569.0,4488255.0,686.0
137,choice,choice,39,5.0,Large,1.0,12.36854024999775,Object_Sea_Solid_Small,4,0,0,4488294.0,4490043.0,1749.0
137,choice,choice,39,5.0,Large,1.0,12.36854024999775,Object_Sea_Pattern_Small,5,0,0,4490141.0,4490366.0,225.0
137,choice,choice,39,5.0,Large,1.0,12.36854024999775,fixation,-1,1,0,4490390.0,4492742.0,2352.0
137,choice,choice,39,5.0,Large,1.0,12.36854024999775,Object_Sea_Pattern_Small,5,0,0,4492818.0,4494242.0,1424.0
137,choice,choice,39,5.0,Large,1.0,12.36854024999775,Animal_Sea_Pattern_Large,2,0,1,4494484.0,4495758.0,1274.0
137,choice,choice,40,5.0,Solid,1.0,8.32817354198778,Object_Sea_Solid_Small,4,0,1,4499825.0,4500297.0,472.0
137,choice,choice,40,5.0,Solid,1.0,8.32817354198778,Object_Sea_Pattern_Small,5,0,0,4500317.0,4500343.0,26.0
137,choice,choice,40,5.0,Solid,1.0,8.32817354198778,Animal_Land_Solid_Large,0,0,1,4500379.0,4500643.0,264.0
137,choice,choice,40,5.0,Solid,1.0,8.32817354198778,Animal_Land_Pattern_Large,3,0,0,4500693.0,4501304.0,611.0
137,choice,choice,40,5.0,Solid,1.0,8.32817354198778,fixation,-1,1,0,4501332.0,4502339.0,1007.0
137,choice,choice,40,5.0,Solid,1.0,8.32817354198778,Animal_Land_Pattern_Large,3,0,0,4502393.0,4502589.0,196.0
137,choice,choice,40,5.0,Solid,1.0,8.32817354198778,Object_Sea_Solid_Small,4,0,1,4502624.0,4502973.0,349.0
137,choice,choice,40,5.0,Solid,1.0,8.32817354198778,Animal_Land_Pattern_Large,3,0,0,4502996.0,4503466.0,470.0
137,choice,choice,40,5.0,Solid,1.0,8.32817354198778,Object_Sea_Solid_Small,4,0,1,4503491.0,4503737.0,246.0
137,choice,choice,40,5.0,Solid,1.0,8.32817354198778,Object_Land_Solid_Small,1,0,1,4503810.0,4504874.0,1064.0
137,choice,choice,40,5.0,Solid,1.0,8.32817354198778,Animal_Land_Solid_Large,0,0,1,4504992.0,4505852.0,860.0
137,choice,choice,40,5.0,Solid,1.0,8.32817354198778,Animal_Sea_Pattern_Large,2,0,0,4505893.0,4506530.0,637.0
137,choice,choice,40,5.0,Solid,1.0,8.32817354198778,Object_Land_Solid_Small,1,0,1,4506577.0,4506742.0,165.0
137,choice,choice,40,5.0,Solid,1.0,8.32817354198778,Animal_Sea_Pattern_Large,2,0,0,4506766.0,4506971.0,205.0
137,choice,choice,40,5.0,Solid,1.0,8.32817354198778,fixation,-1,1,0,4506993.0,4507260.0,267.0
137,choice,choice,41,6.0,Solid,1.0,27.378215999982785,Animal_Land_Pattern_Small,0,0,0,4759534.0,4761653.0,2119.0
137,choice,choice,41,6.0,Solid,1.0,27.378215999982785,Object_Sea_Solid_Large,1,0,1,4762208.0,4762431.0,223.0
137,choice,choice,41,6.0,Solid,1.0,27.378215999982785,fixation,-1,1,0,4762462.0,4762649.0,187.0
137,choice,choice,41,6.0,Solid,1.0,27.378215999982785,Object_Sea_Pattern_Small,2,0,0,4762700.0,4763731.0,1031.0
137,choice,choice,41,6.0,Solid,1.0,27.378215999982785,Animal_Land_Pattern_Small,0,0,0,4763883.0,4764124.0,241.0
137,choice,choice,41,6.0,Solid,1.0,27.378215999982785,fixation,-1,1,0,4764150.0,4764770.0,620.0
137,choice,choice,41,6.0,Solid,1.0,27.378215999982785,Animal_Sea_Solid_Large,3,0,1,4764827.0,4767424.0,2597.0
137,choice,choice,41,6.0,Solid,1.0,27.378215999982785,Animal_Land_Pattern_Small,0,0,0,4767587.0,4767771.0,184.0
137,choice,choice,41,6.0,Solid,1.0,27.378215999982785,fixation,-1,1,0,4767786.0,4768586.0,800.0
137,choice,choice,41,6.0,Solid,1.0,27.378215999982785,Animal_Land_Solid_Large,4,0,1,4768629.0,4769145.0,516.0
137,choice,choice,41,6.0,Solid,1.0,27.378215999982785,fixation,-1,1,0,4769186.0,4770214.0,1028.0
137,choice,choice,41,6.0,Solid,1.0,27.378215999982785,Object_Sea_Solid_Large,1,0,1,4770291.0,4770774.0,483.0
137,choice,choice,41,6.0,Solid,1.0,27.378215999982785,Object_Land_Pattern_Small,5,0,0,4770860.0,4771103.0,243.0
137,choice,choice,41,6.0,Solid,1.0,27.378215999982785,Object_Sea_Pattern_Small,2,0,0,4771152.0,4771497.0,345.0
137,choice,choice,41,6.0,Solid,1.0,27.378215999982785,Object_Sea_Solid_Large,1,0,1,4771530.0,4772237.0,707.0
137,choice,choice,41,6.0,Solid,1.0,27.378215999982785,fixation,-1,1,0,4772330.0,4773897.0,1567.0
137,choice,choice,41,6.0,Solid,1.0,27.378215999982785,Object_Sea_Solid_Large,1,0,1,4773996.0,4774773.0,777.0
137,choice,choice,41,6.0,Solid,1.0,27.378215999982785,Object_Land_Pattern_Small,5,0,0,4774845.0,4775032.0,187.0
137,choice,choice,41,6.0,Solid,1.0,27.378215999982785,Object_Sea_Solid_Large,1,0,1,4775061.0,4775317.0,256.0
137,choice,choice,41,6.0,Solid,1.0,27.378215999982785,fixation,-1,1,0,4775401.0,4776540.0,1139.0
137,choice,choice,41,6.0,Solid,1.0,27.378215999982785,Object_Land_Pattern_Small,5,0,0,4776598.0,4777109.0,511.0
137,choice,choice,41,6.0,Solid,1.0,27.378215999982785,Object_Sea_Pattern_Small,2,0,0,4777189.0,4777352.0,163.0
137,choice,choice,41,6.0,Solid,1.0,27.378215999982785,fixation,-1,1,0,4777403.0,4777863.0,460.0
137,choice,choice,41,6.0,Solid,1.0,27.378215999982785,Animal_Land_Solid_Large,4,0,1,4778069.0,4778488.0,419.0
137,choice,choice,41,6.0,Solid,1.0,27.378215999982785,Animal_Sea_Solid_Large,3,0,1,4778542.0,4778732.0,190.0
137,choice,choice,41,6.0,Solid,1.0,27.378215999982785,Animal_Land_Pattern_Small,0,0,0,4778755.0,4778930.0,175.0
137,choice,choice,41,6.0,Solid,1.0,27.378215999982785,fixation,-1,1,0,4778949.0,4779557.0,608.0
137,choice,choice,41,6.0,Solid,1.0,27.378215999982785,Animal_Sea_Solid_Large,3,0,1,4779599.0,4780482.0,883.0
137,choice,choice,41,6.0,Solid,1.0,27.378215999982785,Object_Sea_Solid_Large,1,0,1,4780583.0,4780953.0,370.0
137,choice,choice,41,6.0,Solid,1.0,27.378215999982785,Object_Land_Pattern_Small,5,0,0,4781006.0,4782066.0,1060.0
137,choice,choice,41,6.0,Solid,1.0,27.378215999982785,Object_Sea_Pattern_Small,2,0,0,4782110.0,4782356.0,246.0
137,choice,choice,41,6.0,Solid,1.0,27.378215999982785,Object_Land_Pattern_Small,5,0,0,4782410.0,4782610.0,200.0
137,choice,choice,41,6.0,Solid,1.0,27.378215999982785,Object_Sea_Solid_Large,1,0,1,4782634.0,4784171.0,1537.0
137,choice,choice,41,6.0,Solid,1.0,27.378215999982785,Animal_Land_Pattern_Small,0,0,0,4784252.0,4784393.0,141.0
137,choice,choice,41,6.0,Solid,1.0,27.378215999982785,fixation,-1,1,0,4784412.0,4784662.0,250.0
137,choice,choice,42,6.0,Small,1.0,24.40141524997307,Animal_Land_Pattern_Small,0,0,1,4789072.0,4790535.0,1463.0
137,choice,choice,42,6.0,Small,1.0,24.40141524997307,Animal_Land_Solid_Large,4,0,0,4790556.0,4790827.0,271.0
137,choice,choice,42,6.0,Small,1.0,24.40141524997307,Object_Sea_Solid_Large,1,0,0,4790900.0,4791420.0,520.0
137,choice,choice,42,6.0,Small,1.0,24.40141524997307,Animal_Land_Solid_Large,4,0,0,4791451.0,4791693.0,242.0
137,choice,choice,42,6.0,Small,1.0,24.40141524997307,fixation,-1,1,0,4791719.0,4792578.0,859.0
137,choice,choice,42,6.0,Small,1.0,24.40141524997307,Object_Land_Pattern_Small,5,0,1,4792628.0,4792828.0,200.0
137,choice,choice,42,6.0,Small,1.0,24.40141524997307,Object_Sea_Pattern_Small,2,0,1,4792862.0,4793793.0,931.0
137,choice,choice,42,6.0,Small,1.0,24.40141524997307,Object_Land_Pattern_Small,5,0,1,4793846.0,4794101.0,255.0
137,choice,choice,42,6.0,Small,1.0,24.40141524997307,Object_Sea_Solid_Large,1,0,0,4794126.0,4794630.0,504.0
137,choice,choice,42,6.0,Small,1.0,24.40141524997307,Object_Sea_Pattern_Small,2,0,1,4794692.0,4796881.0,2189.0
137,choice,choice,42,6.0,Small,1.0,24.40141524997307,Object_Sea_Solid_Large,1,0,0,4797215.0,4797660.0,445.0
137,choice,choice,42,6.0,Small,1.0,24.40141524997307,Object_Sea_Pattern_Small,2,0,1,4797717.0,4798180.0,463.0
137,choice,choice,42,6.0,Small,1.0,24.40141524997307,fixation,-1,1,0,4798210.0,4801427.0,3217.0
137,choice,choice,42,6.0,Small,1.0,24.40141524997307,Animal_Land_Pattern_Small,0,0,1,4801655.0,4801918.0,263.0
137,choice,choice,42,6.0,Small,1.0,24.40141524997307,fixation,-1,1,0,4801946.0,4802357.0,411.0
137,choice,choice,42,6.0,Small,1.0,24.40141524997307,Object_Land_Pattern_Small,5,0,1,4802409.0,4803178.0,769.0
137,choice,choice,42,6.0,Small,1.0,24.40141524997307,Object_Sea_Solid_Large,1,0,0,4803342.0,4803833.0,491.0
137,choice,choice,42,6.0,Small,1.0,24.40141524997307,Animal_Land_Pattern_Small,0,0,1,4803915.0,4804486.0,571.0
137,choice,choice,42,6.0,Small,1.0,24.40141524997307,fixation,-1,1,0,4804516.0,4805326.0,810.0
137,choice,choice,42,6.0,Small,1.0,24.40141524997307,Animal_Land_Pattern_Small,0,0,1,4805348.0,4807818.0,2470.0
137,choice,choice,42,6.0,Small,1.0,24.40141524997307,Object_Land_Pattern_Small,5,0,1,4807979.0,4809707.0,1728.0
137,choice,choice,42,6.0,Small,1.0,24.40141524997307,Object_Sea_Solid_Large,1,0,0,4809904.0,4811570.0,1666.0
137,choice,choice,43,6.0,Land,2.0,2.600003083993215,Animal_Land_Solid_Large,4,0,1,4816648.0,4816834.0,186.0
137,choice,choice,43,6.0,Land,2.0,2.600003083993215,Object_Sea_Solid_Large,1,0,0,4816899.0,4818540.0,1641.0
137,choice,choice,44,6.0,Sea,1.0,19.175441542000044,Object_Sea_Solid_Large,1,0,1,4821964.0,4822133.0,169.0
137,choice,choice,44,6.0,Sea,1.0,19.175441542000044,Object_Land_Pattern_Small,5,0,0,4822159.0,4823192.0,1033.0
137,choice,choice,44,6.0,Sea,1.0,19.175441542000044,Object_Sea_Solid_Large,1,0,1,4823264.0,4823779.0,515.0
137,choice,choice,44,6.0,Sea,1.0,19.175441542000044,Object_Sea_Pattern_Small,2,0,1,4823841.0,4824407.0,566.0
137,choice,choice,44,6.0,Sea,1.0,19.175441542000044,Object_Land_Pattern_Small,5,0,0,4824446.0,4824690.0,244.0
137,choice,choice,44,6.0,Sea,1.0,19.175441542000044,Object_Sea_Solid_Large,1,0,1,4824736.0,4825307.0,571.0
137,choice,choice,44,6.0,Sea,1.0,19.175441542000044,Object_Sea_Pattern_Small,2,0,1,4825370.0,4828789.0,3419.0
137,choice,choice,44,6.0,Sea,1.0,19.175441542000044,Object_Sea_Solid_Large,1,0,1,4829169.0,4830594.0,1425.0
137,choice,choice,44,6.0,Sea,1.0,19.175441542000044,Animal_Land_Pattern_Small,0,0,0,4830683.0,4831152.0,469.0
137,choice,choice,44,6.0,Sea,1.0,19.175441542000044,Animal_Sea_Solid_Large,3,0,1,4831210.0,4832229.0,1019.0
137,choice,choice,44,6.0,Sea,1.0,19.175441542000044,Object_Sea_Solid_Large,1,0,1,4832297.0,4832989.0,692.0
137,choice,choice,44,6.0,Sea,1.0,19.175441542000044,Animal_Sea_Solid_Large,3,0,1,4833033.0,4835663.0,2630.0
137,choice,choice,44,6.0,Sea,1.0,19.175441542000044,fixation,-1,1,0,4835734.0,4837092.0,1358.0
137,choice,choice,44,6.0,Sea,1.0,19.175441542000044,Object_Sea_Pattern_Small,2,0,1,4837314.0,4839155.0,1841.0
137,choice,choice,44,6.0,Sea,1.0,19.175441542000044,Object_Land_Pattern_Small,5,0,0,4839215.0,4839479.0,264.0
137,choice,choice,44,6.0,Sea,1.0,19.175441542000044,Object_Sea_Pattern_Small,2,0,1,4839498.0,4839959.0,461.0
137,choice,choice,45,6.0,Animal,2.0,8.388898833014537,Object_Land_Pattern_Small,5,0,0,4844600.0,4844994.0,394.0
137,choice,choice,45,6.0,Animal,2.0,8.388898833014537,Animal_Land_Pattern_Small,0,0,1,4845061.0,4845326.0,265.0
137,choice,choice,45,6.0,Animal,2.0,8.388898833014537,fixation,-1,1,0,4845347.0,4846486.0,1139.0
137,choice,choice,45,6.0,Animal,2.0,8.388898833014537,Animal_Land_Pattern_Small,0,0,1,4846669.0,4848237.0,1568.0
137,choice,choice,45,6.0,Animal,2.0,8.388898833014537,Animal_Sea_Solid_Large,3,0,1,4848336.0,4848773.0,437.0
137,choice,choice,45,6.0,Animal,2.0,8.388898833014537,Animal_Land_Pattern_Small,0,0,1,4848841.0,4849076.0,235.0
137,choice,choice,45,6.0,Animal,2.0,8.388898833014537,Animal_Land_Solid_Large,4,0,1,4849100.0,4849657.0,557.0
137,choice,choice,45,6.0,Animal,2.0,8.388898833014537,Object_Sea_Solid_Large,1,0,0,4849746.0,4850686.0,940.0
137,choice,choice,45,6.0,Animal,2.0,8.388898833014537,Animal_Sea_Solid_Large,3,0,1,4850782.0,4851424.0,642.0
137,choice,choice,45,6.0,Animal,2.0,8.388898833014537,Animal_Land_Solid_Large,4,0,1,4851504.0,4851738.0,234.0
137,choice,choice,46,6.0,Object,1.0,15.21575966605451,Object_Land_Pattern_Small,5,0,1,4855484.0,4856764.0,1280.0
137,choice,choice,46,6.0,Object,1.0,15.21575966605451,Object_Sea_Solid_Large,1,0,1,4856826.0,4857164.0,338.0
137,choice,choice,46,6.0,Object,1.0,15.21575966605451,Object_Land_Pattern_Small,5,0,1,4857449.0,4858008.0,559.0
137,choice,choice,46,6.0,Object,1.0,15.21575966605451,Object_Sea_Solid_Large,1,0,1,4858069.0,4861780.0,3711.0
137,choice,choice,46,6.0,Object,1.0,15.21575966605451,Object_Land_Pattern_Small,5,0,1,4861992.0,4862567.0,575.0
137,choice,choice,46,6.0,Object,1.0,15.21575966605451,Object_Sea_Solid_Large,1,0,1,4862626.0,4863759.0,1133.0
137,choice,choice,46,6.0,Object,1.0,15.21575966605451,Object_Sea_Pattern_Small,2,0,1,4863796.0,4865155.0,1359.0
137,choice,choice,46,6.0,Object,1.0,15.21575966605451,Object_Sea_Solid_Large,1,0,1,4865260.0,4866881.0,1621.0
137,choice,choice,46,6.0,Object,1.0,15.21575966605451,Animal_Land_Pattern_Small,0,0,0,4867030.0,4868335.0,1305.0
137,choice,choice,46,6.0,Object,1.0,15.21575966605451,Object_Sea_Solid_Large,1,0,1,4868419.0,4869307.0,888.0
137,choice,choice,47,6.0,Pattern,1.0,12.423732041963376,fixation,-1,1,0,4873767.0,4873945.0,178.0
137,choice,choice,47,6.0,Pattern,1.0,12.423732041963376,Object_Land_Pattern_Small,5,0,1,4873997.0,4874398.0,401.0
137,choice,choice,47,6.0,Pattern,1.0,12.423732041963376,Animal_Sea_Solid_Large,3,0,0,4874518.0,4875212.0,694.0
137,choice,choice,47,6.0,Pattern,1.0,12.423732041963376,Animal_Land_Pattern_Small,0,0,1,4875306.0,4875515.0,209.0
137,choice,choice,47,6.0,Pattern,1.0,12.423732041963376,Animal_Land_Solid_Large,4,0,0,4875553.0,4876114.0,561.0
137,choice,choice,47,6.0,Pattern,1.0,12.423732041963376,Animal_Sea_Solid_Large,3,0,0,4876151.0,4876387.0,236.0
137,choice,choice,47,6.0,Pattern,1.0,12.423732041963376,Animal_Land_Pattern_Small,0,0,1,4876411.0,4877056.0,645.0
137,choice,choice,47,6.0,Pattern,1.0,12.423732041963376,Object_Land_Pattern_Small,5,0,1,4877123.0,4878375.0,1252.0
137,choice,choice,47,6.0,Pattern,1.0,12.423732041963376,Object_Sea_Solid_Large,1,0,0,4878443.0,4879042.0,599.0
137,choice,choice,47,6.0,Pattern,1.0,12.423732041963376,Object_Sea_Pattern_Small,2,0,1,4879090.0,4880536.0,1446.0
137,choice,choice,47,6.0,Pattern,1.0,12.423732041963376,Object_Land_Pattern_Small,5,0,1,4880730.0,4881057.0,327.0
137,choice,choice,47,6.0,Pattern,1.0,12.423732041963376,Object_Sea_Pattern_Small,2,0,1,4881219.0,4881775.0,556.0
137,choice,choice,47,6.0,Pattern,1.0,12.423732041963376,Object_Land_Pattern_Small,5,0,1,4881795.0,4882025.0,230.0
137,choice,choice,47,6.0,Pattern,1.0,12.423732041963376,Animal_Land_Pattern_Small,0,0,1,4882097.0,4883470.0,1373.0
137,choice,choice,47,6.0,Pattern,1.0,12.423732041963376,fixation,-1,1,0,4883562.0,4884876.0,1314.0
137,choice,choice,48,6.0,Large,2.0,25.101820084033537,fixation,-1,1,0,4889031.0,4890847.0,1816.0
137,choice,choice,48,6.0,Large,2.0,25.101820084033537,Object_Sea_Solid_Large,1,0,1,4890884.0,4892957.0,2073.0
137,choice,choice,48,6.0,Large,2.0,25.101820084033537,Animal_Land_Solid_Large,4,0,1,4893399.0,4895369.0,1970.0
137,choice,choice,48,6.0,Large,2.0,25.101820084033537,fixation,-1,1,0,4895495.0,4896215.0,720.0
137,choice,choice,48,6.0,Large,2.0,25.101820084033537,Object_Sea_Solid_Large,1,0,1,4896263.0,4897796.0,1533.0
137,choice,choice,48,6.0,Large,2.0,25.101820084033537,Animal_Land_Solid_Large,4,0,1,4897940.0,4898752.0,812.0
137,choice,choice,48,6.0,Large,2.0,25.101820084033537,fixation,-1,1,0,4898813.0,4900634.0,1821.0
137,choice,choice,48,6.0,Large,2.0,25.101820084033537,Object_Sea_Solid_Large,1,0,1,4900703.0,4904051.0,3348.0
137,choice,choice,48,6.0,Large,2.0,25.101820084033537,Object_Sea_Pattern_Small,2,0,0,4904311.0,4904713.0,402.0
137,choice,choice,48,6.0,Large,2.0,25.101820084033537,Object_Land_Pattern_Small,5,0,0,4904739.0,4904941.0,202.0
137,choice,choice,48,6.0,Large,2.0,25.101820084033537,Animal_Land_Pattern_Small,0,0,0,4904992.0,4906328.0,1336.0
137,choice,choice,48,6.0,Large,2.0,25.101820084033537,Object_Land_Pattern_Small,5,0,0,4906376.0,4906745.0,369.0
137,choice,choice,48,6.0,Large,2.0,25.101820084033537,Object_Sea_Solid_Large,1,0,1,4906797.0,4907378.0,581.0
137,choice,choice,48,6.0,Large,2.0,25.101820084033537,Object_Land_Pattern_Small,5,0,0,4907445.0,4908222.0,777.0
137,choice,choice,48,6.0,Large,2.0,25.101820084033537,Object_Sea_Pattern_Small,2,0,0,4908279.0,4908788.0,509.0
137,choice,choice,48,6.0,Large,2.0,25.101820084033537,fixation,-1,1,0,4908904.0,4909307.0,403.0
137,choice,choice,48,6.0,Large,2.0,25.101820084033537,Animal_Land_Pattern_Small,0,0,0,4909324.0,4909470.0,146.0
137,choice,choice,48,6.0,Large,2.0,25.101820084033537,Animal_Sea_Solid_Large,3,0,1,4909507.0,4910290.0,783.0
137,choice,choice,48,6.0,Large,2.0,25.101820084033537,Animal_Land_Pattern_Small,0,0,0,4910376.0,4911244.0,868.0
137,choice,choice,48,6.0,Large,2.0,25.101820084033537,Animal_Sea_Solid_Large,3,0,1,4911312.0,4913029.0,1717.0
137,choice,choice,48,6.0,Large,2.0,25.101820084033537,Animal_Land_Pattern_Small,0,0,0,4913092.0,4913588.0,496.0
137,choice,choice,49,7.0,Animal,2.0,22.907204499992076,Animal_Sea_Solid_Small,0,0,1,5174692.0,5176506.0,1814.0
137,choice,choice,49,7.0,Animal,2.0,22.907204499992076,Object_Sea_Pattern_Large,1,0,0,5176604.0,5176755.0,151.0
137,choice,choice,49,7.0,Animal,2.0,22.907204499992076,Animal_Land_Solid_Small,2,0,1,5176831.0,5177764.0,933.0
137,choice,choice,49,7.0,Animal,2.0,22.907204499992076,Object_Sea_Pattern_Large,1,0,0,5177845.0,5178619.0,774.0
137,choice,choice,49,7.0,Animal,2.0,22.907204499992076,Animal_Sea_Solid_Small,0,0,1,5178661.0,5179066.0,405.0
137,choice,choice,49,7.0,Animal,2.0,22.907204499992076,Object_Land_Pattern_Large,3,0,0,5179217.0,5179357.0,140.0
137,choice,choice,49,7.0,Animal,2.0,22.907204499992076,Object_Land_Solid_Large,4,0,0,5179391.0,5179621.0,230.0
137,choice,choice,49,7.0,Animal,2.0,22.907204499992076,fixation,-1,1,0,5179643.0,5182124.0,2481.0
137,choice,choice,49,7.0,Animal,2.0,22.907204499992076,Animal_Sea_Solid_Small,0,0,1,5182171.0,5183400.0,1229.0
137,choice,choice,49,7.0,Animal,2.0,22.907204499992076,Object_Sea_Pattern_Large,1,0,0,5183753.0,5186341.0,2588.0
137,choice,choice,49,7.0,Animal,2.0,22.907204499992076,Animal_Sea_Solid_Small,0,0,1,5186409.0,5186567.0,158.0
137,choice,choice,49,7.0,Animal,2.0,22.907204499992076,fixation,-1,1,0,5186615.0,5187923.0,1308.0
137,choice,choice,49,7.0,Animal,2.0,22.907204499992076,Animal_Land_Solid_Small,2,0,1,5188118.0,5188639.0,521.0
137,choice,choice,49,7.0,Animal,2.0,22.907204499992076,Object_Sea_Pattern_Large,1,0,0,5188692.0,5188940.0,248.0
137,choice,choice,49,7.0,Animal,2.0,22.907204499992076,Animal_Land_Solid_Small,2,0,1,5189009.0,5189936.0,927.0
137,choice,choice,49,7.0,Animal,2.0,22.907204499992076,Animal_Sea_Solid_Small,0,0,1,5190032.0,5190709.0,677.0
137,choice,choice,49,7.0,Animal,2.0,22.907204499992076,Object_Sea_Pattern_Large,1,0,0,5190777.0,5191060.0,283.0
137,choice,choice,49,7.0,Animal,2.0,22.907204499992076,Animal_Sea_Pattern_Small,5,0,1,5191119.0,5191742.0,623.0
137,choice,choice,49,7.0,Animal,2.0,22.907204499992076,Object_Land_Solid_Large,4,0,0,5191822.0,5192000.0,178.0
137,choice,choice,49,7.0,Animal,2.0,22.907204499992076,Animal_Land_Solid_Small,2,0,1,5192023.0,5193026.0,1003.0
137,choice,choice,49,7.0,Animal,2.0,22.907204499992076,Object_Sea_Pattern_Large,1,0,0,5193065.0,5193725.0,660.0
137,choice,choice,49,7.0,Animal,2.0,22.907204499992076,Animal_Sea_Pattern_Small,5,0,1,5193834.0,5194645.0,811.0
137,choice,choice,49,7.0,Animal,2.0,22.907204499992076,Object_Sea_Pattern_Large,1,0,0,5194755.0,5195499.0,744.0
137,choice,choice,49,7.0,Animal,2.0,22.907204499992076,Object_Land_Solid_Large,4,0,0,5195577.0,5195762.0,185.0
137,choice,choice,49,7.0,Animal,2.0,22.907204499992076,fixation,-1,1,0,5195781.0,5196206.0,425.0
137,choice,choice,49,7.0,Animal,2.0,22.907204499992076,Object_Sea_Pattern_Large,1,0,0,5196259.0,5196756.0,497.0
137,choice,choice,49,7.0,Animal,2.0,22.907204499992076,fixation,-1,1,0,5196852.0,5197501.0,649.0
137,choice,choice,50,7.0,Sea,2.0,3.872452042007353,Animal_Sea_Solid_Small,0,0,1,5200138.0,5201000.0,862.0
137,choice,choice,50,7.0,Sea,2.0,3.872452042007353,Object_Sea_Pattern_Large,1,0,1,5201036.0,5202154.0,1118.0
137,choice,choice,50,7.0,Sea,2.0,3.872452042007353,Animal_Sea_Pattern_Small,5,0,1,5202279.0,5203602.0,1323.0
137,choice,choice,50,7.0,Sea,2.0,3.872452042007353,Object_Land_Solid_Large,4,0,0,5203735.0,5203950.0,215.0
137,choice,choice,52,7.0,Solid,1.0,14.32658774999436,Object_Land_Solid_Large,4,0,1,5209902.0,5210263.0,361.0
137,choice,choice,52,7.0,Solid,1.0,14.32658774999436,Animal_Land_Solid_Small,2,0,1,5210625.0,5213477.0,2852.0
137,choice,choice,52,7.0,Solid,1.0,14.32658774999436,Object_Land_Pattern_Large,3,0,0,5213618.0,5214539.0,921.0
137,choice,choice,52,7.0,Solid,1.0,14.32658774999436,Object_Land_Solid_Large,4,0,1,5214644.0,5215007.0,363.0
137,choice,choice,52,7.0,Solid,1.0,14.32658774999436,fixation,-1,1,0,5215062.0,5215644.0,582.0
137,choice,choice,52,7.0,Solid,1.0,14.32658774999436,Animal_Sea_Solid_Small,0,0,1,5215676.0,5216339.0,663.0
137,choice,choice,52,7.0,Solid,1.0,14.32658774999436,Animal_Sea_Pattern_Small,5,0,0,5216423.0,5217111.0,688.0
137,choice,choice,52,7.0,Solid,1.0,14.32658774999436,Object_Sea_Pattern_Large,1,0,0,5217202.0,5218057.0,855.0
137,choice,choice,52,7.0,Solid,1.0,14.32658774999436,Object_Land_Solid_Large,4,0,1,5218154.0,5219125.0,971.0
137,choice,choice,52,7.0,Solid,1.0,14.32658774999436,fixation,-1,1,0,5219164.0,5221841.0,2677.0
137,choice,choice,52,7.0,Solid,1.0,14.32658774999436,Animal_Sea_Solid_Small,0,0,1,5221909.0,5222214.0,305.0
137,choice,choice,52,7.0,Solid,1.0,14.32658774999436,Object_Sea_Pattern_Large,1,0,0,5222256.0,5222717.0,461.0
137,choice,choice,52,7.0,Solid,1.0,14.32658774999436,Object_Land_Solid_Large,4,0,1,5222765.0,5223842.0,1077.0
137,choice,choice,53,7.0,Object,2.0,12.103153333009686,Animal_Land_Solid_Small,2,0,0,5228007.0,5228190.0,183.0
137,choice,choice,53,7.0,Object,2.0,12.103153333009686,Object_Land_Solid_Large,4,0,1,5228222.0,5228562.0,340.0
137,choice,choice,53,7.0,Object,2.0,12.103153333009686,Object_Land_Pattern_Large,3,0,1,5228584.0,5228921.0,337.0
137,choice,choice,53,7.0,Object,2.0,12.103153333009686,Animal_Sea_Solid_Small,0,0,0,5228977.0,5229838.0,861.0
137,choice,choice,53,7.0,Object,2.0,12.103153333009686,Object_Sea_Pattern_Large,1,0,1,5229859.0,5230140.0,281.0
137,choice,choice,53,7.0,Object,2.0,12.103153333009686,Object_Land_Solid_Large,4,0,1,5230285.0,5230606.0,321.0
137,choice,choice,53,7.0,Object,2.0,12.103153333009686,fixation,-1,1,0,5230656.0,5230837.0,181.0
137,choice,choice,53,7.0,Object,2.0,12.103153333009686,Object_Sea_Pattern_Large,1,0,1,5230890.0,5231575.0,685.0
137,choice,choice,53,7.0,Object,2.0,12.103153333009686,Animal_Land_Solid_Small,2,0,0,5231635.0,5231833.0,198.0
137,choice,choice,53,7.0,Object,2.0,12.103153333009686,fixation,-1,1,0,5231851.0,5233337.0,1486.0
137,choice,choice,53,7.0,Object,2.0,12.103153333009686,Object_Sea_Pattern_Large,1,0,1,5233408.0,5233885.0,477.0
137,choice,choice,53,7.0,Object,2.0,12.103153333009686,Object_Land_Pattern_Large,3,0,1,5233932.0,5234817.0,885.0
137,choice,choice,53,7.0,Object,2.0,12.103153333009686,Animal_Sea_Solid_Small,0,0,0,5234867.0,5235653.0,786.0
137,choice,choice,53,7.0,Object,2.0,12.103153333009686,Animal_Sea_Pattern_Small,5,0,0,5235704.0,5236209.0,505.0
137,choice,choice,53,7.0,Object,2.0,12.103153333009686,fixation,-1,1,0,5236250.0,5238106.0,1856.0
137,choice,choice,53,7.0,Object,2.0,12.103153333009686,Animal_Sea_Solid_Small,0,0,0,5238198.0,5239363.0,1165.0
137,choice,choice,53,7.0,Object,2.0,12.103153333009686,Object_Land_Pattern_Large,3,0,1,5239468.0,5239651.0,183.0
137,choice,choice,54,7.0,Small,1.0,12.048286832985468,fixation,-1,1,0,5243375.0,5243753.0,378.0
137,choice,choice,54,7.0,Small,1.0,12.048286832985468,Animal_Land_Solid_Small,2,0,1,5243827.0,5246274.0,2447.0
137,choice,choice,54,7.0,Small,1.0,12.048286832985468,Animal_Sea_Pattern_Small,5,0,1,5246360.0,5247037.0,677.0
137,choice,choice,54,7.0,Small,1.0,12.048286832985468,Object_Sea_Pattern_Large,1,0,0,5247102.0,5248910.0,1808.0
137,choice,choice,54,7.0,Small,1.0,12.048286832985468,Animal_Sea_Pattern_Small,5,0,1,5248994.0,5249193.0,199.0
137,choice,choice,54,7.0,Small,1.0,12.048286832985468,Object_Land_Solid_Large,4,0,0,5249243.0,5249389.0,146.0
137,choice,choice,54,7.0,Small,1.0,12.048286832985468,fixation,-1,1,0,5249398.0,5252587.0,3189.0
137,choice,choice,54,7.0,Small,1.0,12.048286832985468,Animal_Land_Solid_Small,2,0,1,5252661.0,5253352.0,691.0
137,choice,choice,54,7.0,Small,1.0,12.048286832985468,Object_Land_Solid_Large,4,0,0,5253387.0,5254075.0,688.0
137,choice,choice,54,7.0,Small,1.0,12.048286832985468,fixation,-1,1,0,5254374.0,5255359.0,985.0
137,choice,choice,55,7.0,Large,1.0,10.2760092500248,Animal_Sea_Pattern_Small,5,0,0,5259420.0,5260064.0,644.0
137,choice,choice,55,7.0,Large,1.0,10.2760092500248,Object_Sea_Pattern_Large,1,0,1,5260149.0,5261093.0,944.0
137,choice,choice,55,7.0,Large,1.0,10.2760092500248,Animal_Sea_Solid_Small,0,0,0,5261208.0,5261371.0,163.0
137,choice,choice,55,7.0,Large,1.0,10.2760092500248,Object_Land_Pattern_Large,3,0,1,5261452.0,5263450.0,1998.0
137,choice,choice,55,7.0,Large,1.0,10.2760092500248,Object_Land_Solid_Large,4,0,1,5263562.0,5263739.0,177.0
137,choice,choice,55,7.0,Large,1.0,10.2760092500248,fixation,-1,1,0,5263749.0,5265018.0,1269.0
137,choice,choice,55,7.0,Large,1.0,10.2760092500248,Animal_Sea_Solid_Small,0,0,0,5265061.0,5265957.0,896.0
137,choice,choice,55,7.0,Large,1.0,10.2760092500248,Animal_Sea_Pattern_Small,5,0,0,5266032.0,5267141.0,1109.0
137,choice,choice,55,7.0,Large,1.0,10.2760092500248,Object_Land_Pattern_Large,3,0,1,5267230.0,5267368.0,138.0
137,choice,choice,55,7.0,Large,1.0,10.2760092500248,Object_Land_Solid_Large,4,0,1,5267410.0,5267789.0,379.0
137,choice,choice,55,7.0,Large,1.0,10.2760092500248,fixation,-1,1,0,5267816.0,5268939.0,1123.0
137,choice,choice,56,7.0,Pattern,2.0,10.646710000000894,Object_Land_Pattern_Large,3,0,1,5271718.0,5273984.0,2266.0
137,choice,choice,56,7.0,Pattern,2.0,10.646710000000894,Animal_Land_Solid_Small,2,0,0,5274212.0,5274969.0,757.0
137,choice,choice,56,7.0,Pattern,2.0,10.646710000000894,Object_Land_Solid_Large,4,0,0,5275088.0,5275369.0,281.0
137,choice,choice,56,7.0,Pattern,2.0,10.646710000000894,fixation,-1,1,0,5275384.0,5275746.0,362.0
137,choice,choice,56,7.0,Pattern,2.0,10.646710000000894,Animal_Sea_Solid_Small,0,0,0,5275798.0,5276364.0,566.0
137,choice,choice,56,7.0,Pattern,2.0,10.646710000000894,Animal_Land_Solid_Small,2,0,0,5276468.0,5276668.0,200.0
137,choice,choice,56,7.0,Pattern,2.0,10.646710000000894,fixation,-1,1,0,5276694.0,5277500.0,806.0
137,choice,choice,56,7.0,Pattern,2.0,10.646710000000894,Object_Sea_Pattern_Large,1,0,1,5277573.0,5279148.0,1575.0
137,choice,choice,56,7.0,Pattern,2.0,10.646710000000894,Animal_Sea_Pattern_Small,5,0,1,5279277.0,5280089.0,812.0
137,choice,choice,56,7.0,Pattern,2.0,10.646710000000894,Object_Land_Pattern_Large,3,0,1,5280170.0,5280730.0,560.0
137,choice,choice,56,7.0,Pattern,2.0,10.646710000000894,Object_Land_Solid_Large,4,0,0,5280776.0,5281582.0,806.0
137,choice,choice,56,7.0,Pattern,2.0,10.646710000000894,fixation,-1,1,0,5281626.0,5282140.0,514.0
