phase,event,onset,offset,trial_number,game,image,outcome,choice,correct,rt,letter,match,response,option,true_value,true_position,recalled_position,
encoding,fixation,11.682847750023939,12.950991999998223,1,1,Animal_Sea_Solid_Small,-3,,,,,,,,,,,
encoding,image,12.951124624989461,13.9698245000327,1,1,Animal_Sea_Solid_Small,-3,,,,,,,,,,,
encoding,value,13.969952417013701,19.98611554200761,1,1,Animal_Sea_Solid_Small,-3,,,,,,,,,,,
encoding,attention,19.986245709005743,23.0059406250366,1,1,Animal_Sea_Solid_Small,-3,-3,1,2.808798000041861,,,,,,,,
encoding,fixation,23.006094209034927,23.51097133400617,2,1,Animal_Sea_Pattern_Small,-2,,,,,,,,,,,
encoding,image,23.511089334031567,24.521470375009812,2,1,Animal_Sea_Pattern_Small,-2,,,,,,,,,,,
encoding,value,24.52157858404098,30.534093750000466,2,1,Animal_Sea_Pattern_Small,-2,,,,,,,,,,,
encoding,attention,30.53425333404448,33.55537662503775,2,1,Animal_Sea_Pattern_Small,-2,-2,1,0.9556582499644719,,,,,,,,
encoding,fixation,33.555524834024254,35.06088466703659,3,1,Animal_Land_Solid_Small,9,,,,,,,,,,,
encoding,image,35.06100345903542,36.07206375000533,3,1,Animal_Land_Solid_Small,9,,,,,,,,,,,
encoding,value,36.07218062499305,42.083954542002175,3,1,Animal_Land_Solid_Small,9,,,,,,,,,,,
encoding,attention,42.084081209031865,45.10508941701846,3,1,Animal_Land_Solid_Small,9,+9,1,1.8442635840037838,,,,,,,,
encoding,fixation,45.105254792026244,45.610577709041536,4,1,Object_Land_Pattern_Large,2,,,,,,,,,,,
encoding,image,45.61069833399961,46.62207208399195,4,1,Object_Land_Pattern_Large,2,,,,,,,,,,,
encoding,value,46.62218433403177,52.63469062501099,4,1,Object_Land_Pattern_Large,2,,,,,,,,,,,
encoding,attention,52.63480658404296,55.65496466704644,4,1,Object_Land_Pattern_Large,2,+2,1,1.9830098339589313,,,,,,,,
encoding,fixation,55.6551565839909,56.16033633402549,5,1,Object_Land_Solid_Large,-8,,,,,,,,,,,
encoding,image,56.16045208403375,57.170238959020935,5,1,Object_Land_Solid_Large,-8,,,,,,,,,,,
encoding,value,57.17033833399182,63.18297291704221,5,1,Object_Land_Solid_Large,-8,,,,,,,,,,,
encoding,attention,63.18309920903994,66.23807258403394,5,1,Object_Land_Solid_Large,-8,-8,1,1.504108500026632,,,,,,,,
encoding,fixation,66.23825279204175,67.49365333403694,6,1,Object_Sea_Pattern_Large,4,,,,,,,,,,,
encoding,image,67.49376166699221,68.505321500008,6,1,Object_Sea_Pattern_Large,4,,,,,,,,,,,
encoding,value,68.5054440840031,74.5173169170157,6,1,Object_Sea_Pattern_Large,4,,,,,,,,,,,
encoding,attention,74.51742341701174,77.53334433399141,6,1,Object_Sea_Pattern_Large,4,None,None,None,,,,,,,,
n-back,,,,1,1,,,,1,None,B,False,None,,,,,
n-back,,,,2,1,,,,1,None,Z,False,None,,,,,
n-back,,,,3,1,,,,0,None,B,True,None,,,,,
n-back,,,,4,1,,,,0,0.5168859590194188,N,False,1,,,,,
n-back,,,,5,1,,,,1,None,X,False,None,,,,,
n-back,,,,6,1,,,,0,None,N,True,None,,,,,
n-back,,,,7,1,,,,1,None,N,False,None,,,,,
n-back,,,,8,1,,,,1,None,V,False,None,,,,,
n-back,,,,9,1,,,,0,None,N,True,None,,,,,
n-back,,,,10,1,,,,1,0.6067842500051484,V,True,1,,,,,
n-back,,,,11,1,,,,0,None,N,True,None,,,,,
n-back,,,,12,1,,,,1,None,B,False,None,,,,,
n-back,,,,13,1,,,,1,None,Z,False,None,,,,,
n-back,,,,14,1,,,,1,None,C,False,None,,,,,
n-back,,,,15,1,,,,1,None,X,False,None,,,,,
n-back,,,,16,1,,,,1,0.7448004580219276,C,True,1,,,,,
n-back,,,,17,1,,,,1,None,Z,False,None,,,,,
n-back,,,,18,1,,,,0,None,C,True,None,,,,,
n-back,,,,19,1,,,,1,0.7678899579914287,Z,True,1,,,,,
n-back,,,,20,1,,,,1,None,N,False,None,,,,,
n-back,,,,21,1,,,,1,None,V,False,None,,,,,
n-back,,,,22,1,,,,1,0.6840008330182172,N,True,1,,,,,
n-back,,,,23,1,,,,1,None,N,False,None,,,,,
n-back,,,,24,1,,,,1,None,B,False,None,,,,,
n-back,,,,25,1,,,,1,None,X,False,None,,,,,
n-back,,,,26,1,,,,1,None,C,False,None,,,,,
n-back,,,,27,1,,,,1,None,C,False,None,,,,,
n-back,,,,28,1,,,,1,None,V,False,None,,,,,
n-back,,,,29,1,,,,1,0.5210167919867672,C,True,1,,,,,
n-back,,,,30,1,,,,1,None,X,False,None,,,,,
choice,fixation,160.01756062504137,161.52414350002073,1,1,,,,,,,,,Solid,,,,
choice,option,161.5337840000284,162.70922391704516,1,1,,,,,,,,,Solid,,,,
choice,choice,162.70932787499623,178.00768566702027,1,1,,,1,0,14.28652875003172,,,,Solid,,,,
choice,fixation,178.00781425001333,179.51312616700307,2,1,,,,,,,,,Object,,,,
choice,option,179.52299808402313,180.55069129203912,2,1,,,,,,,,,Object,,,,
choice,choice,180.55080495902803,193.68011212500278,2,1,,,2,1,12.118630999990273,,,,Object,,,,
choice,fixation,193.68025054200552,194.93527895899024,3,1,,,,,,,,,Land,,,,
choice,option,194.9441150840139,195.9705611669924,3,1,,,,,,,,,Land,,,,
choice,choice,195.97068183403462,198.2624413750018,3,1,,,1,1,1.2824353750329465,,,,Land,,,,
choice,fixation,198.26257041702047,199.2676383749931,4,1,,,,,,,,,Small,,,,
choice,option,199.27648254204541,200.3030407089973,4,1,,,,,,,,,Small,,,,
choice,choice,200.30314795899903,215.2083308750298,4,1,,,2,0,13.89451337500941,,,,Small,,,,
choice,fixation,215.2084672920173,216.21385312499478,5,1,,,,,,,,,Animal,,,,
choice,option,216.22342904203106,217.2499760420178,5,1,,,,,,,,,Animal,,,,
choice,choice,217.25009241700172,230.46215937501984,5,1,,,2,0,12.201557916996535,,,,Animal,,,,
choice,fixation,230.46232049999526,231.21736883401172,6,1,,,,,,,,,Large,,,,
choice,option,231.22623679199023,232.25214425002923,6,1,,,,,,,,,Large,,,,
choice,choice,232.25225354201393,234.1272039170144,6,1,,,1,0,0.8655582920182496,,,,Large,,,,
choice,fixation,234.12735399999656,234.6323723749956,7,1,,,,,,,,,Sea,,,,
choice,option,234.64077091700165,235.66702883399557,7,1,,,,,,,,,Sea,,,,
choice,choice,235.66718554199906,236.90291595901363,7,1,,,2,1,0.22646012500626966,,,,Sea,,,,
choice,fixation,236.90305175003596,237.40787562500918,8,1,,,,,,,,,Pattern,,,,
choice,option,237.4172231249977,238.44432912499178,8,1,,,,,,,,,Pattern,,,,
choice,choice,238.4444662090391,244.62986958399415,8,1,,,1,1,5.175019624992274,,,,Pattern,,,,
memory,free_recall,306.01880141702713,356.93088608403923,0,1,,,,,,,,,,,,,
memory,value_recall,400.27565570903243,408.9852441250114,1,1,Object_Land_Solid_Large,,,,8.703596250037663,,,,,-8,,,
memory,value_recall,410.53194787504617,425.4718569589895,2,1,Object_Sea_Pattern_Large,,,,14.935642208030913,,,,,4,,,
memory,value_recall,427.51874129200587,430.6402135420358,3,1,Animal_Sea_Solid_Small,,,,3.117503624991514,,,,,-3,,,
memory,value_recall,432.1859787499998,434.6886775000021,4,1,Animal_Sea_Pattern_Small,,,,2.498792250000406,,,,,-2,,,
memory,value_recall,436.23421550000785,439.42609262501355,5,1,Animal_Land_Solid_Small,,,,3.187722583010327,,,,,9,,,
memory,value_recall,440.4725865420187,444.8730858750059,6,1,Object_Land_Pattern_Large,,,,4.3970524170435965,,,,,2,,,
memory,spatial_recall,466.56703095900593,474.973261709034,6,1,Object_Land_Pattern_Large,,,1,8.402192250010557,,,,,,"[-329, -190]","[-329, -190]",
memory,spatial_recall,476.27747895900393,480.54319162503816,6,1,Animal_Land_Solid_Small,,,1,4.261127833975479,,,,,,"[329, -190]","[329, -190]",
memory,spatial_recall,481.60107883403543,487.12622166704386,6,1,Object_Sea_Pattern_Large,,,1,5.522712334000971,,,,,,"[329, 189]","[329, 189]",
memory,spatial_recall,489.1828698749887,491.5597596250009,6,1,Animal_Sea_Pattern_Small,,,1,2.372891625040211,,,,,,"[-329, 190]","[-329, 190]",
memory,spatial_recall,493.11573529202724,495.8066364590195,6,1,Animal_Sea_Solid_Small,,,1,2.6867266250192188,,,,,,"[0, 380]","[0, 380]",
memory,spatial_recall,497.85689337499207,500.50652620900655,6,1,Object_Land_Solid_Large,,,1,2.6457912499899976,,,,,,"[0, -380]","[0, -380]",
encoding,fixation,11.991828457976226,12.997529916989151,7,2,Object_Sea_Pattern_Small,-6,,,,,,,,,,,
encoding,image,12.997645041963551,14.00991924997652,7,2,Object_Sea_Pattern_Small,-6,,,,,,,,,,,
encoding,value,14.010032499965746,20.022945582983084,7,2,Object_Sea_Pattern_Small,-6,,,,,,,,,,,
encoding,attention,20.02306612499524,23.04467091697734,7,2,Object_Sea_Pattern_Small,-6,-6,1,1.393740625004284,,,,,,,,
encoding,fixation,23.044820874987636,23.799954916990828,8,2,Animal_Land_Solid_Large,2,,,,,,,,,,,
encoding,image,23.800074749975465,24.811519416980445,8,2,Animal_Land_Solid_Large,2,,,,,,,,,,,
encoding,value,24.811631666962057,30.824184208002407,8,2,Animal_Land_Solid_Large,2,,,,,,,,,,,
encoding,attention,30.8243174579693,33.84433875000104,8,2,Animal_Land_Solid_Large,2,+2,1,0.8997737920144573,,,,,,,,
encoding,fixation,33.84448137495201,35.349491374974605,9,2,Animal_Sea_Pattern_Large,-6,,,,,,,,,,,
encoding,image,35.34960291697644,36.36086483299732,9,2,Animal_Sea_Pattern_Large,-6,,,,,,,,,,,
encoding,value,36.36101637495449,42.37137220799923,9,2,Animal_Sea_Pattern_Large,-6,,,,,,,,,,,
encoding,attention,42.37149937497452,45.389764832973015,9,2,Animal_Sea_Pattern_Large,-6,-6,1,2.8818741249851882,,,,,,,,
encoding,fixation,45.38991199998418,46.393947707954794,10,2,Animal_Land_Pattern_Large,1,,,,,,,,,,,
encoding,image,46.39406266697915,47.40379466698505,10,2,Animal_Land_Pattern_Large,1,,,,,,,,,,,
encoding,value,47.40391141700093,53.41555024997797,10,2,Animal_Land_Pattern_Large,1,,,,,,,,,,,
encoding,attention,53.415689082990866,56.43363574997056,10,2,Animal_Land_Pattern_Large,1,+1,1,0.6520820000441745,,,,,,,,
encoding,fixation,56.43378291698173,57.68976549996296,11,2,Object_Sea_Solid_Small,6,,,,,,,,,,,
encoding,image,57.68987258296693,58.70066545798909,11,2,Object_Sea_Solid_Small,6,,,,,,,,,,,
encoding,value,58.70077145798132,64.71111837495118,11,2,Object_Sea_Solid_Small,6,,,,,,,,,,,
encoding,attention,64.71123774995795,67.72744354198221,11,2,Object_Sea_Solid_Small,6,+6,1,1.4705138329882175,,,,,,,,
encoding,fixation,67.72764354199171,68.23264670796925,12,2,Object_Land_Solid_Small,-6,,,,,,,,,,,
encoding,image,68.23277641698951,69.24402583297342,12,2,Object_Land_Solid_Small,-6,,,,,,,,,,,
encoding,value,69.24413520796224,75.2567791249603,12,2,Object_Land_Solid_Small,-6,,,,,,,,,,,
encoding,attention,75.25689191697165,78.27422595798271,12,2,Object_Land_Solid_Small,-6,-6,1,0.8898611249751411,,,,,,,,
n-back,,,,31,2,,,,1,None,C,False,None,,,,,
n-back,,,,32,2,,,,0,None,N,True,None,,,,,
n-back,,,,33,2,,,,1,0.8974427499924786,C,True,1,,,,,
n-back,,,,34,2,,,,1,None,Z,False,None,,,,,
n-back,,,,35,2,,,,0,None,C,True,None,,,,,
n-back,,,,36,2,,,,1,None,C,False,None,,,,,
n-back,,,,37,2,,,,1,None,V,False,None,,,,,
n-back,,,,38,2,,,,1,None,N,False,None,,,,,
n-back,,,,39,2,,,,1,None,B,False,None,,,,,
n-back,,,,40,2,,,,0,1.0099322919850238,Z,False,1,,,,,
n-back,,,,41,2,,,,1,None,V,False,None,,,,,
n-back,,,,42,2,,,,0,None,Z,True,None,,,,,
n-back,,,,43,2,,,,1,None,C,False,None,,,,,
n-back,,,,44,2,,,,1,None,X,False,None,,,,,
n-back,,,,45,2,,,,1,None,Z,False,None,,,,,
n-back,,,,46,2,,,,1,None,N,False,None,,,,,
n-back,,,,47,2,,,,1,None,X,False,None,,,,,
n-back,,,,48,2,,,,1,None,Z,False,None,,,,,
n-back,,,,49,2,,,,1,None,V,False,None,,,,,
n-back,,,,50,2,,,,1,None,C,False,None,,,,,
n-back,,,,51,2,,,,1,None,C,False,None,,,,,
n-back,,,,52,2,,,,1,1.4045589590095915,C,True,1,,,,,
n-back,,,,53,2,,,,1,None,V,False,None,,,,,
n-back,,,,54,2,,,,1,0.6012854999862611,C,True,1,,,,,
n-back,,,,55,2,,,,1,None,N,False,None,,,,,
n-back,,,,56,2,,,,0,None,C,True,None,,,,,
n-back,,,,57,2,,,,1,0.7072224169969559,N,True,1,,,,,
n-back,,,,58,2,,,,1,None,B,False,None,,,,,
n-back,,,,59,2,,,,0,None,N,True,None,,,,,
n-back,,,,60,2,,,,1,0.4027878749766387,B,True,1,,,,,
choice,fixation,158.54490749997785,159.5485579999513,9,2,,,,,,,,,Solid,,,,
choice,option,159.5576113749994,160.5839904579916,9,2,,,,,,,,,Solid,,,,
choice,choice,160.58409849996679,177.25632116699126,9,2,,,2,0,15.66020241600927,,,,Solid,,,,
choice,fixation,177.25645208294736,178.01088412496028,10,2,,,,,,,,,Animal,,,,
choice,option,178.02010674995836,179.04656962497393,10,2,,,,,,,,,Animal,,,,
choice,choice,179.04675662500085,186.75095991697162,10,2,,,1,0,6.694102915993426,,,,Animal,,,,
choice,fixation,186.75108429195825,188.25614208297338,11,2,,,,,,,,,Small,,,,
choice,option,188.26517024997156,189.29194966697833,11,2,,,,,,,,,Small,,,,
choice,choice,189.29206212499412,200.8771717499476,11,2,,,2,1,10.574411417008378,,,,Small,,,,
choice,fixation,200.87728745798813,202.13255358295282,12,2,,,,,,,,,Large,,,,
choice,option,202.141124457994,203.16797487495933,12,2,,,,,,,,,Large,,,,
choice,choice,203.16809216694674,209.86127591697732,12,2,,,1,0,5.6835984159843065,,,,Large,,,,
choice,fixation,209.86140529200202,210.86664333299268,13,2,,,,,,,,,Object,,,,
choice,option,210.87640795798507,211.9023461669567,13,2,,,,,,,,,Object,,,,
choice,choice,211.9024455419858,224.4225772919599,13,2,,,1,0,11.508762750017922,,,,Object,,,,
choice,fixation,224.4227025419823,225.427639832953,14,2,,,,,,,,,Pattern,,,,
choice,option,225.43693974998314,226.46299783297582,14,2,,,,,,,,,Pattern,,,,
choice,choice,226.46310762496432,236.55053612496704,14,2,,,1,0,9.077010375040118,,,,Pattern,,,,
choice,fixation,236.550664957962,237.30473016697215,15,2,,,,,,,,,Sea,,,,
choice,option,237.31300654198276,238.33907937497133,15,2,,,,,,,,,Sea,,,,
choice,choice,238.33927841699915,252.79832366696792,15,2,,,1,0,13.448418624990154,,,,Sea,,,,
choice,fixation,252.798498249962,254.05406554194633,16,2,,,,,,,,,Land,,,,
choice,option,254.06291441695066,255.09021495794877,16,2,,,,,,,,,Land,,,,
choice,choice,255.09043108299375,256.83829633297864,16,2,,,2,1,0.7359663749812171,,,,Land,,,,
memory,free_recall,288.13618679199135,336.6565140829771,6,2,,,,,,,,,,,,,
memory,value_recall,354.31422779196873,358.9429596669506,7,2,Animal_Land_Solid_Large,,,,4.6244717499939725,,,,,2,,,
memory,value_recall,360.48988799995277,367.2244543749839,8,2,Object_Sea_Pattern_Small,,,,6.730431624979246,,,,,-6,,,
memory,value_recall,368.7722904169932,371.5851050419733,9,2,Animal_Land_Pattern_Large,,,,2.8086610410246067,,,,,1,,,
memory,value_recall,373.3814100829768,376.45516920799855,10,2,Object_Sea_Solid_Small,,,,3.0675655000377446,,,,,6,,,
memory,value_recall,378.2517592499498,380.2740251249634,11,2,Object_Land_Solid_Small,,,,2.0182128340238705,,,,,-6,,,
memory,value_recall,382.3227592499461,388.6947457919596,12,2,Animal_Sea_Pattern_Large,,,,6.367901040997822,,,,,-6,,,
memory,spatial_recall,399.97495774994604,406.65349816699745,12,2,Animal_Land_Solid_Large,,,1,6.674529000010807,,,,,,"[-329, -190]","[-329, -190]",
memory,spatial_recall,407.97022858296987,411.3881782919634,12,2,Object_Land_Solid_Small,,,1,3.413936625001952,,,,,,"[329, -190]","[329, -190]",
memory,spatial_recall,412.44440987496637,415.31721899996046,12,2,Animal_Sea_Pattern_Large,,,1,2.8703625419875607,,,,,,"[0, -380]","[0, -380]",
memory,spatial_recall,417.1229738330003,422.09915099997306,12,2,Animal_Land_Pattern_Large,,,1,4.972112416988239,,,,,,"[329, 189]","[329, 189]",
memory,spatial_recall,423.65188245795434,425.08673158299644,12,2,Object_Sea_Solid_Small,,,1,1.4307664170046337,,,,,,"[0, 380]","[0, 380]",
memory,spatial_recall,427.14827899995726,430.2668441669666,12,2,Object_Sea_Pattern_Small,,,1,3.1145855829818174,,,,,,"[-329, 190]","[-329, 190]",
encoding,fixation,5.288942167011555,6.296357042039745,13,3,Animal_Land_Solid_Large,-1,,,,,,,,,,,
encoding,image,6.296464584011119,7.308610459032934,13,3,Animal_Land_Solid_Large,-1,,,,,,,,,,,
encoding,value,7.308727500028908,13.322375500050839,13,3,Animal_Land_Solid_Large,-1,,,,,,,,,,,
encoding,attention,13.322490209015086,16.343128167034592,13,3,Animal_Land_Solid_Large,-1,-1,1,0.864209666964598,,,,,,,,
encoding,fixation,16.34327462501824,16.848347125051077,14,3,Object_Sea_Pattern_Small,-8,,,,,,,,,,,
encoding,image,16.848462374997325,17.86209275003057,14,3,Object_Sea_Pattern_Small,-8,,,,,,,,,,,
encoding,value,17.862239792011678,23.874413917015772,14,3,Object_Sea_Pattern_Small,-8,,,,,,,,,,,
encoding,attention,23.874552334018517,26.892412542016245,14,3,Object_Sea_Pattern_Small,-8,-8,1,0.5718135829665698,,,,,,,,
encoding,fixation,26.892564000037964,27.39751854201313,15,3,Object_Land_Pattern_Small,8,,,,,,,,,,,
encoding,image,27.39763162500458,28.41175445902627,15,3,Object_Land_Pattern_Small,8,,,,,,,,,,,
encoding,value,28.411875959020108,34.42309220903553,15,3,Object_Land_Pattern_Small,8,,,,,,,,,,,
encoding,attention,34.4232015000307,37.44124645902775,15,3,Object_Land_Pattern_Small,8,+8,1,0.6364333749515936,,,,,,,,
encoding,fixation,37.44140079204226,38.69654066703515,16,3,Object_Sea_Solid_Large,5,,,,,,,,,,,
encoding,image,38.696725959016476,39.70797320903512,16,3,Object_Sea_Solid_Large,5,,,,,,,,,,,
encoding,value,39.70808858401142,45.719904833997134,16,3,Object_Sea_Solid_Large,5,,,,,,,,,,,
encoding,attention,45.720011792029254,48.737942125007976,16,3,Object_Sea_Solid_Large,5,+5,1,1.7019417500123382,,,,,,,,
encoding,fixation,48.73812129202997,49.245406625035685,17,3,Animal_Sea_Solid_Large,-2,,,,,,,,,,,
encoding,image,49.24551908404101,50.257335417030845,17,3,Animal_Sea_Solid_Large,-2,,,,,,,,,,,
encoding,value,50.2574453750276,56.2695534999948,17,3,Animal_Sea_Solid_Large,-2,,,,,,,,,,,
encoding,attention,56.2696586670354,59.287441417051014,17,3,Animal_Sea_Solid_Large,-2,-2,1,0.5835455839987844,,,,,,,,
encoding,fixation,59.2876039170078,59.795412167033646,18,3,Animal_Land_Pattern_Small,8,,,,,,,,,,,
encoding,image,59.79555050004274,60.807031208998524,18,3,Animal_Land_Pattern_Small,8,,,,,,,,,,,
encoding,value,60.807179625029676,66.81834183400497,18,3,Animal_Land_Pattern_Small,8,,,,,,,,,,,
encoding,attention,66.81846295902506,69.83494341705227,18,3,Animal_Land_Pattern_Small,8,+8,1,0.9829169170116074,,,,,,,,
n-back,,,,61,3,,,,1,None,C,False,None,,,,,
n-back,,,,62,3,,,,1,None,X,False,None,,,,,
n-back,,,,63,3,,,,1,None,X,False,None,,,,,
n-back,,,,64,3,,,,1,None,B,False,None,,,,,
n-back,,,,65,3,,,,1,0.803725250007119,X,True,1,,,,,
n-back,,,,66,3,,,,1,None,X,False,None,,,,,
n-back,,,,67,3,,,,1,None,N,False,None,,,,,
n-back,,,,68,3,,,,1,0.5347392919939011,X,True,1,,,,,
n-back,,,,69,3,,,,0,None,N,True,None,,,,,
n-back,,,,70,3,,,,0,0.013454083004035056,V,False,1,,,,,
n-back,,,,71,3,,,,0,None,N,True,None,,,,,
n-back,,,,72,3,,,,1,None,X,False,None,,,,,
n-back,,,,73,3,,,,1,None,Z,False,None,,,,,
n-back,,,,74,3,,,,1,0.3496732920175418,X,True,1,,,,,
n-back,,,,75,3,,,,1,None,B,False,None,,,,,
n-back,,,,76,3,,,,1,None,N,False,None,,,,,
n-back,,,,77,3,,,,1,None,V,False,None,,,,,
n-back,,,,78,3,,,,1,None,Z,False,None,,,,,
n-back,,,,79,3,,,,0,None,V,True,None,,,,,
n-back,,,,80,3,,,,1,None,B,False,None,,,,,
n-back,,,,81,3,,,,1,0.6642339579993859,V,True,1,,,,,
n-back,,,,82,3,,,,1,None,N,False,None,,,,,
n-back,,,,83,3,,,,1,None,C,False,None,,,,,
n-back,,,,84,3,,,,0,None,N,True,None,,,,,
n-back,,,,85,3,,,,1,None,B,False,None,,,,,
n-back,,,,86,3,,,,1,0.9597202090080827,N,True,1,,,,,
n-back,,,,87,3,,,,1,None,N,False,None,,,,,
n-back,,,,88,3,,,,1,None,Z,False,None,,,,,
n-back,,,,89,3,,,,1,0.43985195900313556,N,True,1,,,,,
n-back,,,,90,3,,,,1,None,N,False,None,,,,,
choice,fixation,151.01312075002352,151.76652441703482,17,3,,,,,,,,,Land,,,,
choice,option,151.77496187499491,152.80173150001792,17,3,,,,,,,,,Land,,,,
choice,choice,152.80183720903005,164.71260895900195,17,3,,,2,0,10.89976104197558,,,,Land,,,,
choice,fixation,164.7127554170438,165.71770983404713,18,3,,,,,,,,,Large,,,,
choice,option,165.72678654204356,166.75283762504114,18,3,,,,,,,,,Large,,,,
choice,choice,166.752958416997,176.5278765000403,18,3,,,1,1,8.764471875037998,,,,Large,,,,
choice,fixation,176.52802320901537,177.7829830420087,19,3,,,,,,,,,Object,,,,
choice,option,177.79221600003075,178.81874970899662,19,3,,,,,,,,,Object,,,,
choice,choice,178.81885904201772,197.53611625003396,19,3,,,2,0,17.706475167011376,,,,Object,,,,
choice,fixation,197.53623312502168,198.2912682919996,20,3,,,,,,,,,Small,,,,
choice,option,198.29996558401035,199.32776633399772,20,3,,,,,,,,,Small,,,,
choice,choice,199.3278753340128,217.3115028750035,20,3,,,1,1,16.97284037497593,,,,Small,,,,
choice,fixation,217.3116242090473,218.81664308405016,21,3,,,,,,,,,Animal,,,,
choice,option,218.82559375005076,219.85263316700002,21,3,,,,,,,,,Animal,,,,
choice,choice,219.8527501670178,225.86411804205272,21,3,,,2,0,5.001840958953835,,,,Animal,,,,
choice,fixation,225.86424600001192,226.61926624999614,22,3,,,,,,,,,Solid,,,,
choice,option,226.62866133404896,227.65507479204098,22,3,,,,,,,,,Solid,,,,
choice,choice,227.65518045902718,234.67782683402766,22,3,,,2,0,6.01066308299778,,,,Solid,,,,
choice,fixation,234.67796600004658,235.6830550840241,23,3,,,,,,,,,Pattern,,,,
choice,option,235.69181170902448,236.7178962090402,23,3,,,,,,,,,Pattern,,,,
choice,choice,236.71800566703314,238.79876179201528,23,3,,,1,1,1.0706934590125456,,,,Pattern,,,,
choice,fixation,238.79894783400232,239.3037946250406,24,3,,,,,,,,,Sea,,,,
choice,option,239.31246850005118,240.33896104199812,24,3,,,,,,,,,Sea,,,,
choice,choice,240.3390921250102,251.72041816700948,24,3,,,1,0,10.367834709002636,,,,Sea,,,,
memory,free_recall,270.40099266701145,289.3623509170138,12,3,,,,,,,,,,,,,
memory,value_recall,301.57843712501926,315.81149470905075,13,3,Animal_Land_Solid_Large,,,,14.228923041024245,,,,,-1,,,
memory,value_recall,317.85831991699524,321.1697912920499,14,3,Animal_Sea_Solid_Large,,,,3.307327958988026,,,,,-2,,,
memory,value_recall,322.7152791250264,329.11355200002436,15,3,Object_Sea_Pattern_Small,,,,6.394220791000407,,,,,-8,,,
memory,value_recall,330.91099462501006,343.56160025001736,16,3,Animal_Land_Pattern_Small,,,,12.646420332952403,,,,,8,,,
memory,value_recall,344.6117559170234,350.0430253750528,17,3,Object_Land_Pattern_Small,,,,5.428016374993604,,,,,8,,,
memory,value_recall,351.84002904203953,356.20076683402294,18,3,Object_Sea_Solid_Large,,,,4.356624500011094,,,,,5,,,
memory,spatial_recall,362.95163054199656,369.0022999170469,18,3,Animal_Land_Pattern_Small,,,1,6.046577791974414,,,,,,"[0, -380]","[0, -380]",
memory,spatial_recall,370.56279466702836,375.5888509170036,18,3,Animal_Land_Solid_Large,,,1,5.022134000028018,,,,,,"[-329, -190]","[-329, -190]",
memory,spatial_recall,377.6450779590523,383.00523645902285,18,3,Animal_Sea_Solid_Large,,,1,5.355288667022251,,,,,,"[329, -190]","[329, -190]",
memory,spatial_recall,384.3125195419998,386.94316045905,18,3,Object_Sea_Solid_Large,,,1,2.6267507079755887,,,,,,"[329, 189]","[329, 189]",
memory,spatial_recall,389.0059845840442,390.60521179204807,18,3,Object_Land_Pattern_Small,,,1,1.5934410420013592,,,,,,"[0, 380]","[0, 380]",
memory,spatial_recall,391.9116527920123,395.0625599170453,18,3,Object_Sea_Pattern_Small,,,1,3.146947833010927,,,,,,"[-329, 190]","[-329, 190]",
encoding,fixation,8.668436207983177,9.674219708016608,19,4,Object_Land_Solid_Large,4,,,,,,,,,,,
encoding,image,9.674418916983996,10.68440433300566,19,4,Object_Land_Solid_Large,4,,,,,,,,,,,
encoding,value,10.68451345799258,16.69983266701456,19,4,Object_Land_Solid_Large,4,,,,,,,,,,,
encoding,attention,16.699999125034083,19.718331624986604,19,4,Object_Land_Solid_Large,4,+4,1,1.0214536669664085,,,,,,,,
encoding,fixation,19.718513125029858,20.723708375007845,20,4,Animal_Sea_Pattern_Small,9,,,,,,,,,,,
encoding,image,20.723817833000794,21.735603958019055,20,4,Animal_Sea_Pattern_Small,9,,,,,,,,,,,
encoding,value,21.73570566700073,27.749353583029006,20,4,Animal_Sea_Pattern_Small,9,,,,,,,,,,,
encoding,attention,27.749474541982636,30.772781207982916,20,4,Animal_Sea_Pattern_Small,9,+9,1,1.1424701670184731,,,,,,,,
encoding,fixation,30.772935417015105,31.527942874992732,21,4,Animal_Land_Solid_Small,-7,,,,,,,,,,,
encoding,image,31.528086917009205,32.538486125005875,21,4,Animal_Land_Solid_Small,-7,,,,,,,,,,,
encoding,value,32.5386127079837,38.55095004203031,21,4,Animal_Land_Solid_Small,-7,,,,,,,,,,,
encoding,attention,38.55107562500052,41.57086320803501,21,4,Animal_Land_Solid_Small,-7,-7,1,0.6249415840138681,,,,,,,,
encoding,fixation,41.57102054200368,43.076119958015624,22,4,Animal_Sea_Solid_Small,-8,,,,,,,,,,,
encoding,image,43.07627741701435,44.087384167010896,22,4,Animal_Sea_Solid_Small,-8,,,,,,,,,,,
encoding,value,44.08750012499513,50.09947920800187,22,4,Animal_Sea_Solid_Small,-8,,,,,,,,,,,
encoding,attention,50.09965404198738,53.11213745799614,22,4,Animal_Sea_Solid_Small,-8,None,None,None,,,,,,,,
encoding,fixation,53.112258917011786,54.36720045801485,23,4,Object_Land_Pattern_Large,2,,,,,,,,,,,
encoding,image,54.36731145798694,55.37874712503981,23,4,Object_Land_Pattern_Large,2,,,,,,,,,,,
encoding,value,55.37884958303766,61.39180983300321,23,4,Object_Land_Pattern_Large,2,,,,,,,,,,,
encoding,attention,61.39201833301922,64.40946824999992,23,4,Object_Land_Pattern_Large,2,+2,1,0.6820605419925414,,,,,,,,
encoding,fixation,64.40961412503384,65.4150613329839,24,4,Object_Sea_Pattern_Large,-9,,,,,,,,,,,
encoding,image,65.415172292036,66.42542908299947,24,4,Object_Sea_Pattern_Large,-9,,,,,,,,,,,
encoding,value,66.42553537501954,72.43673954199767,24,4,Object_Sea_Pattern_Large,-9,,,,,,,,,,,
encoding,attention,72.43685841700062,75.45402970799478,24,4,Object_Sea_Pattern_Large,-9,-9,1,1.2696932920371182,,,,,,,,
n-back,,,,91,4,,,,1,None,C,False,None,,,,,
n-back,,,,92,4,,,,1,None,N,False,None,,,,,
n-back,,,,93,4,,,,1,None,N,False,None,,,,,
n-back,,,,94,4,,,,1,None,C,False,None,,,,,
n-back,,,,95,4,,,,1,None,V,False,None,,,,,
n-back,,,,96,4,,,,1,None,B,False,None,,,,,
n-back,,,,97,4,,,,1,None,N,False,None,,,,,
n-back,,,,98,4,,,,1,None,C,False,None,,,,,
n-back,,,,99,4,,,,0,None,N,True,None,,,,,
n-back,,,,100,4,,,,1,None,Z,False,None,,,,,
n-back,,,,101,4,,,,1,0.7219396250438876,N,True,1,,,,,
n-back,,,,102,4,,,,1,None,C,False,None,,,,,
n-back,,,,103,4,,,,0,None,N,True,None,,,,,
n-back,,,,104,4,,,,1,None,X,False,None,,,,,
n-back,,,,105,4,,,,0,0.6246476669912226,X,False,1,,,,,
n-back,,,,106,4,,,,1,None,Z,False,None,,,,,
n-back,,,,107,4,,,,1,None,C,False,None,,,,,
n-back,,,,108,4,,,,1,0.4024375000153668,Z,True,1,,,,,
n-back,,,,109,4,,,,1,None,Z,False,None,,,,,
n-back,,,,110,4,,,,0,None,Z,True,None,,,,,
n-back,,,,111,4,,,,1,0.6681167079950683,Z,True,1,,,,,
n-back,,,,112,4,,,,1,None,V,False,None,,,,,
n-back,,,,113,4,,,,1,None,C,False,None,,,,,
n-back,,,,114,4,,,,1,0.44015579199185595,V,True,1,,,,,
n-back,,,,115,4,,,,0,None,C,True,None,,,,,
n-back,,,,116,4,,,,0,None,V,True,None,,,,,
n-back,,,,117,4,,,,1,None,B,False,None,,,,,
n-back,,,,118,4,,,,1,None,Z,False,None,,,,,
n-back,,,,119,4,,,,1,None,X,False,None,,,,,
n-back,,,,120,4,,,,1,0.47842341696377844,Z,True,1,,,,,
choice,fixation,150.24103379203007,150.745175958029,25,4,,,,,,,,,Large,,,,
choice,option,150.75368404202163,151.7812678749906,25,4,,,,,,,,,Large,,,,
choice,choice,151.78138670802582,167.283358375018,25,4,,,1,0,14.490813250013161,,,,Large,,,,
choice,fixation,167.2834833750385,168.28837962500984,26,4,,,,,,,,,Small,,,,
choice,option,168.2973497500061,169.32376887503779,26,4,,,,,,,,,Small,,,,
choice,choice,169.32387225003913,170.97137162502622,26,4,,,2,1,0.6381058749975637,,,,Small,,,,
choice,fixation,170.97148495801957,172.22631979204016,27,4,,,,,,,,,Sea,,,,
choice,option,172.23481600004015,173.2606101250276,27,4,,,,,,,,,Sea,,,,
choice,choice,173.26071599998977,192.82810212502955,27,4,,,1,0,18.555684124992695,,,,Sea,,,,
choice,fixation,192.82834020798327,193.5833146669902,28,4,,,,,,,,,Object,,,,
choice,option,193.59263766702497,194.61814270803006,28,4,,,,,,,,,Object,,,,
choice,choice,194.61828704201616,200.0912425830029,28,4,,,1,0,4.463261624972802,,,,Object,,,,
choice,fixation,200.09138254198479,201.0983332080068,29,4,,,,,,,,,Animal,,,,
choice,option,201.1085820000153,202.13539945799857,29,4,,,,,,,,,Animal,,,,
choice,choice,202.13551287498558,205.93212395801675,29,4,,,2,1,2.7868949999683537,,,,Animal,,,,
choice,fixation,205.93224558304064,206.93718133302173,30,4,,,,,,,,,Land,,,,
choice,option,206.9457110420335,207.9722698330297,30,4,,,,,,,,,Land,,,,
choice,choice,207.97239083301974,210.44374454201898,30,4,,,1,0,1.4613202500040643,,,,Land,,,,
choice,fixation,210.44388091703877,211.94896445801714,31,4,,,,,,,,,Solid,,,,
choice,option,211.95895095804008,212.98568629199872,31,4,,,,,,,,,Solid,,,,
choice,choice,212.98580595798558,217.9825379580143,31,4,,,2,1,3.984532375005074,,,,Solid,,,,
choice,fixation,217.9826579579967,218.48748741700547,32,4,,,,,,,,,Pattern,,,,
choice,option,218.4960729579907,219.52168820798397,32,4,,,,,,,,,Pattern,,,,
choice,choice,219.52179220801918,220.91972141701262,32,4,,,1,1,0.3887302079820074,,,,Pattern,,,,
memory,free_recall,230.4691749170306,265.3003681669943,18,4,,,,,,,,,,,,,
memory,value_recall,273.06090375001077,280.0782071670401,19,4,Animal_Sea_Pattern_Small,,,,7.013916750031058,,,,,9,,,
memory,value_recall,281.6231042500003,290.81655754201347,20,4,Animal_Sea_Solid_Small,,,,9.18934179097414,,,,,-8,,,
memory,value_recall,292.3621189169935,297.62071829201886,21,4,Object_Land_Pattern_Large,,,,5.254425959021319,,,,,2,,,
memory,value_recall,298.66655162500683,302.88634087500395,22,4,Object_Land_Solid_Large,,,,4.216499041998759,,,,,4,,,
memory,value_recall,304.43198945804033,308.3977661250392,23,4,Object_Sea_Pattern_Large,,,,3.961638208013028,,,,,-9,,,
memory,value_recall,309.94480912503786,315.1092300420278,24,4,Animal_Land_Solid_Small,,,,5.160278290975839,,,,,-7,,,
memory,spatial_recall,319.93178749998333,324.56379154202295,24,4,Object_Land_Pattern_Large,,,1,4.627918332989793,,,,,,"[-329, -190]","[-329, -190]",
memory,spatial_recall,326.3783004580182,333.3265513750375,24,4,Object_Sea_Pattern_Large,,,1,6.944062250026036,,,,,,"[329, 189]","[329, 189]",
memory,spatial_recall,334.88367170799756,336.6094848330249,24,4,Animal_Sea_Pattern_Small,,,1,1.7216376660508104,,,,,,"[-329, 190]","[-329, 190]",
memory,spatial_recall,337.9128893750021,339.05939479201334,24,4,Object_Land_Solid_Large,,,1,1.14254491700558,,,,,,"[0, -380]","[0, -380]",
memory,spatial_recall,340.6115963330376,341.89296833303524,24,4,Animal_Sea_Solid_Small,,,1,1.2774571659974754,,,,,,"[0, 380]","[0, 380]",
memory,spatial_recall,343.19238437502645,344.99284399999306,24,4,Animal_Land_Solid_Small,,,1,1.7952362910145894,,,,,,"[329, -190]","[329, -190]",
encoding,fixation,5.724932958954014,6.480024624965154,25,5,Object_Land_Solid_Small,-4,,,,,,,,,,,
encoding,image,6.480134666955564,7.492140791960992,25,5,Object_Land_Solid_Small,-4,,,,,,,,,,,
encoding,value,7.492269708949607,13.506130583991762,25,5,Object_Land_Solid_Small,-4,,,,,,,,,,,
encoding,attention,13.506310333963484,16.523811708961148,25,5,Object_Land_Solid_Small,-4,-4,1,2.031461375008803,,,,,,,,
encoding,fixation,16.523972208960913,17.779330916993786,26,5,Animal_Sea_Pattern_Large,5,,,,,,,,,,,
encoding,image,17.779435291944537,18.789814791991375,26,5,Animal_Sea_Pattern_Large,5,,,,,,,,,,,
encoding,value,18.78993733396055,24.801234458980616,26,5,Animal_Sea_Pattern_Large,5,,,,,,,,,,,
encoding,attention,24.8013669999782,27.817959041974973,26,5,Animal_Sea_Pattern_Large,5,+5,1,1.7048740000464022,,,,,,,,
encoding,fixation,27.818107083963696,28.323358958994504,27,5,Animal_Land_Pattern_Large,-9,,,,,,,,,,,
encoding,image,28.32346524996683,29.33571120898705,27,5,Animal_Land_Pattern_Large,-9,,,,,,,,,,,
encoding,value,29.33582637499785,35.347287124954164,27,5,Animal_Land_Pattern_Large,-9,,,,,,,,,,,
encoding,attention,35.347432249982376,38.36426091694739,27,5,Animal_Land_Pattern_Large,-9,-9,1,0.8538694999879226,,,,,,,,
encoding,fixation,38.364434999995865,39.11964612494921,28,5,Object_Sea_Pattern_Small,9,,,,,,,,,,,
encoding,image,39.119763708964456,40.130936292000115,28,5,Object_Sea_Pattern_Small,9,,,,,,,,,,,
encoding,value,40.131060166982934,46.14243724994594,28,5,Object_Sea_Pattern_Small,9,,,,,,,,,,,
encoding,attention,46.14254929195158,49.162888666964136,28,5,Object_Sea_Pattern_Small,9,+9,1,2.723246250010561,,,,,,,,
encoding,fixation,49.16302708396688,49.6685472499812,29,5,Object_Sea_Solid_Small,-2,,,,,,,,,,,
encoding,image,49.66868554195389,50.67805916699581,29,5,Object_Sea_Solid_Small,-2,,,,,,,,,,,
encoding,value,50.678170041996054,56.68850374995964,29,5,Object_Sea_Solid_Small,-2,,,,,,,,,,,
encoding,attention,56.68861024995567,59.70709041698137,29,5,Object_Sea_Solid_Small,-2,-2,1,0.6483402909943834,,,,,,,,
encoding,fixation,59.70723966695368,60.96251837495947,30,5,Animal_Land_Solid_Large,9,,,,,,,,,,,
encoding,image,60.962622416962404,61.974102666950785,30,5,Animal_Land_Solid_Large,9,,,,,,,,,,,
encoding,value,61.974226749967784,67.98596283397637,30,5,Animal_Land_Solid_Large,9,,,,,,,,,,,
encoding,attention,67.9860669169575,71.00336658395827,30,5,Animal_Land_Solid_Large,9,+9,1,2.7124494170420803,,,,,,,,
n-back,,,,121,5,,,,1,None,B,False,None,,,,,
n-back,,,,122,5,,,,1,None,B,False,None,,,,,
n-back,,,,123,5,,,,1,None,X,False,None,,,,,
n-back,,,,124,5,,,,1,None,X,False,None,,,,,
n-back,,,,125,5,,,,1,0.7741830419981852,X,True,1,,,,,
n-back,,,,126,5,,,,1,None,V,False,None,,,,,
n-back,,,,127,5,,,,1,None,C,False,None,,,,,
n-back,,,,128,5,,,,0,0.6083412090083584,X,False,1,,,,,
n-back,,,,129,5,,,,0,None,C,True,None,,,,,
n-back,,,,130,5,,,,1,None,B,False,None,,,,,
n-back,,,,131,5,,,,1,0.4557649579946883,C,True,1,,,,,
n-back,,,,132,5,,,,1,None,V,False,None,,,,,
n-back,,,,133,5,,,,1,None,X,False,None,,,,,
n-back,,,,134,5,,,,1,0.5600091660162434,V,True,1,,,,,
n-back,,,,135,5,,,,0,None,X,True,None,,,,,
n-back,,,,136,5,,,,1,None,X,False,None,,,,,
n-back,,,,137,5,,,,0,None,X,True,None,,,,,
n-back,,,,138,5,,,,1,None,C,False,None,,,,,
n-back,,,,139,5,,,,1,None,N,False,None,,,,,
n-back,,,,140,5,,,,1,None,Z,False,None,,,,,
n-back,,,,141,5,,,,1,0.6590591249987483,N,True,1,,,,,
n-back,,,,142,5,,,,1,None,X,False,None,,,,,
n-back,,,,143,5,,,,1,None,B,False,None,,,,,
n-back,,,,144,5,,,,1,None,N,False,None,,,,,
n-back,,,,145,5,,,,1,0.7141172919655219,B,True,1,,,,,
n-back,,,,146,5,,,,1,None,V,False,None,,,,,
n-back,,,,147,5,,,,1,0.3547553750104271,B,True,1,,,,,
n-back,,,,148,5,,,,0,None,V,True,None,,,,,
n-back,,,,149,5,,,,1,None,V,False,None,,,,,
n-back,,,,150,5,,,,1,None,N,False,None,,,,,
choice,fixation,143.70549104199745,145.21167854196392,33,5,,,,,,,,,Pattern,,,,
choice,option,145.2204022089718,146.2468903339468,33,5,,,,,,,,,Pattern,,,,
choice,choice,146.24705949996132,170.05279279197566,33,5,,,1,1,22.793308416963555,,,,Pattern,,,,
choice,fixation,170.05293079197872,171.05704654200235,34,5,,,,,,,,,Small,,,,
choice,option,171.06613479199586,172.0918824589462,34,5,,,,,,,,,Small,,,,
choice,choice,172.09199716697913,199.28328112495365,34,5,,,2,0,26.179327416000888,,,,Small,,,,
choice,fixation,199.28342254197923,200.03845704195555,35,5,,,,,,,,,Sea,,,,
choice,option,200.04687308397843,201.0726097089937,35,5,,,,,,,,,Sea,,,,
choice,choice,201.07273854198866,210.21094116696622,35,5,,,1,1,8.127623000007588,,,,Sea,,,,
choice,fixation,210.2110712499707,211.21615408395883,36,5,,,,,,,,,Object,,,,
choice,option,211.2255001249723,212.2523383339867,36,5,,,,,,,,,Object,,,,
choice,choice,212.2524529589573,231.0354643339524,36,5,,,1,1,17.77180370897986,,,,Object,,,,
choice,fixation,231.03557970898692,231.79042424994987,37,5,,,,,,,,,Land,,,,
choice,option,231.79899275000207,232.8250717089977,37,5,,,,,,,,,Land,,,,
choice,choice,232.82519833400147,250.05310279194964,37,5,,,2,1,16.21465358301066,,,,Land,,,,
choice,fixation,250.0532502499991,251.05815812497167,38,5,,,,,,,,,Animal,,,,
choice,option,251.06760912499158,252.09401083400007,38,5,,,,,,,,,Animal,,,,
choice,choice,252.09412312495988,256.6429284999613,38,5,,,1,1,3.539214207965415,,,,Animal,,,,
choice,fixation,256.6430504169548,257.3980125419912,39,5,,,,,,,,,Large,,,,
choice,option,257.4065984589979,258.4323003749596,39,5,,,,,,,,,Large,,,,
choice,choice,258.4324115419877,271.81168274994707,39,5,,,1,1,12.36854024999775,,,,Large,,,,
choice,fixation,271.8118233339628,273.316897208977,40,5,,,,,,,,,Solid,,,,
choice,option,273.3268927089521,274.35374237498036,40,5,,,,,,,,,Solid,,,,
choice,choice,274.3538432919886,283.69298849999905,40,5,,,1,1,8.32817354198778,,,,Solid,,,,
memory,free_recall,292.45376283396035,308.3531653339742,24,5,,,,,,,,,,,,,
memory,value_recall,313.29294320900226,320.3582772499649,25,5,Object_Sea_Pattern_Small,,,,7.0618275420274585,,,,,9,,,
memory,value_recall,321.40315599995665,329.97222687496105,26,5,Object_Sea_Solid_Small,,,,8.566472749982495,,,,,-2,,,
memory,value_recall,332.0191842089989,334.27685020898934,27,5,Animal_Land_Solid_Large,,,,2.2535405419766903,,,,,9,,,
memory,value_recall,335.571683749964,337.67719708394725,28,5,Animal_Sea_Pattern_Large,,,,2.1013887090375647,,,,,5,,,
memory,value_recall,339.72212579194456,342.52564154198626,29,5,Animal_Land_Pattern_Large,,,,2.798939166008495,,,,,-9,,,
memory,value_recall,343.8210169999511,346.0063624169561,30,5,Object_Land_Solid_Small,,,,2.1812574170180596,,,,,-4,,,
memory,spatial_recall,350.5040953339776,352.76260404195637,30,5,Animal_Land_Pattern_Large,,,1,2.254613208991941,,,,,,"[329, 189]","[329, 189]",
memory,spatial_recall,354.06731520895846,355.2543604999664,30,5,Object_Sea_Solid_Small,,,1,1.1829611249850132,,,,,,"[0, 380]","[0, 380]",
memory,spatial_recall,356.3070335419616,358.2597854999476,30,5,Animal_Land_Solid_Large,,,1,1.9502500420203432,,,,,,"[-329, -190]","[-329, -190]",
memory,spatial_recall,360.3117952919565,361.46239179198164,30,5,Animal_Sea_Pattern_Large,,,1,1.1465472499839962,,,,,,"[0, -380]","[0, -380]",
memory,spatial_recall,363.26855720899766,367.9793658339768,30,5,Object_Sea_Pattern_Small,,,1,4.70683070801897,,,,,,"[-329, 190]","[-329, 190]",
memory,spatial_recall,369.7863572919741,371.11712599999737,30,5,Object_Land_Solid_Small,,,1,1.3269271670142189,,,,,,"[329, -190]","[329, -190]",
encoding,fixation,4.639003708958626,5.14519987499807,31,6,Animal_Land_Pattern_Small,9,,,,,,,,,,,
encoding,image,5.1453011249541305,6.15683137497399,31,6,Animal_Land_Pattern_Small,9,,,,,,,,,,,
encoding,value,6.157085416954942,12.170102749951184,31,6,Animal_Land_Pattern_Small,9,,,,,,,,,,,
encoding,attention,12.170216833997983,15.187578041979577,31,6,Animal_Land_Pattern_Small,9,+9,1,1.1377460000221618,,,,,,,,
encoding,fixation,15.187747499963734,15.945530083961785,32,6,Object_Sea_Pattern_Small,-5,,,,,,,,,,,
encoding,image,15.945705333957449,16.956029666995164,32,6,Object_Sea_Pattern_Small,-5,,,,,,,,,,,
encoding,value,16.9561419999809,22.967788333946373,32,6,Object_Sea_Pattern_Small,-5,,,,,,,,,,,
encoding,attention,22.96789574995637,25.985443916986696,32,6,Object_Sea_Pattern_Small,-5,-5,1,0.5405205829883926,,,,,,,,
encoding,fixation,25.98560454195831,26.991009499994107,33,6,Animal_Sea_Solid_Large,-5,,,,,,,,,,,
encoding,image,26.99118054198334,28.002756166970357,33,6,Animal_Sea_Solid_Large,-5,,,,,,,,,,,
encoding,value,28.002875416947063,34.0141579999472,33,6,Animal_Sea_Solid_Large,-5,,,,,,,,,,,
encoding,attention,34.014268833969254,37.03235287498683,33,6,Animal_Sea_Solid_Large,-5,-5,1,1.052046416036319,,,,,,,,
encoding,fixation,37.032511749945115,38.28785683395108,34,6,Object_Sea_Solid_Large,9,,,,,,,,,,,
encoding,image,38.287986999959685,39.29950299998745,34,6,Object_Sea_Solid_Large,9,,,,,,,,,,,
encoding,value,39.29961137496866,45.312858624965884,34,6,Object_Sea_Solid_Large,9,,,,,,,,,,,
encoding,attention,45.312959417002276,48.328227458987385,34,6,Object_Sea_Solid_Large,9,None,None,None,,,,,,,,
encoding,fixation,48.328441833960824,49.58364770899061,35,6,Object_Land_Pattern_Small,-5,,,,,,,,,,,
encoding,image,49.58375366695691,50.59496862499509,35,6,Object_Land_Pattern_Small,-5,,,,,,,,,,,
encoding,value,50.5950803339947,56.606714291963726,35,6,Object_Land_Pattern_Small,-5,,,,,,,,,,,
encoding,attention,56.6068847499555,59.62411524995696,35,6,Object_Land_Pattern_Small,-5,-5,1,0.8283592920051888,,,,,,,,
encoding,fixation,59.6243034999934,60.37971824995475,36,6,Animal_Land_Solid_Large,-3,,,,,,,,,,,
encoding,image,60.379835333966184,61.39165616699029,36,6,Animal_Land_Solid_Large,-3,,,,,,,,,,,
encoding,value,61.391765958978795,67.404504333972,36,6,Animal_Land_Solid_Large,-3,,,,,,,,,,,
encoding,attention,67.40465754194884,70.42165174998809,36,6,Animal_Land_Solid_Large,-3,-3,1,0.47171308303950354,,,,,,,,
n-back,,,,151,6,,,,0,None,X,True,None,,,,,
n-back,,,,152,6,,,,1,None,N,False,None,,,,,
n-back,,,,153,6,,,,1,None,V,False,None,,,,,
n-back,,,,154,6,,,,1,None,Z,False,None,,,,,
n-back,,,,155,6,,,,0,1.0738175829756074,N,False,1,,,,,
n-back,,,,156,6,,,,1,None,B,False,None,,,,,
n-back,,,,157,6,,,,1,None,X,False,None,,,,,
n-back,,,,158,6,,,,1,0.5440428750007413,B,True,1,,,,,
n-back,,,,159,6,,,,0,None,X,True,None,,,,,
n-back,,,,160,6,,,,0,None,B,True,None,,,,,
n-back,,,,161,6,,,,1,None,Z,False,None,,,,,
n-back,,,,162,6,,,,1,None,Z,False,None,,,,,
n-back,,,,163,6,,,,1,0.4335885419859551,Z,True,1,,,,,
n-back,,,,164,6,,,,1,None,V,False,None,,,,,
n-back,,,,165,6,,,,1,None,C,False,None,,,,,
n-back,,,,166,6,,,,1,None,B,False,None,,,,,
n-back,,,,167,6,,,,1,1.0321565000340343,C,True,1,,,,,
n-back,,,,168,6,,,,1,None,X,False,None,,,,,
n-back,,,,169,6,,,,1,None,X,False,None,,,,,
n-back,,,,170,6,,,,1,None,V,False,None,,,,,
n-back,,,,171,6,,,,1,0.6222154160495847,X,True,1,,,,,
n-back,,,,172,6,,,,1,None,X,False,None,,,,,
n-back,,,,173,6,,,,1,None,B,False,None,,,,,
n-back,,,,174,6,,,,1,None,Z,False,None,,,,,
n-back,,,,175,6,,,,0,0.7517085419967771,V,False,1,,,,,
n-back,,,,176,6,,,,1,None,X,False,None,,,,,
n-back,,,,177,6,,,,1,0.34732383297523484,V,True,1,,,,,
n-back,,,,178,6,,,,0,None,X,True,None,,,,,
n-back,,,,179,6,,,,1,0.3415644590277225,V,True,1,,,,,
n-back,,,,180,6,,,,1,None,Z,False,None,,,,,
choice,fixation,142.93235824996373,144.4356310419971,41,6,,,,,,,,,Solid,,,,
choice,option,144.44436266698176,145.4721933339606,41,6,,,,,,,,,Solid,,,,
choice,choice,145.4723002089886,173.86308808397735,41,6,,,1,1,27.378215999982785,,,,Solid,,,,
choice,fixation,173.86322516697692,174.8682167919469,42,6,,,,,,,,,Small,,,,
choice,option,174.87740449997364,175.90417875000276,42,6,,,,,,,,,Small,,,,
choice,choice,175.90428345894907,201.3191937090014,42,6,,,1,0,24.40141524997307,,,,Small,,,,
choice,fixation,201.31932187499478,202.5743527089944,43,6,,,,,,,,,Land,,,,
choice,option,202.58283216698328,203.61225449998165,43,6,,,,,,,,,Land,,,,
choice,choice,203.61235104198568,207.22173679195112,43,6,,,2,0,2.600003083993215,,,,Land,,,,
choice,fixation,207.22188729199115,207.97857908398146,44,6,,,,,,,,,Sea,,,,
choice,option,207.98710549995303,209.01282470894512,44,6,,,,,,,,,Sea,,,,
choice,choice,209.012946333969,229.1990989589831,44,6,,,1,0,19.175441542000044,,,,Sea,,,,
choice,fixation,229.19923908397323,229.95442158397054,45,6,,,,,,,,,Animal,,,,
choice,option,229.9637769999681,230.99094574997434,45,6,,,,,,,,,Animal,,,,
choice,choice,230.99105595896253,240.39001466694754,45,6,,,2,0,8.388898833014537,,,,Animal,,,,
choice,fixation,240.39016324997647,241.14509904198349,46,6,,,,,,,,,Object,,,,
choice,option,241.154361916997,242.17984641698422,46,6,,,,,,,,,Object,,,,
choice,choice,242.17995191697264,258.40711370896315,46,6,,,1,0,15.21575966605451,,,,Object,,,,
choice,fixation,258.40726129198447,259.91237695899326,47,6,,,,,,,,,Pattern,,,,
choice,option,259.92222387494985,260.9481536249514,47,6,,,,,,,,,Pattern,,,,
choice,choice,260.9482598749455,274.3827512499993,47,6,,,1,0,12.423732041963376,,,,Pattern,,,,
choice,fixation,274.38288199994713,275.13779866695404,48,6,,,,,,,,,Large,,,,
choice,option,275.14664529199945,276.1731913749827,48,6,,,,,,,,,Large,,,,
choice,choice,276.1733001249959,302.28704349999316,48,6,,,2,0,25.101820084033534,,,,Large,,,,
memory,free_recall,311.711680666951,334.9503551249509,30,6,,,,,,,,,,,,,
memory,value_recall,339.69493487494765,348.28057512495434,31,6,Object_Sea_Pattern_Small,,,,8.581466167001054,,,,,-5,,,
memory,value_recall,349.328815249959,352.226510916953,32,6,Object_Land_Pattern_Small,,,,2.8943558749742806,,,,,-5,,,
memory,value_recall,354.27159695897717,356.8404418749851,33,6,Animal_Land_Pattern_Small,,,,2.5647976250038482,,,,,9,,,
memory,value_recall,358.6353607499623,360.90378591697663,34,6,Animal_Sea_Solid_Large,,,,2.264079082990065,,,,,-5,,,
memory,value_recall,362.1988588749664,364.61572474997956,35,6,Animal_Land_Solid_Large,,,,2.4119442079681903,,,,,-3,,,
memory,value_recall,366.1611090419465,369.18454958399525,36,6,Object_Sea_Solid_Large,,,,3.0193926250212826,,,,,9,,,
memory,spatial_recall,374.7250252919621,378.7726698339684,36,6,Animal_Sea_Solid_Large,,,1,4.043491000018548,,,,,,"[329, -190]","[329, -190]",
memory,spatial_recall,380.8321311249747,382.74638883396983,36,6,Object_Sea_Solid_Large,,,1,1.9102158750174567,,,,,,"[329, 189]","[329, 189]",
memory,spatial_recall,383.803434249945,385.9229054999887,36,6,Animal_Land_Pattern_Small,,,1,2.1161972090485506,,,,,,"[0, -380]","[0, -380]",
memory,spatial_recall,387.7288532090024,392.5356339169666,36,6,Object_Sea_Pattern_Small,,,1,4.8026347500272095,,,,,,"[-329, 190]","[-329, 190]",
memory,spatial_recall,393.5913613750017,396.1553507919889,36,6,Animal_Land_Solid_Large,,,1,2.5613616249756888,,,,,,"[-329, -190]","[-329, -190]",
memory,spatial_recall,398.21277795895,401.23868399998173,36,6,Object_Land_Pattern_Small,,,1,3.021975541021675,,,,,,"[0, 380]","[0, 380]",
encoding,fixation,5.711514416965656,6.968049791990779,37,7,Animal_Land_Solid_Small,4,,,,,,,,,,,
encoding,image,6.968157249968499,7.981615041964687,37,7,Animal_Land_Solid_Small,4,,,,,,,,,,,
encoding,value,7.981742666976061,13.99449845799245,37,7,Animal_Land_Solid_Small,4,,,,,,,,,,,
encoding,attention,13.994620707991999,17.011880583013408,37,7,Animal_Land_Solid_Small,4,+3,0,1.538159416988492,,,,,,,,
encoding,fixation,17.012026624986902,18.517135832982603,38,7,Animal_Sea_Pattern_Small,1,,,,,,,,,,,
encoding,image,18.517232457990758,19.52977625001222,38,7,Animal_Sea_Pattern_Small,1,,,,,,,,,,,
encoding,value,19.529902832990047,25.54206016700482,38,7,Animal_Sea_Pattern_Small,1,,,,,,,,,,,
encoding,attention,25.54223512497265,28.56067495798925,38,7,Animal_Sea_Pattern_Small,1,+1,1,0.7083661249489523,,,,,,,,
encoding,fixation,28.560832749994006,30.06566262501292,39,7,Object_Land_Pattern_Large,-4,,,,,,,,,,,
encoding,image,30.065836582973134,31.077763416978996,39,7,Object_Land_Pattern_Large,-4,,,,,,,,,,,
encoding,value,31.07787937496323,37.09113354200963,39,7,Object_Land_Pattern_Large,-4,,,,,,,,,,,
encoding,attention,37.091244207986165,40.10963000002084,39,7,Object_Land_Pattern_Large,-4,-4,1,0.614093333017081,,,,,,,,
encoding,fixation,40.109778208017815,40.61488199996529,40,7,Object_Sea_Pattern_Large,2,,,,,,,,,,,
encoding,image,40.614985916996375,41.62636329198722,40,7,Object_Sea_Pattern_Large,2,,,,,,,,,,,
encoding,value,41.626546999963466,47.63816383300582,40,7,Object_Sea_Pattern_Large,2,,,,,,,,,,,
encoding,attention,47.63827929197578,50.65526545798639,40,7,Object_Sea_Pattern_Large,2,+2,1,0.8616769579821266,,,,,,,,
encoding,fixation,50.65543116698973,51.66044637496816,41,7,Object_Land_Solid_Large,1,,,,,,,,,,,
encoding,image,51.660577333008405,52.671465417020954,41,7,Object_Land_Solid_Large,1,,,,,,,,,,,
encoding,value,52.67156912497012,58.6821165420115,41,7,Object_Land_Solid_Large,1,,,,,,,,,,,
encoding,attention,58.68223754200153,61.69812262500636,41,7,Object_Land_Solid_Large,1,+1,1,0.5881150420173071,,,,,,,,
encoding,fixation,61.69827658298891,62.20323812501738,42,7,Animal_Sea_Solid_Small,-6,,,,,,,,,,,
encoding,image,62.20335216698004,63.21445429197047,42,7,Animal_Sea_Solid_Small,-6,,,,,,,,,,,
encoding,value,63.2146081670071,69.22659937501885,42,7,Animal_Sea_Solid_Small,-6,,,,,,,,,,,
encoding,attention,69.22670283296611,72.24361662496813,42,7,Animal_Sea_Solid_Small,-6,-6,1,0.8565876670181751,,,,,,,,
n-back,,,,181,7,,,,1,None,V,False,None,,,,,
n-back,,,,182,7,,,,1,None,X,False,None,,,,,
n-back,,,,183,7,,,,1,None,X,False,None,,,,,
n-back,,,,184,7,,,,1,None,Z,False,None,,,,,
n-back,,,,185,7,,,,1,None,B,False,None,,,,,
n-back,,,,186,7,,,,1,0.5941126660327427,Z,True,1,,,,,
n-back,,,,187,7,,,,1,None,V,False,None,,,,,
n-back,,,,188,7,,,,1,None,X,False,None,,,,,
n-back,,,,189,7,,,,1,None,N,False,None,,,,,
n-back,,,,190,7,,,,1,None,C,False,None,,,,,
n-back,,,,191,7,,,,1,0.5822098749922588,N,True,1,,,,,
n-back,,,,192,7,,,,1,None,V,False,None,,,,,
n-back,,,,193,7,,,,0,0.7196025840239599,C,False,1,,,,,
n-back,,,,194,7,,,,1,None,X,False,None,,,,,
n-back,,,,195,7,,,,1,None,Z,False,None,,,,,
n-back,,,,196,7,,,,0,0.6080347919487394,C,False,1,,,,,
n-back,,,,197,7,,,,1,None,B,False,None,,,,,
n-back,,,,198,7,,,,1,0.5308520830003545,C,True,1,,,,,
n-back,,,,199,7,,,,1,None,X,False,None,,,,,
n-back,,,,200,7,,,,1,None,B,False,None,,,,,
n-back,,,,201,7,,,,1,None,B,False,None,,,,,
n-back,,,,202,7,,,,1,0.3693286670022644,B,True,1,,,,,
n-back,,,,203,7,,,,0,None,B,True,None,,,,,
n-back,,,,204,7,,,,1,0.332266042008996,B,True,1,,,,,
n-back,,,,205,7,,,,0,None,B,True,None,,,,,
n-back,,,,206,7,,,,1,0.6038157909642905,B,True,1,,,,,
n-back,,,,207,7,,,,1,None,V,False,None,,,,,
n-back,,,,208,7,,,,1,0.6457437499775551,B,True,1,,,,,
n-back,,,,209,7,,,,1,None,X,False,None,,,,,
n-back,,,,210,7,,,,1,0.6122254169895314,B,True,1,,,,,
choice,fixation,142.43472466699313,143.93800141697284,49,7,,,,,,,,,Animal,,,,
choice,option,143.94733687501866,144.97472395800287,49,7,,,,,,,,,Animal,,,,
choice,choice,144.97482858301373,168.8953230829793,49,7,,,2,1,22.907204499992076,,,,Animal,,,,
choice,fixation,168.89545304200146,169.40044079197105,50,7,,,,,,,,,Sea,,,,
choice,option,169.40878412500024,170.43517412501387,50,7,,,,,,,,,Sea,,,,
choice,choice,170.43528658297146,175.3172688750201,50,7,,,2,1,3.872452042007353,,,,Sea,,,,
choice,fixation,175.31738833297277,175.8223524579662,51,7,,,,,,,,,Land,,,,
choice,option,175.8310051250155,176.85819424997317,51,7,,,,,,,,,Land,,,,
choice,choice,176.85832295799628,178.58910841698525,51,7,,,1,1,0.7203930420218967,,,,Land,,,,
choice,fixation,178.58923420798965,179.0942414579913,52,7,,,,,,,,,Solid,,,,
choice,option,179.10374262498226,180.13105929200538,52,7,,,,,,,,,Solid,,,,
choice,choice,180.13117083301768,195.4685906249797,52,7,,,1,0,14.32658774999436,,,,Solid,,,,
choice,fixation,195.4688203749829,196.97382904199185,53,7,,,,,,,,,Object,,,,
choice,option,196.9835730419727,198.0106042919797,53,7,,,,,,,,,Object,,,,
choice,choice,198.01075095799752,211.1240720420028,53,7,,,2,1,12.103153333009686,,,,Object,,,,
choice,fixation,211.12423366698204,212.6302615830209,54,7,,,,,,,,,Small,,,,
choice,option,212.6391768750036,213.6658052499988,54,7,,,,,,,,,Small,,,,
choice,choice,213.66590908297803,226.72526183299487,54,7,,,1,0,12.048286832985468,,,,Small,,,,
choice,fixation,226.7254696249729,227.9821599579882,55,7,,,,,,,,,Large,,,,
choice,option,227.9911995420116,229.01754699996673,55,7,,,,,,,,,Large,,,,
choice,choice,229.01765412499662,240.3038475419744,55,7,,,1,0,10.2760092500248,,,,Large,,,,
choice,fixation,240.30397637496935,240.80927675002022,56,7,,,,,,,,,Pattern,,,,
choice,option,240.81845629197778,241.84700816700934,56,7,,,,,,,,,Pattern,,,,
choice,choice,241.84711899998365,253.50443699996686,56,7,,,2,1,10.646710000000894,,,,Pattern,,,,
memory,free_recall,274.2133020000183,302.230956082989,36,7,,,,,,,,,,,,,
memory,value_recall,313.6615518750041,320.9821352500003,37,7,Object_Sea_Pattern_Large,,,,7.317019124981016,,,,,2,,,
memory,value_recall,322.28141937498003,324.4477640420082,38,7,Animal_Sea_Solid_Small,,,,2.162268666026648,,,,,-6,,,
memory,value_recall,326.4935270830174,329.03937583300285,39,7,Animal_Sea_Pattern_Small,,,,2.541874957969412,,,,,1,,,
memory,value_recall,330.08439924998675,332.761677958013,40,7,Object_Land_Solid_Large,,,,2.6740361660486087,,,,,1,,,
memory,value_recall,333.80622500000754,336.3793916669674,41,7,Object_Land_Pattern_Large,,,,2.5694234590046108,,,,,-4,,,
memory,value_recall,337.67420649999985,339.9823623750126,42,7,Animal_Land_Solid_Small,,,,2.3016568750026636,,,,,4,,,
memory,spatial_recall,347.5981414169655,352.59126908297185,42,7,Object_Sea_Pattern_Large,,,1,4.9891293330001645,,,,,,"[329, 189]","[329, 189]",
memory,spatial_recall,354.14670937496703,356.75820345798275,42,7,Object_Land_Solid_Large,,,1,2.6076219159876928,,,,,,"[0, -380]","[0, -380]",
memory,spatial_recall,358.31750920799095,360.35467604198493,42,7,Object_Land_Pattern_Large,,,1,2.033004999975674,,,,,,"[-329, -190]","[-329, -190]",
memory,spatial_recall,361.4103219580138,363.2619294169708,42,7,Animal_Sea_Solid_Small,,,1,1.8477145000360906,,,,,,"[0, 380]","[0, 380]",
memory,spatial_recall,365.32519495801535,367.921261416981,42,7,Animal_Land_Solid_Small,,,1,2.592073292005807,,,,,,"[329, -190]","[329, -190]",
memory,spatial_recall,369.7315190829686,372.67484137497377,42,7,Animal_Sea_Pattern_Small,,,1,2.939397584006656,,,,,,"[-329, 190]","[-329, 190]",
