phase,event,trial_number,eyetracker_onset,eyetracker_offset,fix_start,fix_end,fix_duration_full,fix_duration_bounded,fix_x,fix_y,roi_x,roi_y,roi_content,onset,offset,game,image,outcome,choice,correct,rt,letter,match,response,option,true_value,true_position,recalled_position,Unnamed: 18
encoding,fixation,1,2399380,2400649,2399685.0,2400423.0,739.0,739.0,1911.9,1055.4,1920.0,1080.0,fixation,11.68284775002394,12.950991999998225,1.0,Animal_Sea_Solid_Small,-3.0,,,,,,,,,,,
encoding,fixation,1,2399380,2400649,2400471.0,2400832.0,362.0,178.0,2098.6,1271.6,2249.0,891.0,Object_Sea_Pattern_Large,11.68284775002394,12.950991999998225,1.0,Animal_Sea_Solid_Small,-3.0,,,,,,,,,,,
encoding,image,1,2400649,2401667,2400872.0,2401023.0,152.0,152.0,1894.7,1433.7,1920.0,700.0,Animal_Sea_Solid_Small,12.95112462498946,13.9698245000327,1.0,Animal_Sea_Solid_Small,-3.0,,,,,,,,,,,
encoding,image,1,2400649,2401667,2401043.0,2401838.0,796.0,624.0,1911.4,1478.4,1920.0,700.0,Animal_Sea_Solid_Small,12.95112462498946,13.9698245000327,1.0,Animal_Sea_Solid_Small,-3.0,,,,,,,,,,,
encoding,value,1,2401668,2407684,2401863.0,2402274.0,412.0,412.0,1920.2,1359.1,1920.0,700.0,Animal_Sea_Solid_Small,13.9699524170137,19.98611554200761,1.0,Animal_Sea_Solid_Small,-3.0,,,,,,,,,,,
encoding,value,1,2401668,2407684,2402296.0,2402877.0,582.0,582.0,1914.8,1483.1,1920.0,700.0,Animal_Sea_Solid_Small,13.9699524170137,19.98611554200761,1.0,Animal_Sea_Solid_Small,-3.0,,,,,,,,,,,
encoding,value,1,2401668,2407684,2402898.0,2403908.0,1011.0,1011.0,1950.9,1470.7,1920.0,700.0,Animal_Sea_Solid_Small,13.9699524170137,19.98611554200761,1.0,Animal_Sea_Solid_Small,-3.0,,,,,,,,,,,
encoding,value,1,2401668,2407684,2403940.0,2404102.0,163.0,163.0,1922.4,1368.0,1920.0,700.0,Animal_Sea_Solid_Small,13.9699524170137,19.98611554200761,1.0,Animal_Sea_Solid_Small,-3.0,,,,,,,,,,,
encoding,value,1,2401668,2407684,2404109.0,2404843.0,735.0,735.0,1907.1,1360.1,1920.0,700.0,Animal_Sea_Solid_Small,13.9699524170137,19.98611554200761,1.0,Animal_Sea_Solid_Small,-3.0,,,,,,,,,,,
encoding,value,1,2401668,2407684,2404870.0,2405728.0,859.0,859.0,1904.4,1490.5,1920.0,700.0,Animal_Sea_Solid_Small,13.9699524170137,19.98611554200761,1.0,Animal_Sea_Solid_Small,-3.0,,,,,,,,,,,
encoding,value,1,2401668,2407684,2405751.0,2406362.0,612.0,612.0,1946.0,1471.4,1920.0,700.0,Animal_Sea_Solid_Small,13.9699524170137,19.98611554200761,1.0,Animal_Sea_Solid_Small,-3.0,,,,,,,,,,,
encoding,value,1,2401668,2407684,2406382.0,2407013.0,632.0,632.0,1893.9,1474.6,1920.0,700.0,Animal_Sea_Solid_Small,13.9699524170137,19.98611554200761,1.0,Animal_Sea_Solid_Small,-3.0,,,,,,,,,,,
encoding,value,1,2401668,2407684,2407163.0,2407538.0,376.0,376.0,1908.1,1371.1,1920.0,700.0,Animal_Sea_Solid_Small,13.9699524170137,19.98611554200761,1.0,Animal_Sea_Solid_Small,-3.0,,,,,,,,,,,
encoding,attention,1,2407684,2410704,2407714.0,2407938.0,225.0,225.0,1887.2,1469.4,1920.0,700.0,Animal_Sea_Solid_Small,19.986245709005743,23.0059406250366,1.0,Animal_Sea_Solid_Small,-3.0,-3.0,1.0,2.808798000041861,,,,,,,,
encoding,attention,1,2407684,2410704,2407977.0,2408142.0,166.0,166.0,1890.1,1351.0,1920.0,700.0,Animal_Sea_Solid_Small,19.986245709005743,23.0059406250366,1.0,Animal_Sea_Solid_Small,-3.0,-3.0,1.0,2.808798000041861,,,,,,,,
encoding,attention,1,2407684,2410704,2408158.0,2409263.0,1106.0,1106.0,1870.5,1343.7,1920.0,700.0,Animal_Sea_Solid_Small,19.986245709005743,23.0059406250366,1.0,Animal_Sea_Solid_Small,-3.0,-3.0,1.0,2.808798000041861,,,,,,,,
encoding,fixation,2,2410704,2411209,,,,,,,,,none,23.006094209034927,23.51097133400617,1.0,Animal_Sea_Pattern_Small,-2.0,,,,,,,,,,,
encoding,image,2,2411209,2412220,2411417.0,2412418.0,1002.0,803.0,1611.7,1252.9,1591.0,891.0,Animal_Sea_Pattern_Small,23.511089334031567,24.521470375009812,1.0,Animal_Sea_Pattern_Small,-2.0,,,,,,,,,,,
encoding,value,2,2412220,2418232,2412456.0,2413152.0,697.0,697.0,1574.3,1149.3,1591.0,891.0,Animal_Sea_Pattern_Small,24.52157858404098,30.534093750000466,1.0,Animal_Sea_Pattern_Small,-2.0,,,,,,,,,,,
encoding,value,2,2412220,2418232,2413171.0,2413280.0,110.0,110.0,1585.4,1231.7,1591.0,891.0,Animal_Sea_Pattern_Small,24.52157858404098,30.534093750000466,1.0,Animal_Sea_Pattern_Small,-2.0,,,,,,,,,,,
encoding,value,2,2412220,2418232,2413540.0,2413566.0,27.0,27.0,1511.9,1306.4,1591.0,891.0,Animal_Sea_Pattern_Small,24.52157858404098,30.534093750000466,1.0,Animal_Sea_Pattern_Small,-2.0,,,,,,,,,,,
encoding,value,2,2412220,2418232,2413573.0,2413676.0,104.0,104.0,1513.8,1262.5,1591.0,891.0,Animal_Sea_Pattern_Small,24.52157858404098,30.534093750000466,1.0,Animal_Sea_Pattern_Small,-2.0,,,,,,,,,,,
encoding,value,2,2412220,2418232,2413707.0,2414217.0,511.0,511.0,1577.5,1157.5,1591.0,891.0,Animal_Sea_Pattern_Small,24.52157858404098,30.534093750000466,1.0,Animal_Sea_Pattern_Small,-2.0,,,,,,,,,,,
encoding,value,2,2412220,2418232,2414240.0,2415158.0,919.0,919.0,1619.5,1268.3,1591.0,891.0,Animal_Sea_Pattern_Small,24.52157858404098,30.534093750000466,1.0,Animal_Sea_Pattern_Small,-2.0,,,,,,,,,,,
encoding,value,2,2412220,2418232,2415178.0,2415514.0,337.0,337.0,1548.1,1286.7,1591.0,891.0,Animal_Sea_Pattern_Small,24.52157858404098,30.534093750000466,1.0,Animal_Sea_Pattern_Small,-2.0,,,,,,,,,,,
encoding,value,2,2412220,2418232,2415537.0,2415897.0,361.0,361.0,1620.7,1280.2,1591.0,891.0,Animal_Sea_Pattern_Small,24.52157858404098,30.534093750000466,1.0,Animal_Sea_Pattern_Small,-2.0,,,,,,,,,,,
encoding,value,2,2412220,2418232,2415912.0,2416469.0,558.0,558.0,1637.3,1280.8,1591.0,891.0,Animal_Sea_Pattern_Small,24.52157858404098,30.534093750000466,1.0,Animal_Sea_Pattern_Small,-2.0,,,,,,,,,,,
encoding,value,2,2412220,2418232,2416496.0,2416726.0,231.0,231.0,1570.4,1279.3,1591.0,891.0,Animal_Sea_Pattern_Small,24.52157858404098,30.534093750000466,1.0,Animal_Sea_Pattern_Small,-2.0,,,,,,,,,,,
encoding,value,2,2412220,2418232,2416763.0,2418506.0,1744.0,1469.0,1576.8,1166.0,1591.0,891.0,Animal_Sea_Pattern_Small,24.52157858404098,30.534093750000466,1.0,Animal_Sea_Pattern_Small,-2.0,,,,,,,,,,,
encoding,attention,2,2418233,2421254,2418514.0,2418668.0,155.0,155.0,1593.4,1146.2,1591.0,891.0,Animal_Sea_Pattern_Small,30.53425333404448,33.55537662503775,1.0,Animal_Sea_Pattern_Small,-2.0,-2.0,1.0,0.955658249964472,,,,,,,,
encoding,attention,2,2418233,2421254,2418695.0,2419488.0,794.0,794.0,1515.3,1146.1,1591.0,891.0,Animal_Sea_Pattern_Small,30.53425333404448,33.55537662503775,1.0,Animal_Sea_Pattern_Small,-2.0,-2.0,1.0,0.955658249964472,,,,,,,,
encoding,attention,2,2418233,2421254,2419685.0,2419882.0,198.0,198.0,1576.9,1235.1,1591.0,891.0,Animal_Sea_Pattern_Small,30.53425333404448,33.55537662503775,1.0,Animal_Sea_Pattern_Small,-2.0,-2.0,1.0,0.955658249964472,,,,,,,,
encoding,attention,2,2418233,2421254,2419893.0,2420161.0,269.0,269.0,1600.9,1249.7,1591.0,891.0,Animal_Sea_Pattern_Small,30.53425333404448,33.55537662503775,1.0,Animal_Sea_Pattern_Small,-2.0,-2.0,1.0,0.955658249964472,,,,,,,,
encoding,attention,2,2418233,2421254,2420182.0,2420991.0,810.0,810.0,1637.7,1247.0,1591.0,891.0,Animal_Sea_Pattern_Small,30.53425333404448,33.55537662503775,1.0,Animal_Sea_Pattern_Small,-2.0,-2.0,1.0,0.955658249964472,,,,,,,,
encoding,attention,2,2418233,2421254,2421032.0,2421249.0,218.0,218.0,1630.7,1133.3,1591.0,891.0,Animal_Sea_Pattern_Small,30.53425333404448,33.55537662503775,1.0,Animal_Sea_Pattern_Small,-2.0,-2.0,1.0,0.955658249964472,,,,,,,,
encoding,fixation,3,2421254,2422759,2421265.0,2421497.0,233.0,233.0,1547.2,1178.8,1591.0,891.0,Animal_Sea_Pattern_Small,33.555524834024254,35.06088466703659,1.0,Animal_Land_Solid_Small,9.0,,,,,,,,,,,
encoding,fixation,3,2421254,2422759,2421549.0,2423088.0,1540.0,1210.0,1904.5,1055.5,1920.0,1080.0,fixation,33.555524834024254,35.06088466703659,1.0,Animal_Land_Solid_Small,9.0,,,,,,,,,,,
encoding,image,3,2422759,2423771,2423141.0,2423972.0,832.0,630.0,2250.5,890.9000000000001,2249.0,1269.0,Animal_Land_Solid_Small,35.06100345903542,36.07206375000533,1.0,Animal_Land_Solid_Small,9.0,,,,,,,,,,,
encoding,value,3,2423771,2429783,2424012.0,2424953.0,942.0,942.0,2203.8,739.3,2249.0,1269.0,Animal_Land_Solid_Small,36.07218062499305,42.083954542002175,1.0,Animal_Land_Solid_Small,9.0,,,,,,,,,,,
encoding,value,3,2423771,2429783,2424979.0,2425464.0,486.0,486.0,2232.4,827.8,2249.0,1269.0,Animal_Land_Solid_Small,36.07218062499305,42.083954542002175,1.0,Animal_Land_Solid_Small,9.0,,,,,,,,,,,
encoding,value,3,2423771,2429783,2425484.0,2425823.0,340.0,340.0,2236.3,859.4000000000001,2249.0,1269.0,Animal_Land_Solid_Small,36.07218062499305,42.083954542002175,1.0,Animal_Land_Solid_Small,9.0,,,,,,,,,,,
encoding,value,3,2423771,2429783,2425841.0,2426352.0,512.0,512.0,2275.5,874.5,2249.0,1269.0,Animal_Land_Solid_Small,36.07218062499305,42.083954542002175,1.0,Animal_Land_Solid_Small,9.0,,,,,,,,,,,
encoding,value,3,2423771,2429783,2426392.0,2427388.0,997.0,997.0,2245.8,761.3,2249.0,1269.0,Animal_Land_Solid_Small,36.07218062499305,42.083954542002175,1.0,Animal_Land_Solid_Small,9.0,,,,,,,,,,,
encoding,value,3,2423771,2429783,2427407.0,2427753.0,347.0,347.0,2262.3,861.0,2249.0,1269.0,Animal_Land_Solid_Small,36.07218062499305,42.083954542002175,1.0,Animal_Land_Solid_Small,9.0,,,,,,,,,,,
encoding,value,3,2423771,2429783,2427771.0,2429166.0,1396.0,1396.0,2274.4,884.5,2249.0,1269.0,Animal_Land_Solid_Small,36.07218062499305,42.083954542002175,1.0,Animal_Land_Solid_Small,9.0,,,,,,,,,,,
encoding,value,3,2423771,2429783,2429210.0,2429592.0,383.0,383.0,2252.3,784.8,2249.0,1269.0,Animal_Land_Solid_Small,36.07218062499305,42.083954542002175,1.0,Animal_Land_Solid_Small,9.0,,,,,,,,,,,
encoding,value,3,2423771,2429783,2429612.0,2430110.0,499.0,171.0,2261.0,746.3,2249.0,1269.0,Animal_Land_Solid_Small,36.07218062499305,42.083954542002175,1.0,Animal_Land_Solid_Small,9.0,,,,,,,,,,,
encoding,attention,3,2429783,2432804,2430135.0,2430350.0,216.0,216.0,2291.3,740.0999999999999,2249.0,1269.0,Animal_Land_Solid_Small,42.084081209031865,45.10508941701846,1.0,Animal_Land_Solid_Small,9.0,9.0,1.0,1.844263584003784,,,,,,,,
encoding,attention,3,2429783,2432804,2430383.0,2432011.0,1629.0,1629.0,2206.0,746.5999999999999,2249.0,1269.0,Animal_Land_Solid_Small,42.084081209031865,45.10508941701846,1.0,Animal_Land_Solid_Small,9.0,9.0,1.0,1.844263584003784,,,,,,,,
encoding,attention,3,2429783,2432804,2432033.0,2432202.0,170.0,170.0,2232.7,847.0999999999999,2249.0,1269.0,Animal_Land_Solid_Small,42.084081209031865,45.10508941701846,1.0,Animal_Land_Solid_Small,9.0,9.0,1.0,1.844263584003784,,,,,,,,
encoding,fixation,4,2432804,2433310,2433078.0,2433549.0,472.0,232.0,1916.2,1020.9000000000001,1920.0,1080.0,fixation,45.10525479202624,45.610577709041536,1.0,Object_Land_Pattern_Large,2.0,,,,,,,,,,,
encoding,image,4,2433310,2434321,2433599.0,2433800.0,202.0,202.0,1609.2,885.4000000000001,1591.0,1269.0,Object_Land_Pattern_Large,45.61069833399961,46.62207208399195,1.0,Object_Land_Pattern_Large,2.0,,,,,,,,,,,
encoding,image,4,2433310,2434321,2433820.0,2434521.0,702.0,501.0,1609.0,850.5,1591.0,1269.0,Object_Land_Pattern_Large,45.61069833399961,46.62207208399195,1.0,Object_Land_Pattern_Large,2.0,,,,,,,,,,,
encoding,value,4,2434321,2440334,2434555.0,2434737.0,183.0,183.0,1592.6,791.0999999999999,1591.0,1269.0,Object_Land_Pattern_Large,46.62218433403177,52.63469062501099,1.0,Object_Land_Pattern_Large,2.0,,,,,,,,,,,
encoding,value,4,2434321,2440334,2434744.0,2435546.0,803.0,803.0,1590.2,778.3,1591.0,1269.0,Object_Land_Pattern_Large,46.62218433403177,52.63469062501099,1.0,Object_Land_Pattern_Large,2.0,,,,,,,,,,,
encoding,value,4,2434321,2440334,2435562.0,2436801.0,1240.0,1240.0,1583.1,847.5,1591.0,1269.0,Object_Land_Pattern_Large,46.62218433403177,52.63469062501099,1.0,Object_Land_Pattern_Large,2.0,,,,,,,,,,,
encoding,value,4,2434321,2440334,2436820.0,2437349.0,530.0,530.0,1610.4,776.0999999999999,1591.0,1269.0,Object_Land_Pattern_Large,46.62218433403177,52.63469062501099,1.0,Object_Land_Pattern_Large,2.0,,,,,,,,,,,
encoding,value,4,2434321,2440334,2437369.0,2437840.0,472.0,472.0,1611.7,852.5,1591.0,1269.0,Object_Land_Pattern_Large,46.62218433403177,52.63469062501099,1.0,Object_Land_Pattern_Large,2.0,,,,,,,,,,,
encoding,value,4,2434321,2440334,2437855.0,2440779.0,2925.0,2479.0,1628.5,859.8,1591.0,1269.0,Object_Land_Pattern_Large,46.62218433403177,52.63469062501099,1.0,Object_Land_Pattern_Large,2.0,,,,,,,,,,,
encoding,attention,4,2440334,2443354,2440816.0,2441190.0,375.0,375.0,1572.5,755.5999999999999,1591.0,1269.0,Object_Land_Pattern_Large,52.63480658404296,55.65496466704644,1.0,Object_Land_Pattern_Large,2.0,2.0,1.0,1.9830098339589313,,,,,,,,
encoding,attention,4,2440334,2443354,2441217.0,2442683.0,1467.0,1467.0,1523.5,756.8,1591.0,1269.0,Object_Land_Pattern_Large,52.63480658404296,55.65496466704644,1.0,Object_Land_Pattern_Large,2.0,2.0,1.0,1.9830098339589313,,,,,,,,
encoding,fixation,5,2443355,2443860,2443585.0,2443839.0,255.0,255.0,1892.7,1031.8,1920.0,1080.0,fixation,55.6551565839909,56.16033633402549,1.0,Object_Land_Solid_Large,-8.0,,,,,,,,,,,
encoding,image,5,2443860,2444870,2443867.0,2444109.0,243.0,243.0,1914.0,1019.7,1920.0,1080.0,fixation,56.16045208403375,57.170238959020935,1.0,Object_Land_Solid_Large,-8.0,,,,,,,,,,,
encoding,image,5,2443860,2444870,2444175.0,2444289.0,115.0,115.0,1938.7,622.8,1920.0,1460.0,Object_Land_Solid_Large,56.16045208403375,57.170238959020935,1.0,Object_Land_Solid_Large,-8.0,,,,,,,,,,,
encoding,image,5,2443860,2444870,2444310.0,2444695.0,386.0,386.0,1915.3,657.9000000000001,1920.0,1460.0,Object_Land_Solid_Large,56.16045208403375,57.170238959020935,1.0,Object_Land_Solid_Large,-8.0,,,,,,,,,,,
encoding,image,5,2443860,2444870,2444715.0,2445142.0,428.0,155.0,1879.0,664.0999999999999,1920.0,1460.0,Object_Land_Solid_Large,56.16045208403375,57.170238959020935,1.0,Object_Land_Solid_Large,-8.0,,,,,,,,,,,
encoding,value,5,2444870,2450883,2445176.0,2445618.0,443.0,443.0,1911.6,586.0,1920.0,1460.0,Object_Land_Solid_Large,57.17033833399182,63.18297291704221,1.0,Object_Land_Solid_Large,-8.0,,,,,,,,,,,
encoding,value,5,2444870,2450883,2445639.0,2445790.0,152.0,152.0,1909.7,664.3,1920.0,1460.0,Object_Land_Solid_Large,57.17033833399182,63.18297291704221,1.0,Object_Land_Solid_Large,-8.0,,,,,,,,,,,
encoding,value,5,2444870,2450883,2446260.0,2446364.0,105.0,105.0,1823.4,642.4000000000001,1920.0,1460.0,Object_Land_Solid_Large,57.17033833399182,63.18297291704221,1.0,Object_Land_Solid_Large,-8.0,,,,,,,,,,,
encoding,value,5,2444870,2450883,2446401.0,2449185.0,2785.0,2785.0,1921.5,573.4000000000001,1920.0,1460.0,Object_Land_Solid_Large,57.17033833399182,63.18297291704221,1.0,Object_Land_Solid_Large,-8.0,,,,,,,,,,,
encoding,value,5,2444870,2450883,2449216.0,2449429.0,214.0,214.0,1903.9,660.2,1920.0,1460.0,Object_Land_Solid_Large,57.17033833399182,63.18297291704221,1.0,Object_Land_Solid_Large,-8.0,,,,,,,,,,,
encoding,value,5,2444870,2450883,2449454.0,2450039.0,586.0,586.0,1879.2,668.0999999999999,1920.0,1460.0,Object_Land_Solid_Large,57.17033833399182,63.18297291704221,1.0,Object_Land_Solid_Large,-8.0,,,,,,,,,,,
encoding,value,5,2444870,2450883,2450213.0,2450379.0,167.0,167.0,1903.1,630.5,1920.0,1460.0,Object_Land_Solid_Large,57.17033833399182,63.18297291704221,1.0,Object_Land_Solid_Large,-8.0,,,,,,,,,,,
encoding,value,5,2444870,2450883,2450408.0,2450959.0,552.0,475.0,1933.3,561.7,1920.0,1460.0,Object_Land_Solid_Large,57.17033833399182,63.18297291704221,1.0,Object_Land_Solid_Large,-8.0,,,,,,,,,,,
encoding,attention,5,2450883,2453938,2450987.0,2451295.0,309.0,309.0,1935.4,672.5,1920.0,1460.0,Object_Land_Solid_Large,63.18309920903994,66.23807258403394,1.0,Object_Land_Solid_Large,-8.0,-8.0,1.0,1.504108500026632,,,,,,,,
encoding,attention,5,2450883,2453938,2451330.0,2451906.0,577.0,577.0,1953.6,566.0,1920.0,1460.0,Object_Land_Solid_Large,63.18309920903994,66.23807258403394,1.0,Object_Land_Solid_Large,-8.0,-8.0,1.0,1.504108500026632,,,,,,,,
encoding,attention,5,2450883,2453938,2452085.0,2452181.0,97.0,97.0,1574.1,-1102.6,,,none,63.18309920903994,66.23807258403394,1.0,Object_Land_Solid_Large,-8.0,-8.0,1.0,1.504108500026632,,,,,,,,
encoding,attention,5,2450883,2453938,2452281.0,2452389.0,109.0,109.0,1968.8,616.5,1920.0,1460.0,Object_Land_Solid_Large,63.18309920903994,66.23807258403394,1.0,Object_Land_Solid_Large,-8.0,-8.0,1.0,1.504108500026632,,,,,,,,
encoding,attention,5,2450883,2453938,2452514.0,2452737.0,224.0,224.0,1887.6,641.2,1920.0,1460.0,Object_Land_Solid_Large,63.18309920903994,66.23807258403394,1.0,Object_Land_Solid_Large,-8.0,-8.0,1.0,1.504108500026632,,,,,,,,
encoding,attention,5,2450883,2453938,2452773.0,2453076.0,304.0,304.0,1953.2,559.0,1920.0,1460.0,Object_Land_Solid_Large,63.18309920903994,66.23807258403394,1.0,Object_Land_Solid_Large,-8.0,-8.0,1.0,1.504108500026632,,,,,,,,
encoding,fixation,6,2453938,2455194,2454215.0,2455456.0,1242.0,979.0,1917.7,1053.9,1920.0,1080.0,fixation,66.23825279204175,67.49365333403694,1.0,Object_Sea_Pattern_Large,4.0,,,,,,,,,,,
encoding,image,6,2455194,2456205,2455497.0,2455733.0,237.0,237.0,2250.6,1211.2,2249.0,891.0,Object_Sea_Pattern_Large,67.49376166699221,68.505321500008,1.0,Object_Sea_Pattern_Large,4.0,,,,,,,,,,,
encoding,image,6,2455194,2456205,2455753.0,2456293.0,541.0,452.0,2269.3,1263.8,2249.0,891.0,Object_Sea_Pattern_Large,67.49376166699221,68.505321500008,1.0,Object_Sea_Pattern_Large,4.0,,,,,,,,,,,
encoding,value,6,2456206,2462218,2456313.0,2456462.0,150.0,150.0,2262.2,1203.4,2249.0,891.0,Object_Sea_Pattern_Large,68.5054440840031,74.5173169170157,1.0,Object_Sea_Pattern_Large,4.0,,,,,,,,,,,
encoding,value,6,2456206,2462218,2456487.0,2457134.0,648.0,648.0,2257.9,1124.1,2249.0,891.0,Object_Sea_Pattern_Large,68.5054440840031,74.5173169170157,1.0,Object_Sea_Pattern_Large,4.0,,,,,,,,,,,
encoding,value,6,2456206,2462218,2457156.0,2457494.0,339.0,339.0,2240.9,1225.5,2249.0,891.0,Object_Sea_Pattern_Large,68.5054440840031,74.5173169170157,1.0,Object_Sea_Pattern_Large,4.0,,,,,,,,,,,
encoding,value,6,2456206,2462218,2457530.0,2458098.0,569.0,569.0,2233.3,1126.9,2249.0,891.0,Object_Sea_Pattern_Large,68.5054440840031,74.5173169170157,1.0,Object_Sea_Pattern_Large,4.0,,,,,,,,,,,
encoding,value,6,2456206,2462218,2458116.0,2458546.0,431.0,431.0,2249.2,1109.7,2249.0,891.0,Object_Sea_Pattern_Large,68.5054440840031,74.5173169170157,1.0,Object_Sea_Pattern_Large,4.0,,,,,,,,,,,
encoding,value,6,2456206,2462218,2458563.0,2459012.0,450.0,450.0,2239.6,1207.6,2249.0,891.0,Object_Sea_Pattern_Large,68.5054440840031,74.5173169170157,1.0,Object_Sea_Pattern_Large,4.0,,,,,,,,,,,
encoding,value,6,2456206,2462218,2459036.0,2461035.0,2000.0,2000.0,2236.9,1119.3,2249.0,891.0,Object_Sea_Pattern_Large,68.5054440840031,74.5173169170157,1.0,Object_Sea_Pattern_Large,4.0,,,,,,,,,,,
encoding,value,6,2456206,2462218,2461065.0,2461517.0,453.0,453.0,2233.0,1120.8,2249.0,891.0,Object_Sea_Pattern_Large,68.5054440840031,74.5173169170157,1.0,Object_Sea_Pattern_Large,4.0,,,,,,,,,,,
encoding,value,6,2456206,2462218,2461534.0,2462476.0,943.0,684.0,2240.3,1107.5,2249.0,891.0,Object_Sea_Pattern_Large,68.5054440840031,74.5173169170157,1.0,Object_Sea_Pattern_Large,4.0,,,,,,,,,,,
encoding,attention,6,2462218,2465234,2462499.0,2462715.0,217.0,217.0,2280.2,1088.4,2249.0,891.0,Object_Sea_Pattern_Large,74.51742341701174,77.53334433399141,1.0,Object_Sea_Pattern_Large,4.0,,,,,,,,,,,
encoding,fixation,7,2965491,2966497,2965780.0,2965952.0,173.0,173.0,1888.0,1117.1,1920.0,1080.0,fixation,11.991828457976226,12.997529916989151,2.0,Object_Sea_Pattern_Small,-6.0,,,,,,,,,,,
encoding,fixation,7,2965491,2966497,2965977.0,2966715.0,739.0,520.0,1908.7,994.3,1920.0,1460.0,Animal_Sea_Pattern_Large,11.991828457976226,12.997529916989151,2.0,Object_Sea_Pattern_Small,-6.0,,,,,,,,,,,
encoding,image,7,2966497,2967509,2966917.0,2967160.0,244.0,244.0,1543.7,1191.4,1591.0,891.0,Object_Sea_Pattern_Small,12.997645041963551,14.00991924997652,2.0,Object_Sea_Pattern_Small,-6.0,,,,,,,,,,,
encoding,image,7,2966497,2967509,2967181.0,2967560.0,380.0,328.0,1592.4,1214.0,1591.0,891.0,Object_Sea_Pattern_Small,12.997645041963551,14.00991924997652,2.0,Object_Sea_Pattern_Small,-6.0,,,,,,,,,,,
encoding,value,7,2967509,2973523,2967569.0,2967776.0,208.0,208.0,1563.0,1265.0,1591.0,891.0,Object_Sea_Pattern_Small,14.010032499965746,20.022945582983084,2.0,Object_Sea_Pattern_Small,-6.0,,,,,,,,,,,
encoding,value,7,2967509,2973523,2967799.0,2968001.0,203.0,203.0,1583.2,1160.1,1591.0,891.0,Object_Sea_Pattern_Small,14.010032499965746,20.022945582983084,2.0,Object_Sea_Pattern_Small,-6.0,,,,,,,,,,,
encoding,value,7,2967509,2973523,2968009.0,2968564.0,556.0,556.0,1576.5,1128.1,1591.0,891.0,Object_Sea_Pattern_Small,14.010032499965746,20.022945582983084,2.0,Object_Sea_Pattern_Small,-6.0,,,,,,,,,,,
encoding,value,7,2967509,2973523,2968570.0,2969023.0,454.0,454.0,1590.6,1121.2,1591.0,891.0,Object_Sea_Pattern_Small,14.010032499965746,20.022945582983084,2.0,Object_Sea_Pattern_Small,-6.0,,,,,,,,,,,
encoding,value,7,2967509,2973523,2969043.0,2969354.0,312.0,312.0,1581.7,1221.6,1591.0,891.0,Object_Sea_Pattern_Small,14.010032499965746,20.022945582983084,2.0,Object_Sea_Pattern_Small,-6.0,,,,,,,,,,,
encoding,value,7,2967509,2973523,2969361.0,2970079.0,719.0,719.0,1558.9,1258.6,1591.0,891.0,Object_Sea_Pattern_Small,14.010032499965746,20.022945582983084,2.0,Object_Sea_Pattern_Small,-6.0,,,,,,,,,,,
encoding,value,7,2967509,2973523,2970100.0,2970250.0,151.0,151.0,1564.6,1186.8,1591.0,891.0,Object_Sea_Pattern_Small,14.010032499965746,20.022945582983084,2.0,Object_Sea_Pattern_Small,-6.0,,,,,,,,,,,
encoding,value,7,2967509,2973523,2970259.0,2971832.0,1574.0,1574.0,1579.6,1118.5,1591.0,891.0,Object_Sea_Pattern_Small,14.010032499965746,20.022945582983084,2.0,Object_Sea_Pattern_Small,-6.0,,,,,,,,,,,
encoding,value,7,2967509,2973523,2971850.0,2972334.0,485.0,485.0,1589.3,1188.9,1591.0,891.0,Object_Sea_Pattern_Small,14.010032499965746,20.022945582983084,2.0,Object_Sea_Pattern_Small,-6.0,,,,,,,,,,,
encoding,value,7,2967509,2973523,2972355.0,2973511.0,1157.0,1157.0,1582.4,1115.1,1591.0,891.0,Object_Sea_Pattern_Small,14.010032499965746,20.022945582983084,2.0,Object_Sea_Pattern_Small,-6.0,,,,,,,,,,,
encoding,attention,7,2973523,2976545,2973757.0,2974061.0,305.0,305.0,1574.7,1109.1,1591.0,891.0,Object_Sea_Pattern_Small,20.02306612499524,23.04467091697734,2.0,Object_Sea_Pattern_Small,-6.0,-6.0,1.0,1.393740625004284,,,,,,,,
encoding,attention,7,2973523,2976545,2974084.0,2974337.0,254.0,254.0,1638.3,1084.3,1591.0,891.0,Object_Sea_Pattern_Small,20.02306612499524,23.04467091697734,2.0,Object_Sea_Pattern_Small,-6.0,-6.0,1.0,1.393740625004284,,,,,,,,
encoding,attention,7,2973523,2976545,2974359.0,2975377.0,1019.0,1019.0,1529.6,1076.0,1591.0,1269.0,Animal_Land_Solid_Large,20.02306612499524,23.04467091697734,2.0,Object_Sea_Pattern_Small,-6.0,-6.0,1.0,1.393740625004284,,,,,,,,
encoding,attention,7,2973523,2976545,2975395.0,2975615.0,221.0,221.0,1531.1,1092.6,1591.0,891.0,Object_Sea_Pattern_Small,20.02306612499524,23.04467091697734,2.0,Object_Sea_Pattern_Small,-6.0,-6.0,1.0,1.393740625004284,,,,,,,,
encoding,fixation,8,2976545,2977300,2976812.0,2976983.0,172.0,172.0,1890.0,1052.6,1920.0,1080.0,fixation,23.044820874987636,23.799954916990828,2.0,Animal_Land_Solid_Large,2.0,,,,,,,,,,,
encoding,fixation,8,2976545,2977300,2976993.0,2978210.0,1218.0,307.0,1908.1,1016.5999999999999,1920.0,1080.0,fixation,23.044820874987636,23.799954916990828,2.0,Animal_Land_Solid_Large,2.0,,,,,,,,,,,
encoding,image,8,2977300,2978312,2978218.0,2978479.0,262.0,94.0,1928.3,1002.0,1920.0,1460.0,Animal_Sea_Pattern_Large,23.800074749975465,24.811519416980445,2.0,Animal_Land_Solid_Large,2.0,,,,,,,,,,,
encoding,value,8,2978312,2984324,2978528.0,2978752.0,225.0,225.0,1590.2,807.0,1591.0,1269.0,Animal_Land_Solid_Large,24.811631666962057,30.824184208002407,2.0,Animal_Land_Solid_Large,2.0,,,,,,,,,,,
encoding,value,8,2978312,2984324,2978774.0,2979258.0,485.0,485.0,1608.0,731.7,1591.0,1269.0,Animal_Land_Solid_Large,24.811631666962057,30.824184208002407,2.0,Animal_Land_Solid_Large,2.0,,,,,,,,,,,
encoding,value,8,2978312,2984324,2979278.0,2979407.0,130.0,130.0,1605.6,829.8,1591.0,1269.0,Animal_Land_Solid_Large,24.811631666962057,30.824184208002407,2.0,Animal_Land_Solid_Large,2.0,,,,,,,,,,,
encoding,value,8,2978312,2984324,2979673.0,2979787.0,115.0,115.0,1543.3,787.0999999999999,1591.0,1269.0,Animal_Land_Solid_Large,24.811631666962057,30.824184208002407,2.0,Animal_Land_Solid_Large,2.0,,,,,,,,,,,
encoding,value,8,2978312,2984324,2979820.0,2980280.0,461.0,461.0,1626.2,704.8,1591.0,1269.0,Animal_Land_Solid_Large,24.811631666962057,30.824184208002407,2.0,Animal_Land_Solid_Large,2.0,,,,,,,,,,,
encoding,value,8,2978312,2984324,2980303.0,2981437.0,1135.0,1135.0,1607.2,839.4000000000001,1591.0,1269.0,Animal_Land_Solid_Large,24.811631666962057,30.824184208002407,2.0,Animal_Land_Solid_Large,2.0,,,,,,,,,,,
encoding,value,8,2978312,2984324,2981462.0,2982097.0,636.0,636.0,1598.1,743.5999999999999,1591.0,1269.0,Animal_Land_Solid_Large,24.811631666962057,30.824184208002407,2.0,Animal_Land_Solid_Large,2.0,,,,,,,,,,,
encoding,value,8,2978312,2984324,2982116.0,2983198.0,1083.0,1083.0,1600.3,835.0999999999999,1591.0,1269.0,Animal_Land_Solid_Large,24.811631666962057,30.824184208002407,2.0,Animal_Land_Solid_Large,2.0,,,,,,,,,,,
encoding,value,8,2978312,2984324,2983218.0,2984029.0,812.0,812.0,1592.7,737.8,1591.0,1269.0,Animal_Land_Solid_Large,24.811631666962057,30.824184208002407,2.0,Animal_Land_Solid_Large,2.0,,,,,,,,,,,
encoding,value,8,2978312,2984324,2984047.0,2984583.0,537.0,277.0,1596.0,851.0,1591.0,1269.0,Animal_Land_Solid_Large,24.811631666962057,30.824184208002407,2.0,Animal_Land_Solid_Large,2.0,,,,,,,,,,,
encoding,attention,8,2984324,2987345,2984618.0,2984762.0,145.0,145.0,1564.3,739.0,1591.0,1269.0,Animal_Land_Solid_Large,30.8243174579693,33.84433875000104,2.0,Animal_Land_Solid_Large,2.0,2.0,1.0,0.8997737920144573,,,,,,,,
encoding,attention,8,2984324,2987345,2984770.0,2985861.0,1092.0,1092.0,1545.8,714.0999999999999,1591.0,1269.0,Animal_Land_Solid_Large,30.8243174579693,33.84433875000104,2.0,Animal_Land_Solid_Large,2.0,2.0,1.0,0.8997737920144573,,,,,,,,
encoding,attention,8,2984324,2987345,2985903.0,2986075.0,173.0,173.0,1871.7,1036.4,1920.0,1080.0,fixation,30.8243174579693,33.84433875000104,2.0,Animal_Land_Solid_Large,2.0,2.0,1.0,0.8997737920144573,,,,,,,,
encoding,fixation,9,2987345,2988850,2988219.0,2988406.0,188.0,188.0,1927.2,1036.0,1920.0,1080.0,fixation,33.84448137495201,35.349491374974605,2.0,Animal_Sea_Pattern_Large,-6.0,,,,,,,,,,,
encoding,fixation,9,2987345,2988850,2988415.0,2989075.0,661.0,435.0,1927.9,999.3,1920.0,1460.0,Animal_Sea_Pattern_Large,33.84448137495201,35.349491374974605,2.0,Animal_Sea_Pattern_Large,-6.0,,,,,,,,,,,
encoding,image,9,2988850,2989861,2989101.0,2989302.0,202.0,202.0,1894.5,618.9000000000001,1920.0,1460.0,Animal_Sea_Pattern_Large,35.34960291697644,36.36086483299732,2.0,Animal_Sea_Pattern_Large,-6.0,,,,,,,,,,,
encoding,image,9,2988850,2989861,2989312.0,2990283.0,972.0,549.0,1872.0,641.4000000000001,1920.0,1460.0,Animal_Sea_Pattern_Large,35.34960291697644,36.36086483299732,2.0,Animal_Sea_Pattern_Large,-6.0,,,,,,,,,,,
encoding,value,9,2989862,2995872,2990304.0,2990800.0,497.0,497.0,1910.8,534.5,1920.0,1460.0,Animal_Sea_Pattern_Large,36.36101637495449,42.37137220799923,2.0,Animal_Sea_Pattern_Large,-6.0,,,,,,,,,,,
encoding,value,9,2989862,2995872,2990815.0,2991305.0,491.0,491.0,1902.4,621.5999999999999,1920.0,1460.0,Animal_Sea_Pattern_Large,36.36101637495449,42.37137220799923,2.0,Animal_Sea_Pattern_Large,-6.0,,,,,,,,,,,
encoding,value,9,2989862,2995872,2991324.0,2991972.0,649.0,649.0,1919.2,539.3,1920.0,1460.0,Animal_Sea_Pattern_Large,36.36101637495449,42.37137220799923,2.0,Animal_Sea_Pattern_Large,-6.0,,,,,,,,,,,
encoding,value,9,2989862,2995872,2991991.0,2992397.0,407.0,407.0,1882.1,635.4000000000001,1920.0,1460.0,Animal_Sea_Pattern_Large,36.36101637495449,42.37137220799923,2.0,Animal_Sea_Pattern_Large,-6.0,,,,,,,,,,,
encoding,value,9,2989862,2995872,2992407.0,2992696.0,290.0,290.0,1856.8,647.9000000000001,1920.0,1460.0,Animal_Sea_Pattern_Large,36.36101637495449,42.37137220799923,2.0,Animal_Sea_Pattern_Large,-6.0,,,,,,,,,,,
encoding,value,9,2989862,2995872,2992716.0,2992939.0,224.0,224.0,1891.3,624.3,1920.0,1460.0,Animal_Sea_Pattern_Large,36.36101637495449,42.37137220799923,2.0,Animal_Sea_Pattern_Large,-6.0,,,,,,,,,,,
encoding,value,9,2989862,2995872,2992964.0,2994154.0,1191.0,1191.0,1924.6,522.8,1920.0,1460.0,Animal_Sea_Pattern_Large,36.36101637495449,42.37137220799923,2.0,Animal_Sea_Pattern_Large,-6.0,,,,,,,,,,,
encoding,value,9,2989862,2995872,2994163.0,2994944.0,782.0,782.0,1919.5,585.2,1920.0,1460.0,Animal_Sea_Pattern_Large,36.36101637495449,42.37137220799923,2.0,Animal_Sea_Pattern_Large,-6.0,,,,,,,,,,,
encoding,value,9,2989862,2995872,2994956.0,2995491.0,536.0,536.0,1871.2,653.5,1920.0,1460.0,Animal_Sea_Pattern_Large,36.36101637495449,42.37137220799923,2.0,Animal_Sea_Pattern_Large,-6.0,,,,,,,,,,,
encoding,value,9,2989862,2995872,2995502.0,2996177.0,676.0,370.0,1891.7,620.2,1920.0,1460.0,Animal_Sea_Pattern_Large,36.36101637495449,42.37137220799923,2.0,Animal_Sea_Pattern_Large,-6.0,,,,,,,,,,,
encoding,attention,9,2995872,2998891,2996202.0,2996393.0,192.0,192.0,1935.2,544.8,1920.0,1460.0,Animal_Sea_Pattern_Large,42.37149937497452,45.389764832973015,2.0,Animal_Sea_Pattern_Large,-6.0,-6.0,1.0,2.881874124985188,,,,,,,,
encoding,fixation,10,2998891,2999895,2999251.0,3000151.0,901.0,644.0,1901.2,987.5999999999999,1920.0,1460.0,Animal_Sea_Pattern_Large,45.38991199998418,46.393947707954794,2.0,Animal_Land_Pattern_Large,1.0,,,,,,,,,,,
encoding,image,10,2999895,3000905,3000198.0,3000847.0,650.0,650.0,2211.0,1198.3,2249.0,891.0,Animal_Land_Pattern_Large,46.39406266697915,47.40379466698505,2.0,Animal_Land_Pattern_Large,1.0,,,,,,,,,,,
encoding,image,10,2999895,3000905,3000866.0,3001173.0,308.0,39.0,2235.3,1192.7,2249.0,891.0,Animal_Land_Pattern_Large,46.39406266697915,47.40379466698505,2.0,Animal_Land_Pattern_Large,1.0,,,,,,,,,,,
encoding,value,10,3000905,3006917,3001195.0,3001612.0,418.0,418.0,2244.0,1100.9,2249.0,891.0,Animal_Land_Pattern_Large,47.40391141700093,53.41555024997797,2.0,Animal_Land_Pattern_Large,1.0,,,,,,,,,,,
encoding,value,10,3000905,3006917,3002006.0,3002412.0,407.0,407.0,2203.2,1215.2,2249.0,891.0,Animal_Land_Pattern_Large,47.40391141700093,53.41555024997797,2.0,Animal_Land_Pattern_Large,1.0,,,,,,,,,,,
encoding,value,10,3000905,3006917,3002443.0,3002801.0,359.0,359.0,2271.4,1183.9,2249.0,891.0,Animal_Land_Pattern_Large,47.40391141700093,53.41555024997797,2.0,Animal_Land_Pattern_Large,1.0,,,,,,,,,,,
encoding,value,10,3000905,3006917,3002823.0,3003582.0,760.0,760.0,2191.7,1226.9,2249.0,891.0,Animal_Land_Pattern_Large,47.40391141700093,53.41555024997797,2.0,Animal_Land_Pattern_Large,1.0,,,,,,,,,,,
encoding,value,10,3000905,3006917,3003611.0,3005499.0,1889.0,1889.0,2240.0,1094.8,2249.0,891.0,Animal_Land_Pattern_Large,47.40391141700093,53.41555024997797,2.0,Animal_Land_Pattern_Large,1.0,,,,,,,,,,,
encoding,value,10,3000905,3006917,3005519.0,3005822.0,304.0,304.0,2214.1,1181.1,2249.0,891.0,Animal_Land_Pattern_Large,47.40391141700093,53.41555024997797,2.0,Animal_Land_Pattern_Large,1.0,,,,,,,,,,,
encoding,value,10,3000905,3006917,3005843.0,3006144.0,302.0,302.0,2195.3,1225.1,2249.0,891.0,Animal_Land_Pattern_Large,47.40391141700093,53.41555024997797,2.0,Animal_Land_Pattern_Large,1.0,,,,,,,,,,,
encoding,value,10,3000905,3006917,3006183.0,3007259.0,1077.0,734.0,2239.9,1079.9,2249.0,1269.0,Object_Land_Solid_Small,47.40391141700093,53.41555024997797,2.0,Animal_Land_Pattern_Large,1.0,,,,,,,,,,,
encoding,attention,10,3006917,3009935,3007287.0,3008026.0,740.0,740.0,2292.0,1087.6,2249.0,891.0,Animal_Land_Pattern_Large,53.415689082990866,56.43363574997056,2.0,Animal_Land_Pattern_Large,1.0,1.0,1.0,0.6520820000441745,,,,,,,,
encoding,attention,10,3006917,3009935,3008049.0,3008215.0,167.0,167.0,2228.7,1174.3,2249.0,891.0,Animal_Land_Pattern_Large,53.415689082990866,56.43363574997056,2.0,Animal_Land_Pattern_Large,1.0,1.0,1.0,0.6520820000441745,,,,,,,,
encoding,attention,10,3006917,3009935,3008234.0,3009259.0,1026.0,1026.0,2203.1,1220.2,2249.0,891.0,Animal_Land_Pattern_Large,53.415689082990866,56.43363574997056,2.0,Animal_Land_Pattern_Large,1.0,1.0,1.0,0.6520820000441745,,,,,,,,
encoding,attention,10,3006917,3009935,3009282.0,3009569.0,288.0,288.0,2285.2,1195.7,2249.0,891.0,Animal_Land_Pattern_Large,53.415689082990866,56.43363574997056,2.0,Animal_Land_Pattern_Large,1.0,1.0,1.0,0.6520820000441745,,,,,,,,
encoding,fixation,11,3009935,3011191,3010477.0,3010650.0,174.0,174.0,1941.1,1000.8,1920.0,1460.0,Animal_Sea_Pattern_Large,56.43378291698173,57.68976549996296,2.0,Object_Sea_Solid_Small,6.0,,,,,,,,,,,
encoding,fixation,11,3009935,3011191,3010669.0,3011105.0,437.0,437.0,1909.3,984.9000000000001,1920.0,1460.0,Animal_Sea_Pattern_Large,56.43378291698173,57.68976549996296,2.0,Object_Sea_Solid_Small,6.0,,,,,,,,,,,
encoding,fixation,11,3009935,3011191,3011123.0,3011441.0,319.0,68.0,1930.5,999.2,1920.0,1460.0,Animal_Sea_Pattern_Large,56.43378291698173,57.68976549996296,2.0,Object_Sea_Solid_Small,6.0,,,,,,,,,,,
encoding,image,11,3011191,3012202,3011492.0,3011959.0,468.0,468.0,1918.5,1421.0,1920.0,700.0,Object_Sea_Solid_Small,57.68987258296693,58.70066545798909,2.0,Object_Sea_Solid_Small,6.0,,,,,,,,,,,
encoding,image,11,3011191,3012202,3011976.0,3012441.0,466.0,226.0,1934.7,1442.0,1920.0,700.0,Object_Sea_Solid_Small,57.68987258296693,58.70066545798909,2.0,Object_Sea_Solid_Small,6.0,,,,,,,,,,,
encoding,value,11,3012202,3018213,3012479.0,3012984.0,506.0,506.0,1929.9,1328.9,1920.0,700.0,Object_Sea_Solid_Small,58.70077145798132,64.71111837495118,2.0,Object_Sea_Solid_Small,6.0,,,,,,,,,,,
encoding,value,11,3012202,3018213,3013003.0,3013255.0,253.0,253.0,1894.4,1312.0,1920.0,700.0,Object_Sea_Solid_Small,58.70077145798132,64.71111837495118,2.0,Object_Sea_Solid_Small,6.0,,,,,,,,,,,
encoding,value,11,3012202,3018213,3013273.0,3015156.0,1884.0,1884.0,1905.5,1290.7,1920.0,700.0,Object_Sea_Solid_Small,58.70077145798132,64.71111837495118,2.0,Object_Sea_Solid_Small,6.0,,,,,,,,,,,
encoding,value,11,3012202,3018213,3015177.0,3016291.0,1115.0,1115.0,1912.1,1415.2,1920.0,700.0,Object_Sea_Solid_Small,58.70077145798132,64.71111837495118,2.0,Object_Sea_Solid_Small,6.0,,,,,,,,,,,
encoding,value,11,3012202,3018213,3016316.0,3016666.0,351.0,351.0,1929.5,1437.6,1920.0,700.0,Object_Sea_Solid_Small,58.70077145798132,64.71111837495118,2.0,Object_Sea_Solid_Small,6.0,,,,,,,,,,,
encoding,value,11,3012202,3018213,3016704.0,3017062.0,359.0,359.0,1895.0,1312.2,1920.0,700.0,Object_Sea_Solid_Small,58.70077145798132,64.71111837495118,2.0,Object_Sea_Solid_Small,6.0,,,,,,,,,,,
encoding,value,11,3012202,3018213,3017086.0,3018275.0,1190.0,1127.0,1919.1,1285.0,1920.0,700.0,Object_Sea_Solid_Small,58.70077145798132,64.71111837495118,2.0,Object_Sea_Solid_Small,6.0,,,,,,,,,,,
encoding,attention,11,3018213,3021229,3018465.0,3018632.0,168.0,168.0,1876.5,1305.6,1920.0,700.0,Object_Sea_Solid_Small,64.71123774995795,67.72744354198221,2.0,Object_Sea_Solid_Small,6.0,6.0,1.0,1.4705138329882177,,,,,,,,
encoding,attention,11,3018213,3021229,3018654.0,3020110.0,1457.0,1457.0,1864.3,1271.1,1920.0,700.0,Object_Sea_Solid_Small,64.71123774995795,67.72744354198221,2.0,Object_Sea_Solid_Small,6.0,6.0,1.0,1.4705138329882177,,,,,,,,
encoding,attention,11,3018213,3021229,3020130.0,3021016.0,887.0,887.0,1883.2,1297.1,1920.0,700.0,Object_Sea_Solid_Small,64.71123774995795,67.72744354198221,2.0,Object_Sea_Solid_Small,6.0,6.0,1.0,1.4705138329882177,,,,,,,,
encoding,fixation,12,3021230,3021735,3021544.0,3021721.0,178.0,178.0,1898.4,986.4000000000001,1920.0,1460.0,Animal_Sea_Pattern_Large,67.72764354199171,68.23264670796925,2.0,Object_Land_Solid_Small,-6.0,,,,,,,,,,,
encoding,image,12,3021735,3022746,3021736.0,3022026.0,291.0,291.0,1918.3,984.2,1920.0,1460.0,Animal_Sea_Pattern_Large,68.23277641698951,69.24402583297342,2.0,Object_Land_Solid_Small,-6.0,,,,,,,,,,,
encoding,image,12,3021735,3022746,3022075.0,3022381.0,307.0,307.0,2226.3,824.0,2249.0,1269.0,Object_Land_Solid_Small,68.23277641698951,69.24402583297342,2.0,Object_Land_Solid_Small,-6.0,,,,,,,,,,,
encoding,image,12,3021735,3022746,3022405.0,3023029.0,625.0,341.0,2247.3,818.8,2249.0,1269.0,Object_Land_Solid_Small,68.23277641698951,69.24402583297342,2.0,Object_Land_Solid_Small,-6.0,,,,,,,,,,,
encoding,value,12,3022746,3028759,3023052.0,3023910.0,859.0,859.0,2244.1,735.9000000000001,2249.0,1269.0,Object_Land_Solid_Small,69.24413520796224,75.2567791249603,2.0,Object_Land_Solid_Small,-6.0,,,,,,,,,,,
encoding,value,12,3022746,3028759,3023934.0,3024294.0,361.0,361.0,2269.6,853.0,2249.0,1269.0,Object_Land_Solid_Small,69.24413520796224,75.2567791249603,2.0,Object_Land_Solid_Small,-6.0,,,,,,,,,,,
encoding,value,12,3022746,3028759,3024317.0,3024479.0,163.0,163.0,2248.6,724.9000000000001,2249.0,1269.0,Object_Land_Solid_Small,69.24413520796224,75.2567791249603,2.0,Object_Land_Solid_Small,-6.0,,,,,,,,,,,
encoding,value,12,3022746,3028759,3024754.0,3024893.0,140.0,140.0,2185.4,744.0999999999999,2249.0,1269.0,Object_Land_Solid_Small,69.24413520796224,75.2567791249603,2.0,Object_Land_Solid_Small,-6.0,,,,,,,,,,,
encoding,value,12,3022746,3028759,3024922.0,3025421.0,500.0,500.0,2234.5,700.5,2249.0,1269.0,Object_Land_Solid_Small,69.24413520796224,75.2567791249603,2.0,Object_Land_Solid_Small,-6.0,,,,,,,,,,,
encoding,value,12,3022746,3028759,3025446.0,3025686.0,241.0,241.0,2275.5,813.9000000000001,2249.0,1269.0,Object_Land_Solid_Small,69.24413520796224,75.2567791249603,2.0,Object_Land_Solid_Small,-6.0,,,,,,,,,,,
encoding,value,12,3022746,3028759,3025705.0,3026092.0,388.0,388.0,2231.9,818.7,2249.0,1269.0,Object_Land_Solid_Small,69.24413520796224,75.2567791249603,2.0,Object_Land_Solid_Small,-6.0,,,,,,,,,,,
encoding,value,12,3022746,3028759,3026113.0,3027029.0,917.0,917.0,2252.0,829.5999999999999,2249.0,1269.0,Object_Land_Solid_Small,69.24413520796224,75.2567791249603,2.0,Object_Land_Solid_Small,-6.0,,,,,,,,,,,
encoding,value,12,3022746,3028759,3027052.0,3027837.0,786.0,786.0,2246.9,720.5,2249.0,1269.0,Object_Land_Solid_Small,69.24413520796224,75.2567791249603,2.0,Object_Land_Solid_Small,-6.0,,,,,,,,,,,
encoding,value,12,3022746,3028759,3028060.0,3029030.0,971.0,699.0,2252.2,712.0999999999999,2249.0,1269.0,Object_Land_Solid_Small,69.24413520796224,75.2567791249603,2.0,Object_Land_Solid_Small,-6.0,,,,,,,,,,,
encoding,attention,12,3028759,3031777,3029056.0,3029076.0,21.0,21.0,2247.1,707.4000000000001,2249.0,1269.0,Object_Land_Solid_Small,75.25689191697165,78.27422595798271,2.0,Object_Land_Solid_Small,-6.0,-6.0,1.0,0.8898611249751411,,,,,,,,
encoding,attention,12,3028759,3031777,3029150.0,3029250.0,101.0,101.0,2160.6,722.5999999999999,2249.0,1269.0,Object_Land_Solid_Small,75.25689191697165,78.27422595798271,2.0,Object_Land_Solid_Small,-6.0,-6.0,1.0,0.8898611249751411,,,,,,,,
encoding,attention,12,3028759,3031777,3029274.0,3030080.0,807.0,807.0,2275.6,711.4000000000001,2249.0,1269.0,Object_Land_Solid_Small,75.25689191697165,78.27422595798271,2.0,Object_Land_Solid_Small,-6.0,-6.0,1.0,0.8898611249751411,,,,,,,,
encoding,attention,12,3028759,3031777,3030101.0,3031200.0,1100.0,1100.0,2233.6,805.9000000000001,2249.0,1269.0,Object_Land_Solid_Small,75.25689191697165,78.27422595798271,2.0,Object_Land_Solid_Small,-6.0,-6.0,1.0,0.8898611249751411,,,,,,,,
encoding,attention,12,3028759,3031777,3031240.0,3031392.0,153.0,153.0,1940.5,991.3,1920.0,1460.0,Animal_Sea_Pattern_Large,75.25689191697165,78.27422595798271,2.0,Object_Land_Solid_Small,-6.0,-6.0,1.0,0.8898611249751411,,,,,,,,
encoding,attention,12,3028759,3031777,3031410.0,3031609.0,200.0,200.0,1911.3,987.2,1920.0,1460.0,Animal_Sea_Pattern_Large,75.25689191697165,78.27422595798271,2.0,Object_Land_Solid_Small,-6.0,-6.0,1.0,0.8898611249751411,,,,,,,,
encoding,fixation,13,3411918,3412926,3412160.0,3412297.0,138.0,138.0,1884.6,1040.8,1920.0,1080.0,fixation,5.288942167011555,6.296357042039745,3.0,Animal_Land_Solid_Large,-1.0,,,,,,,,,,,
encoding,fixation,13,3411918,3412926,3412714.0,3413098.0,385.0,212.0,1879.2,1280.2,1920.0,700.0,Object_Land_Pattern_Small,5.288942167011555,6.296357042039745,3.0,Animal_Land_Solid_Large,-1.0,,,,,,,,,,,
encoding,image,13,3412926,3413938,3413158.0,3413289.0,132.0,132.0,1600.0,788.0999999999999,1591.0,1269.0,Animal_Land_Solid_Large,6.296464584011119,7.308610459032934,3.0,Animal_Land_Solid_Large,-1.0,,,,,,,,,,,
encoding,image,13,3412926,3413938,3413303.0,3414137.0,835.0,635.0,1595.1,836.9000000000001,1591.0,1269.0,Animal_Land_Solid_Large,6.296464584011119,7.308610459032934,3.0,Animal_Land_Solid_Large,-1.0,,,,,,,,,,,
encoding,value,13,3413938,3419952,3414161.0,3414628.0,468.0,468.0,1592.2,727.5,1591.0,1269.0,Animal_Land_Solid_Large,7.308727500028908,13.32237550005084,3.0,Animal_Land_Solid_Large,-1.0,,,,,,,,,,,
encoding,value,13,3413938,3419952,3414648.0,3415368.0,721.0,721.0,1602.1,850.0999999999999,1591.0,1269.0,Animal_Land_Solid_Large,7.308727500028908,13.32237550005084,3.0,Animal_Land_Solid_Large,-1.0,,,,,,,,,,,
encoding,value,13,3413938,3419952,3415403.0,3415540.0,138.0,138.0,1972.7,994.5,2249.0,1269.0,Animal_Sea_Solid_Large,7.308727500028908,13.32237550005084,3.0,Animal_Land_Solid_Large,-1.0,,,,,,,,,,,
encoding,value,13,3413938,3419952,3415558.0,3417661.0,2104.0,2104.0,1891.0,986.7,1920.0,1460.0,Animal_Land_Pattern_Small,7.308727500028908,13.32237550005084,3.0,Animal_Land_Solid_Large,-1.0,,,,,,,,,,,
encoding,value,13,3413938,3419952,3417725.0,3417885.0,161.0,161.0,1623.1,789.5999999999999,1591.0,1269.0,Animal_Land_Solid_Large,7.308727500028908,13.32237550005084,3.0,Animal_Land_Solid_Large,-1.0,,,,,,,,,,,
encoding,value,13,3413938,3419952,3417904.0,3419382.0,1479.0,1479.0,1601.9,833.9000000000001,1591.0,1269.0,Animal_Land_Solid_Large,7.308727500028908,13.32237550005084,3.0,Animal_Land_Solid_Large,-1.0,,,,,,,,,,,
encoding,value,13,3413938,3419952,3419405.0,3420257.0,853.0,547.0,1586.8,745.0,1591.0,1269.0,Animal_Land_Solid_Large,7.308727500028908,13.32237550005084,3.0,Animal_Land_Solid_Large,-1.0,,,,,,,,,,,
encoding,attention,13,3419952,3422973,3420269.0,3420437.0,169.0,169.0,1535.8,734.2,1591.0,1269.0,Animal_Land_Solid_Large,13.322490209015086,16.343128167034592,3.0,Animal_Land_Solid_Large,-1.0,-1.0,1.0,0.864209666964598,,,,,,,,
encoding,attention,13,3419952,3422973,3420471.0,3421434.0,964.0,964.0,1642.0,722.8,1591.0,1269.0,Animal_Land_Solid_Large,13.322490209015086,16.343128167034592,3.0,Animal_Land_Solid_Large,-1.0,-1.0,1.0,0.864209666964598,,,,,,,,
encoding,attention,13,3419952,3422973,3421456.0,3421604.0,149.0,149.0,1599.3,822.4000000000001,1591.0,1269.0,Animal_Land_Solid_Large,13.322490209015086,16.343128167034592,3.0,Animal_Land_Solid_Large,-1.0,-1.0,1.0,0.864209666964598,,,,,,,,
encoding,attention,13,3419952,3422973,3421888.0,3422117.0,230.0,230.0,1591.2,830.0999999999999,1591.0,1269.0,Animal_Land_Solid_Large,13.322490209015086,16.343128167034592,3.0,Animal_Land_Solid_Large,-1.0,-1.0,1.0,0.864209666964598,,,,,,,,
encoding,fixation,14,3422973,3423478,3423227.0,3423569.0,343.0,251.0,1918.3,1010.2,1920.0,1080.0,fixation,16.34327462501824,16.848347125051077,3.0,Object_Sea_Pattern_Small,-8.0,,,,,,,,,,,
encoding,image,14,3423478,3424492,3423818.0,3423986.0,169.0,169.0,1546.9,1250.6,1591.0,891.0,Object_Sea_Pattern_Small,16.848462374997325,17.86209275003057,3.0,Object_Sea_Pattern_Small,-8.0,,,,,,,,,,,
encoding,image,14,3423478,3424492,3424009.0,3424367.0,359.0,359.0,1549.0,1211.7,1591.0,891.0,Object_Sea_Pattern_Small,16.848462374997325,17.86209275003057,3.0,Object_Sea_Pattern_Small,-8.0,,,,,,,,,,,
encoding,image,14,3423478,3424492,3424386.0,3424773.0,388.0,106.0,1547.9,1230.7,1591.0,891.0,Object_Sea_Pattern_Small,16.848462374997325,17.86209275003057,3.0,Object_Sea_Pattern_Small,-8.0,,,,,,,,,,,
encoding,value,14,3424492,3430505,3424809.0,3425471.0,663.0,663.0,1572.5,1124.0,1591.0,891.0,Object_Sea_Pattern_Small,17.862239792011678,23.874413917015772,3.0,Object_Sea_Pattern_Small,-8.0,,,,,,,,,,,
encoding,value,14,3424492,3430505,3425488.0,3425843.0,356.0,356.0,1562.9,1207.7,1591.0,891.0,Object_Sea_Pattern_Small,17.862239792011678,23.874413917015772,3.0,Object_Sea_Pattern_Small,-8.0,,,,,,,,,,,
encoding,value,14,3424492,3430505,3425883.0,3428502.0,2620.0,2620.0,1561.5,1113.6,1591.0,891.0,Object_Sea_Pattern_Small,17.862239792011678,23.874413917015772,3.0,Object_Sea_Pattern_Small,-8.0,,,,,,,,,,,
encoding,value,14,3424492,3430505,3428548.0,3428874.0,327.0,327.0,1562.8,1175.0,1591.0,891.0,Object_Sea_Pattern_Small,17.862239792011678,23.874413917015772,3.0,Object_Sea_Pattern_Small,-8.0,,,,,,,,,,,
encoding,value,14,3424492,3430505,3428883.0,3429128.0,246.0,246.0,1547.3,1206.2,1591.0,891.0,Object_Sea_Pattern_Small,17.862239792011678,23.874413917015772,3.0,Object_Sea_Pattern_Small,-8.0,,,,,,,,,,,
encoding,value,14,3424492,3430505,3429135.0,3429369.0,235.0,235.0,1542.7,1221.3,1591.0,891.0,Object_Sea_Pattern_Small,17.862239792011678,23.874413917015772,3.0,Object_Sea_Pattern_Small,-8.0,,,,,,,,,,,
encoding,value,14,3424492,3430505,3429404.0,3430786.0,1383.0,1101.0,1562.7,1102.1,1591.0,891.0,Object_Sea_Pattern_Small,17.862239792011678,23.874413917015772,3.0,Object_Sea_Pattern_Small,-8.0,,,,,,,,,,,
encoding,attention,14,3430505,3433523,3430806.0,3431507.0,702.0,702.0,1514.5,1090.4,1591.0,891.0,Object_Sea_Pattern_Small,23.874552334018517,26.892412542016245,3.0,Object_Sea_Pattern_Small,-8.0,-8.0,1.0,0.5718135829665698,,,,,,,,
encoding,attention,14,3430505,3433523,3431534.0,3433030.0,1497.0,1497.0,1564.3,1226.6,1591.0,891.0,Object_Sea_Pattern_Small,23.874552334018517,26.892412542016245,3.0,Object_Sea_Pattern_Small,-8.0,-8.0,1.0,0.5718135829665698,,,,,,,,
encoding,fixation,15,3433523,3434028,3433813.0,3433951.0,139.0,139.0,1927.2,991.5999999999999,1920.0,1460.0,Animal_Land_Pattern_Small,26.892564000037964,27.39751854201313,3.0,Object_Land_Pattern_Small,8.0,,,,,,,,,,,
encoding,image,15,3434028,3435042,3434219.0,3434396.0,178.0,178.0,1917.2,1079.9,1920.0,1080.0,fixation,27.39763162500458,28.41175445902627,3.0,Object_Land_Pattern_Small,8.0,,,,,,,,,,,
encoding,image,15,3434028,3435042,3434424.0,3434716.0,293.0,293.0,1899.5,1374.0,1920.0,700.0,Object_Land_Pattern_Small,27.39763162500458,28.41175445902627,3.0,Object_Land_Pattern_Small,8.0,,,,,,,,,,,
encoding,image,15,3434028,3435042,3434738.0,3435223.0,486.0,304.0,1907.0,1454.5,1920.0,700.0,Object_Land_Pattern_Small,27.39763162500458,28.41175445902627,3.0,Object_Land_Pattern_Small,8.0,,,,,,,,,,,
encoding,value,15,3435042,3441054,3435263.0,3435668.0,406.0,406.0,1905.4,1309.0,1920.0,700.0,Object_Land_Pattern_Small,28.411875959020108,34.42309220903553,3.0,Object_Land_Pattern_Small,8.0,,,,,,,,,,,
encoding,value,15,3435042,3441054,3435687.0,3436167.0,481.0,481.0,1922.1,1296.2,1920.0,700.0,Object_Land_Pattern_Small,28.411875959020108,34.42309220903553,3.0,Object_Land_Pattern_Small,8.0,,,,,,,,,,,
encoding,value,15,3435042,3441054,3436190.0,3436464.0,275.0,275.0,1930.3,1381.1,1920.0,700.0,Object_Land_Pattern_Small,28.411875959020108,34.42309220903553,3.0,Object_Land_Pattern_Small,8.0,,,,,,,,,,,
encoding,value,15,3435042,3441054,3436504.0,3436688.0,185.0,185.0,1938.5,1247.9,1920.0,700.0,Object_Land_Pattern_Small,28.411875959020108,34.42309220903553,3.0,Object_Land_Pattern_Small,8.0,,,,,,,,,,,
encoding,value,15,3435042,3441054,3436705.0,3438004.0,1300.0,1300.0,1918.2,1259.6,1920.0,700.0,Object_Land_Pattern_Small,28.411875959020108,34.42309220903553,3.0,Object_Land_Pattern_Small,8.0,,,,,,,,,,,
encoding,value,15,3435042,3441054,3438030.0,3438286.0,257.0,257.0,1921.5,1381.0,1920.0,700.0,Object_Land_Pattern_Small,28.411875959020108,34.42309220903553,3.0,Object_Land_Pattern_Small,8.0,,,,,,,,,,,
encoding,value,15,3435042,3441054,3438325.0,3440856.0,2532.0,2532.0,1911.0,1279.0,1920.0,700.0,Object_Land_Pattern_Small,28.411875959020108,34.42309220903553,3.0,Object_Land_Pattern_Small,8.0,,,,,,,,,,,
encoding,value,15,3435042,3441054,3440876.0,3441246.0,371.0,178.0,1915.6,1372.9,1920.0,700.0,Object_Land_Pattern_Small,28.411875959020108,34.42309220903553,3.0,Object_Land_Pattern_Small,8.0,,,,,,,,,,,
encoding,attention,15,3441054,3444072,3441282.0,3441403.0,122.0,122.0,1917.4,1287.3,1920.0,700.0,Object_Land_Pattern_Small,34.4232015000307,37.44124645902775,3.0,Object_Land_Pattern_Small,8.0,8.0,1.0,0.6364333749515936,,,,,,,,
encoding,attention,15,3441054,3444072,3441423.0,3442186.0,764.0,764.0,1861.7,1278.3,1920.0,700.0,Object_Land_Pattern_Small,34.4232015000307,37.44124645902775,3.0,Object_Land_Pattern_Small,8.0,8.0,1.0,0.6364333749515936,,,,,,,,
encoding,attention,15,3441054,3444072,3442215.0,3442452.0,238.0,238.0,1903.7,1404.7,1920.0,700.0,Object_Land_Pattern_Small,34.4232015000307,37.44124645902775,3.0,Object_Land_Pattern_Small,8.0,8.0,1.0,0.6364333749515936,,,,,,,,
encoding,attention,15,3441054,3444072,3442479.0,3442668.0,190.0,190.0,1958.3,1298.5,1920.0,700.0,Object_Land_Pattern_Small,34.4232015000307,37.44124645902775,3.0,Object_Land_Pattern_Small,8.0,8.0,1.0,0.6364333749515936,,,,,,,,
encoding,attention,15,3441054,3444072,3442687.0,3443778.0,1092.0,1092.0,1968.5,1261.3,1920.0,700.0,Object_Land_Pattern_Small,34.4232015000307,37.44124645902775,3.0,Object_Land_Pattern_Small,8.0,8.0,1.0,0.6364333749515936,,,,,,,,
encoding,fixation,16,3444072,3445327,3444117.0,3444321.0,205.0,205.0,1900.8,1409.4,1920.0,700.0,Object_Land_Pattern_Small,37.44140079204226,38.69654066703515,3.0,Object_Sea_Solid_Large,5.0,,,,,,,,,,,
encoding,fixation,16,3444072,3445327,3444423.0,3444779.0,357.0,357.0,2155.2,1348.7,2249.0,891.0,Object_Sea_Solid_Large,37.44140079204226,38.69654066703515,3.0,Object_Sea_Solid_Large,5.0,,,,,,,,,,,
encoding,fixation,16,3444072,3445327,3444800.0,3444820.0,21.0,21.0,2157.3,1170.2,2249.0,891.0,Object_Sea_Solid_Large,37.44140079204226,38.69654066703515,3.0,Object_Sea_Solid_Large,5.0,,,,,,,,,,,
encoding,fixation,16,3444072,3445327,3444832.0,3444973.0,142.0,142.0,2159.3,1097.8,2249.0,891.0,Object_Sea_Solid_Large,37.44140079204226,38.69654066703515,3.0,Object_Sea_Solid_Large,5.0,,,,,,,,,,,
encoding,fixation,16,3444072,3445327,3445015.0,3445248.0,234.0,234.0,1935.2,979.9000000000001,1920.0,1460.0,Animal_Land_Pattern_Small,37.44140079204226,38.69654066703515,3.0,Object_Sea_Solid_Large,5.0,,,,,,,,,,,
encoding,fixation,16,3444072,3445327,3445265.0,3445560.0,296.0,62.0,1909.4,988.5,1920.0,1460.0,Animal_Land_Pattern_Small,37.44140079204226,38.69654066703515,3.0,Object_Sea_Solid_Large,5.0,,,,,,,,,,,
encoding,image,16,3445328,3446339,3445595.0,3445877.0,283.0,283.0,2207.0,1163.9,2249.0,891.0,Object_Sea_Solid_Large,38.69672595901648,39.70797320903512,3.0,Object_Sea_Solid_Large,5.0,,,,,,,,,,,
encoding,image,16,3445328,3446339,3445900.0,3446539.0,640.0,439.0,2261.7,1187.7,2249.0,891.0,Object_Sea_Solid_Large,38.69672595901648,39.70797320903512,3.0,Object_Sea_Solid_Large,5.0,,,,,,,,,,,
encoding,value,16,3446339,3452351,3446560.0,3446723.0,164.0,164.0,2248.9,1108.8,2249.0,891.0,Object_Sea_Solid_Large,39.70808858401142,45.719904833997134,3.0,Object_Sea_Solid_Large,5.0,,,,,,,,,,,
encoding,value,16,3446339,3452351,3446739.0,3447003.0,265.0,265.0,2251.4,1078.3,2249.0,1269.0,Animal_Sea_Solid_Large,39.70808858401142,45.719904833997134,3.0,Object_Sea_Solid_Large,5.0,,,,,,,,,,,
encoding,value,16,3446339,3452351,3447026.0,3447600.0,575.0,575.0,2239.1,1166.9,2249.0,891.0,Object_Sea_Solid_Large,39.70808858401142,45.719904833997134,3.0,Object_Sea_Solid_Large,5.0,,,,,,,,,,,
encoding,value,16,3446339,3452351,3447630.0,3448750.0,1121.0,1121.0,2248.6,1167.2,2249.0,891.0,Object_Sea_Solid_Large,39.70808858401142,45.719904833997134,3.0,Object_Sea_Solid_Large,5.0,,,,,,,,,,,
encoding,value,16,3446339,3452351,3448776.0,3449044.0,269.0,269.0,2257.8,1068.4,2249.0,1269.0,Animal_Sea_Solid_Large,39.70808858401142,45.719904833997134,3.0,Object_Sea_Solid_Large,5.0,,,,,,,,,,,
encoding,value,16,3446339,3452351,3449274.0,3449303.0,30.0,30.0,2201.3,1152.6,2249.0,891.0,Object_Sea_Solid_Large,39.70808858401142,45.719904833997134,3.0,Object_Sea_Solid_Large,5.0,,,,,,,,,,,
encoding,value,16,3446339,3452351,3449311.0,3449426.0,116.0,116.0,2202.2,1086.2,2249.0,891.0,Object_Sea_Solid_Large,39.70808858401142,45.719904833997134,3.0,Object_Sea_Solid_Large,5.0,,,,,,,,,,,
encoding,value,16,3446339,3452351,3449456.0,3451097.0,1642.0,1642.0,2244.2,1061.4,2249.0,1269.0,Animal_Sea_Solid_Large,39.70808858401142,45.719904833997134,3.0,Object_Sea_Solid_Large,5.0,,,,,,,,,,,
encoding,value,16,3446339,3452351,3451115.0,3451478.0,364.0,364.0,2247.5,1168.9,2249.0,891.0,Object_Sea_Solid_Large,39.70808858401142,45.719904833997134,3.0,Object_Sea_Solid_Large,5.0,,,,,,,,,,,
encoding,value,16,3446339,3452351,3451496.0,3451800.0,305.0,305.0,2227.0,1173.4,2249.0,891.0,Object_Sea_Solid_Large,39.70808858401142,45.719904833997134,3.0,Object_Sea_Solid_Large,5.0,,,,,,,,,,,
encoding,value,16,3446339,3452351,3451824.0,3452632.0,809.0,527.0,2255.0,1082.3,2249.0,891.0,Object_Sea_Solid_Large,39.70808858401142,45.719904833997134,3.0,Object_Sea_Solid_Large,5.0,,,,,,,,,,,
encoding,attention,16,3452351,3455369,3452639.0,3452791.0,153.0,153.0,2248.6,1055.6,2249.0,1269.0,Animal_Sea_Solid_Large,45.720011792029254,48.737942125007976,3.0,Object_Sea_Solid_Large,5.0,5.0,1.0,1.7019417500123382,,,,,,,,
encoding,attention,16,3452351,3455369,3452811.0,3453904.0,1094.0,1094.0,2195.9,1037.9,2249.0,1269.0,Animal_Sea_Solid_Large,45.720011792029254,48.737942125007976,3.0,Object_Sea_Solid_Large,5.0,5.0,1.0,1.7019417500123382,,,,,,,,
encoding,attention,16,3452351,3455369,3453929.0,3454500.0,572.0,572.0,2214.6,1030.4,2249.0,1269.0,Animal_Sea_Solid_Large,45.720011792029254,48.737942125007976,3.0,Object_Sea_Solid_Large,5.0,5.0,1.0,1.7019417500123382,,,,,,,,
encoding,attention,16,3452351,3455369,3454739.0,3454994.0,256.0,256.0,2227.3,1197.9,2249.0,891.0,Object_Sea_Solid_Large,45.720011792029254,48.737942125007976,3.0,Object_Sea_Solid_Large,5.0,5.0,1.0,1.7019417500123382,,,,,,,,
encoding,attention,16,3452351,3455369,3455016.0,3455322.0,307.0,307.0,2230.4,1135.4,2249.0,891.0,Object_Sea_Solid_Large,45.720011792029254,48.737942125007976,3.0,Object_Sea_Solid_Large,5.0,5.0,1.0,1.7019417500123382,,,,,,,,
encoding,fixation,17,3455369,3455877,3455631.0,3455931.0,301.0,246.0,1930.2,976.0999999999999,1920.0,1460.0,Animal_Land_Pattern_Small,48.73812129202997,49.245406625035685,3.0,Animal_Sea_Solid_Large,-2.0,,,,,,,,,,,
encoding,image,17,3455877,3456889,3456335.0,3456440.0,106.0,106.0,2215.0,706.2,2249.0,1269.0,Animal_Sea_Solid_Large,49.24551908404101,50.257335417030845,3.0,Animal_Sea_Solid_Large,-2.0,,,,,,,,,,,
encoding,image,17,3455877,3456889,3456470.0,3456603.0,134.0,134.0,2208.3,753.8,2249.0,1269.0,Animal_Sea_Solid_Large,49.24551908404101,50.257335417030845,3.0,Animal_Sea_Solid_Large,-2.0,,,,,,,,,,,
encoding,image,17,3455877,3456889,3456625.0,3456778.0,154.0,154.0,2218.4,802.5,2249.0,1269.0,Animal_Sea_Solid_Large,49.24551908404101,50.257335417030845,3.0,Animal_Sea_Solid_Large,-2.0,,,,,,,,,,,
encoding,image,17,3455877,3456889,3456793.0,3457957.0,1165.0,96.0,2274.3,858.0999999999999,2249.0,1269.0,Animal_Sea_Solid_Large,49.24551908404101,50.257335417030845,3.0,Animal_Sea_Solid_Large,-2.0,,,,,,,,,,,
encoding,value,17,3456889,3462901,3457977.0,3458381.0,405.0,405.0,2281.8,745.0999999999999,2249.0,1269.0,Animal_Sea_Solid_Large,50.2574453750276,56.2695534999948,3.0,Animal_Sea_Solid_Large,-2.0,,,,,,,,,,,
encoding,value,17,3456889,3462901,3458401.0,3459085.0,685.0,685.0,2277.5,867.0,2249.0,1269.0,Animal_Sea_Solid_Large,50.2574453750276,56.2695534999948,3.0,Animal_Sea_Solid_Large,-2.0,,,,,,,,,,,
encoding,value,17,3456889,3462901,3459112.0,3459651.0,540.0,540.0,2264.0,721.5,2249.0,1269.0,Animal_Sea_Solid_Large,50.2574453750276,56.2695534999948,3.0,Animal_Sea_Solid_Large,-2.0,,,,,,,,,,,
encoding,value,17,3456889,3462901,3459672.0,3461176.0,1505.0,1505.0,2255.0,849.9000000000001,2249.0,1269.0,Animal_Sea_Solid_Large,50.2574453750276,56.2695534999948,3.0,Animal_Sea_Solid_Large,-2.0,,,,,,,,,,,
encoding,value,17,3456889,3462901,3461204.0,3463246.0,2043.0,1697.0,2228.7,713.3,2249.0,1269.0,Animal_Sea_Solid_Large,50.2574453750276,56.2695534999948,3.0,Animal_Sea_Solid_Large,-2.0,,,,,,,,,,,
encoding,attention,17,3462901,3465919,3463276.0,3463999.0,724.0,724.0,2255.5,708.2,2249.0,1269.0,Animal_Sea_Solid_Large,56.2696586670354,59.287441417051014,3.0,Animal_Sea_Solid_Large,-2.0,-2.0,1.0,0.5835455839987844,,,,,,,,
encoding,attention,17,3462901,3465919,3464219.0,3464264.0,46.0,46.0,1953.2,1078.8,1920.0,1080.0,fixation,56.2696586670354,59.287441417051014,3.0,Animal_Sea_Solid_Large,-2.0,-2.0,1.0,0.5835455839987844,,,,,,,,
encoding,attention,17,3462901,3465919,3464270.0,3464360.0,91.0,91.0,1955.6,1031.1,1920.0,1080.0,fixation,56.2696586670354,59.287441417051014,3.0,Animal_Sea_Solid_Large,-2.0,-2.0,1.0,0.5835455839987844,,,,,,,,
encoding,attention,17,3462901,3465919,3464385.0,3464990.0,606.0,606.0,1914.0,985.7,1920.0,1460.0,Animal_Land_Pattern_Small,56.2696586670354,59.287441417051014,3.0,Animal_Sea_Solid_Large,-2.0,-2.0,1.0,0.5835455839987844,,,,,,,,
encoding,attention,17,3462901,3465919,3465029.0,3465256.0,228.0,228.0,2286.1,787.2,2249.0,1269.0,Animal_Sea_Solid_Large,56.2696586670354,59.287441417051014,3.0,Animal_Sea_Solid_Large,-2.0,-2.0,1.0,0.5835455839987844,,,,,,,,
encoding,fixation,18,3465919,3466427,3466152.0,3466689.0,538.0,275.0,1921.3,993.4000000000001,1920.0,1460.0,Animal_Land_Pattern_Small,59.2876039170078,59.795412167033646,3.0,Animal_Land_Pattern_Small,8.0,,,,,,,,,,,
encoding,image,18,3466427,3467439,3466719.0,3466881.0,163.0,163.0,1883.3,674.0999999999999,1920.0,1460.0,Animal_Land_Pattern_Small,59.79555050004274,60.80703120899853,3.0,Animal_Land_Pattern_Small,8.0,,,,,,,,,,,
encoding,image,18,3466427,3467439,3466910.0,3467104.0,195.0,195.0,1923.2,626.5999999999999,1920.0,1460.0,Animal_Land_Pattern_Small,59.79555050004274,60.80703120899853,3.0,Animal_Land_Pattern_Small,8.0,,,,,,,,,,,
encoding,image,18,3466427,3467439,3467123.0,3467791.0,669.0,316.0,1951.7,626.9000000000001,1920.0,1460.0,Animal_Land_Pattern_Small,59.79555050004274,60.80703120899853,3.0,Animal_Land_Pattern_Small,8.0,,,,,,,,,,,
encoding,value,18,3467439,3473450,3467816.0,3468946.0,1131.0,1131.0,1940.0,524.9000000000001,1920.0,1460.0,Animal_Land_Pattern_Small,60.80717962502968,66.81834183400497,3.0,Animal_Land_Pattern_Small,8.0,,,,,,,,,,,
encoding,value,18,3467439,3473450,3468967.0,3469332.0,366.0,366.0,1959.2,611.5999999999999,1920.0,1460.0,Animal_Land_Pattern_Small,60.80717962502968,66.81834183400497,3.0,Animal_Land_Pattern_Small,8.0,,,,,,,,,,,
encoding,value,18,3467439,3473450,3469350.0,3470259.0,910.0,910.0,1915.1,626.5,1920.0,1460.0,Animal_Land_Pattern_Small,60.80717962502968,66.81834183400497,3.0,Animal_Land_Pattern_Small,8.0,,,,,,,,,,,
encoding,value,18,3467439,3473450,3470282.0,3470400.0,119.0,119.0,1934.5,510.0,1920.0,1460.0,Animal_Land_Pattern_Small,60.80717962502968,66.81834183400497,3.0,Animal_Land_Pattern_Small,8.0,,,,,,,,,,,
encoding,value,18,3467439,3473450,3470407.0,3471021.0,615.0,615.0,1935.4,536.9000000000001,1920.0,1460.0,Animal_Land_Pattern_Small,60.80717962502968,66.81834183400497,3.0,Animal_Land_Pattern_Small,8.0,,,,,,,,,,,
encoding,value,18,3467439,3473450,3471039.0,3471414.0,376.0,376.0,1934.4,646.3,1920.0,1460.0,Animal_Land_Pattern_Small,60.80717962502968,66.81834183400497,3.0,Animal_Land_Pattern_Small,8.0,,,,,,,,,,,
encoding,value,18,3467439,3473450,3471449.0,3473720.0,2272.0,2001.0,1929.3,530.9000000000001,1920.0,1460.0,Animal_Land_Pattern_Small,60.80717962502968,66.81834183400497,3.0,Animal_Land_Pattern_Small,8.0,,,,,,,,,,,
encoding,attention,18,3473450,3476467,3473739.0,3474843.0,1105.0,1105.0,1936.9,517.9000000000001,1920.0,1460.0,Animal_Land_Pattern_Small,66.81846295902506,69.83494341705227,3.0,Animal_Land_Pattern_Small,8.0,8.0,1.0,0.9829169170116074,,,,,,,,
encoding,attention,18,3473450,3476467,3474864.0,3475162.0,299.0,299.0,1917.7,649.9000000000001,1920.0,1460.0,Animal_Land_Pattern_Small,66.81846295902506,69.83494341705227,3.0,Animal_Land_Pattern_Small,8.0,8.0,1.0,0.9829169170116074,,,,,,,,
encoding,attention,18,3473450,3476467,3475180.0,3475785.0,606.0,606.0,1942.6,634.0,1920.0,1460.0,Animal_Land_Pattern_Small,66.81846295902506,69.83494341705227,3.0,Animal_Land_Pattern_Small,8.0,8.0,1.0,0.9829169170116074,,,,,,,,
encoding,fixation,19,3828112,3829118,3828344.0,3828818.0,475.0,475.0,1931.4,966.4000000000001,1920.0,1460.0,Object_Land_Solid_Large,8.668436207983177,9.674219708016608,4.0,Object_Land_Solid_Large,4.0,,,,,,,,,,,
encoding,fixation,19,3828112,3829118,3828975.0,3829330.0,356.0,143.0,1981.2,1239.0,1920.0,700.0,Animal_Sea_Solid_Small,8.668436207983177,9.674219708016608,4.0,Object_Land_Solid_Large,4.0,,,,,,,,,,,
encoding,image,19,3829118,3830128,3829396.0,3829545.0,150.0,150.0,1947.8,674.5999999999999,1920.0,1460.0,Object_Land_Solid_Large,9.674418916983996,10.68440433300566,4.0,Object_Land_Solid_Large,4.0,,,,,,,,,,,
encoding,image,19,3829118,3830128,3829577.0,3830319.0,743.0,551.0,1938.9,612.7,1920.0,1460.0,Object_Land_Solid_Large,9.674418916983996,10.68440433300566,4.0,Object_Land_Solid_Large,4.0,,,,,,,,,,,
encoding,value,19,3830128,3836143,3830343.0,3830864.0,522.0,522.0,1949.7,522.7,1920.0,1460.0,Object_Land_Solid_Large,10.68451345799258,16.69983266701456,4.0,Object_Land_Solid_Large,4.0,,,,,,,,,,,
encoding,value,19,3830128,3836143,3830886.0,3831165.0,280.0,280.0,1954.2,635.2,1920.0,1460.0,Object_Land_Solid_Large,10.68451345799258,16.69983266701456,4.0,Object_Land_Solid_Large,4.0,,,,,,,,,,,
encoding,value,19,3830128,3836143,3831174.0,3831770.0,597.0,597.0,1910.5,640.8,1920.0,1460.0,Object_Land_Solid_Large,10.68451345799258,16.69983266701456,4.0,Object_Land_Solid_Large,4.0,,,,,,,,,,,
encoding,value,19,3830128,3836143,3831787.0,3833139.0,1353.0,1353.0,1930.9,644.8,1920.0,1460.0,Object_Land_Solid_Large,10.68451345799258,16.69983266701456,4.0,Object_Land_Solid_Large,4.0,,,,,,,,,,,
encoding,value,19,3830128,3836143,3833160.0,3833636.0,477.0,477.0,1938.3,537.5999999999999,1920.0,1460.0,Object_Land_Solid_Large,10.68451345799258,16.69983266701456,4.0,Object_Land_Solid_Large,4.0,,,,,,,,,,,
encoding,value,19,3830128,3836143,3833661.0,3834241.0,581.0,581.0,1919.9,641.8,1920.0,1460.0,Object_Land_Solid_Large,10.68451345799258,16.69983266701456,4.0,Object_Land_Solid_Large,4.0,,,,,,,,,,,
encoding,value,19,3830128,3836143,3834260.0,3834685.0,426.0,426.0,1941.4,578.2,1920.0,1460.0,Object_Land_Solid_Large,10.68451345799258,16.69983266701456,4.0,Object_Land_Solid_Large,4.0,,,,,,,,,,,
encoding,value,19,3830128,3836143,3834706.0,3835683.0,978.0,978.0,1945.3,524.2,1920.0,1460.0,Object_Land_Solid_Large,10.68451345799258,16.69983266701456,4.0,Object_Land_Solid_Large,4.0,,,,,,,,,,,
encoding,value,19,3830128,3836143,3835703.0,3835828.0,126.0,126.0,1933.0,619.5,1920.0,1460.0,Object_Land_Solid_Large,10.68451345799258,16.69983266701456,4.0,Object_Land_Solid_Large,4.0,,,,,,,,,,,
encoding,value,19,3830128,3836143,3836026.0,3836286.0,261.0,117.0,1912.1,609.4000000000001,1920.0,1460.0,Object_Land_Solid_Large,10.68451345799258,16.69983266701456,4.0,Object_Land_Solid_Large,4.0,,,,,,,,,,,
encoding,attention,19,3836144,3839162,3836457.0,3836569.0,113.0,113.0,1920.6,541.3,1920.0,1460.0,Object_Land_Solid_Large,16.699999125034083,19.718331624986604,4.0,Object_Land_Solid_Large,4.0,4.0,1.0,1.0214536669664085,,,,,,,,
encoding,attention,19,3836144,3839162,3836594.0,3837453.0,860.0,860.0,1995.8,524.3,1920.0,1460.0,Object_Land_Solid_Large,16.699999125034083,19.718331624986604,4.0,Object_Land_Solid_Large,4.0,4.0,1.0,1.0214536669664085,,,,,,,,
encoding,attention,19,3836144,3839162,3837475.0,3837904.0,430.0,430.0,1943.8,643.5,1920.0,1460.0,Object_Land_Solid_Large,16.699999125034083,19.718331624986604,4.0,Object_Land_Solid_Large,4.0,4.0,1.0,1.0214536669664085,,,,,,,,
encoding,attention,19,3836144,3839162,3837917.0,3838582.0,666.0,666.0,1890.8,644.5999999999999,1920.0,1460.0,Object_Land_Solid_Large,16.699999125034083,19.718331624986604,4.0,Object_Land_Solid_Large,4.0,4.0,1.0,1.0214536669664085,,,,,,,,
encoding,attention,19,3836144,3839162,3838598.0,3838966.0,369.0,369.0,1951.2,633.2,1920.0,1460.0,Object_Land_Solid_Large,16.699999125034083,19.718331624986604,4.0,Object_Land_Solid_Large,4.0,4.0,1.0,1.0214536669664085,,,,,,,,
encoding,fixation,20,3839162,3840168,3839431.0,3840364.0,934.0,737.0,1933.8,1005.2,1920.0,1460.0,Object_Land_Solid_Large,19.718513125029855,20.723708375007845,4.0,Animal_Sea_Pattern_Small,9.0,,,,,,,,,,,
encoding,image,20,3840168,3841179,3840412.0,3840580.0,169.0,169.0,1609.8,1255.6,1591.0,891.0,Animal_Sea_Pattern_Small,20.72381783300079,21.735603958019055,4.0,Animal_Sea_Pattern_Small,9.0,,,,,,,,,,,
encoding,image,20,3840168,3841179,3840592.0,3840797.0,206.0,206.0,1609.6,1237.1,1591.0,891.0,Animal_Sea_Pattern_Small,20.72381783300079,21.735603958019055,4.0,Animal_Sea_Pattern_Small,9.0,,,,,,,,,,,
encoding,image,20,3840168,3841179,3840823.0,3841370.0,548.0,356.0,1649.6,1225.2,1591.0,891.0,Animal_Sea_Pattern_Small,20.72381783300079,21.735603958019055,4.0,Animal_Sea_Pattern_Small,9.0,,,,,,,,,,,
encoding,value,20,3841180,3847193,3841394.0,3841648.0,255.0,255.0,1592.6,1137.8,1591.0,891.0,Animal_Sea_Pattern_Small,21.73570566700073,27.74935358302901,4.0,Animal_Sea_Pattern_Small,9.0,,,,,,,,,,,
encoding,value,20,3841180,3847193,3841666.0,3841907.0,242.0,242.0,1604.9,1104.7,1591.0,891.0,Animal_Sea_Pattern_Small,21.73570566700073,27.74935358302901,4.0,Animal_Sea_Pattern_Small,9.0,,,,,,,,,,,
encoding,value,20,3841180,3847193,3841934.0,3842174.0,241.0,241.0,1617.3,1227.2,1591.0,891.0,Animal_Sea_Pattern_Small,21.73570566700073,27.74935358302901,4.0,Animal_Sea_Pattern_Small,9.0,,,,,,,,,,,
encoding,value,20,3841180,3847193,3842193.0,3843143.0,951.0,951.0,1634.6,1208.1,1591.0,891.0,Animal_Sea_Pattern_Small,21.73570566700073,27.74935358302901,4.0,Animal_Sea_Pattern_Small,9.0,,,,,,,,,,,
encoding,value,20,3841180,3847193,3843160.0,3843528.0,369.0,369.0,1609.3,1205.6,1591.0,891.0,Animal_Sea_Pattern_Small,21.73570566700073,27.74935358302901,4.0,Animal_Sea_Pattern_Small,9.0,,,,,,,,,,,
encoding,value,20,3841180,3847193,3843546.0,3844219.0,674.0,674.0,1635.7,1207.7,1591.0,891.0,Animal_Sea_Pattern_Small,21.73570566700073,27.74935358302901,4.0,Animal_Sea_Pattern_Small,9.0,,,,,,,,,,,
encoding,value,20,3841180,3847193,3844237.0,3844710.0,474.0,474.0,1643.6,1197.1,1591.0,891.0,Animal_Sea_Pattern_Small,21.73570566700073,27.74935358302901,4.0,Animal_Sea_Pattern_Small,9.0,,,,,,,,,,,
encoding,value,20,3841180,3847193,3844748.0,3846695.0,1948.0,1948.0,1598.8,1099.3,1591.0,891.0,Animal_Sea_Pattern_Small,21.73570566700073,27.74935358302901,4.0,Animal_Sea_Pattern_Small,9.0,,,,,,,,,,,
encoding,value,20,3841180,3847193,3846717.0,3847491.0,775.0,476.0,1608.7,1096.6,1591.0,891.0,Animal_Sea_Pattern_Small,21.73570566700073,27.74935358302901,4.0,Animal_Sea_Pattern_Small,9.0,,,,,,,,,,,
encoding,attention,20,3847194,3850217,3847517.0,3848799.0,1283.0,1283.0,1630.3,1080.9,1591.0,891.0,Animal_Sea_Pattern_Small,27.749474541982636,30.772781207982916,4.0,Animal_Sea_Pattern_Small,9.0,9.0,1.0,1.1424701670184731,,,,,,,,
encoding,attention,20,3847194,3850217,3848815.0,3848998.0,184.0,184.0,1624.0,1195.6,1591.0,891.0,Animal_Sea_Pattern_Small,27.749474541982636,30.772781207982916,4.0,Animal_Sea_Pattern_Small,9.0,9.0,1.0,1.1424701670184731,,,,,,,,
encoding,fixation,21,3850217,3850972,3850652.0,3851179.0,528.0,320.0,1944.3,1010.4000000000001,1920.0,1460.0,Object_Land_Solid_Large,30.772935417015105,31.527942874992732,4.0,Animal_Land_Solid_Small,-7.0,,,,,,,,,,,
encoding,image,21,3850972,3851983,3851243.0,3851376.0,134.0,134.0,2272.5,783.0999999999999,2249.0,1269.0,Animal_Land_Solid_Small,31.528086917009205,32.538486125005875,4.0,Animal_Land_Solid_Small,-7.0,,,,,,,,,,,
encoding,image,21,3850972,3851983,3851390.0,3851773.0,384.0,384.0,2299.5,822.2,2249.0,1269.0,Animal_Land_Solid_Small,31.528086917009205,32.538486125005875,4.0,Animal_Land_Solid_Small,-7.0,,,,,,,,,,,
encoding,value,21,3851983,3857995,3852010.0,3852238.0,229.0,229.0,2310.5,817.8,2249.0,1269.0,Animal_Land_Solid_Small,32.5386127079837,38.55095004203031,4.0,Animal_Land_Solid_Small,-7.0,,,,,,,,,,,
encoding,value,21,3851983,3857995,3852276.0,3852693.0,418.0,418.0,2262.5,694.0999999999999,2249.0,1269.0,Animal_Land_Solid_Small,32.5386127079837,38.55095004203031,4.0,Animal_Land_Solid_Small,-7.0,,,,,,,,,,,
encoding,value,21,3851983,3857995,3852720.0,3853757.0,1038.0,1038.0,2303.9,832.2,2249.0,1269.0,Animal_Land_Solid_Small,32.5386127079837,38.55095004203031,4.0,Animal_Land_Solid_Small,-7.0,,,,,,,,,,,
encoding,value,21,3851983,3857995,3853775.0,3854876.0,1102.0,1102.0,2275.8,812.7,2249.0,1269.0,Animal_Land_Solid_Small,32.5386127079837,38.55095004203031,4.0,Animal_Land_Solid_Small,-7.0,,,,,,,,,,,
encoding,value,21,3851983,3857995,3854904.0,3856530.0,1627.0,1627.0,2261.2,712.8,2249.0,1269.0,Animal_Land_Solid_Small,32.5386127079837,38.55095004203031,4.0,Animal_Land_Solid_Small,-7.0,,,,,,,,,,,
encoding,value,21,3851983,3857995,3856554.0,3856723.0,170.0,170.0,2054.2,670.0999999999999,1920.0,1460.0,Object_Land_Solid_Large,32.5386127079837,38.55095004203031,4.0,Animal_Land_Solid_Small,-7.0,,,,,,,,,,,
encoding,value,21,3851983,3857995,3856767.0,3857075.0,309.0,309.0,1731.6,1099.0,1591.0,891.0,Animal_Sea_Pattern_Small,32.5386127079837,38.55095004203031,4.0,Animal_Land_Solid_Small,-7.0,,,,,,,,,,,
encoding,value,21,3851983,3857995,3857127.0,3857329.0,203.0,203.0,2276.1,786.3,2249.0,1269.0,Animal_Land_Solid_Small,32.5386127079837,38.55095004203031,4.0,Animal_Land_Solid_Small,-7.0,,,,,,,,,,,
encoding,value,21,3851983,3857995,3857352.0,3857519.0,168.0,168.0,2271.5,724.0999999999999,2249.0,1269.0,Animal_Land_Solid_Small,32.5386127079837,38.55095004203031,4.0,Animal_Land_Solid_Small,-7.0,,,,,,,,,,,
encoding,value,21,3851983,3857995,3857538.0,3858126.0,589.0,457.0,2246.1,699.3,2249.0,1269.0,Animal_Land_Solid_Small,32.5386127079837,38.55095004203031,4.0,Animal_Land_Solid_Small,-7.0,,,,,,,,,,,
encoding,attention,21,3857996,3861016,3858143.0,3858320.0,178.0,178.0,2267.2,697.8,2249.0,1269.0,Animal_Land_Solid_Small,38.55107562500052,41.57086320803501,4.0,Animal_Land_Solid_Small,-7.0,-7.0,1.0,0.6249415840138681,,,,,,,,
encoding,attention,21,3857996,3861016,3858339.0,3859105.0,767.0,767.0,2299.5,702.2,2249.0,1269.0,Animal_Land_Solid_Small,38.55107562500052,41.57086320803501,4.0,Animal_Land_Solid_Small,-7.0,-7.0,1.0,0.6249415840138681,,,,,,,,
encoding,attention,21,3857996,3861016,3859128.0,3859391.0,264.0,264.0,2296.1,809.2,2249.0,1269.0,Animal_Land_Solid_Small,38.55107562500052,41.57086320803501,4.0,Animal_Land_Solid_Small,-7.0,-7.0,1.0,0.6249415840138681,,,,,,,,
encoding,attention,21,3857996,3861016,3859438.0,3860038.0,601.0,601.0,1864.3,741.0999999999999,1920.0,1460.0,Object_Land_Solid_Large,38.55107562500052,41.57086320803501,4.0,Animal_Land_Solid_Small,-7.0,-7.0,1.0,0.6249415840138681,,,,,,,,
encoding,attention,21,3857996,3861016,3860086.0,3860441.0,356.0,356.0,1653.6,1196.1,1591.0,891.0,Animal_Sea_Pattern_Small,38.55107562500052,41.57086320803501,4.0,Animal_Land_Solid_Small,-7.0,-7.0,1.0,0.6249415840138681,,,,,,,,
encoding,attention,21,3857996,3861016,3860474.0,3860573.0,100.0,100.0,1772.3,1172.3,1591.0,891.0,Animal_Sea_Pattern_Small,38.55107562500052,41.57086320803501,4.0,Animal_Land_Solid_Small,-7.0,-7.0,1.0,0.6249415840138681,,,,,,,,
encoding,attention,21,3857996,3861016,3860640.0,3860871.0,232.0,232.0,1996.1,620.5,1920.0,1460.0,Object_Land_Solid_Large,38.55107562500052,41.57086320803501,4.0,Animal_Land_Solid_Small,-7.0,-7.0,1.0,0.6249415840138681,,,,,,,,
encoding,fixation,22,3861016,3862521,3861149.0,3861314.0,166.0,166.0,2273.8,694.9000000000001,2249.0,1269.0,Animal_Land_Solid_Small,41.57102054200368,43.076119958015624,4.0,Animal_Sea_Solid_Small,-8.0,,,,,,,,,,,
encoding,fixation,22,3861016,3862521,3861352.0,3861707.0,356.0,356.0,1966.4,944.5,1920.0,1460.0,Object_Land_Solid_Large,41.57102054200368,43.076119958015624,4.0,Animal_Sea_Solid_Small,-8.0,,,,,,,,,,,
encoding,fixation,22,3861016,3862521,3861735.0,3862427.0,693.0,693.0,1937.5,973.0,1920.0,1460.0,Object_Land_Solid_Large,41.57102054200368,43.076119958015624,4.0,Animal_Sea_Solid_Small,-8.0,,,,,,,,,,,
encoding,fixation,22,3861016,3862521,3862496.0,3863337.0,842.0,25.0,1971.3,633.0,1920.0,1460.0,Object_Land_Solid_Large,41.57102054200368,43.076119958015624,4.0,Animal_Sea_Solid_Small,-8.0,,,,,,,,,,,
encoding,image,22,3862521,3863532,3863388.0,3863998.0,611.0,144.0,1666.7,1204.0,1591.0,891.0,Animal_Sea_Pattern_Small,43.07627741701435,44.087384167010896,4.0,Animal_Sea_Solid_Small,-8.0,,,,,,,,,,,
encoding,value,22,3863532,3869545,3864051.0,3864372.0,322.0,322.0,1983.3,649.0,1920.0,1460.0,Object_Land_Solid_Large,44.08750012499513,50.09947920800187,4.0,Animal_Sea_Solid_Small,-8.0,,,,,,,,,,,
encoding,value,22,3863532,3869545,3864414.0,3864614.0,201.0,201.0,1921.1,921.4000000000001,1920.0,1460.0,Object_Land_Solid_Large,44.08750012499513,50.09947920800187,4.0,Animal_Sea_Solid_Small,-8.0,,,,,,,,,,,
encoding,value,22,3863532,3869545,3864635.0,3865563.0,929.0,929.0,1925.8,985.4000000000001,1920.0,1460.0,Object_Land_Solid_Large,44.08750012499513,50.09947920800187,4.0,Animal_Sea_Solid_Small,-8.0,,,,,,,,,,,
encoding,value,22,3863532,3869545,3865595.0,3865775.0,181.0,181.0,1539.0,1196.3,1591.0,891.0,Animal_Sea_Pattern_Small,44.08750012499513,50.09947920800187,4.0,Animal_Sea_Solid_Small,-8.0,,,,,,,,,,,
encoding,value,22,3863532,3869545,3865833.0,3865944.0,112.0,112.0,1982.8,1161.6,2249.0,891.0,Object_Sea_Pattern_Large,44.08750012499513,50.09947920800187,4.0,Animal_Sea_Solid_Small,-8.0,,,,,,,,,,,
encoding,value,22,3863532,3869545,3866003.0,3866212.0,210.0,210.0,2321.1,763.3,2249.0,1269.0,Animal_Land_Solid_Small,44.08750012499513,50.09947920800187,4.0,Animal_Sea_Solid_Small,-8.0,,,,,,,,,,,
encoding,value,22,3863532,3869545,3866279.0,3866495.0,217.0,217.0,1964.3,1266.1,1920.0,700.0,Animal_Sea_Solid_Small,44.08750012499513,50.09947920800187,4.0,Animal_Sea_Solid_Small,-8.0,,,,,,,,,,,
encoding,value,22,3863532,3869545,3866527.0,3867917.0,1391.0,1391.0,1944.9,1414.7,1920.0,700.0,Animal_Sea_Solid_Small,44.08750012499513,50.09947920800187,4.0,Animal_Sea_Solid_Small,-8.0,,,,,,,,,,,
encoding,value,22,3863532,3869545,3867943.0,3869961.0,2019.0,1602.0,1941.7,1292.7,1920.0,700.0,Animal_Sea_Solid_Small,44.08750012499513,50.09947920800187,4.0,Animal_Sea_Solid_Small,-8.0,,,,,,,,,,,
encoding,attention,22,3869545,3872557,3869992.0,3870995.0,1004.0,1004.0,1960.2,1279.1,1920.0,700.0,Animal_Sea_Solid_Small,50.09965404198738,53.11213745799614,4.0,Animal_Sea_Solid_Small,-8.0,,,,,,,,,,,
encoding,attention,22,3869545,3872557,3871016.0,3871289.0,274.0,274.0,1982.0,1265.3,1920.0,700.0,Animal_Sea_Solid_Small,50.09965404198738,53.11213745799614,4.0,Animal_Sea_Solid_Small,-8.0,,,,,,,,,,,
encoding,attention,22,3869545,3872557,3871470.0,3871754.0,285.0,285.0,1995.4,1259.0,1920.0,700.0,Animal_Sea_Solid_Small,50.09965404198738,53.11213745799614,4.0,Animal_Sea_Solid_Small,-8.0,,,,,,,,,,,
encoding,fixation,23,3872557,3873813,3872827.0,3873049.0,223.0,223.0,1927.7,1113.2,1920.0,1080.0,fixation,53.112258917011786,54.36720045801485,4.0,Object_Land_Pattern_Large,2.0,,,,,,,,,,,
encoding,fixation,23,3872557,3873813,3873090.0,3873913.0,824.0,723.0,1927.1,978.9000000000001,1920.0,1460.0,Object_Land_Solid_Large,53.112258917011786,54.36720045801485,4.0,Object_Land_Pattern_Large,2.0,,,,,,,,,,,
encoding,image,23,3873813,3874824,3873932.0,3874163.0,232.0,232.0,1940.4,969.5999999999999,1920.0,1460.0,Object_Land_Solid_Large,54.36731145798694,55.37874712503981,4.0,Object_Land_Pattern_Large,2.0,,,,,,,,,,,
encoding,image,23,3873813,3874824,3874211.0,3874592.0,382.0,382.0,1610.8,789.4000000000001,1591.0,1269.0,Object_Land_Pattern_Large,54.36731145798694,55.37874712503981,4.0,Object_Land_Pattern_Large,2.0,,,,,,,,,,,
encoding,image,23,3873813,3874824,3874617.0,3874848.0,232.0,207.0,1625.8,799.3,1591.0,1269.0,Object_Land_Pattern_Large,54.36731145798694,55.37874712503981,4.0,Object_Land_Pattern_Large,2.0,,,,,,,,,,,
encoding,value,23,3874824,3880838,3875125.0,3875299.0,175.0,175.0,1589.0,832.8,1591.0,1269.0,Object_Land_Pattern_Large,55.37884958303766,61.39180983300321,4.0,Object_Land_Pattern_Large,2.0,,,,,,,,,,,
encoding,value,23,3874824,3880838,3875325.0,3876013.0,689.0,689.0,1635.6,705.9000000000001,1591.0,1269.0,Object_Land_Pattern_Large,55.37884958303766,61.39180983300321,4.0,Object_Land_Pattern_Large,2.0,,,,,,,,,,,
encoding,value,23,3874824,3880838,3876030.0,3877533.0,1504.0,1504.0,1628.2,825.0999999999999,1591.0,1269.0,Object_Land_Pattern_Large,55.37884958303766,61.39180983300321,4.0,Object_Land_Pattern_Large,2.0,,,,,,,,,,,
encoding,value,23,3874824,3880838,3877541.0,3878579.0,1039.0,1039.0,1640.6,836.5999999999999,1591.0,1269.0,Object_Land_Pattern_Large,55.37884958303766,61.39180983300321,4.0,Object_Land_Pattern_Large,2.0,,,,,,,,,,,
encoding,value,23,3874824,3880838,3878615.0,3880260.0,1646.0,1646.0,1637.1,713.0999999999999,1591.0,1269.0,Object_Land_Pattern_Large,55.37884958303766,61.39180983300321,4.0,Object_Land_Pattern_Large,2.0,,,,,,,,,,,
encoding,value,23,3874824,3880838,3880276.0,3880758.0,483.0,483.0,1629.7,799.9000000000001,1591.0,1269.0,Object_Land_Pattern_Large,55.37884958303766,61.39180983300321,4.0,Object_Land_Pattern_Large,2.0,,,,,,,,,,,
encoding,value,23,3874824,3880838,3880792.0,3881326.0,535.0,46.0,1624.6,714.2,1591.0,1269.0,Object_Land_Pattern_Large,55.37884958303766,61.39180983300321,4.0,Object_Land_Pattern_Large,2.0,,,,,,,,,,,
encoding,attention,23,3880838,3883855,3881354.0,3881888.0,535.0,535.0,1674.7,715.5,1591.0,1269.0,Object_Land_Pattern_Large,61.39201833301922,64.40946824999992,4.0,Object_Land_Pattern_Large,2.0,2.0,1.0,0.6820605419925414,,,,,,,,
encoding,attention,23,3880838,3883855,3881913.0,3883306.0,1394.0,1394.0,1631.9,800.0,1591.0,1269.0,Object_Land_Pattern_Large,61.39201833301922,64.40946824999992,4.0,Object_Land_Pattern_Large,2.0,2.0,1.0,0.6820605419925414,,,,,,,,
encoding,fixation,24,3883855,3884861,3884152.0,3884380.0,229.0,229.0,1932.1,1000.5999999999999,1920.0,1460.0,Object_Land_Solid_Large,64.40961412503384,65.4150613329839,4.0,Object_Sea_Pattern_Large,-9.0,,,,,,,,,,,
encoding,fixation,24,3883855,3884861,3884556.0,3885245.0,690.0,305.0,2043.7,1386.6,1920.0,700.0,Animal_Sea_Solid_Small,64.40961412503384,65.4150613329839,4.0,Object_Sea_Pattern_Large,-9.0,,,,,,,,,,,
encoding,image,24,3884861,3885871,3885276.0,3885626.0,351.0,351.0,2250.8,1183.0,2249.0,891.0,Object_Sea_Pattern_Large,65.415172292036,66.42542908299947,4.0,Object_Sea_Pattern_Large,-9.0,,,,,,,,,,,
encoding,image,24,3884861,3885871,3885654.0,3886298.0,645.0,217.0,2262.6,1123.1,2249.0,891.0,Object_Sea_Pattern_Large,65.415172292036,66.42542908299947,4.0,Object_Sea_Pattern_Large,-9.0,,,,,,,,,,,
encoding,value,24,3885871,3891883,3886320.0,3887202.0,883.0,883.0,2276.6,1168.8,2249.0,891.0,Object_Sea_Pattern_Large,66.42553537501954,72.43673954199767,4.0,Object_Sea_Pattern_Large,-9.0,,,,,,,,,,,
encoding,value,24,3885871,3891883,3887445.0,3887596.0,152.0,152.0,2250.5,1156.7,2249.0,891.0,Object_Sea_Pattern_Large,66.42553537501954,72.43673954199767,4.0,Object_Sea_Pattern_Large,-9.0,,,,,,,,,,,
encoding,value,24,3885871,3891883,3887630.0,3888133.0,504.0,504.0,2262.1,1064.6,2249.0,1269.0,Animal_Land_Solid_Small,66.42553537501954,72.43673954199767,4.0,Object_Sea_Pattern_Large,-9.0,,,,,,,,,,,
encoding,value,24,3885871,3891883,3888153.0,3888711.0,559.0,559.0,2271.9,1146.4,2249.0,891.0,Object_Sea_Pattern_Large,66.42553537501954,72.43673954199767,4.0,Object_Sea_Pattern_Large,-9.0,,,,,,,,,,,
encoding,value,24,3885871,3891883,3888747.0,3890078.0,1332.0,1332.0,2266.5,1069.8,2249.0,1269.0,Animal_Land_Solid_Small,66.42553537501954,72.43673954199767,4.0,Object_Sea_Pattern_Large,-9.0,,,,,,,,,,,
encoding,value,24,3885871,3891883,3890099.0,3891065.0,967.0,967.0,2258.6,1178.9,2249.0,891.0,Object_Sea_Pattern_Large,66.42553537501954,72.43673954199767,4.0,Object_Sea_Pattern_Large,-9.0,,,,,,,,,,,
encoding,value,24,3885871,3891883,3891098.0,3892238.0,1141.0,785.0,2256.9,1073.5,2249.0,1269.0,Animal_Land_Solid_Small,66.42553537501954,72.43673954199767,4.0,Object_Sea_Pattern_Large,-9.0,,,,,,,,,,,
encoding,attention,24,3891883,3894900,3892260.0,3892524.0,265.0,265.0,2203.2,1068.7,2249.0,1269.0,Animal_Land_Solid_Small,72.43685841700062,75.45402970799478,4.0,Object_Sea_Pattern_Large,-9.0,-9.0,1.0,1.2696932920371182,,,,,,,,
encoding,attention,24,3891883,3894900,3892549.0,3892828.0,280.0,280.0,2254.5,1145.3,2249.0,891.0,Object_Sea_Pattern_Large,72.43685841700062,75.45402970799478,4.0,Object_Sea_Pattern_Large,-9.0,-9.0,1.0,1.2696932920371182,,,,,,,,
encoding,attention,24,3891883,3894900,3892854.0,3893976.0,1123.0,1123.0,2274.0,1186.2,2249.0,891.0,Object_Sea_Pattern_Large,72.43685841700062,75.45402970799478,4.0,Object_Sea_Pattern_Large,-9.0,-9.0,1.0,1.2696932920371182,,,,,,,,
encoding,attention,24,3891883,3894900,3893999.0,3894177.0,179.0,179.0,2245.3,1141.0,2249.0,891.0,Object_Sea_Pattern_Large,72.43685841700062,75.45402970799478,4.0,Object_Sea_Pattern_Large,-9.0,-9.0,1.0,1.2696932920371182,,,,,,,,
encoding,fixation,25,4230866,4231621,4231110.0,4231701.0,592.0,511.0,1898.2,1009.2,1920.0,1460.0,Animal_Sea_Pattern_Large,5.724932958954014,6.480024624965154,5.0,Object_Land_Solid_Small,-4.0,,,,,,,,,,,
encoding,image,25,4231621,4232633,4231743.0,4231865.0,123.0,123.0,1947.0,1259.8,1920.0,700.0,Object_Sea_Solid_Small,6.480134666955564,7.492140791960992,5.0,Object_Land_Solid_Small,-4.0,,,,,,,,,,,
encoding,image,25,4231621,4232633,4231911.0,4232289.0,379.0,379.0,2218.7,872.8,2249.0,1269.0,Object_Land_Solid_Small,6.480134666955564,7.492140791960992,5.0,Object_Land_Solid_Small,-4.0,,,,,,,,,,,
encoding,image,25,4231621,4232633,4232314.0,4232815.0,502.0,319.0,2246.5,866.0999999999999,2249.0,1269.0,Object_Land_Solid_Small,6.480134666955564,7.492140791960992,5.0,Object_Land_Solid_Small,-4.0,,,,,,,,,,,
encoding,value,25,4232633,4238647,4232840.0,4233243.0,404.0,404.0,2270.2,796.2,2249.0,1269.0,Object_Land_Solid_Small,7.492269708949607,13.506130583991762,5.0,Object_Land_Solid_Small,-4.0,,,,,,,,,,,
encoding,value,25,4232633,4238647,4233258.0,4235135.0,1878.0,1878.0,2231.5,882.7,2249.0,1269.0,Object_Land_Solid_Small,7.492269708949607,13.506130583991762,5.0,Object_Land_Solid_Small,-4.0,,,,,,,,,,,
encoding,value,25,4232633,4238647,4235155.0,4236475.0,1321.0,1321.0,2243.3,878.2,2249.0,1269.0,Object_Land_Solid_Small,7.492269708949607,13.506130583991762,5.0,Object_Land_Solid_Small,-4.0,,,,,,,,,,,
encoding,value,25,4232633,4238647,4236643.0,4237004.0,362.0,362.0,2226.3,883.9000000000001,2249.0,1269.0,Object_Land_Solid_Small,7.492269708949607,13.506130583991762,5.0,Object_Land_Solid_Small,-4.0,,,,,,,,,,,
encoding,value,25,4232633,4238647,4237032.0,4238447.0,1416.0,1416.0,2253.5,885.5,2249.0,1269.0,Object_Land_Solid_Small,7.492269708949607,13.506130583991762,5.0,Object_Land_Solid_Small,-4.0,,,,,,,,,,,
encoding,value,25,4232633,4238647,4238475.0,4238767.0,293.0,172.0,2273.4,878.3,2249.0,1269.0,Object_Land_Solid_Small,7.492269708949607,13.506130583991762,5.0,Object_Land_Solid_Small,-4.0,,,,,,,,,,,
encoding,attention,25,4238648,4241665,4238781.0,4239174.0,394.0,394.0,2224.8,898.4000000000001,2249.0,1269.0,Object_Land_Solid_Small,13.506310333963484,16.523811708961148,5.0,Object_Land_Solid_Small,-4.0,-4.0,1.0,2.031461375008803,,,,,,,,
encoding,attention,25,4238648,4241665,4239211.0,4239346.0,136.0,136.0,2214.0,799.2,2249.0,1269.0,Object_Land_Solid_Small,13.506310333963484,16.523811708961148,5.0,Object_Land_Solid_Small,-4.0,-4.0,1.0,2.031461375008803,,,,,,,,
encoding,attention,25,4238648,4241665,4239362.0,4240987.0,1626.0,1626.0,2183.2,799.2,2249.0,1269.0,Object_Land_Solid_Small,13.506310333963484,16.523811708961148,5.0,Object_Land_Solid_Small,-4.0,-4.0,1.0,2.031461375008803,,,,,,,,
encoding,attention,25,4238648,4241665,4241009.0,4241384.0,376.0,376.0,2236.3,876.4000000000001,2249.0,1269.0,Object_Land_Solid_Small,13.506310333963484,16.523811708961148,5.0,Object_Land_Solid_Small,-4.0,-4.0,1.0,2.031461375008803,,,,,,,,
encoding,fixation,26,4241665,4242921,4242149.0,4242308.0,160.0,160.0,1882.8,1095.0,1920.0,1080.0,fixation,16.523972208960913,17.779330916993786,5.0,Animal_Sea_Pattern_Large,5.0,,,,,,,,,,,
encoding,fixation,26,4241665,4242921,4242328.0,4243145.0,818.0,593.0,1915.1,1055.5,1920.0,1080.0,fixation,16.523972208960913,17.779330916993786,5.0,Animal_Sea_Pattern_Large,5.0,,,,,,,,,,,
encoding,image,26,4242921,4243931,4243195.0,4244064.0,870.0,736.0,1872.4,730.0,1920.0,1460.0,Animal_Sea_Pattern_Large,17.779435291944537,18.789814791991375,5.0,Animal_Sea_Pattern_Large,5.0,,,,,,,,,,,
encoding,value,26,4243931,4249943,4244097.0,4244228.0,132.0,132.0,1916.4,690.2,1920.0,1460.0,Animal_Sea_Pattern_Large,18.78993733396055,24.801234458980616,5.0,Animal_Sea_Pattern_Large,5.0,,,,,,,,,,,
encoding,value,26,4243931,4249943,4244247.0,4244705.0,459.0,459.0,1918.6,626.4000000000001,1920.0,1460.0,Animal_Sea_Pattern_Large,18.78993733396055,24.801234458980616,5.0,Animal_Sea_Pattern_Large,5.0,,,,,,,,,,,
encoding,value,26,4243931,4249943,4244728.0,4245007.0,280.0,280.0,1871.3,703.7,1920.0,1460.0,Animal_Sea_Pattern_Large,18.78993733396055,24.801234458980616,5.0,Animal_Sea_Pattern_Large,5.0,,,,,,,,,,,
encoding,value,26,4243931,4249943,4245025.0,4245351.0,327.0,327.0,1842.1,717.5,1920.0,1460.0,Animal_Sea_Pattern_Large,18.78993733396055,24.801234458980616,5.0,Animal_Sea_Pattern_Large,5.0,,,,,,,,,,,
encoding,value,26,4243931,4249943,4245374.0,4247920.0,2547.0,2547.0,1923.4,629.5,1920.0,1460.0,Animal_Sea_Pattern_Large,18.78993733396055,24.801234458980616,5.0,Animal_Sea_Pattern_Large,5.0,,,,,,,,,,,
encoding,value,26,4243931,4249943,4247939.0,4248415.0,477.0,477.0,1921.3,628.0999999999999,1920.0,1460.0,Animal_Sea_Pattern_Large,18.78993733396055,24.801234458980616,5.0,Animal_Sea_Pattern_Large,5.0,,,,,,,,,,,
encoding,value,26,4243931,4249943,4248430.0,4248714.0,285.0,285.0,1894.8,695.0999999999999,1920.0,1460.0,Animal_Sea_Pattern_Large,18.78993733396055,24.801234458980616,5.0,Animal_Sea_Pattern_Large,5.0,,,,,,,,,,,
encoding,value,26,4243931,4249943,4248727.0,4248957.0,231.0,231.0,1844.6,712.5999999999999,1920.0,1460.0,Animal_Sea_Pattern_Large,18.78993733396055,24.801234458980616,5.0,Animal_Sea_Pattern_Large,5.0,,,,,,,,,,,
encoding,value,26,4243931,4249943,4248993.0,4249541.0,549.0,549.0,1925.0,635.5999999999999,1920.0,1460.0,Animal_Sea_Pattern_Large,18.78993733396055,24.801234458980616,5.0,Animal_Sea_Pattern_Large,5.0,,,,,,,,,,,
encoding,value,26,4243931,4249943,4249559.0,4250150.0,592.0,384.0,1876.4,714.8,1920.0,1460.0,Animal_Sea_Pattern_Large,18.78993733396055,24.801234458980616,5.0,Animal_Sea_Pattern_Large,5.0,,,,,,,,,,,
encoding,attention,26,4249943,4252960,4250164.0,4250324.0,161.0,161.0,1914.5,635.5999999999999,1920.0,1460.0,Animal_Sea_Pattern_Large,24.8013669999782,27.817959041974973,5.0,Animal_Sea_Pattern_Large,5.0,5.0,1.0,1.7048740000464022,,,,,,,,
encoding,attention,26,4249943,4252960,4250343.0,4252057.0,1715.0,1715.0,1868.2,627.4000000000001,1920.0,1460.0,Animal_Sea_Pattern_Large,24.8013669999782,27.817959041974973,5.0,Animal_Sea_Pattern_Large,5.0,5.0,1.0,1.7048740000464022,,,,,,,,
encoding,attention,26,4249943,4252960,4252081.0,4252213.0,133.0,133.0,1974.1,627.0,1920.0,1460.0,Animal_Sea_Pattern_Large,24.8013669999782,27.817959041974973,5.0,Animal_Sea_Pattern_Large,5.0,5.0,1.0,1.7048740000464022,,,,,,,,
encoding,fixation,27,4252960,4253465,,,,,,,,,none,27.818107083963696,28.323358958994504,5.0,Animal_Land_Pattern_Large,-9.0,,,,,,,,,,,
encoding,image,27,4253465,4254478,4253711.0,4253895.0,185.0,185.0,2229.2,1274.0,2249.0,891.0,Animal_Land_Pattern_Large,28.32346524996683,29.33571120898705,5.0,Animal_Land_Pattern_Large,-9.0,,,,,,,,,,,
encoding,image,27,4253465,4254478,4253911.0,4254313.0,403.0,403.0,2210.0,1288.3,2249.0,891.0,Animal_Land_Pattern_Large,28.32346524996683,29.33571120898705,5.0,Animal_Land_Pattern_Large,-9.0,,,,,,,,,,,
encoding,image,27,4253465,4254478,4254329.0,4254711.0,383.0,149.0,2268.5,1275.0,2249.0,891.0,Animal_Land_Pattern_Large,28.32346524996683,29.33571120898705,5.0,Animal_Land_Pattern_Large,-9.0,,,,,,,,,,,
encoding,value,27,4254478,4260490,4254733.0,4256062.0,1330.0,1330.0,2264.3,1156.5,2249.0,891.0,Animal_Land_Pattern_Large,29.33582637499785,35.347287124954164,5.0,Animal_Land_Pattern_Large,-9.0,,,,,,,,,,,
encoding,value,27,4254478,4260490,4256084.0,4256296.0,213.0,213.0,2218.9,1248.9,2249.0,891.0,Animal_Land_Pattern_Large,29.33582637499785,35.347287124954164,5.0,Animal_Land_Pattern_Large,-9.0,,,,,,,,,,,
encoding,value,27,4254478,4260490,4256308.0,4256520.0,213.0,213.0,2210.1,1263.4,2249.0,891.0,Animal_Land_Pattern_Large,29.33582637499785,35.347287124954164,5.0,Animal_Land_Pattern_Large,-9.0,,,,,,,,,,,
encoding,value,27,4254478,4260490,4256539.0,4257153.0,615.0,615.0,2192.7,1274.1,2249.0,891.0,Animal_Land_Pattern_Large,29.33582637499785,35.347287124954164,5.0,Animal_Land_Pattern_Large,-9.0,,,,,,,,,,,
encoding,value,27,4254478,4260490,4257181.0,4260759.0,3579.0,3309.0,2244.3,1137.2,2249.0,891.0,Animal_Land_Pattern_Large,29.33582637499785,35.347287124954164,5.0,Animal_Land_Pattern_Large,-9.0,,,,,,,,,,,
encoding,attention,27,4260490,4263507,4260778.0,4260870.0,93.0,93.0,2208.0,1144.7,2249.0,891.0,Animal_Land_Pattern_Large,35.347432249982376,38.36426091694739,5.0,Animal_Land_Pattern_Large,-9.0,-9.0,1.0,0.8538694999879226,,,,,,,,
encoding,attention,27,4260490,4263507,4260894.0,4263356.0,2463.0,2463.0,2291.6,1162.6,2249.0,891.0,Animal_Land_Pattern_Large,35.347432249982376,38.36426091694739,5.0,Animal_Land_Pattern_Large,-9.0,-9.0,1.0,0.8538694999879226,,,,,,,,
encoding,fixation,28,4263507,4264262,4263840.0,4264037.0,198.0,198.0,1897.3,1048.7,1920.0,1080.0,fixation,38.364434999995865,39.11964612494921,5.0,Object_Sea_Pattern_Small,9.0,,,,,,,,,,,
encoding,fixation,28,4263507,4264262,4264101.0,4264376.0,276.0,161.0,1921.0,825.8,1920.0,1460.0,Animal_Sea_Pattern_Large,38.364434999995865,39.11964612494921,5.0,Object_Sea_Pattern_Small,9.0,,,,,,,,,,,
encoding,image,28,4264262,4265273,4264414.0,4264608.0,195.0,195.0,1871.3,1069.6,1920.0,1080.0,fixation,39.119763708964456,40.130936292000115,5.0,Object_Sea_Pattern_Small,9.0,,,,,,,,,,,
encoding,image,28,4264262,4265273,4264650.0,4265082.0,433.0,433.0,1552.5,1217.3,1591.0,891.0,Object_Sea_Pattern_Small,39.119763708964456,40.130936292000115,5.0,Object_Sea_Pattern_Small,9.0,,,,,,,,,,,
encoding,image,28,4264262,4265273,4265093.0,4265701.0,609.0,180.0,1560.2,1236.0,1591.0,891.0,Object_Sea_Pattern_Small,39.119763708964456,40.130936292000115,5.0,Object_Sea_Pattern_Small,9.0,,,,,,,,,,,
encoding,value,28,4265274,4271285,4265719.0,4266008.0,290.0,290.0,1585.7,1230.8,1591.0,891.0,Object_Sea_Pattern_Small,40.131060166982934,46.14243724994594,5.0,Object_Sea_Pattern_Small,9.0,,,,,,,,,,,
encoding,value,28,4265274,4271285,4266027.0,4266284.0,258.0,258.0,1603.5,1231.5,1591.0,891.0,Object_Sea_Pattern_Small,40.131060166982934,46.14243724994594,5.0,Object_Sea_Pattern_Small,9.0,,,,,,,,,,,
encoding,value,28,4265274,4271285,4266323.0,4266954.0,632.0,632.0,1589.6,1136.9,1591.0,891.0,Object_Sea_Pattern_Small,40.131060166982934,46.14243724994594,5.0,Object_Sea_Pattern_Small,9.0,,,,,,,,,,,
encoding,value,28,4265274,4271285,4267197.0,4267232.0,36.0,36.0,1552.1,1296.6,1591.0,891.0,Object_Sea_Pattern_Small,40.131060166982934,46.14243724994594,5.0,Object_Sea_Pattern_Small,9.0,,,,,,,,,,,
encoding,value,28,4265274,4271285,4267239.0,4267290.0,52.0,52.0,1543.1,1267.6,1591.0,891.0,Object_Sea_Pattern_Small,40.131060166982934,46.14243724994594,5.0,Object_Sea_Pattern_Small,9.0,,,,,,,,,,,
encoding,value,28,4265274,4271285,4267432.0,4268515.0,1084.0,1084.0,1580.5,1219.5,1591.0,891.0,Object_Sea_Pattern_Small,40.131060166982934,46.14243724994594,5.0,Object_Sea_Pattern_Small,9.0,,,,,,,,,,,
encoding,value,28,4265274,4271285,4268541.0,4269136.0,596.0,596.0,1582.5,1225.2,1591.0,891.0,Object_Sea_Pattern_Small,40.131060166982934,46.14243724994594,5.0,Object_Sea_Pattern_Small,9.0,,,,,,,,,,,
encoding,value,28,4265274,4271285,4269161.0,4270670.0,1510.0,1510.0,1571.3,1126.0,1591.0,891.0,Object_Sea_Pattern_Small,40.131060166982934,46.14243724994594,5.0,Object_Sea_Pattern_Small,9.0,,,,,,,,,,,
encoding,value,28,4265274,4271285,4270691.0,4271252.0,562.0,562.0,1556.9,1245.8,1591.0,891.0,Object_Sea_Pattern_Small,40.131060166982934,46.14243724994594,5.0,Object_Sea_Pattern_Small,9.0,,,,,,,,,,,
encoding,value,28,4265274,4271285,4271278.0,4271524.0,247.0,7.0,1593.6,1108.4,1591.0,891.0,Object_Sea_Pattern_Small,40.131060166982934,46.14243724994594,5.0,Object_Sea_Pattern_Small,9.0,,,,,,,,,,,
encoding,attention,28,4271285,4274306,4271536.0,4271650.0,115.0,115.0,1624.2,1140.2,1591.0,891.0,Object_Sea_Pattern_Small,46.14254929195158,49.162888666964136,5.0,Object_Sea_Pattern_Small,9.0,9.0,1.0,2.723246250010561,,,,,,,,
encoding,attention,28,4271285,4274306,4271675.0,4272418.0,744.0,744.0,1509.6,1139.2,1591.0,891.0,Object_Sea_Pattern_Small,46.14254929195158,49.162888666964136,5.0,Object_Sea_Pattern_Small,9.0,9.0,1.0,2.723246250010561,,,,,,,,
encoding,fixation,29,4274306,4274812,4274718.0,4275013.0,296.0,94.0,1879.5,1057.0,1920.0,1080.0,fixation,49.16302708396688,49.6685472499812,5.0,Object_Sea_Solid_Small,-2.0,,,,,,,,,,,
encoding,image,29,4274812,4275821,4275062.0,4276246.0,1185.0,759.0,1906.0,1430.2,1920.0,700.0,Object_Sea_Solid_Small,49.66868554195389,50.67805916699581,5.0,Object_Sea_Solid_Small,-2.0,,,,,,,,,,,
encoding,value,29,4275821,4281832,4276282.0,4276451.0,170.0,170.0,1927.8,1284.9,1920.0,700.0,Object_Sea_Solid_Small,50.678170041996054,56.68850374995964,5.0,Object_Sea_Solid_Small,-2.0,,,,,,,,,,,
encoding,value,29,4275821,4281832,4276470.0,4276702.0,233.0,233.0,1905.9,1297.7,1920.0,700.0,Object_Sea_Solid_Small,50.678170041996054,56.68850374995964,5.0,Object_Sea_Solid_Small,-2.0,,,,,,,,,,,
encoding,value,29,4275821,4281832,4276720.0,4277244.0,525.0,525.0,1908.3,1312.6,1920.0,700.0,Object_Sea_Solid_Small,50.678170041996054,56.68850374995964,5.0,Object_Sea_Solid_Small,-2.0,,,,,,,,,,,
encoding,value,29,4275821,4281832,4277462.0,4277979.0,518.0,518.0,1912.6,1444.7,1920.0,700.0,Object_Sea_Solid_Small,50.678170041996054,56.68850374995964,5.0,Object_Sea_Solid_Small,-2.0,,,,,,,,,,,
encoding,value,29,4275821,4281832,4278001.0,4278773.0,773.0,773.0,1917.3,1449.2,1920.0,700.0,Object_Sea_Solid_Small,50.678170041996054,56.68850374995964,5.0,Object_Sea_Solid_Small,-2.0,,,,,,,,,,,
encoding,value,29,4275821,4281832,4278816.0,4279749.0,934.0,934.0,1915.4,1302.4,1920.0,700.0,Object_Sea_Solid_Small,50.678170041996054,56.68850374995964,5.0,Object_Sea_Solid_Small,-2.0,,,,,,,,,,,
encoding,value,29,4275821,4281832,4279776.0,4280283.0,508.0,508.0,1936.0,1426.8,1920.0,700.0,Object_Sea_Solid_Small,50.678170041996054,56.68850374995964,5.0,Object_Sea_Solid_Small,-2.0,,,,,,,,,,,
encoding,value,29,4275821,4281832,4280312.0,4280421.0,110.0,110.0,1916.0,1250.3,1920.0,700.0,Object_Sea_Solid_Small,50.678170041996054,56.68850374995964,5.0,Object_Sea_Solid_Small,-2.0,,,,,,,,,,,
encoding,value,29,4275821,4281832,4280433.0,4282071.0,1639.0,1399.0,1919.0,1300.1,1920.0,700.0,Object_Sea_Solid_Small,50.678170041996054,56.68850374995964,5.0,Object_Sea_Solid_Small,-2.0,,,,,,,,,,,
encoding,attention,29,4281832,4284850,4282100.0,4284562.0,2463.0,2463.0,1970.1,1323.4,1920.0,700.0,Object_Sea_Solid_Small,56.68861024995567,59.70709041698137,5.0,Object_Sea_Solid_Small,-2.0,-2.0,1.0,0.6483402909943834,,,,,,,,
encoding,fixation,30,4284850,4286106,4285127.0,4286278.0,1152.0,979.0,1904.6,1035.6,1920.0,1080.0,fixation,59.70723966695368,60.96251837495947,5.0,Animal_Land_Solid_Large,9.0,,,,,,,,,,,
encoding,image,30,4286106,4287118,4286324.0,4286475.0,152.0,152.0,1577.2,877.9000000000001,1591.0,1269.0,Animal_Land_Solid_Large,60.9626224169624,61.974102666950785,5.0,Animal_Land_Solid_Large,9.0,,,,,,,,,,,
encoding,image,30,4286106,4287118,4286492.0,4287313.0,822.0,626.0,1602.9,887.0,1591.0,1269.0,Animal_Land_Solid_Large,60.9626224169624,61.974102666950785,5.0,Animal_Land_Solid_Large,9.0,,,,,,,,,,,
encoding,value,30,4287118,4293130,4287339.0,4288467.0,1129.0,1129.0,1578.2,785.9000000000001,1591.0,1269.0,Animal_Land_Solid_Large,61.974226749967784,67.98596283397637,5.0,Animal_Land_Solid_Large,9.0,,,,,,,,,,,
encoding,value,30,4287118,4293130,4288484.0,4289168.0,685.0,685.0,1595.9,781.7,1591.0,1269.0,Animal_Land_Solid_Large,61.974226749967784,67.98596283397637,5.0,Animal_Land_Solid_Large,9.0,,,,,,,,,,,
encoding,value,30,4287118,4293130,4289194.0,4291062.0,1869.0,1869.0,1599.7,890.5999999999999,1591.0,1269.0,Animal_Land_Solid_Large,61.974226749967784,67.98596283397637,5.0,Animal_Land_Solid_Large,9.0,,,,,,,,,,,
encoding,value,30,4287118,4293130,4291090.0,4293374.0,2285.0,2040.0,1582.5,778.4000000000001,1591.0,1269.0,Animal_Land_Solid_Large,61.974226749967784,67.98596283397637,5.0,Animal_Land_Solid_Large,9.0,,,,,,,,,,,
encoding,attention,30,4293130,4296147,4293393.0,4294492.0,1100.0,1100.0,1622.5,768.9000000000001,1591.0,1269.0,Animal_Land_Solid_Large,67.9860669169575,71.00336658395827,5.0,Animal_Land_Solid_Large,9.0,9.0,1.0,2.7124494170420803,,,,,,,,
encoding,fixation,31,4617170,4617677,4617425.0,4617578.0,154.0,154.0,1892.8,1106.6,1920.0,1080.0,fixation,4.639003708958626,5.14519987499807,6.0,Animal_Land_Pattern_Small,9.0,,,,,,,,,,,
encoding,fixation,31,4617170,4617677,4617603.0,4617904.0,302.0,74.0,1922.2,1025.4,1920.0,1080.0,fixation,4.639003708958626,5.14519987499807,6.0,Animal_Land_Pattern_Small,9.0,,,,,,,,,,,
encoding,image,31,4617677,4618688,4617957.0,4618375.0,419.0,419.0,1913.9,706.4000000000001,1920.0,1460.0,Animal_Land_Pattern_Small,5.1453011249541305,6.15683137497399,6.0,Animal_Land_Pattern_Small,9.0,,,,,,,,,,,
encoding,image,31,4617677,4618688,4618396.0,4618592.0,197.0,197.0,1943.3,694.0999999999999,1920.0,1460.0,Animal_Land_Pattern_Small,5.1453011249541305,6.15683137497399,6.0,Animal_Land_Pattern_Small,9.0,,,,,,,,,,,
encoding,image,31,4617677,4618688,4618607.0,4618890.0,284.0,81.0,1964.3,692.0,1920.0,1460.0,Animal_Land_Pattern_Small,5.1453011249541305,6.15683137497399,6.0,Animal_Land_Pattern_Small,9.0,,,,,,,,,,,
encoding,value,31,4618689,4624702,4618920.0,4619223.0,304.0,304.0,1949.5,607.7,1920.0,1460.0,Animal_Land_Pattern_Small,6.157085416954942,12.170102749951184,6.0,Animal_Land_Pattern_Small,9.0,,,,,,,,,,,
encoding,value,31,4618689,4624702,4619241.0,4619701.0,461.0,461.0,1954.7,701.2,1920.0,1460.0,Animal_Land_Pattern_Small,6.157085416954942,12.170102749951184,6.0,Animal_Land_Pattern_Small,9.0,,,,,,,,,,,
encoding,value,31,4618689,4624702,4619721.0,4621610.0,1890.0,1890.0,1934.1,711.7,1920.0,1460.0,Animal_Land_Pattern_Small,6.157085416954942,12.170102749951184,6.0,Animal_Land_Pattern_Small,9.0,,,,,,,,,,,
encoding,value,31,4618689,4624702,4621634.0,4622200.0,567.0,567.0,1980.7,719.3,1920.0,1460.0,Animal_Land_Pattern_Small,6.157085416954942,12.170102749951184,6.0,Animal_Land_Pattern_Small,9.0,,,,,,,,,,,
encoding,value,31,4618689,4624702,4622216.0,4623085.0,870.0,870.0,1990.6,713.7,1920.0,1460.0,Animal_Land_Pattern_Small,6.157085416954942,12.170102749951184,6.0,Animal_Land_Pattern_Small,9.0,,,,,,,,,,,
encoding,value,31,4618689,4624702,4623103.0,4624199.0,1097.0,1097.0,1921.8,716.3,1920.0,1460.0,Animal_Land_Pattern_Small,6.157085416954942,12.170102749951184,6.0,Animal_Land_Pattern_Small,9.0,,,,,,,,,,,
encoding,value,31,4618689,4624702,4624217.0,4624910.0,694.0,485.0,1966.0,725.0,1920.0,1460.0,Animal_Land_Pattern_Small,6.157085416954942,12.170102749951184,6.0,Animal_Land_Pattern_Small,9.0,,,,,,,,,,,
encoding,attention,31,4624702,4627720,4624932.0,4625070.0,139.0,139.0,1959.1,640.3,1920.0,1460.0,Animal_Land_Pattern_Small,12.170216833997983,15.187578041979576,6.0,Animal_Land_Pattern_Small,9.0,9.0,1.0,1.1377460000221618,,,,,,,,
encoding,attention,31,4624702,4627720,4625092.0,4626245.0,1154.0,1154.0,1883.5,606.0999999999999,1920.0,1460.0,Animal_Land_Pattern_Small,12.170216833997983,15.187578041979576,6.0,Animal_Land_Pattern_Small,9.0,9.0,1.0,1.1377460000221618,,,,,,,,
encoding,attention,31,4624702,4627720,4626263.0,4626723.0,461.0,461.0,1901.2,591.0999999999999,1920.0,1460.0,Animal_Land_Pattern_Small,12.170216833997983,15.187578041979576,6.0,Animal_Land_Pattern_Small,9.0,9.0,1.0,1.1377460000221618,,,,,,,,
encoding,attention,31,4624702,4627720,4626743.0,4626957.0,215.0,215.0,1928.0,713.9000000000001,1920.0,1460.0,Animal_Land_Pattern_Small,12.170216833997983,15.187578041979576,6.0,Animal_Land_Pattern_Small,9.0,9.0,1.0,1.1377460000221618,,,,,,,,
