phase,event,onset,offset,trial_number,game,image,outcome,choice,correct,rt,letter,match,response,option,true_value,true_position,recalled_position,
encoding,fixation,11.897035917034373,12.913695000112057,1,1,Object_Land_Solid_Small,8,,,,,,,,,,,
encoding,image,12.913829083088785,13.934452875051647,1,1,Object_Land_Solid_Small,8,,,,,,,,,,,
encoding,value,13.934584458125755,19.954782042186707,1,1,Object_Land_Solid_Small,8,,,,,,,,,,,
encoding,attention,19.95493808318861,22.977208125172183,1,1,Object_Land_Solid_Small,8,-5,0,2.57289908407256,,,,,,,,
encoding,fixation,22.977352375164628,23.9823904579971,2,1,Object_Sea_Solid_Small,-2,,,,,,,,,,,
encoding,image,23.982544375117868,24.993196125142276,2,1,Object_Sea_Solid_Small,-2,,,,,,,,,,,
encoding,value,24.99330158298835,31.004643167136237,2,1,Object_Sea_Solid_Small,-2,,,,,,,,,,,
encoding,attention,31.00477495812811,34.02306562499143,2,1,Object_Sea_Solid_Small,-2,-2,1,2.0784457919653505,,,,,,,,
encoding,fixation,34.02329337503761,35.27831475017592,3,1,Object_Land_Pattern_Large,-8,,,,,,,,,,,
encoding,image,35.27841916703619,36.29009912512265,3,1,Object_Land_Pattern_Large,-8,,,,,,,,,,,
encoding,value,36.29019695799798,42.306036667199805,3,1,Object_Land_Pattern_Large,-8,,,,,,,,,,,
encoding,attention,42.306133250007406,45.324973333161324,3,1,Object_Land_Pattern_Large,-8,-8,1,1.8010383339133114,,,,,,,,
encoding,fixation,45.32512129214592,45.83014070801437,4,1,Animal_Sea_Solid_Small,-4,,,,,,,,,,,
encoding,image,45.83023325004615,46.842024667188525,4,1,Animal_Sea_Solid_Small,-4,,,,,,,,,,,
encoding,value,46.842135542072356,52.855140042025596,4,1,Animal_Sea_Solid_Small,-4,,,,,,,,,,,
encoding,attention,52.85530291707255,55.87568362499587,4,1,Animal_Sea_Solid_Small,-4,-4,1,1.1474480000324547,,,,,,,,
encoding,fixation,55.87586029199883,56.8811735000927,5,1,Animal_Land_Pattern_Large,5,,,,,,,,,,,
encoding,image,56.88129495806061,57.892001333180815,5,1,Animal_Land_Pattern_Large,5,,,,,,,,,,,
encoding,value,57.89216720801778,63.9044997501187,5,1,Animal_Land_Pattern_Large,5,,,,,,,,,,,
encoding,attention,63.90462958300486,66.96597450016998,5,1,Animal_Land_Pattern_Large,5,+5,1,0.8636367500294,,,,,,,,
encoding,fixation,66.96613650000654,67.97131758299656,6,1,Animal_Sea_Pattern_Large,2,,,,,,,,,,,
encoding,image,67.97142462502234,68.9818015419878,6,1,Animal_Sea_Pattern_Large,2,,,,,,,,,,,
encoding,value,68.98188800015487,74.99294550018385,6,1,Animal_Sea_Pattern_Large,2,,,,,,,,,,,
encoding,attention,74.99305241717957,78.00937758316286,6,1,Animal_Sea_Pattern_Large,2,+2,1,1.1657390838954598,,,,,,,,
n-back,,,,1,1,,,,1,None,C,False,None,,,,,
n-back,,,,2,1,,,,1,None,X,False,None,,,,,
n-back,,,,3,1,,,,1,1.036880083847791,C,True,1,,,,,
n-back,,,,4,1,,,,1,None,C,False,None,,,,,
n-back,,,,5,1,,,,0,None,C,True,None,,,,,
n-back,,,,6,1,,,,1,None,Z,False,None,,,,,
n-back,,,,7,1,,,,1,0.5196219999343157,C,True,1,,,,,
n-back,,,,8,1,,,,1,None,B,False,None,,,,,
n-back,,,,9,1,,,,1,None,X,False,None,,,,,
n-back,,,,10,1,,,,1,None,X,False,None,,,,,
n-back,,,,11,1,,,,1,None,N,False,None,,,,,
n-back,,,,12,1,,,,1,None,N,False,None,,,,,
n-back,,,,13,1,,,,1,None,V,False,None,,,,,
n-back,,,,14,1,,,,1,1.1127387499436736,N,True,1,,,,,
n-back,,,,15,1,,,,1,None,N,False,None,,,,,
n-back,,,,16,1,,,,1,None,X,False,None,,,,,
n-back,,,,17,1,,,,1,None,Z,False,None,,,,,
n-back,,,,18,1,,,,1,None,V,False,None,,,,,
n-back,,,,19,1,,,,1,0.8340817498974502,Z,True,1,,,,,
n-back,,,,20,1,,,,1,None,N,False,None,,,,,
n-back,,,,21,1,,,,0,None,Z,True,None,,,,,
n-back,,,,22,1,,,,1,None,Z,False,None,,,,,
n-back,,,,23,1,,,,1,0.8328912078868598,Z,True,1,,,,,
n-back,,,,24,1,,,,1,None,B,False,None,,,,,
n-back,,,,25,1,,,,1,None,V,False,None,,,,,
n-back,,,,26,1,,,,1,None,C,False,None,,,,,
n-back,,,,27,1,,,,1,0.8300360420253128,V,True,1,,,,,
n-back,,,,28,1,,,,0,None,C,True,None,,,,,
n-back,,,,29,1,,,,0,None,V,True,None,,,,,
n-back,,,,30,1,,,,1,None,Z,False,None,,,,,
choice,fixation,163.59184520808049,164.0978052080609,1,1,,,,,,,,,Object,,,,
choice,option,164.10830745799467,165.8763649580069,1,1,,,,,,,,,Object,,,,
choice,choice,165.87648891704157,181.35026033315808,1,1,,,1,0,14.46251254202798,,,,Object,,,,
choice,fixation,181.35043554217555,182.85599850001745,2,1,,,,,,,,,Sea,,,,
choice,option,182.86509350012057,183.89657704206184,2,1,,,,,,,,,Sea,,,,
choice,choice,183.8967360421084,187.31117008300498,2,1,,,1,0,2.401650291867554,,,,Sea,,,,
choice,fixation,187.31130504212342,188.31654125009663,3,1,,,,,,,,,Large,,,,
choice,option,188.32557808305137,189.35445558303036,3,1,,,,,,,,,Large,,,,
choice,choice,189.35458420799114,195.4931700420566,3,1,,,2,1,5.128558542113751,,,,Large,,,,
choice,fixation,195.49329475010745,196.24854900012724,4,1,,,,,,,,,Land,,,,
choice,option,196.25744054210372,197.28442475013435,4,1,,,,,,,,,Land,,,,
choice,choice,197.2845850000158,202.4149585000705,4,1,,,2,0,4.120517915813252,,,,Land,,,,
choice,fixation,202.41507329209708,203.17005887511186,5,1,,,,,,,,,Pattern,,,,
choice,option,203.17960224999115,204.20740316715091,5,1,,,,,,,,,Pattern,,,,
choice,choice,204.207506417064,210.16619187500328,5,1,,,2,1,4.948804625077173,,,,Pattern,,,,
choice,fixation,210.16631808318198,211.42138466704637,6,1,,,,,,,,,Animal,,,,
choice,option,211.43093166709878,212.4586205421947,6,1,,,,,,,,,Animal,,,,
choice,choice,212.45873629208654,222.90199520811439,6,1,,,2,0,9.432623958215117,,,,Animal,,,,
choice,fixation,222.90213204198517,223.90734133310616,7,1,,,,,,,,,Small,,,,
choice,option,223.91613245802,224.94335858314298,7,1,,,,,,,,,Small,,,,
choice,choice,224.94351158314385,236.02565983310342,7,1,,,2,0,10.07149775000289,,,,Small,,,,
choice,fixation,236.02578900009394,237.0312018750701,8,1,,,,,,,,,Solid,,,,
choice,option,237.04040045803413,238.0668127501849,8,1,,,,,,,,,Solid,,,,
choice,choice,238.06691745808348,248.66253637499176,8,1,,,1,1,9.584993042051792,,,,Solid,,,,
memory,free_recall,310.7696483330801,333.36088908300735,0,1,,,,,,,,,,,,,
memory,value_recall,376.6543699169997,381.5055764580611,1,1,Object_Sea_Solid_Small,,,,4.84694637497887,,,,,-2,,,
memory,value_recall,382.55503345816396,388.54537208308466,2,1,Animal_Land_Pattern_Large,,,,5.986933791078627,,,,,5,,,
memory,value_recall,390.0916394582018,396.1215825830586,3,1,Object_Land_Solid_Small,,,,6.024964666925371,,,,,8,,,
memory,value_recall,397.6715712081641,402.7607619999908,4,1,Animal_Sea_Pattern_Large,,,,5.08491574996151,,,,,2,,,
memory,value_recall,403.80767191713676,408.22517154202797,5,1,Object_Land_Pattern_Large,,,,4.414949584053829,,,,,-8,,,
memory,value_recall,409.5269860830158,414.23325725016184,6,1,Animal_Sea_Solid_Small,,,,4.701874000020325,,,,,-4,,,
memory,spatial_recall,420.60538029205054,428.60616025002673,6,1,Object_Land_Pattern_Large,,,1,7.996338082943112,,,,,,"[-329, -190]","[-329, -190]",
memory,spatial_recall,430.17053741705604,437.1140456250869,6,1,Animal_Land_Pattern_Large,,,1,6.939516833983362,,,,,,"[329, -190]","[329, -190]",
memory,spatial_recall,438.169630917022,440.38781708315946,6,1,Object_Sea_Solid_Small,,,1,2.215733875054866,,,,,,"[0, 380]","[0, 380]",
memory,spatial_recall,442.44854162517004,444.1539697081316,6,1,Animal_Sea_Pattern_Large,,,1,1.7014127080328763,,,,,,"[329, 189]","[329, 189]",
memory,spatial_recall,445.210649917135,447.4361950000748,6,1,Animal_Sea_Solid_Small,,,1,2.2231245420407504,,,,,,"[0, -380]","[0, -380]",
memory,spatial_recall,449.4925893750042,453.5189769170247,6,1,Object_Land_Solid_Small,,,1,4.0220907921902835,,,,,,"[-329, 190]","[-329, 190]",
encoding,fixation,10.504944791086018,11.510958875063807,7,2,Animal_Land_Solid_Small,8,,,,,,,,,,,
encoding,image,11.511068666120991,12.52279391605407,7,2,Animal_Land_Solid_Small,8,,,,,,,,,,,
encoding,value,12.522915082983673,18.53585658292286,7,2,Animal_Land_Solid_Small,8,,,,,,,,,,,
encoding,attention,18.535974124912173,21.553232375066727,7,2,Animal_Land_Solid_Small,8,+8,1,1.8921838330570608,,,,,,,,
encoding,fixation,21.553402208024636,22.808489999966696,8,2,Animal_Sea_Pattern_Small,-7,,,,,,,,,,,
encoding,image,22.808593250112608,23.822459457907826,8,2,Animal_Sea_Pattern_Small,-7,,,,,,,,,,,
encoding,value,23.82259237510152,29.83480729092844,8,2,Animal_Sea_Pattern_Small,-7,,,,,,,,,,,
encoding,attention,29.834924540948123,32.85322466609068,8,2,Animal_Sea_Pattern_Small,-7,-7,1,1.160583500051871,,,,,,,,
encoding,fixation,32.853367540985346,33.35861283307895,9,2,Animal_Land_Solid_Large,-7,,,,,,,,,,,
encoding,image,33.35873808292672,34.37305895797908,9,2,Animal_Land_Solid_Large,-7,,,,,,,,,,,
encoding,value,34.37318612495437,40.38531508296728,9,2,Animal_Land_Solid_Large,-7,,,,,,,,,,,
encoding,attention,40.385430958122015,43.4042296661064,9,2,Animal_Land_Solid_Large,-7,-7,1,1.0907868328504264,,,,,,,,
encoding,fixation,43.40438766591251,44.15963704092428,10,2,Object_Land_Pattern_Small,-7,,,,,,,,,,,
encoding,image,44.159751791041344,45.1723265000619,10,2,Object_Land_Pattern_Small,-7,,,,,,,,,,,
encoding,value,45.17244270793162,51.183904708130285,10,2,Object_Land_Pattern_Small,-7,,,,,,,,,,,
encoding,attention,51.1840116661042,54.20164412492886,10,2,Object_Land_Pattern_Small,-7,-7,1,1.79731670813635,,,,,,,,
encoding,fixation,54.20188658311963,55.20692045800388,11,2,Object_Sea_Pattern_Large,3,,,,,,,,,,,
encoding,image,55.20704812509939,56.21820604102686,11,2,Object_Sea_Pattern_Large,3,,,,,,,,,,,
encoding,value,56.21832366590388,62.229850665898994,11,2,Object_Sea_Pattern_Large,3,,,,,,,,,,,
encoding,attention,62.22996695805341,65.24732733308338,11,2,Object_Sea_Pattern_Large,3,+3,1,0.7032379580195993,,,,,,,,
encoding,fixation,65.24748345790431,65.7525696249213,12,2,Object_Sea_Solid_Large,1,,,,,,,,,,,
encoding,image,65.75267950003035,66.76404454093426,12,2,Object_Sea_Solid_Large,1,,,,,,,,,,,
encoding,value,66.76412695809267,72.77558275009505,12,2,Object_Sea_Solid_Large,1,,,,,,,,,,,
encoding,attention,72.77570779109374,75.7942002909258,12,2,Object_Sea_Solid_Large,1,+1,1,0.6201257919892669,,,,,,,,
n-back,,,,31,2,,,,1,None,X,False,None,,,,,
n-back,,,,32,2,,,,0,None,C,True,None,,,,,
n-back,,,,33,2,,,,1,None,Z,False,None,,,,,
n-back,,,,34,2,,,,1,0.6366132078692317,C,True,1,,,,,
n-back,,,,35,2,,,,0,None,Z,True,None,,,,,
n-back,,,,36,2,,,,1,None,N,False,None,,,,,
n-back,,,,37,2,,,,1,None,B,False,None,,,,,
n-back,,,,38,2,,,,1,None,X,False,None,,,,,
n-back,,,,39,2,,,,1,None,N,False,None,,,,,
n-back,,,,40,2,,,,1,None,Z,False,None,,,,,
n-back,,,,41,2,,,,0,0.4679955418687314,X,False,1,,,,,
n-back,,,,42,2,,,,1,None,B,False,None,,,,,
n-back,,,,43,2,,,,1,None,B,False,None,,,,,
n-back,,,,44,2,,,,1,None,C,False,None,,,,,
n-back,,,,45,2,,,,1,1.1958785420283675,B,True,1,,,,,
n-back,,,,46,2,,,,1,None,Z,False,None,,,,,
n-back,,,,47,2,,,,1,None,N,False,None,,,,,
n-back,,,,48,2,,,,0,0.6475263750180602,B,False,1,,,,,
n-back,,,,49,2,,,,1,None,B,False,None,,,,,
n-back,,,,50,2,,,,1,None,Z,False,None,,,,,
n-back,,,,51,2,,,,1,0.5481538749299943,B,True,1,,,,,
n-back,,,,52,2,,,,1,None,X,False,None,,,,,
n-back,,,,53,2,,,,1,None,V,False,None,,,,,
n-back,,,,54,2,,,,1,0.6087723749224097,X,True,1,,,,,
n-back,,,,55,2,,,,0,None,V,True,None,,,,,
n-back,,,,56,2,,,,0,None,X,True,None,,,,,
n-back,,,,57,2,,,,1,None,X,False,None,,,,,
n-back,,,,58,2,,,,1,0.8500552079640329,X,True,1,,,,,
n-back,,,,59,2,,,,1,None,C,False,None,,,,,
n-back,,,,60,2,,,,0,None,X,True,None,,,,,
choice,fixation,140.79250262491405,142.29742533294484,9,2,,,,,,,,,Small,,,,
choice,option,142.30611591599882,143.334203541046,9,2,,,,,,,,,Small,,,,
choice,choice,143.33431870792992,161.61597487493418,9,2,,,2,1,17.270169334020466,,,,Small,,,,
choice,fixation,161.61610295809805,162.12235924997367,10,2,,,,,,,,,Object,,,,
choice,option,162.13161333301105,163.15912083303556,10,2,,,,,,,,,Object,,,,
choice,choice,163.15922079095617,177.946935582906,10,2,,,2,1,13.776339208940044,,,,Object,,,,
choice,fixation,177.94706137501635,178.70192550006323,11,2,,,,,,,,,Pattern,,,,
choice,option,178.71114233299159,179.73963762493804,11,2,,,,,,,,,Pattern,,,,
choice,choice,179.73975279112346,189.8636798330117,11,2,,,2,1,9.113440416986123,,,,Pattern,,,,
choice,fixation,189.86387270805426,190.3694604160264,12,2,,,,,,,,,Large,,,,
choice,option,190.37834783294238,191.4054403330665,12,2,,,,,,,,,Large,,,,
choice,choice,191.40554333291948,199.7111928749364,12,2,,,2,1,7.295969333965331,,,,Large,,,,
choice,fixation,199.71137704094872,200.4664708750788,13,2,,,,,,,,,Solid,,,,
choice,option,200.4761978329625,201.50260775000788,13,2,,,,,,,,,Solid,,,,
choice,choice,201.50271208304912,218.2640128331259,13,2,,,1,1,15.750260666012764,,,,Solid,,,,
choice,fixation,218.2641572500579,219.26931541599333,14,2,,,,,,,,,Land,,,,
choice,option,219.27791245793924,220.3063595830463,14,2,,,,,,,,,Land,,,,
choice,choice,220.3065462501254,228.73605987499468,14,2,,,1,0,7.419093000004068,,,,Land,,,,
choice,fixation,228.73618191597052,230.24105162499472,15,2,,,,,,,,,Animal,,,,
choice,option,230.2505789580755,231.27790812496096,15,2,,,,,,,,,Animal,,,,
choice,choice,231.27803029096685,234.8472932910081,15,2,,,2,1,2.559630832867697,,,,Animal,,,,
choice,fixation,234.8474373749923,235.8531802908983,16,2,,,,,,,,,Sea,,,,
choice,option,235.86187912500463,236.88830079091713,16,2,,,,,,,,,Sea,,,,
choice,choice,236.8884140830487,262.6240686250385,16,2,,,2,1,24.724316083826125,,,,Sea,,,,
memory,free_recall,281.856298458064,332.3938599580433,6,2,,,,,,,,,,,,,
memory,value_recall,345.03397795790806,349.4982127500698,7,2,Object_Land_Pattern_Small,,,,4.46096233301796,,,,,-7,,,
memory,value_recall,351.29736629105173,357.4817976250779,8,2,Animal_Land_Solid_Small,,,,6.18025591596961,,,,,8,,,
memory,value_recall,358.7814930831082,365.2569372081198,9,2,Object_Sea_Pattern_Large,,,,6.471463875146583,,,,,3,,,
memory,value_recall,367.0536439579446,368.8646571659483,10,2,Object_Sea_Solid_Large,,,,1.8066432080231607,,,,,1,,,
memory,value_recall,370.6625076250639,374.4811500411015,11,2,Animal_Land_Solid_Large,,,,3.8145954159554094,,,,,-7,,,
memory,value_recall,376.0269824580755,390.3928559580818,12,2,Animal_Sea_Pattern_Small,,,,14.361611957894638,,,,,-7,,,
memory,spatial_recall,396.41837733308785,399.20507199992426,12,2,Object_Land_Pattern_Small,,,1,2.782599665923044,,,,,,"[329, 189]","[329, 189]",
memory,spatial_recall,400.5167552079074,407.87289995793253,12,2,Animal_Sea_Pattern_Small,,,1,7.350821709027514,,,,,,"[0, -380]","[0, -380]",
memory,spatial_recall,409.1775969581213,414.3391821249388,12,2,Animal_Land_Solid_Small,,,1,5.157510166056454,,,,,,"[-329, -190]","[-329, -190]",
memory,spatial_recall,415.89785629091784,417.64079491607845,12,2,Object_Sea_Solid_Large,,,1,1.7385458329226822,,,,,,"[0, 380]","[0, 380]",
memory,spatial_recall,419.45642804098316,420.89969133306295,12,2,Animal_Land_Solid_Large,,,1,1.4390737919602543,,,,,,"[329, -190]","[329, -190]",
memory,spatial_recall,422.45852070790716,424.3332927080337,12,2,Object_Sea_Pattern_Large,,,1,1.8705352500546724,,,,,,"[-329, 190]","[-329, 190]",
encoding,fixation,5.196965667186305,6.202636459143832,13,3,Animal_Land_Pattern_Small,-6,,,,,,,,,,,
encoding,image,6.202767334179953,7.214948542183265,13,3,Animal_Land_Pattern_Small,-6,,,,,,,,,,,
encoding,value,7.215054375119507,13.228827875107527,13,3,Animal_Land_Pattern_Small,-6,,,,,,,,,,,
encoding,attention,13.228957625105977,16.2473331252113,13,3,Animal_Land_Pattern_Small,-6,-6,1,1.5233045418281108,,,,,,,,
encoding,fixation,16.247558292001486,17.50272783404216,14,3,Object_Sea_Pattern_Small,6,,,,,,,,,,,
encoding,image,17.502848584204912,18.514522709185258,14,3,Object_Sea_Pattern_Small,6,,,,,,,,,,,
encoding,value,18.5147182920482,24.527813417138532,14,3,Object_Sea_Pattern_Small,6,,,,,,,,,,,
encoding,attention,24.52792908414267,27.54948625015095,14,3,Object_Sea_Pattern_Small,6,+6,1,0.7095286659896374,,,,,,,,
encoding,fixation,27.54965045908466,28.554771500173956,15,3,Animal_Sea_Solid_Large,-2,,,,,,,,,,,
encoding,image,28.554900333983824,29.56645012507215,15,3,Animal_Sea_Solid_Large,-2,,,,,,,,,,,
encoding,value,29.566560375038534,35.57867537508719,15,3,Animal_Sea_Solid_Large,-2,,,,,,,,,,,
encoding,attention,35.57879345910624,38.59842558414675,15,3,Animal_Sea_Solid_Large,-2,-2,1,0.9566415420267731,,,,,,,,
encoding,fixation,38.5985836670734,39.85429208399728,16,3,Animal_Land_Solid_Small,6,,,,,,,,,,,
encoding,image,39.85450770915486,40.86549550015479,16,3,Animal_Land_Solid_Small,6,,,,,,,,,,,
encoding,value,40.86561195901595,46.876546709099784,16,3,Animal_Land_Solid_Small,6,,,,,,,,,,,
encoding,attention,46.876675417181104,49.89834958408028,16,3,Animal_Land_Solid_Small,6,+6,1,1.3674431249964982,,,,,,,,
encoding,fixation,49.89850624999963,50.40403554216027,17,3,Object_Land_Solid_Large,-1,,,,,,,,,,,
encoding,image,50.40423137508333,51.414852500194684,17,3,Object_Land_Solid_Large,-1,,,,,,,,,,,
encoding,value,51.414962334092706,57.426365417195484,17,3,Object_Land_Solid_Large,-1,,,,,,,,,,,
encoding,attention,57.426547250011936,60.44347520917654,17,3,Object_Land_Solid_Large,-1,-1,1,0.735450292006135,,,,,,,,
encoding,fixation,60.44370691711083,60.948842959012836,18,3,Object_Sea_Pattern_Large,6,,,,,,,,,,,
encoding,image,60.94894537515938,61.95998104219325,18,3,Object_Sea_Pattern_Large,6,,,,,,,,,,,
encoding,value,61.96010825014673,67.97164933406748,18,3,Object_Sea_Pattern_Large,6,,,,,,,,,,,
encoding,attention,67.97178250015713,70.99016458401456,18,3,Object_Sea_Pattern_Large,6,+6,1,1.6126138330437243,,,,,,,,
n-back,,,,61,3,,,,1,None,X,False,None,,,,,
n-back,,,,62,3,,,,1,None,Z,False,None,,,,,
n-back,,,,63,3,,,,1,None,C,False,None,,,,,
n-back,,,,64,3,,,,1,0.6609704170841724,Z,True,1,,,,,
n-back,,,,65,3,,,,1,None,Z,False,None,,,,,
n-back,,,,66,3,,,,1,None,B,False,None,,,,,
n-back,,,,67,3,,,,1,None,X,False,None,,,,,
n-back,,,,68,3,,,,1,None,C,False,None,,,,,
n-back,,,,69,3,,,,0,None,X,True,None,,,,,
n-back,,,,70,3,,,,1,None,V,False,None,,,,,
n-back,,,,71,3,,,,1,None,V,False,None,,,,,
n-back,,,,72,3,,,,1,0.7970841249916703,V,True,1,,,,,
n-back,,,,73,3,,,,1,None,N,False,None,,,,,
n-back,,,,74,3,,,,1,None,B,False,None,,,,,
n-back,,,,75,3,,,,1,None,X,False,None,,,,,
n-back,,,,76,3,,,,0,None,B,True,None,,,,,
n-back,,,,77,3,,,,0,None,X,True,None,,,,,
n-back,,,,78,3,,,,1,0.6882970000151545,B,True,1,,,,,
n-back,,,,79,3,,,,1,None,Z,False,None,,,,,
n-back,,,,80,3,,,,0,None,B,True,None,,,,,
n-back,,,,81,3,,,,1,None,V,False,None,,,,,
n-back,,,,82,3,,,,1,None,V,False,None,,,,,
n-back,,,,83,3,,,,1,0.5758734999690205,V,True,1,,,,,
n-back,,,,84,3,,,,0,None,V,True,None,,,,,
n-back,,,,85,3,,,,1,None,B,False,None,,,,,
n-back,,,,86,3,,,,1,None,X,False,None,,,,,
n-back,,,,87,3,,,,1,None,C,False,None,,,,,
n-back,,,,88,3,,,,0,None,X,True,None,,,,,
n-back,,,,89,3,,,,1,None,V,False,None,,,,,
n-back,,,,90,3,,,,1,None,Z,False,None,,,,,
choice,fixation,133.81395479198545,135.070149167208,17,3,,,,,,,,,Sea,,,,
choice,option,135.07944120909087,136.1093594590202,17,3,,,,,,,,,Sea,,,,
choice,choice,136.10949183418415,152.58397425012663,17,3,,,1,1,15.45941258314997,,,,Sea,,,,
choice,fixation,152.58412312506698,153.83925420907326,18,3,,,,,,,,,Object,,,,
choice,option,153.84943383419886,154.8768200420309,18,3,,,,,,,,,Object,,,,
choice,choice,154.87693075020798,159.282545250142,18,3,,,1,1,3.3954597080592066,,,,Object,,,,
choice,fixation,159.28268733411096,160.28776312503032,19,3,,,,,,,,,Large,,,,
choice,option,160.29681150009856,161.32364966720343,19,3,,,,,,,,,Large,,,,
choice,choice,161.3237606671173,167.4932609591633,19,3,,,2,0,5.156400208128616,,,,Large,,,,
choice,fixation,167.49339991714805,168.49840116710402,20,3,,,,,,,,,Pattern,,,,
choice,option,168.50772724999115,169.53460387513041,20,3,,,,,,,,,Pattern,,,,
choice,choice,169.53472941718064,179.97987120901234,20,3,,,2,0,9.43464408395812,,,,Pattern,,,,
choice,fixation,179.98001900012605,180.9855258341413,21,3,,,,,,,,,Small,,,,
choice,option,180.9959500420373,182.0237822921481,21,3,,,,,,,,,Small,,,,
choice,choice,182.02390250004828,186.5058989590034,21,3,,,1,1,3.472166874911636,,,,Small,,,,
choice,fixation,186.50603825016879,187.01110691716895,22,3,,,,,,,,,Animal,,,,
choice,option,187.02102795918472,188.04768500011414,22,3,,,,,,,,,Animal,,,,
choice,choice,188.04780887509696,193.26625700015575,22,3,,,1,0,4.2081847079098225,,,,Animal,,,,
choice,fixation,193.26640362502076,194.77155700000003,23,3,,,,,,,,,Solid,,,,
choice,option,194.78124758414924,195.80984604218975,23,3,,,,,,,,,Solid,,,,
choice,choice,195.8099635001272,200.91563908406533,23,3,,,1,1,4.095894958823919,,,,Solid,,,,
choice,fixation,200.91577916708775,201.67130791698582,24,3,,,,,,,,,Land,,,,
choice,option,201.6800470422022,202.70675341715105,24,3,,,,,,,,,Land,,,,
choice,choice,202.70688375015743,207.55603075004183,24,3,,,2,1,3.8389424588531256,,,,Land,,,,
memory,free_recall,220.8280345001258,280.59116791700944,12,3,,,,,,,,,,,,,
memory,value_recall,283.94326695916243,290.6291021250654,13,3,Object_Sea_Pattern_Large,,,,6.681556584080681,,,,,6,,,
memory,value_recall,292.18062275019474,298.5107612090651,14,3,Object_Land_Solid_Large,,,,6.325847707921639,,,,,-1,,,
memory,value_recall,300.3102024171967,310.8364642090164,15,3,Animal_Sea_Solid_Large,,,,10.521936957957223,,,,,-2,,,
memory,value_recall,312.63472720910795,318.1331974170171,16,3,Animal_Land_Pattern_Small,,,,5.494165624957532,,,,,-6,,,
memory,value_recall,319.9312955841888,322.82460554200225,17,3,Object_Sea_Pattern_Small,,,,2.888702082913369,,,,,6,,,
memory,value_recall,324.6205810420215,329.17603183421306,18,3,Animal_Land_Solid_Small,,,,4.5508277921471745,,,,,6,,,
memory,spatial_recall,331.5236372090876,337.04118108400144,18,3,Object_Sea_Pattern_Large,,,1,5.512994208838791,,,,,,"[-329, 190]","[-329, 190]",
memory,spatial_recall,338.60144579201005,340.07683487515897,18,3,Object_Sea_Pattern_Small,,,1,1.4708709169644862,,,,,,"[329, -190]","[329, -190]",
memory,spatial_recall,341.64172862516716,345.40784137509763,18,3,Animal_Sea_Solid_Large,,,1,3.7620344159659,,,,,,"[329, 189]","[329, 189]",
memory,spatial_recall,347.4637392091099,353.3029957921244,18,3,Animal_Land_Solid_Small,,,1,5.834928750060499,,,,,,"[-329, -190]","[-329, -190]",
memory,spatial_recall,354.35890341713093,355.7433560839854,18,3,Animal_Land_Pattern_Small,,,1,1.3811845839954913,,,,,,"[0, 380]","[0, 380]",
memory,spatial_recall,357.5469078340102,359.5558557920158,18,3,Object_Land_Solid_Large,,,1,2.004751125117764,,,,,,"[0, -380]","[0, -380]",
encoding,fixation,4.680742957862094,5.186151499859989,19,4,Object_Sea_Solid_Small,7,,,,,,,,,,,
encoding,image,5.186288749799132,6.199290707940236,19,4,Object_Sea_Solid_Small,7,,,,,,,,,,,
encoding,value,6.199401624966413,12.21196720795706,19,4,Object_Sea_Solid_Small,7,,,,,,,,,,,
encoding,attention,12.212086624931544,15.229846665868536,19,4,Object_Sea_Solid_Small,7,+7,1,0.847305916948244,,,,,,,,
encoding,fixation,15.230024999938905,15.985152040841058,20,4,Object_Land_Pattern_Large,-1,,,,,,,,,,,
encoding,image,15.985271707875654,16.99875224987045,20,4,Object_Land_Pattern_Large,-1,,,,,,,,,,,
encoding,value,16.99888737499714,23.012284957803786,20,4,Object_Land_Pattern_Large,-1,,,,,,,,,,,
encoding,attention,23.012405874906108,26.031217332929373,20,4,Object_Land_Pattern_Large,-1,-1,1,0.9261467498727143,,,,,,,,
encoding,fixation,26.031389665789902,26.536530290963128,21,4,Animal_Sea_Pattern_Large,-6,,,,,,,,,,,
encoding,image,26.536640374921262,27.548521374817938,21,4,Animal_Sea_Pattern_Large,-6,,,,,,,,,,,
encoding,value,27.5486407908611,33.55955629097298,21,4,Animal_Sea_Pattern_Large,-6,,,,,,,,,,,
encoding,attention,33.55971641582437,36.57180941593833,21,4,Animal_Sea_Pattern_Large,-6,None,None,None,,,,,,,,
encoding,fixation,36.571940790861845,37.077183165820315,22,4,Animal_Sea_Solid_Small,-2,,,,,,,,,,,
encoding,image,37.077298290794715,38.08806437486783,22,4,Animal_Sea_Solid_Small,-2,,,,,,,,,,,
encoding,value,38.08819037489593,44.099352332996204,22,4,Animal_Sea_Solid_Small,-2,,,,,,,,,,,
encoding,attention,44.099551665829495,47.11704204091802,22,4,Animal_Sea_Solid_Small,-2,-2,1,0.7856873329728842,,,,,,,,
encoding,fixation,47.11729179089889,47.62288595782593,23,4,Animal_Land_Pattern_Large,9,,,,,,,,,,,
encoding,image,47.623007707996294,48.63402791577391,23,4,Animal_Land_Pattern_Large,9,,,,,,,,,,,
encoding,value,48.6341361659579,54.64610949996859,23,4,Animal_Land_Pattern_Large,9,,,,,,,,,,,
encoding,attention,54.64622554089874,57.6632676247973,23,4,Animal_Land_Pattern_Large,9,-7,0,0.6250860001891851,,,,,,,,
encoding,fixation,57.66341795795597,58.91841670777649,24,4,Object_Land_Solid_Small,-7,,,,,,,,,,,
encoding,image,58.91854641586542,59.933675249805674,24,4,Object_Land_Solid_Small,-7,,,,,,,,,,,
encoding,value,59.93383429083042,65.94593845796771,24,4,Object_Land_Solid_Small,-7,,,,,,,,,,,
encoding,attention,65.94605791592039,68.96406574989669,24,4,Object_Land_Solid_Small,-7,-7,1,1.1464693751186132,,,,,,,,
n-back,,,,91,4,,,,1,None,Z,False,None,,,,,
n-back,,,,92,4,,,,1,None,B,False,None,,,,,
n-back,,,,93,4,,,,1,None,N,False,None,,,,,
n-back,,,,94,4,,,,1,None,V,False,None,,,,,
n-back,,,,95,4,,,,1,None,C,False,None,,,,,
n-back,,,,96,4,,,,1,None,C,False,None,,,,,
n-back,,,,97,4,,,,1,0.778130582999438,C,True,1,,,,,
n-back,,,,98,4,,,,0,None,C,True,None,,,,,
n-back,,,,99,4,,,,1,0.7369220838882029,C,True,1,,,,,
n-back,,,,100,4,,,,1,None,N,False,None,,,,,
n-back,,,,101,4,,,,1,None,B,False,None,,,,,
n-back,,,,102,4,,,,1,None,Z,False,None,,,,,
n-back,,,,103,4,,,,0,None,B,True,None,,,,,
n-back,,,,104,4,,,,1,None,C,False,None,,,,,
n-back,,,,105,4,,,,1,0.9476062499452382,B,True,1,,,,,
n-back,,,,106,4,,,,1,None,B,False,None,,,,,
n-back,,,,107,4,,,,0,None,B,True,None,,,,,
n-back,,,,108,4,,,,1,None,C,False,None,,,,,
n-back,,,,109,4,,,,1,None,Z,False,None,,,,,
n-back,,,,110,4,,,,1,1.2001289590261877,C,True,1,,,,,
n-back,,,,111,4,,,,1,0.5941037500742823,Z,True,1,,,,,
n-back,,,,112,4,,,,1,None,B,False,None,,,,,
n-back,,,,113,4,,,,1,None,C,False,None,,,,,
n-back,,,,114,4,,,,1,None,C,False,None,,,,,
n-back,,,,115,4,,,,1,0.5429904169868678,C,True,1,,,,,
n-back,,,,116,4,,,,0,None,C,True,None,,,,,
n-back,,,,117,4,,,,1,None,X,False,None,,,,,
n-back,,,,118,4,,,,1,None,X,False,None,,,,,
n-back,,,,119,4,,,,1,None,B,False,None,,,,,
n-back,,,,120,4,,,,1,None,C,False,None,,,,,
choice,fixation,131.64741854090244,132.15253045782447,25,4,,,,,,,,,Sea,,,,
choice,option,132.16069674980827,133.18716862495057,25,4,,,,,,,,,Sea,,,,
choice,choice,133.1872956249863,137.46963654085994,25,4,,,1,0,3.2725292921531945,,,,Sea,,,,
choice,fixation,137.4697810409125,138.72449733293615,26,4,,,,,,,,,Object,,,,
choice,option,138.73403958277777,139.7614460408222,26,4,,,,,,,,,Object,,,,
choice,choice,139.761566207977,144.3654910409823,26,4,,,2,1,3.593986833933741,,,,Object,,,,
choice,fixation,144.36562516586855,145.6205354158301,27,4,,,,,,,,,Large,,,,
choice,option,145.62959220795892,146.65640179091133,27,4,,,,,,,,,Large,,,,
choice,choice,146.6565032498911,149.27034841594286,27,4,,,2,0,1.6032352920155972,,,,Large,,,,
choice,fixation,149.2705039998982,150.27564837480895,28,4,,,,,,,,,Small,,,,
choice,option,150.2849122909829,151.31242924998514,28,4,,,,,,,,,Small,,,,
choice,choice,151.31254333280958,156.30440762499347,28,4,,,1,0,3.9819540828466415,,,,Small,,,,
choice,fixation,156.30453770793974,157.80968579091132,29,4,,,,,,,,,Animal,,,,
choice,option,157.82014358299784,158.8478033328429,29,4,,,,,,,,,Animal,,,,
choice,choice,158.84791983291507,161.965532832779,29,4,,,2,0,2.1074580419808626,,,,Animal,,,,
choice,fixation,161.9656946659088,163.2211222499609,30,4,,,,,,,,,Pattern,,,,
choice,option,163.2307972079143,164.25732074980624,30,4,,,,,,,,,Pattern,,,,
choice,choice,164.25745058292523,167.167527457932,30,4,,,2,0,1.9011217500083148,,,,Pattern,,,,
choice,fixation,167.16765958280303,167.92273329081945,31,4,,,,,,,,,Solid,,,,
choice,option,167.9323942908086,168.9594694999978,31,4,,,,,,,,,Solid,,,,
choice,choice,168.95960025000386,171.93738362495787,31,4,,,2,1,1.9672782919369638,,,,Solid,,,,
choice,fixation,171.9375209158752,172.692290707957,32,4,,,,,,,,,Land,,,,
choice,option,172.70109754079022,173.7275127498433,32,4,,,,,,,,,Land,,,,
choice,choice,173.72765366593376,180.4501198749058,32,4,,,1,1,5.709816375048831,,,,Land,,,,
memory,free_recall,187.75184083287604,234.35994512494653,18,4,,,,,,,,,,,,,
memory,value_recall,237.8062830409035,242.01613933290355,19,4,Object_Land_Pattern_Large,,,,4.205542124807835,,,,,-1,,,
memory,value_recall,243.56338462489657,250.46422758279368,20,4,Animal_Sea_Pattern_Large,,,,6.8964312500320375,,,,,-6,,,
memory,value_recall,252.26164370798506,258.62429304094985,21,4,Object_Land_Solid_Small,,,,6.358038583071902,,,,,-7,,,
memory,value_recall,260.42010470782407,264.5800497077871,22,4,Animal_Land_Pattern_Large,,,,4.155177292181179,,,,,9,,,
memory,value_recall,266.62681454094127,268.84179024980403,23,4,Animal_Sea_Solid_Small,,,,2.2092488748021424,,,,,-2,,,
memory,value_recall,269.8879287499003,272.60986899980344,24,4,Object_Sea_Solid_Small,,,,2.7192523749545217,,,,,7,,,
memory,spatial_recall,274.87850012490526,281.29815520788543,24,4,Animal_Land_Pattern_Large,,,1,6.415622500004247,,,,,,"[329, -190]","[329, -190]",
memory,spatial_recall,282.6148846249562,284.16561583289877,24,4,Animal_Sea_Solid_Small,,,1,1.5464554999489337,,,,,,"[0, -380]","[0, -380]",
memory,spatial_recall,285.98175070784055,288.664175957907,24,4,Object_Land_Solid_Small,,,1,2.678282291162759,,,,,,"[-329, 190]","[-329, 190]",
memory,spatial_recall,289.9739051249344,291.8763246249873,24,4,Object_Land_Pattern_Large,,,1,1.8982001249678433,,,,,,"[-329, -190]","[-329, -190]",
memory,spatial_recall,293.4313430408947,294.84594608284533,24,4,Animal_Sea_Pattern_Large,,,1,1.4105199999175966,,,,,,"[329, 189]","[329, 189]",
memory,spatial_recall,296.138310624985,297.4091129580047,24,4,Object_Sea_Solid_Small,,,1,1.2666435418650508,,,,,,"[0, 380]","[0, 380]",
encoding,fixation,2.08464308292605,2.8403670419938862,25,5,Animal_Land_Solid_Small,-5,,,,,,,,,,,
encoding,image,2.8405186249874532,3.850785791873932,25,5,Animal_Land_Solid_Small,-5,,,,,,,,,,,
encoding,value,3.8509032079018652,9.866993207950145,25,5,Animal_Land_Solid_Small,-5,,,,,,,,,,,
encoding,attention,9.867112833075225,12.885131583083421,25,5,Animal_Land_Solid_Small,-5,-5,1,2.1086154161021113,,,,,,,,
encoding,fixation,12.885277207940817,14.39023270807229,26,5,Object_Sea_Pattern_Large,-9,,,,,,,,,,,
encoding,image,14.390347708016634,15.401337666902691,26,5,Object_Sea_Pattern_Large,-9,,,,,,,,,,,
encoding,value,15.401445708004758,21.417499125003815,26,5,Object_Sea_Pattern_Large,-9,,,,,,,,,,,
encoding,attention,21.41760875005275,24.437938041985035,26,5,Object_Sea_Pattern_Large,-9,-9,1,0.5242938329465687,,,,,,,,
encoding,fixation,24.438106207875535,25.94360816688277,27,5,Animal_Sea_Pattern_Small,3,,,,,,,,,,,
encoding,image,25.943722333060578,26.955131167080253,27,5,Animal_Sea_Pattern_Small,3,,,,,,,,,,,
encoding,value,26.955265749944374,32.967546083033085,27,5,Animal_Sea_Pattern_Small,3,,,,,,,,,,,
encoding,attention,32.96766229206696,35.98864366696216,27,5,Animal_Sea_Pattern_Small,3,+3,1,0.9504197908099741,,,,,,,,
encoding,fixation,35.9887992918957,36.74438662501052,28,5,Object_Sea_Solid_Large,1,,,,,,,,,,,
encoding,image,36.744506207993254,37.75592116708867,28,5,Object_Sea_Solid_Large,1,,,,,,,,,,,
encoding,value,37.756034957943484,43.76834158296697,28,5,Object_Sea_Solid_Large,1,,,,,,,,,,,
encoding,attention,43.76846058294177,46.78746333299205,28,5,Object_Sea_Solid_Large,1,+1,1,0.7177196668926626,,,,,,,,
encoding,fixation,46.78767204191536,47.29294058308005,29,5,Object_Land_Pattern_Small,4,,,,,,,,,,,
encoding,image,47.293074666988105,48.304288167040795,29,5,Object_Land_Pattern_Small,4,,,,,,,,,,,
encoding,value,48.304409791948274,54.316225999966264,29,5,Object_Land_Pattern_Small,4,,,,,,,,,,,
encoding,attention,54.31641137506813,57.33404424996115,29,5,Object_Land_Pattern_Small,4,+4,1,2.1155705000273883,,,,,,,,
encoding,fixation,57.3342007920146,57.83923512487672,30,5,Animal_Land_Solid_Large,3,,,,,,,,,,,
encoding,image,57.839347375091165,58.8503677919507,30,5,Animal_Land_Solid_Large,3,,,,,,,,,,,
encoding,value,58.850477332947776,64.86223183292896,30,5,Animal_Land_Solid_Large,3,,,,,,,,,,,
encoding,attention,64.86238616704941,67.88242941698991,30,5,Animal_Land_Solid_Large,3,+3,1,0.6013604579493403,,,,,,,,
n-back,,,,121,5,,,,1,None,X,False,None,,,,,
n-back,,,,122,5,,,,0,None,C,True,None,,,,,
n-back,,,,123,5,,,,1,None,C,False,None,,,,,
n-back,,,,124,5,,,,1,1.349516416201368,C,True,1,,,,,
n-back,,,,125,5,,,,1,None,X,False,None,,,,,
n-back,,,,126,5,,,,1,None,X,False,None,,,,,
n-back,,,,127,5,,,,1,None,Z,False,None,,,,,
n-back,,,,128,5,,,,1,None,B,False,None,,,,,
n-back,,,,129,5,,,,0,None,Z,True,None,,,,,
n-back,,,,130,5,,,,1,None,C,False,None,,,,,
n-back,,,,131,5,,,,1,0.8564426249358803,Z,True,1,,,,,
n-back,,,,132,5,,,,0,None,C,True,None,,,,,
n-back,,,,133,5,,,,1,None,N,False,None,,,,,
n-back,,,,134,5,,,,1,None,Z,False,None,,,,,
n-back,,,,135,5,,,,1,None,B,False,None,,,,,
n-back,,,,136,5,,,,1,None,B,False,None,,,,,
n-back,,,,137,5,,,,1,0.4006304999347776,B,True,1,,,,,
n-back,,,,138,5,,,,1,None,C,False,None,,,,,
n-back,,,,139,5,,,,1,0.3392543748486787,B,True,1,,,,,
n-back,,,,140,5,,,,0,None,C,True,None,,,,,
n-back,,,,141,5,,,,1,None,Z,False,None,,,,,
n-back,,,,142,5,,,,1,None,X,False,None,,,,,
n-back,,,,143,5,,,,1,None,V,False,None,,,,,
n-back,,,,144,5,,,,1,None,C,False,None,,,,,
n-back,,,,145,5,,,,1,None,C,False,None,,,,,
n-back,,,,146,5,,,,1,None,B,False,None,,,,,
n-back,,,,147,5,,,,1,None,Z,False,None,,,,,
n-back,,,,148,5,,,,1,0.3604530000593513,B,True,1,,,,,
n-back,,,,149,5,,,,1,None,N,False,None,,,,,
n-back,,,,150,5,,,,1,0.4120581659954041,B,True,1,,,,,
choice,fixation,132.10346158291213,133.3586659580469,33,5,,,,,,,,,Object,,,,
choice,option,133.3679099578876,134.39471054193564,33,5,,,,,,,,,Object,,,,
choice,choice,134.3948671668768,151.27226395788603,33,5,,,2,1,15.866053042002022,,,,Object,,,,
choice,fixation,151.2723822919652,152.52762970793992,34,5,,,,,,,,,Pattern,,,,
choice,option,152.53716262499802,153.5666548749432,34,5,,,,,,,,,Pattern,,,,
choice,choice,153.56677429191768,162.62607841705903,34,5,,,1,0,8.048778916941956,,,,Pattern,,,,
choice,fixation,162.6262237080373,163.38135141693056,35,5,,,,,,,,,Solid,,,,
choice,option,163.39120412501507,164.41771879186854,35,5,,,,,,,,,Solid,,,,
choice,choice,164.41783941700123,175.7219488748815,35,5,,,1,0,10.293735542101786,,,,Solid,,,,
choice,fixation,175.72209437494166,176.47737045795657,36,5,,,,,,,,,Sea,,,,
choice,option,176.48588733305223,177.51173412497155,36,5,,,,,,,,,Sea,,,,
choice,choice,177.5119315830525,192.63501750002615,36,5,,,2,1,14.112775542074814,,,,Sea,,,,
choice,fixation,192.63513604202308,193.89032141701318,37,5,,,,,,,,,Small,,,,
choice,option,193.89893120806664,194.92586941691115,37,5,,,,,,,,,Small,,,,
choice,choice,194.9259923750069,201.09110550000332,37,5,,,1,1,5.153217833023518,,,,Small,,,,
choice,fixation,201.091249542078,201.59568212507293,38,5,,,,,,,,,Animal,,,,
choice,option,201.60520170792006,202.63185474998318,38,5,,,,,,,,,Animal,,,,
choice,choice,202.63196779205464,205.70586041687056,38,5,,,2,0,2.0642014578916132,,,,Animal,,,,
choice,fixation,205.7059862918686,206.71108054206707,39,5,,,,,,,,,Land,,,,
choice,option,206.72061258298345,207.74703495809808,39,5,,,,,,,,,Land,,,,
choice,choice,207.74714733287692,210.46737574995495,39,5,,,2,0,1.7093943329527974,,,,Land,,,,
choice,fixation,210.46752716694027,211.7229919580277,40,5,,,,,,,,,Large,,,,
choice,option,211.7316678329371,212.75936083309352,40,5,,,,,,,,,Large,,,,
choice,choice,212.7594852920156,216.97105883294716,40,5,,,1,0,3.198448000010103,,,,Large,,,,
memory,free_recall,227.06960804201663,258.004779583076,24,5,,,,,,,,,,,,,
memory,value_recall,261.1617111249361,263.9972434579395,25,5,Object_Land_Pattern_Small,,,,2.8314546670299023,,,,,4,,,
memory,value_recall,265.5437511249911,267.00402991706505,26,5,Object_Sea_Solid_Large,,,,1.4552757078781724,,,,,1,,,
memory,value_recall,268.5529713330325,271.0680627920665,27,5,Animal_Sea_Pattern_Small,,,,2.50975429196842,,,,,3,,,
memory,value_recall,272.1163563749287,273.7483917500358,28,5,Animal_Land_Solid_Small,,,,1.6294023329392076,,,,,-5,,,
memory,value_recall,275.54509274987504,277.5088091250509,29,5,Object_Sea_Pattern_Large,,,,1.959648875053972,,,,,-9,,,
memory,value_recall,279.30769150005654,282.46045437501743,30,5,Animal_Land_Solid_Large,,,,3.148595000151545,,,,,3,,,
memory,spatial_recall,285.3778409170918,287.9768467079848,30,5,Animal_Sea_Pattern_Small,,,1,2.5942955419886857,,,,,,"[0, -380]","[0, -380]",
memory,spatial_recall,290.04150095791556,293.15180487488396,30,5,Animal_Land_Solid_Small,,,1,3.1059432080946863,,,,,,"[-329, -190]","[-329, -190]",
memory,spatial_recall,294.7125057079829,298.2265882079955,30,5,Object_Sea_Pattern_Large,,,1,3.5099975001066923,,,,,,"[-329, 190]","[-329, 190]",
memory,spatial_recall,299.5354353329167,300.7459852080792,30,5,Object_Sea_Solid_Large,,,1,1.2065362920984626,,,,,,"[0, 380]","[0, 380]",
memory,spatial_recall,302.29827050003223,303.1972109579947,30,5,Object_Land_Pattern_Small,,,1,0.8947695838287473,,,,,,"[329, 189]","[329, 189]",
memory,spatial_recall,304.2491767080501,307.77981962496415,30,5,Animal_Land_Solid_Large,,,1,3.5281255419831723,,,,,,"[329, -190]","[329, -190]",
encoding,fixation,3.900599083164707,4.656954208156094,31,6,Object_Land_Solid_Large,9,,,,,,,,,,,
encoding,image,4.657074500108138,5.66798683302477,31,6,Object_Land_Solid_Large,9,,,,,,,,,,,
encoding,value,5.668103291187435,11.681088250130415,31,6,Object_Land_Solid_Large,9,,,,,,,,,,,
encoding,attention,11.68121337518096,14.698743041139096,31,6,Object_Land_Solid_Large,9,+9,1,0.673183083999902,,,,,,,,
encoding,fixation,14.698890916071832,15.704080207971856,32,6,Animal_Land_Pattern_Small,6,,,,,,,,,,,
encoding,image,15.704192833043635,16.71517925010994,32,6,Animal_Land_Pattern_Small,6,,,,,,,,,,,
encoding,value,16.715388749958947,22.727248457958922,32,6,Animal_Land_Pattern_Small,6,,,,,,,,,,,
encoding,attention,22.727385750040412,25.744900583056733,32,6,Animal_Land_Pattern_Small,6,+6,1,0.675065582850948,,,,,,,,
encoding,fixation,25.745054750004783,26.750174083048478,33,6,Object_Sea_Pattern_Large,-9,,,,,,,,,,,
encoding,image,26.750285416143015,27.762134416028857,33,6,Object_Sea_Pattern_Large,-9,,,,,,,,,,,
encoding,value,27.762267915997654,33.774273582967,33,6,Object_Sea_Pattern_Large,-9,,,,,,,,,,,
encoding,attention,33.77440420817584,36.792771083069965,33,6,Object_Sea_Pattern_Large,-9,-9,1,0.5265199169516563,,,,,,,,
encoding,fixation,36.79294416611083,37.298711040988564,34,6,Animal_Sea_Solid_Large,9,,,,,,,,,,,
encoding,image,37.298849540995434,38.31049954099581,34,6,Animal_Sea_Solid_Large,9,,,,,,,,,,,
encoding,value,38.31062558316626,44.32244141609408,34,6,Animal_Sea_Solid_Large,9,,,,,,,,,,,
encoding,attention,44.322617165977135,47.340872208122164,34,6,Animal_Sea_Solid_Large,9,+9,1,0.6453664998989552,,,,,,,,
encoding,fixation,47.34109729109332,48.34640483302064,35,6,Object_Sea_Pattern_Small,2,,,,,,,,,,,
encoding,image,48.34651750000194,49.35761533305049,35,6,Object_Sea_Pattern_Small,2,,,,,,,,,,,
encoding,value,49.357798791024834,55.3697029161267,35,6,Object_Sea_Pattern_Small,2,,,,,,,,,,,
encoding,attention,55.3698340409901,58.387194416020066,35,6,Object_Sea_Pattern_Small,2,+6,0,0.9348799579311162,,,,,,,,
encoding,fixation,58.38738258299418,59.64266404113732,36,6,Animal_Land_Solid_Small,-9,,,,,,,,,,,
encoding,image,59.64278508303687,60.65530625008978,36,6,Animal_Land_Solid_Small,-9,,,,,,,,,,,
encoding,value,60.65541770798154,66.66709791612811,36,6,Animal_Land_Solid_Small,-9,,,,,,,,,,,
encoding,attention,66.66735429107212,69.68669704115018,36,6,Animal_Land_Solid_Small,-9,-9,1,2.00315908389166,,,,,,,,
n-back,,,,151,6,,,,1,None,B,False,None,,,,,
n-back,,,,152,6,,,,1,None,V,False,None,,,,,
n-back,,,,153,6,,,,1,None,X,False,None,,,,,
n-back,,,,154,6,,,,0,None,V,True,None,,,,,
n-back,,,,155,6,,,,1,0.8337506668176502,X,True,1,,,,,
n-back,,,,156,6,,,,1,None,N,False,None,,,,,
n-back,,,,157,6,,,,1,0.3448217920958996,X,True,1,,,,,
n-back,,,,158,6,,,,1,None,X,False,None,,,,,
n-back,,,,159,6,,,,1,0.3469938328489661,X,True,1,,,,,
n-back,,,,160,6,,,,0,None,X,True,None,,,,,
n-back,,,,161,6,,,,1,None,N,False,None,,,,,
n-back,,,,162,6,,,,1,None,B,False,None,,,,,
n-back,,,,163,6,,,,1,None,C,False,None,,,,,
n-back,,,,164,6,,,,1,None,N,False,None,,,,,
n-back,,,,165,6,,,,1,None,X,False,None,,,,,
n-back,,,,166,6,,,,0,None,N,True,None,,,,,
n-back,,,,167,6,,,,1,None,B,False,None,,,,,
n-back,,,,168,6,,,,1,None,X,False,None,,,,,
n-back,,,,169,6,,,,1,None,Z,False,None,,,,,
n-back,,,,170,6,,,,1,None,N,False,None,,,,,
n-back,,,,171,6,,,,0,0.990090792067349,N,False,1,,,,,
n-back,,,,172,6,,,,1,None,X,False,None,,,,,
n-back,,,,173,6,,,,1,None,V,False,None,,,,,
n-back,,,,174,6,,,,1,None,N,False,None,,,,,
n-back,,,,175,6,,,,0,None,V,True,None,,,,,
n-back,,,,176,6,,,,1,None,Z,False,None,,,,,
n-back,,,,177,6,,,,0,None,V,True,None,,,,,
n-back,,,,178,6,,,,0,None,Z,True,None,,,,,
n-back,,,,179,6,,,,1,None,Z,False,None,,,,,
n-back,,,,180,6,,,,1,0.48890570900402963,Z,True,1,,,,,
choice,fixation,132.0344010000117,133.03958654101007,41,6,,,,,,,,,Animal,,,,
choice,option,133.04877450014465,134.07723650010303,41,6,,,,,,,,,Animal,,,,
choice,choice,134.07740420801565,143.58965233317576,41,6,,,2,0,8.50073429197073,,,,Animal,,,,
choice,fixation,143.58982016611844,144.0946547910571,42,6,,,,,,,,,Sea,,,,
choice,option,144.1039797910489,145.13075020816177,42,6,,,,,,,,,Sea,,,,
choice,choice,145.1308765830472,158.96651454106905,42,6,,,2,0,12.821305874967948,,,,Sea,,,,
choice,fixation,158.9666651659645,159.72174241603352,43,6,,,,,,,,,Object,,,,
choice,option,159.7315730410628,160.75866770814173,43,6,,,,,,,,,Object,,,,
choice,choice,160.75880566611886,176.3482775001321,43,6,,,2,0,14.576413000002503,,,,Object,,,,
choice,fixation,176.34845612500794,177.60343670798466,44,6,,,,,,,,,Large,,,,
choice,option,177.61329341609962,178.64057716610841,44,6,,,,,,,,,Large,,,,
choice,choice,178.64070495800115,180.2591247910168,44,6,,,1,1,0.6051915842108428,,,,Large,,,,
choice,fixation,180.2593433749862,181.26434070803225,45,6,,,,,,,,,Solid,,,,
choice,option,181.2746488749981,182.30181745812297,45,6,,,,,,,,,Solid,,,,
choice,choice,182.3019322080072,196.87535566603765,45,6,,,1,1,13.562532166019082,,,,Solid,,,,
choice,fixation,196.87559170811437,198.38070450001396,46,6,,,,,,,,,Pattern,,,,
choice,option,198.389974916121,199.4177656660322,46,6,,,,,,,,,Pattern,,,,
choice,choice,199.41789008304477,207.43195541598834,46,6,,,1,0,6.999979833839461,,,,Pattern,,,,
choice,fixation,207.43210258311592,208.1881174161099,47,6,,,,,,,,,Small,,,,
choice,option,208.19817779096775,209.22553333314136,47,6,,,,,,,,,Small,,,,
choice,choice,209.2256543750409,220.91543679102324,47,6,,,1,0,10.678531249985099,,,,Small,,,,
choice,fixation,220.91555670811795,221.42082241596654,48,6,,,,,,,,,Land,,,,
choice,option,221.42964212503284,222.45642854110338,48,6,,,,,,,,,Land,,,,
choice,choice,222.45654283300973,228.50661616609432,48,6,,,1,1,5.0400567499455065,,,,Land,,,,
memory,free_recall,241.90022512502037,268.3014498751145,30,6,,,,,,,,,,,,,
memory,value_recall,270.8621894160751,275.4529455830343,31,6,Object_Sea_Pattern_Small,,,,4.586501791840419,,,,,2,,,
memory,value_recall,276.9996469579637,282.28035600017756,32,6,Animal_Land_Pattern_Small,,,,5.27605945803225,,,,,6,,,
memory,value_recall,283.32716620806605,285.69366133306175,33,6,Object_Land_Solid_Large,,,,2.363014332950115,,,,,9,,,
memory,value_recall,286.9908820830751,290.8845544580836,34,6,Animal_Sea_Solid_Large,,,,3.888011916074902,,,,,9,,,
memory,value_recall,292.68243375001475,294.58224000013433,35,6,Object_Sea_Pattern_Large,,,,1.8955652499571443,,,,,-9,,,
memory,value_recall,295.62989162513986,298.8463155000936,36,6,Animal_Land_Solid_Small,,,,3.213818166172132,,,,,-9,,,
memory,spatial_recall,301.8280916251242,308.37569808308035,36,6,Animal_Land_Solid_Small,,,1,6.543350666062906,,,,,,"[-329, -190]","[-329, -190]",
memory,spatial_recall,309.93877466605045,310.90015808306634,36,6,Animal_Land_Pattern_Small,,,1,0.9571252909954637,,,,,,"[0, 380]","[0, 380]",
memory,spatial_recall,312.45491333305836,319.8954848749563,36,6,Object_Sea_Pattern_Large,,,1,7.43616524990648,,,,,,"[-329, 190]","[-329, 190]",
memory,spatial_recall,320.9480267080944,322.2783986660652,36,6,Object_Land_Solid_Large,,,1,1.3276967080309987,,,,,,"[0, -380]","[0, -380]",
memory,spatial_recall,323.58126595802605,324.99817641614936,36,6,Object_Sea_Pattern_Small,,,1,1.4128868749830872,,,,,,"[329, -190]","[329, -190]",
memory,spatial_recall,326.8182403331157,328.1250938330777,36,6,Animal_Sea_Solid_Large,,,1,1.3027318341191858,,,,,,"[329, 189]","[329, 189]",
encoding,fixation,2.6049887919798493,3.6117230418603867,37,7,Object_Land_Pattern_Large,-1,,,,,,,,,,,
encoding,image,3.611860709032044,4.625084041850641,37,7,Object_Land_Pattern_Large,-1,,,,,,,,,,,
encoding,value,4.625200625043362,10.639781750040129,37,7,Object_Land_Pattern_Large,-1,,,,,,,,,,,
encoding,attention,10.639911624835804,13.66029233392328,37,7,Object_Land_Pattern_Large,-1,-1,1,0.5034736669622362,,,,,,,,
encoding,fixation,13.660450416849926,15.165939124999568,38,7,Object_Sea_Solid_Small,-3,,,,,,,,,,,
encoding,image,15.166090124985203,16.17664433387108,38,7,Object_Sea_Solid_Small,-3,,,,,,,,,,,
encoding,value,16.176760124973953,22.187683791853487,38,7,Object_Sea_Solid_Small,-3,,,,,,,,,,,
encoding,attention,22.18781429203227,25.206967166857794,38,7,Object_Sea_Solid_Small,-3,-3,1,0.6316937499213964,,,,,,,,
encoding,fixation,25.207127125002444,26.462642958853394,39,7,Object_Land_Solid_Small,7,,,,,,,,,,,
encoding,image,26.462757874978706,27.47399933403358,39,7,Object_Land_Solid_Small,7,,,,,,,,,,,
encoding,value,27.47411808394827,33.48967645899393,39,7,Object_Land_Solid_Small,7,,,,,,,,,,,
encoding,attention,33.48979820893146,36.50946316705085,39,7,Object_Land_Solid_Small,7,+7,1,0.5892427091021091,,,,,,,,
encoding,fixation,36.50963966688141,37.01533791702241,40,7,Animal_Sea_Pattern_Large,9,,,,,,,,,,,
encoding,image,37.015447709010914,38.025975208962336,40,7,Animal_Sea_Pattern_Large,9,,,,,,,,,,,
encoding,value,38.02617112500593,44.03898220905103,40,7,Animal_Sea_Pattern_Large,9,,,,,,,,,,,
encoding,attention,44.03913541696966,47.05639283405617,40,7,Animal_Sea_Pattern_Large,9,+9,1,0.47520599979907274,,,,,,,,
encoding,fixation,47.056561291916296,47.811966083943844,41,7,Animal_Sea_Solid_Small,-2,,,,,,,,,,,
encoding,image,47.81206770893186,48.823009833926335,41,7,Animal_Sea_Solid_Small,-2,,,,,,,,,,,
encoding,value,48.82313133403659,54.83526674984023,41,7,Animal_Sea_Solid_Small,-2,,,,,,,,,,,
encoding,attention,54.83538149995729,57.85250562499277,41,7,Animal_Sea_Solid_Small,-2,-2,1,0.35868737497366965,,,,,,,,
encoding,fixation,57.85267204185948,58.60796695901081,42,7,Animal_Land_Pattern_Large,-2,,,,,,,,,,,
encoding,image,58.60807645902969,59.62075462494977,42,7,Animal_Land_Pattern_Large,-2,,,,,,,,,,,
encoding,value,59.62086679204367,65.63252141699195,42,7,Animal_Land_Pattern_Large,-2,,,,,,,,,,,
encoding,attention,65.63263550004922,68.65016600000672,42,7,Animal_Land_Pattern_Large,-2,-2,1,0.8341565830633044,,,,,,,,
n-back,,,,181,7,,,,0,None,N,True,None,,,,,
n-back,,,,182,7,,,,1,None,N,False,None,,,,,
n-back,,,,183,7,,,,1,None,B,False,None,,,,,
n-back,,,,184,7,,,,1,None,V,False,None,,,,,
n-back,,,,185,7,,,,1,None,V,False,None,,,,,
n-back,,,,186,7,,,,1,None,B,False,None,,,,,
n-back,,,,187,7,,,,1,None,B,False,None,,,,,
n-back,,,,188,7,,,,1,0.7290537080261856,B,True,1,,,,,
n-back,,,,189,7,,,,1,None,Z,False,None,,,,,
n-back,,,,190,7,,,,1,0.35868620802648365,B,True,1,,,,,
n-back,,,,191,7,,,,1,None,B,False,None,,,,,
n-back,,,,192,7,,,,1,None,N,False,None,,,,,
n-back,,,,193,7,,,,1,0.586804874939844,B,True,1,,,,,
n-back,,,,194,7,,,,0,None,N,True,None,,,,,
n-back,,,,195,7,,,,1,None,V,False,None,,,,,
n-back,,,,196,7,,,,1,None,C,False,None,,,,,
n-back,,,,197,7,,,,1,None,B,False,None,,,,,
n-back,,,,198,7,,,,0,None,C,True,None,,,,,
n-back,,,,199,7,,,,1,None,N,False,None,,,,,
n-back,,,,200,7,,,,1,0.41336608305573463,C,True,1,,,,,
n-back,,,,201,7,,,,1,None,B,False,None,,,,,
n-back,,,,202,7,,,,1,None,B,False,None,,,,,
n-back,,,,203,7,,,,1,None,V,False,None,,,,,
n-back,,,,204,7,,,,1,None,Z,False,None,,,,,
n-back,,,,205,7,,,,1,1.0617542080581188,V,True,1,,,,,
n-back,,,,206,7,,,,1,None,B,False,None,,,,,
n-back,,,,207,7,,,,1,None,C,False,None,,,,,
n-back,,,,208,7,,,,1,0.4078494170680642,B,True,1,,,,,
n-back,,,,209,7,,,,1,None,X,False,None,,,,,
n-back,,,,210,7,,,,0,None,B,True,None,,,,,
choice,fixation,129.5762968340423,130.58117504185066,49,7,,,,,,,,,Sea,,,,
choice,option,130.58988691703416,131.61677191685885,49,7,,,,,,,,,Sea,,,,
choice,choice,131.6168878339231,136.32539274985902,49,7,,,1,1,3.6978589999489486,,,,Sea,,,,
choice,fixation,136.32551874988712,137.83060758397914,50,7,,,,,,,,,Object,,,,
choice,option,137.8402265838813,138.8671036248561,50,7,,,,,,,,,Object,,,,
choice,choice,138.86724470905028,143.81918799993582,50,7,,,1,1,3.9416889171116054,,,,Object,,,,
choice,fixation,143.8193165420089,145.07443683384918,51,7,,,,,,,,,Pattern,,,,
choice,option,145.08388462499715,146.11094220890664,51,7,,,,,,,,,Pattern,,,,
choice,choice,146.11106349993497,148.84515683399513,51,7,,,1,1,1.723421375034377,,,,Pattern,,,,
choice,fixation,148.84530483395793,150.1009044589009,52,7,,,,,,,,,Small,,,,
choice,option,150.11051908391528,151.13693104195409,52,7,,,,,,,,,Small,,,,
choice,choice,151.1370520000346,158.30948366690427,52,7,,,1,1,6.162160167004913,,,,Small,,,,
choice,fixation,158.3096102499403,159.56465754192322,53,7,,,,,,,,,Land,,,,
choice,option,159.57349550002255,160.60048937494867,53,7,,,,,,,,,Land,,,,
choice,choice,160.60060433391482,167.16463158396073,53,7,,,1,1,5.554009082959965,,,,Land,,,,
choice,fixation,167.16476291697472,167.92157975002192,54,7,,,,,,,,,Animal,,,,
choice,option,167.93154891696759,168.95833979197778,54,7,,,,,,,,,Animal,,,,
choice,choice,168.95847887499258,174.36323716701008,54,7,,,1,1,4.394475916866213,,,,Animal,,,,
choice,fixation,174.3633823748678,174.86846049991436,55,7,,,,,,,,,Large,,,,
choice,option,174.87746520899236,175.9048449168913,55,7,,,,,,,,,Large,,,,
choice,choice,175.90495045902207,179.25196200003847,55,7,,,1,1,2.3360122081357986,,,,Large,,,,
choice,fixation,179.25210066698492,180.75705445883796,56,7,,,,,,,,,Solid,,,,
choice,option,180.76686724997126,181.79371904185973,56,7,,,,,,,,,Solid,,,,
choice,choice,181.79385966691189,184.82846120884642,56,7,,,1,1,2.0246058749035,,,,Solid,,,,
memory,free_recall,198.20457133394666,216.22205279185437,36,7,,,,,,,,,,,,,
memory,value_recall,219.31414091703482,223.8622147089336,37,7,Object_Sea_Solid_Small,,,,4.539965207921341,,,,,-3,,,
memory,value_recall,225.4091402918566,227.21441429201514,38,7,Object_Land_Pattern_Large,,,,1.8000765000469983,,,,,-1,,,
memory,value_recall,229.26235800003633,232.8551872088574,39,7,Animal_Sea_Solid_Small,,,,3.588648041943088,,,,,-2,,,
memory,value_recall,234.4841092498973,235.93699324992485,40,7,Animal_Land_Pattern_Large,,,,1.4485287910792977,,,,,-2,,,
memory,value_recall,237.2329611668829,239.7024891669862,41,7,Object_Land_Solid_Small,,,,2.463795208139345,,,,,7,,,
memory,value_recall,240.74863499985076,242.57324445899576,42,7,Animal_Sea_Pattern_Large,,,,1.821814167080447,,,,,9,,,
memory,spatial_recall,246.26685062493198,253.18207841692492,42,7,Object_Sea_Solid_Small,,,1,6.9101976249367,,,,,,"[0, 380]","[0, 380]",
memory,spatial_recall,254.99175733397715,258.0315924589522,42,7,Animal_Sea_Pattern_Large,,,1,3.03561104205437,,,,,,"[329, 189]","[329, 189]",
memory,spatial_recall,260.1014976669103,261.4881990419235,42,7,Object_Land_Pattern_Large,,,1,1.3822341251652688,,,,,,"[-329, -190]","[-329, -190]",
memory,spatial_recall,263.0537525420077,264.33692620904185,42,7,Animal_Land_Pattern_Large,,,1,1.2785406250040978,,,,,,"[329, -190]","[329, -190]",
memory,spatial_recall,265.8952639999334,267.62049162504263,42,7,Object_Land_Solid_Small,,,1,1.7208697500173002,,,,,,"[-329, 190]","[-329, 190]",
memory,spatial_recall,269.4250772499945,270.4049082919955,42,7,Animal_Sea_Solid_Small,,,1,0.9756472080480307,,,,,,"[0, -380]","[0, -380]",
