phase,event,trial_number,eyetracker_onset,eyetracker_offset,fix_start,fix_end,fix_duration_full,fix_duration_bounded,fix_x,fix_y,roi_x,roi_y,roi_content,onset,offset,game,image,outcome,choice,correct,rt,letter,match,response,option,true_value,true_position,recalled_position,Unnamed: 18
encoding,fixation,1,10295946,10296963,10296174.0,10296366.0,193.0,193.0,1791.4,1273.7,1591.0,891.0,Object_Land_Solid_Small,11.897035917034373,12.913695000112057,1.0,Object_Land_Solid_Small,8.0,,,,,,,,,,,
encoding,fixation,1,10295946,10296963,10296384.0,10296470.0,87.0,87.0,1862.1,1144.4,1591.0,891.0,Object_Land_Solid_Small,11.897035917034373,12.913695000112057,1.0,Object_Land_Solid_Small,8.0,,,,,,,,,,,
encoding,fixation,1,10295946,10296963,10296615.0,10297004.0,390.0,348.0,1830.9,1187.1,1591.0,891.0,Object_Land_Solid_Small,11.897035917034373,12.913695000112057,1.0,Object_Land_Solid_Small,8.0,,,,,,,,,,,
encoding,image,1,10296963,10297983,10297021.0,10297220.0,200.0,200.0,1856.1,1099.6,1920.0,1080.0,fixation,12.913829083088784,13.934452875051647,1.0,Object_Land_Solid_Small,8.0,,,,,,,,,,,
encoding,image,1,10296963,10297983,10297257.0,10297636.0,380.0,380.0,1506.5,1296.7,1591.0,891.0,Object_Land_Solid_Small,12.913829083088784,13.934452875051647,1.0,Object_Land_Solid_Small,8.0,,,,,,,,,,,
encoding,image,1,10296963,10297983,10297645.0,10297902.0,258.0,258.0,1560.6,1295.9,1591.0,891.0,Object_Land_Solid_Small,12.913829083088784,13.934452875051647,1.0,Object_Land_Solid_Small,8.0,,,,,,,,,,,
encoding,image,1,10296963,10297983,10297909.0,10298170.0,262.0,74.0,1514.9,1280.3,1591.0,891.0,Object_Land_Solid_Small,12.913829083088784,13.934452875051647,1.0,Object_Land_Solid_Small,8.0,,,,,,,,,,,
encoding,value,1,10297983,10304004,10298185.0,10300640.0,2456.0,2456.0,1542.2,1209.9,1591.0,891.0,Object_Land_Solid_Small,13.934584458125755,19.954782042186707,1.0,Object_Land_Solid_Small,8.0,,,,,,,,,,,
encoding,value,1,10297983,10304004,10300663.0,10300988.0,326.0,326.0,1741.4,1150.3,1591.0,891.0,Object_Land_Solid_Small,13.934584458125755,19.954782042186707,1.0,Object_Land_Solid_Small,8.0,,,,,,,,,,,
encoding,value,1,10297983,10304004,10301013.0,10301870.0,858.0,858.0,1548.2,1199.7,1591.0,891.0,Object_Land_Solid_Small,13.934584458125755,19.954782042186707,1.0,Object_Land_Solid_Small,8.0,,,,,,,,,,,
encoding,value,1,10297983,10304004,10301891.0,10302088.0,198.0,198.0,1704.1,1172.0,1591.0,891.0,Object_Land_Solid_Small,13.934584458125755,19.954782042186707,1.0,Object_Land_Solid_Small,8.0,,,,,,,,,,,
encoding,value,1,10297983,10304004,10302109.0,10303165.0,1057.0,1057.0,1545.7,1195.6,1591.0,891.0,Object_Land_Solid_Small,13.934584458125755,19.954782042186707,1.0,Object_Land_Solid_Small,8.0,,,,,,,,,,,
encoding,value,1,10297983,10304004,10303190.0,10303456.0,267.0,267.0,1782.7,1139.5,1591.0,891.0,Object_Land_Solid_Small,13.934584458125755,19.954782042186707,1.0,Object_Land_Solid_Small,8.0,,,,,,,,,,,
encoding,value,1,10297983,10304004,10303483.0,10304042.0,560.0,521.0,1545.2,1192.6,1591.0,891.0,Object_Land_Solid_Small,13.934584458125755,19.954782042186707,1.0,Object_Land_Solid_Small,8.0,,,,,,,,,,,
encoding,attention,1,10304004,10307027,10304063.0,10304311.0,249.0,249.0,1787.1,1143.2,1591.0,891.0,Object_Land_Solid_Small,19.95493808318861,22.977208125172183,1.0,Object_Land_Solid_Small,8.0,-5.0,0.0,2.57289908407256,,,,,,,,
encoding,attention,1,10304004,10307027,10304337.0,10304873.0,537.0,537.0,1496.1,1192.7,1591.0,891.0,Object_Land_Solid_Small,19.95493808318861,22.977208125172183,1.0,Object_Land_Solid_Small,8.0,-5.0,0.0,2.57289908407256,,,,,,,,
encoding,attention,1,10304004,10307027,10304882.0,10305145.0,264.0,264.0,1569.2,1198.4,1591.0,891.0,Object_Land_Solid_Small,19.95493808318861,22.977208125172183,1.0,Object_Land_Solid_Small,8.0,-5.0,0.0,2.57289908407256,,,,,,,,
encoding,attention,1,10304004,10307027,10305156.0,10305786.0,631.0,631.0,1517.3,1196.3,1591.0,891.0,Object_Land_Solid_Small,19.95493808318861,22.977208125172183,1.0,Object_Land_Solid_Small,8.0,-5.0,0.0,2.57289908407256,,,,,,,,
encoding,attention,1,10304004,10307027,10305797.0,10306103.0,307.0,307.0,1487.3,1184.0,1591.0,891.0,Object_Land_Solid_Small,19.95493808318861,22.977208125172183,1.0,Object_Land_Solid_Small,8.0,-5.0,0.0,2.57289908407256,,,,,,,,
encoding,attention,1,10304004,10307027,10306113.0,10306462.0,350.0,350.0,1563.4,1195.1,1591.0,891.0,Object_Land_Solid_Small,19.95493808318861,22.977208125172183,1.0,Object_Land_Solid_Small,8.0,-5.0,0.0,2.57289908407256,,,,,,,,
encoding,fixation,2,10307027,10308032,10307280.0,10307694.0,415.0,415.0,1873.9,1101.6,1920.0,1080.0,fixation,22.977352375164628,23.9823904579971,1.0,Object_Sea_Solid_Small,-2.0,,,,,,,,,,,
encoding,fixation,2,10307027,10308032,10307854.0,10308241.0,388.0,178.0,1850.2,1109.8,1591.0,891.0,Object_Land_Solid_Small,22.977352375164628,23.9823904579971,1.0,Object_Sea_Solid_Small,-2.0,,,,,,,,,,,
encoding,image,2,10308032,10309043,10308284.0,10308413.0,130.0,130.0,1830.5,1416.7,1920.0,700.0,Object_Sea_Solid_Small,23.982544375117868,24.993196125142276,1.0,Object_Sea_Solid_Small,-2.0,,,,,,,,,,,
encoding,image,2,10308032,10309043,10308426.0,10309271.0,846.0,617.0,1853.1,1481.8,1920.0,700.0,Object_Sea_Solid_Small,23.982544375117868,24.993196125142276,1.0,Object_Sea_Solid_Small,-2.0,,,,,,,,,,,
encoding,value,2,10309043,10315054,10309288.0,10310212.0,925.0,925.0,1854.0,1395.5,1920.0,700.0,Object_Sea_Solid_Small,24.99330158298835,31.004643167136237,1.0,Object_Sea_Solid_Small,-2.0,,,,,,,,,,,
encoding,value,2,10309043,10315054,10310370.0,10314419.0,4050.0,4050.0,1848.6,1388.8,1920.0,700.0,Object_Sea_Solid_Small,24.99330158298835,31.004643167136237,1.0,Object_Sea_Solid_Small,-2.0,,,,,,,,,,,
encoding,value,2,10309043,10315054,10314429.0,10314614.0,186.0,186.0,1858.0,1424.6,1920.0,700.0,Object_Sea_Solid_Small,24.99330158298835,31.004643167136237,1.0,Object_Sea_Solid_Small,-2.0,,,,,,,,,,,
encoding,value,2,10309043,10315054,10314623.0,10314919.0,297.0,297.0,1842.2,1388.5,1920.0,700.0,Object_Sea_Solid_Small,24.99330158298835,31.004643167136237,1.0,Object_Sea_Solid_Small,-2.0,,,,,,,,,,,
encoding,attention,2,10315054,10318073,10315073.0,10315720.0,648.0,648.0,1815.3,1386.5,1920.0,700.0,Object_Sea_Solid_Small,31.00477495812811,34.02306562499143,1.0,Object_Sea_Solid_Small,-2.0,-2.0,1.0,2.0784457919653505,,,,,,,,
encoding,attention,2,10315054,10318073,10315732.0,10315931.0,200.0,200.0,1899.9,1383.7,1920.0,700.0,Object_Sea_Solid_Small,31.00477495812811,34.02306562499143,1.0,Object_Sea_Solid_Small,-2.0,-2.0,1.0,2.0784457919653505,,,,,,,,
encoding,attention,2,10315054,10318073,10315943.0,10316340.0,398.0,398.0,1814.2,1383.9,1920.0,700.0,Object_Sea_Solid_Small,31.00477495812811,34.02306562499143,1.0,Object_Sea_Solid_Small,-2.0,-2.0,1.0,2.0784457919653505,,,,,,,,
encoding,attention,2,10315054,10318073,10316355.0,10317596.0,1242.0,1242.0,1882.5,1388.6,1920.0,700.0,Object_Sea_Solid_Small,31.00477495812811,34.02306562499143,1.0,Object_Sea_Solid_Small,-2.0,-2.0,1.0,2.0784457919653505,,,,,,,,
encoding,attention,2,10315054,10318073,10317607.0,10317901.0,295.0,295.0,1805.0,1378.7,1920.0,700.0,Object_Sea_Solid_Small,31.00477495812811,34.02306562499143,1.0,Object_Sea_Solid_Small,-2.0,-2.0,1.0,2.0784457919653505,,,,,,,,
encoding,fixation,3,10318073,10319328,10318448.0,10318594.0,147.0,147.0,1876.6,1062.4,1920.0,1080.0,fixation,34.02329337503761,35.27831475017592,1.0,Object_Land_Pattern_Large,-8.0,,,,,,,,,,,
encoding,fixation,3,10318073,10319328,10318604.0,10318853.0,250.0,250.0,1857.5,1102.6,1920.0,1080.0,fixation,34.02329337503761,35.27831475017592,1.0,Object_Land_Pattern_Large,-8.0,,,,,,,,,,,
encoding,fixation,3,10318073,10319328,10318878.0,10319474.0,597.0,450.0,1827.0,1278.5,1920.0,700.0,Object_Sea_Solid_Small,34.02329337503761,35.27831475017592,1.0,Object_Land_Pattern_Large,-8.0,,,,,,,,,,,
encoding,image,3,10319328,10320340,10319521.0,10319665.0,145.0,145.0,1593.7,957.2,1591.0,1269.0,Object_Land_Pattern_Large,35.27841916703619,36.29009912512265,1.0,Object_Land_Pattern_Large,-8.0,,,,,,,,,,,
encoding,image,3,10319328,10320340,10319681.0,10320102.0,422.0,422.0,1544.0,868.5999999999999,1591.0,1269.0,Object_Land_Pattern_Large,35.27841916703619,36.29009912512265,1.0,Object_Land_Pattern_Large,-8.0,,,,,,,,,,,
encoding,image,3,10319328,10320340,10320300.0,10320560.0,261.0,40.0,1550.8,890.0,1591.0,1269.0,Object_Land_Pattern_Large,35.27841916703619,36.29009912512265,1.0,Object_Land_Pattern_Large,-8.0,,,,,,,,,,,
encoding,value,3,10320340,10326356,10320579.0,10321123.0,545.0,545.0,1561.1,793.7,1591.0,1269.0,Object_Land_Pattern_Large,36.29019695799798,42.306036667199805,1.0,Object_Land_Pattern_Large,-8.0,,,,,,,,,,,
encoding,value,3,10320340,10326356,10321131.0,10321583.0,453.0,453.0,1554.0,821.2,1591.0,1269.0,Object_Land_Pattern_Large,36.29019695799798,42.306036667199805,1.0,Object_Land_Pattern_Large,-8.0,,,,,,,,,,,
encoding,value,3,10320340,10326356,10321593.0,10321888.0,296.0,296.0,1567.7,873.4000000000001,1591.0,1269.0,Object_Land_Pattern_Large,36.29019695799798,42.306036667199805,1.0,Object_Land_Pattern_Large,-8.0,,,,,,,,,,,
encoding,value,3,10320340,10326356,10321900.0,10322293.0,394.0,394.0,1552.8,808.2,1591.0,1269.0,Object_Land_Pattern_Large,36.29019695799798,42.306036667199805,1.0,Object_Land_Pattern_Large,-8.0,,,,,,,,,,,
encoding,value,3,10320340,10326356,10322305.0,10323101.0,797.0,797.0,1565.4,902.7,1591.0,1269.0,Object_Land_Pattern_Large,36.29019695799798,42.306036667199805,1.0,Object_Land_Pattern_Large,-8.0,,,,,,,,,,,
encoding,value,3,10320340,10326356,10323120.0,10327170.0,4051.0,3236.0,1570.5,819.4000000000001,1591.0,1269.0,Object_Land_Pattern_Large,36.29019695799798,42.306036667199805,1.0,Object_Land_Pattern_Large,-8.0,,,,,,,,,,,
encoding,attention,3,10326356,10329375,10327183.0,10328584.0,1402.0,1402.0,1541.9,829.0999999999999,1591.0,1269.0,Object_Land_Pattern_Large,42.306133250007406,45.32497333316133,1.0,Object_Land_Pattern_Large,-8.0,-8.0,1.0,1.8010383339133114,,,,,,,,
encoding,attention,3,10326356,10329375,10328593.0,10328920.0,328.0,328.0,1498.7,802.4000000000001,1591.0,1269.0,Object_Land_Pattern_Large,42.306133250007406,45.32497333316133,1.0,Object_Land_Pattern_Large,-8.0,-8.0,1.0,1.8010383339133114,,,,,,,,
encoding,attention,3,10326356,10329375,10328931.0,10329180.0,250.0,250.0,1570.1,824.2,1591.0,1269.0,Object_Land_Pattern_Large,42.306133250007406,45.32497333316133,1.0,Object_Land_Pattern_Large,-8.0,-8.0,1.0,1.8010383339133114,,,,,,,,
encoding,fixation,4,10329375,10329880,10329501.0,10329615.0,115.0,115.0,1580.7,878.0,1591.0,1269.0,Object_Land_Pattern_Large,45.32512129214592,45.83014070801437,1.0,Animal_Sea_Solid_Small,-4.0,,,,,,,,,,,
encoding,fixation,4,10329375,10329880,10329860.0,10329947.0,88.0,20.0,1898.7,1146.8,1920.0,700.0,Object_Sea_Solid_Small,45.32512129214592,45.83014070801437,1.0,Animal_Sea_Solid_Small,-4.0,,,,,,,,,,,
encoding,image,4,10329881,10330892,10329957.0,10330181.0,225.0,225.0,1849.8,1144.0,1591.0,891.0,Object_Land_Solid_Small,45.83023325004615,46.842024667188525,1.0,Animal_Sea_Solid_Small,-4.0,,,,,,,,,,,
encoding,image,4,10329881,10330892,10330231.0,10331141.0,911.0,661.0,1882.7,638.3,1920.0,1460.0,Animal_Sea_Solid_Small,45.83023325004615,46.842024667188525,1.0,Animal_Sea_Solid_Small,-4.0,,,,,,,,,,,
encoding,value,4,10330892,10336906,10331158.0,10332235.0,1078.0,1078.0,1883.0,619.0,1920.0,1460.0,Animal_Sea_Solid_Small,46.84213554207235,52.8551400420256,1.0,Animal_Sea_Solid_Small,-4.0,,,,,,,,,,,
encoding,value,4,10330892,10336906,10332255.0,10334833.0,2579.0,2579.0,1872.4,617.3,1920.0,1460.0,Animal_Sea_Solid_Small,46.84213554207235,52.8551400420256,1.0,Animal_Sea_Solid_Small,-4.0,,,,,,,,,,,
encoding,value,4,10330892,10336906,10334842.0,10335703.0,862.0,862.0,1870.2,665.7,1920.0,1460.0,Animal_Sea_Solid_Small,46.84213554207235,52.8551400420256,1.0,Animal_Sea_Solid_Small,-4.0,,,,,,,,,,,
encoding,value,4,10330892,10336906,10335718.0,10336071.0,354.0,354.0,1851.5,594.3,1920.0,1460.0,Animal_Sea_Solid_Small,46.84213554207235,52.8551400420256,1.0,Animal_Sea_Solid_Small,-4.0,,,,,,,,,,,
encoding,value,4,10330892,10336906,10336307.0,10338705.0,2399.0,599.0,1878.1,603.5,1920.0,1460.0,Animal_Sea_Solid_Small,46.84213554207235,52.8551400420256,1.0,Animal_Sea_Solid_Small,-4.0,,,,,,,,,,,
encoding,attention,4,10336906,10339926,10338719.0,10339095.0,377.0,377.0,1818.7,675.2,1920.0,1460.0,Animal_Sea_Solid_Small,52.85530291707255,55.87568362499587,1.0,Animal_Sea_Solid_Small,-4.0,-4.0,1.0,1.1474480000324547,,,,,,,,
encoding,attention,4,10336906,10339926,10339113.0,10339333.0,221.0,221.0,1950.9,812.7,1920.0,1460.0,Animal_Sea_Solid_Small,52.85530291707255,55.87568362499587,1.0,Animal_Sea_Solid_Small,-4.0,-4.0,1.0,1.1474480000324547,,,,,,,,
encoding,fixation,5,10339927,10340932,10340103.0,10340259.0,157.0,157.0,1882.9,1118.6,1920.0,1080.0,fixation,55.87586029199883,56.8811735000927,1.0,Animal_Land_Pattern_Large,5.0,,,,,,,,,,,
encoding,fixation,5,10339927,10340932,10340269.0,10340640.0,372.0,372.0,1843.3,1132.3,1591.0,891.0,Object_Land_Solid_Small,55.87586029199883,56.8811735000927,1.0,Animal_Land_Pattern_Large,5.0,,,,,,,,,,,
encoding,fixation,5,10339927,10340932,10340649.0,10341104.0,456.0,283.0,1859.3,1179.5,1591.0,891.0,Object_Land_Solid_Small,55.87586029199883,56.8811735000927,1.0,Animal_Land_Pattern_Large,5.0,,,,,,,,,,,
encoding,image,5,10340932,10341943,10341143.0,10341322.0,180.0,180.0,2238.4,948.5999999999999,2249.0,1269.0,Animal_Land_Pattern_Large,56.88129495806061,57.892001333180815,1.0,Animal_Land_Pattern_Large,5.0,,,,,,,,,,,
encoding,image,5,10340932,10341943,10341332.0,10341958.0,627.0,611.0,2170.7,950.0999999999999,2249.0,1269.0,Animal_Land_Pattern_Large,56.88129495806061,57.892001333180815,1.0,Animal_Land_Pattern_Large,5.0,,,,,,,,,,,
encoding,value,5,10341943,10347956,10341973.0,10342690.0,718.0,718.0,2219.2,839.7,2249.0,1269.0,Animal_Land_Pattern_Large,57.89216720801778,63.9044997501187,1.0,Animal_Land_Pattern_Large,5.0,,,,,,,,,,,
encoding,value,5,10341943,10347956,10342699.0,10343885.0,1187.0,1187.0,2193.2,864.2,2249.0,1269.0,Animal_Land_Pattern_Large,57.89216720801778,63.9044997501187,1.0,Animal_Land_Pattern_Large,5.0,,,,,,,,,,,
encoding,value,5,10341943,10347956,10343895.0,10344574.0,680.0,680.0,2209.7,821.8,2249.0,1269.0,Animal_Land_Pattern_Large,57.89216720801778,63.9044997501187,1.0,Animal_Land_Pattern_Large,5.0,,,,,,,,,,,
encoding,value,5,10341943,10347956,10344833.0,10346599.0,1767.0,1767.0,2196.9,830.5,2249.0,1269.0,Animal_Land_Pattern_Large,57.89216720801778,63.9044997501187,1.0,Animal_Land_Pattern_Large,5.0,,,,,,,,,,,
encoding,value,5,10341943,10347956,10346622.0,10346891.0,270.0,270.0,2072.3,931.5999999999999,2249.0,1269.0,Animal_Land_Pattern_Large,57.89216720801778,63.9044997501187,1.0,Animal_Land_Pattern_Large,5.0,,,,,,,,,,,
encoding,value,5,10341943,10347956,10346898.0,10347350.0,453.0,453.0,2152.4,948.5999999999999,2249.0,1269.0,Animal_Land_Pattern_Large,57.89216720801778,63.9044997501187,1.0,Animal_Land_Pattern_Large,5.0,,,,,,,,,,,
encoding,value,5,10341943,10347956,10347365.0,10349123.0,1759.0,591.0,2208.5,830.0999999999999,2249.0,1269.0,Animal_Land_Pattern_Large,57.89216720801778,63.9044997501187,1.0,Animal_Land_Pattern_Large,5.0,,,,,,,,,,,
encoding,attention,5,10347956,10351017,10349351.0,10350480.0,1130.0,1130.0,2179.4,929.0,2249.0,1269.0,Animal_Land_Pattern_Large,63.90462958300486,66.96597450016998,1.0,Animal_Land_Pattern_Large,5.0,5.0,1.0,0.8636367500294,,,,,,,,
encoding,fixation,6,10351017,10352023,10351718.0,10352393.0,676.0,305.0,1915.0,1199.2,1920.0,700.0,Object_Sea_Solid_Small,66.96613650000654,67.97131758299656,1.0,Animal_Sea_Pattern_Large,2.0,,,,,,,,,,,
encoding,image,6,10352023,10353033,10352402.0,10353428.0,1027.0,631.0,1872.0,1158.5,1591.0,891.0,Object_Land_Solid_Small,67.97142462502234,68.9818015419878,1.0,Animal_Sea_Pattern_Large,2.0,,,,,,,,,,,
encoding,value,6,10353033,10359045,10353641.0,10354153.0,513.0,513.0,2231.2,1221.2,2249.0,891.0,Animal_Sea_Pattern_Large,68.98188800015487,74.99294550018385,1.0,Animal_Sea_Pattern_Large,2.0,,,,,,,,,,,
encoding,value,6,10353033,10359045,10354164.0,10354473.0,310.0,310.0,2165.8,1259.4,2249.0,891.0,Animal_Sea_Pattern_Large,68.98188800015487,74.99294550018385,1.0,Animal_Sea_Pattern_Large,2.0,,,,,,,,,,,
encoding,value,6,10353033,10359045,10354484.0,10354891.0,408.0,408.0,2188.9,1306.3,2249.0,891.0,Animal_Sea_Pattern_Large,68.98188800015487,74.99294550018385,1.0,Animal_Sea_Pattern_Large,2.0,,,,,,,,,,,
encoding,value,6,10353033,10359045,10354903.0,10355222.0,320.0,320.0,2141.0,1334.9,2249.0,891.0,Animal_Sea_Pattern_Large,68.98188800015487,74.99294550018385,1.0,Animal_Sea_Pattern_Large,2.0,,,,,,,,,,,
encoding,value,6,10353033,10359045,10355247.0,10355431.0,185.0,185.0,1925.8,1180.9,1920.0,700.0,Object_Sea_Solid_Small,68.98188800015487,74.99294550018385,1.0,Animal_Sea_Pattern_Large,2.0,,,,,,,,,,,
encoding,value,6,10353033,10359045,10355673.0,10355930.0,258.0,258.0,1831.6,1114.6,1591.0,891.0,Object_Land_Solid_Small,68.98188800015487,74.99294550018385,1.0,Animal_Sea_Pattern_Large,2.0,,,,,,,,,,,
encoding,value,6,10353033,10359045,10355957.0,10356168.0,212.0,212.0,2174.7,1267.6,2249.0,891.0,Animal_Sea_Pattern_Large,68.98188800015487,74.99294550018385,1.0,Animal_Sea_Pattern_Large,2.0,,,,,,,,,,,
encoding,value,6,10353033,10359045,10356181.0,10357254.0,1074.0,1074.0,2166.0,1323.4,2249.0,891.0,Animal_Sea_Pattern_Large,68.98188800015487,74.99294550018385,1.0,Animal_Sea_Pattern_Large,2.0,,,,,,,,,,,
encoding,value,6,10353033,10359045,10357265.0,10357928.0,664.0,664.0,2127.0,1343.2,2249.0,891.0,Animal_Sea_Pattern_Large,68.98188800015487,74.99294550018385,1.0,Animal_Sea_Pattern_Large,2.0,,,,,,,,,,,
encoding,value,6,10353033,10359045,10357937.0,10359823.0,1887.0,1108.0,2143.8,1313.9,2249.0,891.0,Animal_Sea_Pattern_Large,68.98188800015487,74.99294550018385,1.0,Animal_Sea_Pattern_Large,2.0,,,,,,,,,,,
encoding,attention,6,10359045,10362061,10359836.0,10360497.0,662.0,662.0,2159.2,1251.0,2249.0,891.0,Animal_Sea_Pattern_Large,74.99305241717957,78.00937758316286,1.0,Animal_Sea_Pattern_Large,2.0,2.0,1.0,1.1657390838954598,,,,,,,,
encoding,attention,6,10359045,10362061,10360701.0,10360796.0,96.0,96.0,1907.4,1045.9,1920.0,1080.0,fixation,74.99305241717957,78.00937758316286,1.0,Animal_Sea_Pattern_Large,2.0,2.0,1.0,1.1657390838954598,,,,,,,,
encoding,attention,6,10359045,10362061,10360808.0,10361502.0,695.0,695.0,1833.0,1127.7,1591.0,891.0,Object_Land_Solid_Small,74.99305241717957,78.00937758316286,1.0,Animal_Sea_Pattern_Large,2.0,2.0,1.0,1.1657390838954598,,,,,,,,
encoding,attention,6,10359045,10362061,10361511.0,10361735.0,225.0,225.0,1886.3,1143.8,1920.0,700.0,Object_Sea_Solid_Small,74.99305241717957,78.00937758316286,1.0,Animal_Sea_Pattern_Large,2.0,2.0,1.0,1.1657390838954598,,,,,,,,
encoding,fixation,7,10785606,10786612,10785832.0,10786348.0,517.0,517.0,1895.2,1152.2,1920.0,700.0,Object_Sea_Solid_Large,10.504944791086018,11.510958875063809,2.0,Animal_Land_Solid_Small,8.0,,,,,,,,,,,
encoding,fixation,7,10785606,10786612,10786374.0,10786696.0,323.0,238.0,1702.6,1236.0,1591.0,891.0,Object_Sea_Pattern_Large,10.504944791086018,11.510958875063809,2.0,Animal_Land_Solid_Small,8.0,,,,,,,,,,,
encoding,image,7,10786613,10787624,10786714.0,10786817.0,104.0,104.0,1830.0,1253.8,1920.0,700.0,Object_Sea_Solid_Large,11.511068666120993,12.52279391605407,2.0,Animal_Land_Solid_Small,8.0,,,,,,,,,,,
encoding,image,7,10786613,10787624,10786855.0,10787784.0,930.0,769.0,1592.4,959.0999999999999,1591.0,1269.0,Animal_Land_Solid_Small,11.511068666120993,12.52279391605407,2.0,Animal_Land_Solid_Small,8.0,,,,,,,,,,,
encoding,value,7,10787624,10793638,10787806.0,10788004.0,199.0,199.0,1582.4,804.3,1591.0,1269.0,Animal_Land_Solid_Small,12.522915082983673,18.53585658292286,2.0,Animal_Land_Solid_Small,8.0,,,,,,,,,,,
encoding,value,7,10787624,10793638,10788012.0,10788652.0,641.0,641.0,1587.9,825.5,1591.0,1269.0,Animal_Land_Solid_Small,12.522915082983673,18.53585658292286,2.0,Animal_Land_Solid_Small,8.0,,,,,,,,,,,
encoding,value,7,10787624,10793638,10788674.0,10789369.0,696.0,696.0,1597.2,930.0,1591.0,1269.0,Animal_Land_Solid_Small,12.522915082983673,18.53585658292286,2.0,Animal_Land_Solid_Small,8.0,,,,,,,,,,,
encoding,value,7,10787624,10793638,10789572.0,10789894.0,323.0,323.0,1555.6,849.8,1591.0,1269.0,Animal_Land_Solid_Small,12.522915082983673,18.53585658292286,2.0,Animal_Land_Solid_Small,8.0,,,,,,,,,,,
encoding,value,7,10787624,10793638,10789918.0,10790830.0,913.0,913.0,1592.7,980.2,1591.0,1269.0,Animal_Land_Solid_Small,12.522915082983673,18.53585658292286,2.0,Animal_Land_Solid_Small,8.0,,,,,,,,,,,
encoding,value,7,10787624,10793638,10790836.0,10791090.0,255.0,255.0,1586.3,956.0,1591.0,1269.0,Animal_Land_Solid_Small,12.522915082983673,18.53585658292286,2.0,Animal_Land_Solid_Small,8.0,,,,,,,,,,,
encoding,value,7,10787624,10793638,10791100.0,10791635.0,536.0,536.0,1626.8,992.7,1591.0,1269.0,Animal_Land_Solid_Small,12.522915082983673,18.53585658292286,2.0,Animal_Land_Solid_Small,8.0,,,,,,,,,,,
encoding,value,7,10787624,10793638,10791656.0,10792538.0,883.0,883.0,1580.7,990.4000000000001,1591.0,1269.0,Animal_Land_Solid_Small,12.522915082983673,18.53585658292286,2.0,Animal_Land_Solid_Small,8.0,,,,,,,,,,,
encoding,value,7,10787624,10793638,10792549.0,10792888.0,340.0,340.0,1610.5,958.3,1591.0,1269.0,Animal_Land_Solid_Small,12.522915082983673,18.53585658292286,2.0,Animal_Land_Solid_Small,8.0,,,,,,,,,,,
encoding,value,7,10787624,10793638,10793106.0,10793347.0,242.0,242.0,1571.7,920.4000000000001,1591.0,1269.0,Animal_Land_Solid_Small,12.522915082983673,18.53585658292286,2.0,Animal_Land_Solid_Small,8.0,,,,,,,,,,,
encoding,value,7,10787624,10793638,10793365.0,10793587.0,223.0,223.0,1554.4,897.9000000000001,1591.0,1269.0,Animal_Land_Solid_Small,12.522915082983673,18.53585658292286,2.0,Animal_Land_Solid_Small,8.0,,,,,,,,,,,
encoding,value,7,10787624,10793638,10793597.0,10794013.0,417.0,41.0,1549.4,842.7,1591.0,1269.0,Animal_Land_Solid_Small,12.522915082983673,18.53585658292286,2.0,Animal_Land_Solid_Small,8.0,,,,,,,,,,,
encoding,attention,7,10793638,10796655,10794023.0,10794351.0,329.0,329.0,1580.4,835.7,1591.0,1269.0,Animal_Land_Solid_Small,18.535974124912173,21.553232375066727,2.0,Animal_Land_Solid_Small,8.0,8.0,1.0,1.8921838330570608,,,,,,,,
encoding,attention,7,10793638,10796655,10794364.0,10796109.0,1746.0,1746.0,1506.6,843.8,1591.0,1269.0,Animal_Land_Solid_Small,18.535974124912173,21.553232375066727,2.0,Animal_Land_Solid_Small,8.0,8.0,1.0,1.8921838330570608,,,,,,,,
encoding,attention,7,10793638,10796655,10796333.0,10796429.0,97.0,97.0,1537.8,820.9000000000001,1591.0,1269.0,Animal_Land_Solid_Small,18.535974124912173,21.553232375066727,2.0,Animal_Land_Solid_Small,8.0,8.0,1.0,1.8921838330570608,,,,,,,,
encoding,fixation,8,10796655,10797910,10796864.0,10797777.0,914.0,914.0,1737.8,1052.3,1591.0,1269.0,Animal_Land_Solid_Small,21.553402208024636,22.808489999966696,2.0,Animal_Sea_Pattern_Small,-7.0,,,,,,,,,,,
encoding,fixation,8,10796655,10797910,10797797.0,10798155.0,359.0,113.0,1874.7,1102.8,1920.0,1080.0,fixation,21.553402208024636,22.808489999966696,2.0,Animal_Sea_Pattern_Small,-7.0,,,,,,,,,,,
encoding,image,8,10797910,10798924,10798198.0,10798451.0,254.0,254.0,1874.7,828.0,1920.0,1460.0,Animal_Sea_Pattern_Small,22.808593250112608,23.822459457907826,2.0,Animal_Sea_Pattern_Small,-7.0,,,,,,,,,,,
encoding,image,8,10797910,10798924,10798648.0,10799194.0,547.0,276.0,1853.7,1075.6,1920.0,1080.0,fixation,22.808593250112608,23.822459457907826,2.0,Animal_Sea_Pattern_Small,-7.0,,,,,,,,,,,
encoding,value,8,10798925,10804937,10799249.0,10799474.0,226.0,226.0,1862.3,664.9000000000001,1920.0,1460.0,Animal_Sea_Pattern_Small,23.82259237510152,29.83480729092844,2.0,Animal_Sea_Pattern_Small,-7.0,,,,,,,,,,,
encoding,value,8,10798925,10804937,10799483.0,10799835.0,353.0,353.0,1881.9,638.9000000000001,1920.0,1460.0,Animal_Sea_Pattern_Small,23.82259237510152,29.83480729092844,2.0,Animal_Sea_Pattern_Small,-7.0,,,,,,,,,,,
encoding,value,8,10798925,10804937,10799848.0,10800594.0,747.0,747.0,1861.2,720.7,1920.0,1460.0,Animal_Sea_Pattern_Small,23.82259237510152,29.83480729092844,2.0,Animal_Sea_Pattern_Small,-7.0,,,,,,,,,,,
encoding,value,8,10798925,10804937,10800611.0,10801269.0,659.0,659.0,1886.0,625.3,1920.0,1460.0,Animal_Sea_Pattern_Small,23.82259237510152,29.83480729092844,2.0,Animal_Sea_Pattern_Small,-7.0,,,,,,,,,,,
encoding,value,8,10798925,10804937,10801285.0,10801917.0,633.0,633.0,1876.9,713.5,1920.0,1460.0,Animal_Sea_Pattern_Small,23.82259237510152,29.83480729092844,2.0,Animal_Sea_Pattern_Small,-7.0,,,,,,,,,,,
encoding,value,8,10798925,10804937,10801926.0,10802550.0,625.0,625.0,1880.0,759.7,1920.0,1460.0,Animal_Sea_Pattern_Small,23.82259237510152,29.83480729092844,2.0,Animal_Sea_Pattern_Small,-7.0,,,,,,,,,,,
encoding,value,8,10798925,10804937,10802566.0,10804536.0,1971.0,1971.0,1884.4,661.5,1920.0,1460.0,Animal_Sea_Pattern_Small,23.82259237510152,29.83480729092844,2.0,Animal_Sea_Pattern_Small,-7.0,,,,,,,,,,,
encoding,value,8,10798925,10804937,10804759.0,10805149.0,391.0,178.0,1889.3,584.5999999999999,1920.0,1460.0,Animal_Sea_Pattern_Small,23.82259237510152,29.83480729092844,2.0,Animal_Sea_Pattern_Small,-7.0,,,,,,,,,,,
encoding,attention,8,10804937,10807956,10805156.0,10805366.0,211.0,211.0,1847.5,629.5,1920.0,1460.0,Animal_Sea_Pattern_Small,29.834924540948123,32.85322466609068,2.0,Animal_Sea_Pattern_Small,-7.0,-7.0,1.0,1.160583500051871,,,,,,,,
encoding,attention,8,10804937,10807956,10805379.0,10805619.0,241.0,241.0,1916.5,641.0,1920.0,1460.0,Animal_Sea_Pattern_Small,29.834924540948123,32.85322466609068,2.0,Animal_Sea_Pattern_Small,-7.0,-7.0,1.0,1.160583500051871,,,,,,,,
encoding,attention,8,10804937,10807956,10805639.0,10806454.0,816.0,816.0,1867.9,755.3,1920.0,1460.0,Animal_Sea_Pattern_Small,29.834924540948123,32.85322466609068,2.0,Animal_Sea_Pattern_Small,-7.0,-7.0,1.0,1.160583500051871,,,,,,,,
encoding,attention,8,10804937,10807956,10806470.0,10806540.0,71.0,71.0,1757.3,766.5999999999999,1920.0,1460.0,Animal_Sea_Pattern_Small,29.834924540948123,32.85322466609068,2.0,Animal_Sea_Pattern_Small,-7.0,-7.0,1.0,1.160583500051871,,,,,,,,
encoding,attention,8,10804937,10807956,10806769.0,10807017.0,249.0,249.0,1890.5,688.5,1920.0,1460.0,Animal_Sea_Pattern_Small,29.834924540948123,32.85322466609068,2.0,Animal_Sea_Pattern_Small,-7.0,-7.0,1.0,1.160583500051871,,,,,,,,
encoding,attention,8,10804937,10807956,10807043.0,10807724.0,682.0,682.0,1647.0,874.9000000000001,1591.0,1269.0,Animal_Land_Solid_Small,29.834924540948123,32.85322466609068,2.0,Animal_Sea_Pattern_Small,-7.0,-7.0,1.0,1.160583500051871,,,,,,,,
encoding,fixation,9,10807956,10808461,,,,,,,,,none,32.853367540985346,33.35861283307895,2.0,Animal_Land_Solid_Large,-7.0,,,,,,,,,,,
encoding,image,9,10808461,10809476,,,,,,,,,none,33.35873808292672,34.37305895797908,2.0,Animal_Land_Solid_Large,-7.0,,,,,,,,,,,
encoding,value,9,10809476,10815488,10810027.0,10810488.0,462.0,462.0,2190.3,839.4000000000001,2249.0,1269.0,Animal_Land_Solid_Large,34.37318612495437,40.38531508296728,2.0,Animal_Land_Solid_Large,-7.0,,,,,,,,,,,
encoding,value,9,10809476,10815488,10810515.0,10810895.0,381.0,381.0,1874.0,811.0,1920.0,1460.0,Animal_Sea_Pattern_Small,34.37318612495437,40.38531508296728,2.0,Animal_Land_Solid_Large,-7.0,,,,,,,,,,,
encoding,value,9,10809476,10815488,10810925.0,10811188.0,264.0,264.0,2218.2,851.9000000000001,2249.0,1269.0,Animal_Land_Solid_Large,34.37318612495437,40.38531508296728,2.0,Animal_Land_Solid_Large,-7.0,,,,,,,,,,,
encoding,value,9,10809476,10815488,10811200.0,10811484.0,285.0,285.0,2126.8,874.9000000000001,2249.0,1269.0,Animal_Land_Solid_Large,34.37318612495437,40.38531508296728,2.0,Animal_Land_Solid_Large,-7.0,,,,,,,,,,,
encoding,value,9,10809476,10815488,10811507.0,10811706.0,200.0,200.0,1897.4,838.9000000000001,1920.0,1460.0,Animal_Sea_Pattern_Small,34.37318612495437,40.38531508296728,2.0,Animal_Land_Solid_Large,-7.0,,,,,,,,,,,
encoding,value,9,10809476,10815488,10811896.0,10812190.0,295.0,295.0,2180.5,848.3,2249.0,1269.0,Animal_Land_Solid_Large,34.37318612495437,40.38531508296728,2.0,Animal_Land_Solid_Large,-7.0,,,,,,,,,,,
encoding,value,9,10809476,10815488,10812199.0,10812705.0,507.0,507.0,2212.0,931.4000000000001,2249.0,1269.0,Animal_Land_Solid_Large,34.37318612495437,40.38531508296728,2.0,Animal_Land_Solid_Large,-7.0,,,,,,,,,,,
encoding,value,9,10809476,10815488,10812712.0,10813079.0,368.0,368.0,2223.2,971.5999999999999,2249.0,1269.0,Animal_Land_Solid_Large,34.37318612495437,40.38531508296728,2.0,Animal_Land_Solid_Large,-7.0,,,,,,,,,,,
encoding,value,9,10809476,10815488,10813096.0,10814101.0,1006.0,1006.0,2202.2,855.5999999999999,2249.0,1269.0,Animal_Land_Solid_Large,34.37318612495437,40.38531508296728,2.0,Animal_Land_Solid_Large,-7.0,,,,,,,,,,,
encoding,value,9,10809476,10815488,10814118.0,10814376.0,259.0,259.0,2131.8,873.9000000000001,2249.0,1269.0,Animal_Land_Solid_Large,34.37318612495437,40.38531508296728,2.0,Animal_Land_Solid_Large,-7.0,,,,,,,,,,,
encoding,value,9,10809476,10815488,10814388.0,10815718.0,1331.0,1100.0,2188.1,854.7,2249.0,1269.0,Animal_Land_Solid_Large,34.37318612495437,40.38531508296728,2.0,Animal_Land_Solid_Large,-7.0,,,,,,,,,,,
encoding,attention,9,10815488,10818507,10815727.0,10817039.0,1313.0,1313.0,2153.0,834.2,2249.0,1269.0,Animal_Land_Solid_Large,40.385430958122015,43.4042296661064,2.0,Animal_Land_Solid_Large,-7.0,-7.0,1.0,1.0907868328504264,,,,,,,,
encoding,attention,9,10815488,10818507,10817063.0,10817218.0,156.0,156.0,1957.4,826.8,1920.0,1460.0,Animal_Sea_Pattern_Small,40.385430958122015,43.4042296661064,2.0,Animal_Land_Solid_Large,-7.0,-7.0,1.0,1.0907868328504264,,,,,,,,
encoding,attention,9,10815488,10818507,10817445.0,10817891.0,447.0,447.0,1927.2,871.9000000000001,1920.0,1460.0,Animal_Sea_Pattern_Small,40.385430958122015,43.4042296661064,2.0,Animal_Land_Solid_Large,-7.0,-7.0,1.0,1.0907868328504264,,,,,,,,
encoding,attention,9,10815488,10818507,10817912.0,10818194.0,283.0,283.0,1756.4,957.8,1591.0,1269.0,Animal_Land_Solid_Small,40.385430958122015,43.4042296661064,2.0,Animal_Land_Solid_Large,-7.0,-7.0,1.0,1.0907868328504264,,,,,,,,
encoding,attention,9,10815488,10818507,10818209.0,10818443.0,235.0,235.0,1860.7,965.0,1920.0,1460.0,Animal_Sea_Pattern_Small,40.385430958122015,43.4042296661064,2.0,Animal_Land_Solid_Large,-7.0,-7.0,1.0,1.0907868328504264,,,,,,,,
encoding,fixation,10,10818507,10819262,10818782.0,10819179.0,398.0,398.0,1848.4,1017.9000000000001,1591.0,1269.0,Animal_Land_Solid_Small,43.40438766591251,44.15963704092428,2.0,Object_Land_Pattern_Small,-7.0,,,,,,,,,,,
encoding,fixation,10,10818507,10819262,10819192.0,10819713.0,522.0,70.0,1915.6,985.7,1920.0,1460.0,Animal_Sea_Pattern_Small,43.40438766591251,44.15963704092428,2.0,Object_Land_Pattern_Small,-7.0,,,,,,,,,,,
encoding,image,10,10819262,10820275,10819720.0,10819942.0,223.0,223.0,1921.3,1020.5999999999999,1920.0,1080.0,fixation,44.159751791041344,45.1723265000619,2.0,Object_Land_Pattern_Small,-7.0,,,,,,,,,,,
encoding,image,10,10819262,10820275,10819953.0,10820112.0,160.0,160.0,1854.9,1046.0,1591.0,1269.0,Animal_Land_Solid_Small,44.159751791041344,45.1723265000619,2.0,Object_Land_Pattern_Small,-7.0,,,,,,,,,,,
encoding,image,10,10819262,10820275,10820133.0,10820321.0,189.0,142.0,1923.5,1148.3,1920.0,1080.0,fixation,44.159751791041344,45.1723265000619,2.0,Object_Land_Pattern_Small,-7.0,,,,,,,,,,,
encoding,value,10,10820275,10826287,10820329.0,10820530.0,202.0,202.0,1879.8,1124.4,1920.0,1080.0,fixation,45.17244270793162,51.183904708130285,2.0,Object_Land_Pattern_Small,-7.0,,,,,,,,,,,
encoding,value,10,10820275,10826287,10820560.0,10821209.0,650.0,650.0,2189.8,1205.1,2249.0,891.0,Object_Land_Pattern_Small,45.17244270793162,51.183904708130285,2.0,Object_Land_Pattern_Small,-7.0,,,,,,,,,,,
encoding,value,10,10820275,10826287,10821232.0,10821431.0,200.0,200.0,1965.0,1193.8,1920.0,700.0,Object_Sea_Solid_Large,45.17244270793162,51.183904708130285,2.0,Object_Land_Pattern_Small,-7.0,,,,,,,,,,,
encoding,value,10,10820275,10826287,10821457.0,10821705.0,249.0,249.0,2155.4,1205.7,2249.0,891.0,Object_Land_Pattern_Small,45.17244270793162,51.183904708130285,2.0,Object_Land_Pattern_Small,-7.0,,,,,,,,,,,
encoding,value,10,10820275,10826287,10821732.0,10822410.0,679.0,679.0,1878.4,1146.2,1591.0,891.0,Object_Sea_Pattern_Large,45.17244270793162,51.183904708130285,2.0,Object_Land_Pattern_Small,-7.0,,,,,,,,,,,
encoding,value,10,10820275,10826287,10822420.0,10823146.0,727.0,727.0,1868.5,1136.9,1591.0,891.0,Object_Sea_Pattern_Large,45.17244270793162,51.183904708130285,2.0,Object_Land_Pattern_Small,-7.0,,,,,,,,,,,
encoding,value,10,10820275,10826287,10823173.0,10824385.0,1213.0,1213.0,2174.0,1194.4,2249.0,891.0,Object_Land_Pattern_Small,45.17244270793162,51.183904708130285,2.0,Object_Land_Pattern_Small,-7.0,,,,,,,,,,,
encoding,value,10,10820275,10826287,10824397.0,10825520.0,1124.0,1124.0,2178.2,1202.0,2249.0,891.0,Object_Land_Pattern_Small,45.17244270793162,51.183904708130285,2.0,Object_Land_Pattern_Small,-7.0,,,,,,,,,,,
encoding,value,10,10820275,10826287,10825530.0,10826074.0,545.0,545.0,2187.2,1205.6,2249.0,891.0,Object_Land_Pattern_Small,45.17244270793162,51.183904708130285,2.0,Object_Land_Pattern_Small,-7.0,,,,,,,,,,,
encoding,value,10,10820275,10826287,10826084.0,10827115.0,1032.0,203.0,2171.0,1201.3,2249.0,891.0,Object_Land_Pattern_Small,45.17244270793162,51.183904708130285,2.0,Object_Land_Pattern_Small,-7.0,,,,,,,,,,,
encoding,attention,10,10826287,10829305,10827125.0,10827596.0,472.0,472.0,2155.7,1189.0,2249.0,891.0,Object_Land_Pattern_Small,51.1840116661042,54.20164412492886,2.0,Object_Land_Pattern_Small,-7.0,-7.0,1.0,1.79731670813635,,,,,,,,
encoding,attention,10,10826287,10829305,10827606.0,10828037.0,432.0,432.0,2239.3,1193.2,2249.0,891.0,Object_Land_Pattern_Small,51.1840116661042,54.20164412492886,2.0,Object_Land_Pattern_Small,-7.0,-7.0,1.0,1.79731670813635,,,,,,,,
encoding,attention,10,10826287,10829305,10828051.0,10828370.0,320.0,320.0,2158.0,1164.6,2249.0,891.0,Object_Land_Pattern_Small,51.1840116661042,54.20164412492886,2.0,Object_Land_Pattern_Small,-7.0,-7.0,1.0,1.79731670813635,,,,,,,,
encoding,attention,10,10826287,10829305,10828591.0,10828754.0,164.0,164.0,1983.4,1079.2,1920.0,1080.0,fixation,51.1840116661042,54.20164412492886,2.0,Object_Land_Pattern_Small,-7.0,-7.0,1.0,1.79731670813635,,,,,,,,
encoding,attention,10,10826287,10829305,10828770.0,10829071.0,302.0,302.0,1841.3,1104.6,1591.0,891.0,Object_Sea_Pattern_Large,51.1840116661042,54.20164412492886,2.0,Object_Land_Pattern_Small,-7.0,-7.0,1.0,1.79731670813635,,,,,,,,
encoding,fixation,11,10829305,10830310,10829495.0,10830936.0,1442.0,815.0,1872.0,1103.2,1920.0,1080.0,fixation,54.20188658311963,55.20692045800388,2.0,Object_Sea_Pattern_Large,3.0,,,,,,,,,,,
encoding,image,11,10830310,10831322,10830947.0,10831373.0,427.0,375.0,1843.2,1122.5,1591.0,891.0,Object_Sea_Pattern_Large,55.20704812509939,56.21820604102686,2.0,Object_Sea_Pattern_Large,3.0,,,,,,,,,,,
encoding,value,11,10831322,10837334,10831383.0,10831784.0,402.0,402.0,1896.3,1140.8,1920.0,1080.0,fixation,56.21832366590388,62.229850665898994,2.0,Object_Sea_Pattern_Large,3.0,,,,,,,,,,,
encoding,value,11,10831322,10837334,10831816.0,10837774.0,5959.0,5518.0,1516.6,1212.4,1591.0,891.0,Object_Sea_Pattern_Large,56.21832366590388,62.229850665898994,2.0,Object_Sea_Pattern_Large,3.0,,,,,,,,,,,
encoding,attention,11,10837334,10840351,10837784.0,10838336.0,553.0,553.0,1555.3,1208.1,1591.0,891.0,Object_Sea_Pattern_Large,62.22996695805341,65.24732733308338,2.0,Object_Sea_Pattern_Large,3.0,3.0,1.0,0.7032379580195993,,,,,,,,
encoding,attention,11,10837334,10840351,10838530.0,10838909.0,380.0,380.0,1556.4,1193.7,1591.0,891.0,Object_Sea_Pattern_Large,62.22996695805341,65.24732733308338,2.0,Object_Sea_Pattern_Large,3.0,3.0,1.0,0.7032379580195993,,,,,,,,
encoding,attention,11,10837334,10840351,10838933.0,10839264.0,332.0,332.0,1745.1,1117.9,1591.0,891.0,Object_Sea_Pattern_Large,62.22996695805341,65.24732733308338,2.0,Object_Sea_Pattern_Large,3.0,3.0,1.0,0.7032379580195993,,,,,,,,
encoding,attention,11,10837334,10840351,10839290.0,10839483.0,194.0,194.0,1978.2,1133.3,2249.0,891.0,Object_Land_Pattern_Small,62.22996695805341,65.24732733308338,2.0,Object_Sea_Pattern_Large,3.0,3.0,1.0,0.7032379580195993,,,,,,,,
encoding,attention,11,10837334,10840351,10839510.0,10840327.0,818.0,818.0,1584.9,1200.4,1591.0,891.0,Object_Sea_Pattern_Large,62.22996695805341,65.24732733308338,2.0,Object_Sea_Pattern_Large,3.0,3.0,1.0,0.7032379580195993,,,,,,,,
encoding,fixation,12,10840351,10840856,10840585.0,10840615.0,31.0,31.0,1867.7,1154.7,1591.0,891.0,Object_Sea_Pattern_Large,65.24748345790431,65.7525696249213,2.0,Object_Sea_Solid_Large,1.0,,,,,,,,,,,
encoding,fixation,12,10840351,10840856,10840842.0,10841000.0,159.0,14.0,1883.2,1109.5,1920.0,1080.0,fixation,65.24748345790431,65.7525696249213,2.0,Object_Sea_Solid_Large,1.0,,,,,,,,,,,
encoding,image,12,10840856,10841868,10841026.0,10841203.0,178.0,178.0,1888.5,1387.8,1920.0,700.0,Object_Sea_Solid_Large,65.75267950003035,66.76404454093426,2.0,Object_Sea_Solid_Large,1.0,,,,,,,,,,,
encoding,image,12,10840856,10841868,10841221.0,10842061.0,841.0,647.0,1851.1,1459.2,1920.0,700.0,Object_Sea_Solid_Large,65.75267950003035,66.76404454093426,2.0,Object_Sea_Solid_Large,1.0,,,,,,,,,,,
encoding,value,12,10841868,10847880,10842073.0,10843639.0,1567.0,1567.0,1847.7,1390.2,1920.0,700.0,Object_Sea_Solid_Large,66.76412695809267,72.77558275009505,2.0,Object_Sea_Solid_Large,1.0,,,,,,,,,,,
encoding,value,12,10841868,10847880,10843646.0,10844531.0,886.0,886.0,1840.5,1320.5,1920.0,700.0,Object_Sea_Solid_Large,66.76412695809267,72.77558275009505,2.0,Object_Sea_Solid_Large,1.0,,,,,,,,,,,
encoding,value,12,10841868,10847880,10844540.0,10845248.0,709.0,709.0,1827.1,1334.8,1920.0,700.0,Object_Sea_Solid_Large,66.76412695809267,72.77558275009505,2.0,Object_Sea_Solid_Large,1.0,,,,,,,,,,,
encoding,value,12,10841868,10847880,10845257.0,10846417.0,1161.0,1161.0,1830.7,1411.7,1920.0,700.0,Object_Sea_Solid_Large,66.76412695809267,72.77558275009505,2.0,Object_Sea_Solid_Large,1.0,,,,,,,,,,,
encoding,value,12,10841868,10847880,10846431.0,10847598.0,1168.0,1168.0,1825.6,1405.3,1920.0,700.0,Object_Sea_Solid_Large,66.76412695809267,72.77558275009505,2.0,Object_Sea_Solid_Large,1.0,,,,,,,,,,,
encoding,value,12,10841868,10847880,10847605.0,10848740.0,1136.0,275.0,1798.7,1391.6,1920.0,700.0,Object_Sea_Solid_Large,66.76412695809267,72.77558275009505,2.0,Object_Sea_Solid_Large,1.0,,,,,,,,,,,
encoding,attention,12,10847880,10850899,10848944.0,10849155.0,212.0,212.0,1822.4,1315.9,1920.0,700.0,Object_Sea_Solid_Large,72.77570779109374,75.7942002909258,2.0,Object_Sea_Solid_Large,1.0,1.0,1.0,0.6201257919892669,,,,,,,,
encoding,attention,12,10847880,10850899,10849165.0,10849405.0,241.0,241.0,1783.3,1371.9,1920.0,700.0,Object_Sea_Solid_Large,72.77570779109374,75.7942002909258,2.0,Object_Sea_Solid_Large,1.0,1.0,1.0,0.6201257919892669,,,,,,,,
encoding,attention,12,10847880,10850899,10849464.0,10849689.0,226.0,226.0,1735.1,930.0999999999999,1591.0,1269.0,Animal_Land_Solid_Small,72.77570779109374,75.7942002909258,2.0,Object_Sea_Solid_Large,1.0,1.0,1.0,0.6201257919892669,,,,,,,,
encoding,attention,12,10847880,10850899,10849713.0,10850219.0,507.0,507.0,1842.2,1184.4,1591.0,891.0,Object_Sea_Pattern_Large,72.77570779109374,75.7942002909258,2.0,Object_Sea_Solid_Large,1.0,1.0,1.0,0.6201257919892669,,,,,,,,
encoding,attention,12,10847880,10850899,10850240.0,10850749.0,510.0,510.0,1888.9,1117.9,1920.0,1080.0,fixation,72.77570779109374,75.7942002909258,2.0,Object_Sea_Solid_Large,1.0,1.0,1.0,0.6201257919892669,,,,,,,,
encoding,fixation,13,11253299,11254305,11253505.0,11254451.0,947.0,800.0,1890.3,1108.0,1920.0,1080.0,fixation,5.196965667186305,6.202636459143832,3.0,Animal_Land_Pattern_Small,-6.0,,,,,,,,,,,
encoding,image,13,11254305,11255317,11254483.0,11254607.0,125.0,125.0,1875.7,1348.5,1920.0,700.0,Animal_Land_Pattern_Small,6.202767334179953,7.214948542183265,3.0,Animal_Land_Pattern_Small,-6.0,,,,,,,,,,,
encoding,image,13,11254305,11255317,11254626.0,11254871.0,246.0,246.0,1866.2,1429.8,1920.0,700.0,Animal_Land_Pattern_Small,6.202767334179953,7.214948542183265,3.0,Animal_Land_Pattern_Small,-6.0,,,,,,,,,,,
encoding,image,13,11254305,11255317,11255027.0,11255366.0,340.0,290.0,1876.5,1465.2,1920.0,700.0,Animal_Land_Pattern_Small,6.202767334179953,7.214948542183265,3.0,Animal_Land_Pattern_Small,-6.0,,,,,,,,,,,
encoding,value,13,11255317,11261331,11255388.0,11255571.0,184.0,184.0,1843.3,1314.5,1920.0,700.0,Animal_Land_Pattern_Small,7.215054375119507,13.228827875107529,3.0,Animal_Land_Pattern_Small,-6.0,,,,,,,,,,,
encoding,value,13,11255317,11261331,11255580.0,11256622.0,1043.0,1043.0,1875.3,1357.8,1920.0,700.0,Animal_Land_Pattern_Small,7.215054375119507,13.228827875107529,3.0,Animal_Land_Pattern_Small,-6.0,,,,,,,,,,,
encoding,value,13,11255317,11261331,11256792.0,11257978.0,1187.0,1187.0,1877.5,1378.0,1920.0,700.0,Animal_Land_Pattern_Small,7.215054375119507,13.228827875107529,3.0,Animal_Land_Pattern_Small,-6.0,,,,,,,,,,,
encoding,value,13,11255317,11261331,11257986.0,11258623.0,638.0,638.0,1862.8,1381.4,1920.0,700.0,Animal_Land_Pattern_Small,7.215054375119507,13.228827875107529,3.0,Animal_Land_Pattern_Small,-6.0,,,,,,,,,,,
encoding,value,13,11255317,11261331,11258796.0,11259608.0,813.0,813.0,1863.5,1376.2,1920.0,700.0,Animal_Land_Pattern_Small,7.215054375119507,13.228827875107529,3.0,Animal_Land_Pattern_Small,-6.0,,,,,,,,,,,
encoding,value,13,11255317,11261331,11259628.0,11259794.0,167.0,167.0,1945.6,1329.0,1920.0,700.0,Animal_Land_Pattern_Small,7.215054375119507,13.228827875107529,3.0,Animal_Land_Pattern_Small,-6.0,,,,,,,,,,,
encoding,value,13,11255317,11261331,11259809.0,11260814.0,1006.0,1006.0,1871.1,1361.1,1920.0,700.0,Animal_Land_Pattern_Small,7.215054375119507,13.228827875107529,3.0,Animal_Land_Pattern_Small,-6.0,,,,,,,,,,,
encoding,value,13,11255317,11261331,11260983.0,11261568.0,586.0,348.0,1859.1,1371.1,1920.0,700.0,Animal_Land_Pattern_Small,7.215054375119507,13.228827875107529,3.0,Animal_Land_Pattern_Small,-6.0,,,,,,,,,,,
encoding,attention,13,11261331,11264350,11261576.0,11263369.0,1794.0,1794.0,1828.9,1355.7,1920.0,700.0,Animal_Land_Pattern_Small,13.228957625105975,16.2473331252113,3.0,Animal_Land_Pattern_Small,-6.0,-6.0,1.0,1.5233045418281108,,,,,,,,
encoding,fixation,14,11264350,11265605,11264590.0,11264940.0,351.0,351.0,1891.7,1106.0,1920.0,1080.0,fixation,16.247558292001486,17.50272783404216,3.0,Object_Sea_Pattern_Small,6.0,,,,,,,,,,,
encoding,fixation,14,11264350,11265605,11264967.0,11266457.0,1491.0,638.0,1884.0,1361.2,1920.0,700.0,Animal_Land_Pattern_Small,16.247558292001486,17.50272783404216,3.0,Object_Sea_Pattern_Small,6.0,,,,,,,,,,,
encoding,image,14,11265605,11266617,,,,,,,,,none,17.502848584204912,18.514522709185258,3.0,Object_Sea_Pattern_Small,6.0,,,,,,,,,,,
encoding,value,14,11266617,11272631,11266687.0,11266923.0,237.0,237.0,2234.3,959.4000000000001,2249.0,1269.0,Object_Sea_Pattern_Small,18.5147182920482,24.527813417138532,3.0,Object_Sea_Pattern_Small,6.0,,,,,,,,,,,
encoding,value,14,11266617,11272631,11266939.0,11267531.0,593.0,593.0,2237.6,857.4000000000001,2249.0,1269.0,Object_Sea_Pattern_Small,18.5147182920482,24.527813417138532,3.0,Object_Sea_Pattern_Small,6.0,,,,,,,,,,,
encoding,value,14,11266617,11272631,11267548.0,11271275.0,3728.0,3728.0,2235.2,781.5,2249.0,1269.0,Object_Sea_Pattern_Small,18.5147182920482,24.527813417138532,3.0,Object_Sea_Pattern_Small,6.0,,,,,,,,,,,
encoding,value,14,11266617,11272631,11271284.0,11271781.0,498.0,498.0,2204.2,819.9000000000001,2249.0,1269.0,Object_Sea_Pattern_Small,18.5147182920482,24.527813417138532,3.0,Object_Sea_Pattern_Small,6.0,,,,,,,,,,,
encoding,value,14,11266617,11272631,11271792.0,11272832.0,1041.0,839.0,2228.3,810.4000000000001,2249.0,1269.0,Object_Sea_Pattern_Small,18.5147182920482,24.527813417138532,3.0,Object_Sea_Pattern_Small,6.0,,,,,,,,,,,
encoding,attention,14,11272631,11275652,11272842.0,11273639.0,798.0,798.0,2197.4,800.7,2249.0,1269.0,Object_Sea_Pattern_Small,24.52792908414267,27.54948625015095,3.0,Object_Sea_Pattern_Small,6.0,6.0,1.0,0.7095286659896374,,,,,,,,
encoding,attention,14,11272631,11275652,11273881.0,11274044.0,164.0,164.0,1912.0,1042.0,1920.0,1080.0,fixation,24.52792908414267,27.54948625015095,3.0,Object_Sea_Pattern_Small,6.0,6.0,1.0,0.7095286659896374,,,,,,,,
encoding,attention,14,11272631,11275652,11274053.0,11275187.0,1135.0,1135.0,1866.1,1090.3,1920.0,1080.0,fixation,24.52792908414267,27.54948625015095,3.0,Object_Sea_Pattern_Small,6.0,6.0,1.0,0.7095286659896374,,,,,,,,
encoding,fixation,15,11275652,11276658,,,,,,,,,none,27.54965045908466,28.554771500173956,3.0,Animal_Sea_Solid_Large,-2.0,,,,,,,,,,,
encoding,image,15,11276658,11277670,11276940.0,11277108.0,169.0,169.0,2144.7,1221.4,2249.0,891.0,Animal_Sea_Solid_Large,28.554900333983824,29.56645012507215,3.0,Animal_Sea_Solid_Large,-2.0,,,,,,,,,,,
encoding,image,15,11276658,11277670,11277121.0,11277603.0,483.0,483.0,2214.0,1264.2,2249.0,891.0,Animal_Sea_Solid_Large,28.554900333983824,29.56645012507215,3.0,Animal_Sea_Solid_Large,-2.0,,,,,,,,,,,
encoding,image,15,11276658,11277670,11277625.0,11277903.0,279.0,45.0,2016.8,1243.6,2249.0,891.0,Animal_Sea_Solid_Large,28.554900333983824,29.56645012507215,3.0,Animal_Sea_Solid_Large,-2.0,,,,,,,,,,,
encoding,value,15,11277670,11283682,11277914.0,11278081.0,168.0,168.0,2095.0,1202.2,2249.0,891.0,Animal_Sea_Solid_Large,29.566560375038534,35.57867537508719,3.0,Animal_Sea_Solid_Large,-2.0,,,,,,,,,,,
encoding,value,15,11277670,11283682,11278098.0,11278744.0,647.0,647.0,2205.9,1169.1,2249.0,891.0,Animal_Sea_Solid_Large,29.566560375038534,35.57867537508719,3.0,Animal_Sea_Solid_Large,-2.0,,,,,,,,,,,
encoding,value,15,11277670,11283682,11278907.0,11280781.0,1875.0,1875.0,2202.0,1182.8,2249.0,891.0,Animal_Sea_Solid_Large,29.566560375038534,35.57867537508719,3.0,Animal_Sea_Solid_Large,-2.0,,,,,,,,,,,
encoding,value,15,11277670,11283682,11280790.0,11280900.0,111.0,111.0,2175.4,1185.6,2249.0,891.0,Animal_Sea_Solid_Large,29.566560375038534,35.57867537508719,3.0,Animal_Sea_Solid_Large,-2.0,,,,,,,,,,,
encoding,value,15,11277670,11283682,11280909.0,11283873.0,2965.0,2773.0,2206.2,1177.4,2249.0,891.0,Animal_Sea_Solid_Large,29.566560375038534,35.57867537508719,3.0,Animal_Sea_Solid_Large,-2.0,,,,,,,,,,,
encoding,attention,15,11283682,11286702,11283882.0,11284879.0,998.0,998.0,2167.0,1177.3,2249.0,891.0,Animal_Sea_Solid_Large,35.57879345910624,38.59842558414675,3.0,Animal_Sea_Solid_Large,-2.0,-2.0,1.0,0.9566415420267732,,,,,,,,
encoding,attention,15,11283682,11286702,11285060.0,11285187.0,128.0,128.0,2013.3,1234.0,2249.0,891.0,Animal_Sea_Solid_Large,35.57879345910624,38.59842558414675,3.0,Animal_Sea_Solid_Large,-2.0,-2.0,1.0,0.9566415420267732,,,,,,,,
encoding,fixation,16,11286702,11287958,11286942.0,11287094.0,153.0,153.0,1882.8,1112.2,1920.0,1080.0,fixation,38.5985836670734,39.85429208399728,3.0,Animal_Land_Solid_Small,6.0,,,,,,,,,,,
encoding,fixation,16,11286702,11287958,11287284.0,11287994.0,711.0,674.0,1901.6,1136.5,1920.0,1080.0,fixation,38.5985836670734,39.85429208399728,3.0,Animal_Land_Solid_Small,6.0,,,,,,,,,,,
encoding,image,16,11287958,11288969,11288001.0,11288167.0,167.0,167.0,1875.5,1094.5,1920.0,1080.0,fixation,39.85450770915486,40.86549550015479,3.0,Animal_Land_Solid_Small,6.0,,,,,,,,,,,
encoding,image,16,11287958,11288969,11288207.0,11288668.0,462.0,462.0,1588.8,881.5,1591.0,1269.0,Animal_Land_Solid_Small,39.85450770915486,40.86549550015479,3.0,Animal_Land_Solid_Small,6.0,,,,,,,,,,,
encoding,image,16,11287958,11288969,11288679.0,11289182.0,504.0,290.0,1577.5,839.5999999999999,1591.0,1269.0,Animal_Land_Solid_Small,39.85450770915486,40.86549550015479,3.0,Animal_Land_Solid_Small,6.0,,,,,,,,,,,
encoding,value,16,11288969,11294980,11289193.0,11290550.0,1358.0,1358.0,1568.3,795.0999999999999,1591.0,1269.0,Animal_Land_Solid_Small,40.86561195901595,46.876546709099784,3.0,Animal_Land_Solid_Small,6.0,,,,,,,,,,,
encoding,value,16,11288969,11294980,11290772.0,11290940.0,169.0,169.0,1531.1,829.3,1591.0,1269.0,Animal_Land_Solid_Small,40.86561195901595,46.876546709099784,3.0,Animal_Land_Solid_Small,6.0,,,,,,,,,,,
encoding,value,16,11288969,11294980,11290948.0,11292259.0,1312.0,1312.0,1570.2,793.7,1591.0,1269.0,Animal_Land_Solid_Small,40.86561195901595,46.876546709099784,3.0,Animal_Land_Solid_Small,6.0,,,,,,,,,,,
encoding,value,16,11288969,11294980,11292289.0,11292814.0,526.0,526.0,1823.0,1043.1,1591.0,1269.0,Animal_Land_Solid_Small,40.86561195901595,46.876546709099784,3.0,Animal_Land_Solid_Small,6.0,,,,,,,,,,,
encoding,value,16,11288969,11294980,11292856.0,11293599.0,744.0,744.0,1560.7,814.7,1591.0,1269.0,Animal_Land_Solid_Small,40.86561195901595,46.876546709099784,3.0,Animal_Land_Solid_Small,6.0,,,,,,,,,,,
encoding,value,16,11288969,11294980,11293609.0,11294225.0,617.0,617.0,1559.0,910.0999999999999,1591.0,1269.0,Animal_Land_Solid_Small,40.86561195901595,46.876546709099784,3.0,Animal_Land_Solid_Small,6.0,,,,,,,,,,,
encoding,value,16,11288969,11294980,11294234.0,11295414.0,1181.0,746.0,1545.1,830.3,1591.0,1269.0,Animal_Land_Solid_Small,40.86561195901595,46.876546709099784,3.0,Animal_Land_Solid_Small,6.0,,,,,,,,,,,
encoding,attention,16,11294980,11298002,11295424.0,11295578.0,155.0,155.0,1501.0,837.4000000000001,1591.0,1269.0,Animal_Land_Solid_Small,46.876675417181104,49.89834958408028,3.0,Animal_Land_Solid_Small,6.0,6.0,1.0,1.3674431249964982,,,,,,,,
encoding,attention,16,11294980,11298002,11295878.0,11296249.0,372.0,372.0,1497.3,848.2,1591.0,1269.0,Animal_Land_Solid_Small,46.876675417181104,49.89834958408028,3.0,Animal_Land_Solid_Small,6.0,6.0,1.0,1.3674431249964982,,,,,,,,
encoding,attention,16,11294980,11298002,11296257.0,11296571.0,315.0,315.0,1540.0,820.4000000000001,1591.0,1269.0,Animal_Land_Solid_Small,46.876675417181104,49.89834958408028,3.0,Animal_Land_Solid_Small,6.0,6.0,1.0,1.3674431249964982,,,,,,,,
encoding,attention,16,11294980,11298002,11296581.0,11296936.0,356.0,356.0,1489.7,794.7,1591.0,1269.0,Animal_Land_Solid_Small,46.876675417181104,49.89834958408028,3.0,Animal_Land_Solid_Small,6.0,6.0,1.0,1.3674431249964982,,,,,,,,
encoding,fixation,17,11298002,11298508,11298214.0,11298794.0,581.0,294.0,1841.7,1110.7,1591.0,891.0,Object_Sea_Pattern_Large,49.89850624999963,50.40403554216027,3.0,Object_Land_Solid_Large,-1.0,,,,,,,,,,,
encoding,image,17,11298508,11299519,11298841.0,11299055.0,215.0,215.0,1877.6,708.5,1920.0,1460.0,Object_Land_Solid_Large,50.40423137508333,51.41485250019469,3.0,Object_Land_Solid_Large,-1.0,,,,,,,,,,,
encoding,image,17,11298508,11299519,11299266.0,11299620.0,355.0,253.0,1972.5,916.4000000000001,1920.0,1460.0,Object_Land_Solid_Large,50.40423137508333,51.41485250019469,3.0,Object_Land_Solid_Large,-1.0,,,,,,,,,,,
encoding,value,17,11299519,11305531,11299640.0,11299933.0,294.0,294.0,1896.6,1043.6,1920.0,1080.0,fixation,51.414962334092706,57.42636541719549,3.0,Object_Land_Solid_Large,-1.0,,,,,,,,,,,
encoding,value,17,11299519,11305531,11299979.0,11300399.0,421.0,421.0,1874.5,667.5999999999999,1920.0,1460.0,Object_Land_Solid_Large,51.414962334092706,57.42636541719549,3.0,Object_Land_Solid_Large,-1.0,,,,,,,,,,,
encoding,value,17,11299519,11305531,11300415.0,11302267.0,1853.0,1853.0,1887.5,605.5999999999999,1920.0,1460.0,Object_Land_Solid_Large,51.414962334092706,57.42636541719549,3.0,Object_Land_Solid_Large,-1.0,,,,,,,,,,,
encoding,value,17,11299519,11305531,11302287.0,11303635.0,1349.0,1349.0,1871.4,676.9000000000001,1920.0,1460.0,Object_Land_Solid_Large,51.414962334092706,57.42636541719549,3.0,Object_Land_Solid_Large,-1.0,,,,,,,,,,,
encoding,value,17,11299519,11305531,11303651.0,11306576.0,2926.0,1880.0,1859.3,614.0,1920.0,1460.0,Object_Land_Solid_Large,51.414962334092706,57.42636541719549,3.0,Object_Land_Solid_Large,-1.0,,,,,,,,,,,
encoding,attention,17,11305531,11308548,11306796.0,11307315.0,520.0,520.0,1889.0,788.0999999999999,1920.0,1460.0,Object_Land_Solid_Large,57.426547250011936,60.44347520917654,3.0,Object_Land_Solid_Large,-1.0,-1.0,1.0,0.735450292006135,,,,,,,,
encoding,attention,17,11305531,11308548,11307328.0,11307451.0,124.0,124.0,1824.5,923.7,1591.0,1269.0,Animal_Land_Solid_Small,57.426547250011936,60.44347520917654,3.0,Object_Land_Solid_Large,-1.0,-1.0,1.0,0.735450292006135,,,,,,,,
encoding,attention,17,11305531,11308548,11307465.0,11307604.0,140.0,140.0,1848.6,1061.3,1591.0,1269.0,Animal_Land_Solid_Small,57.426547250011936,60.44347520917654,3.0,Object_Land_Solid_Large,-1.0,-1.0,1.0,0.735450292006135,,,,,,,,
encoding,attention,17,11305531,11308548,11307620.0,11308474.0,855.0,855.0,1843.1,1133.1,1591.0,891.0,Object_Sea_Pattern_Large,57.426547250011936,60.44347520917654,3.0,Object_Land_Solid_Large,-1.0,-1.0,1.0,0.735450292006135,,,,,,,,
encoding,fixation,18,11308548,11309053,11308956.0,11309398.0,443.0,97.0,1850.1,980.3,1591.0,1269.0,Animal_Land_Solid_Small,60.44370691711083,60.94884295901283,3.0,Object_Sea_Pattern_Large,6.0,,,,,,,,,,,
encoding,image,18,11309053,11310064,11309423.0,11309519.0,97.0,97.0,1698.0,1131.4,1591.0,891.0,Object_Sea_Pattern_Large,60.94894537515938,61.95998104219325,3.0,Object_Sea_Pattern_Large,6.0,,,,,,,,,,,
encoding,image,18,11309053,11310064,11309771.0,11310253.0,483.0,293.0,1833.7,1148.5,1591.0,891.0,Object_Sea_Pattern_Large,60.94894537515938,61.95998104219325,3.0,Object_Sea_Pattern_Large,6.0,,,,,,,,,,,
encoding,value,18,11310064,11316076,11310279.0,11310512.0,234.0,234.0,1528.7,1214.4,1591.0,891.0,Object_Sea_Pattern_Large,61.96010825014673,67.97164933406748,3.0,Object_Sea_Pattern_Large,6.0,,,,,,,,,,,
encoding,value,18,11310064,11316076,11310524.0,11311669.0,1146.0,1146.0,1538.3,1207.1,1591.0,891.0,Object_Sea_Pattern_Large,61.96010825014673,67.97164933406748,3.0,Object_Sea_Pattern_Large,6.0,,,,,,,,,,,
encoding,value,18,11310064,11316076,11311687.0,11312052.0,366.0,366.0,1523.9,1233.8,1591.0,891.0,Object_Sea_Pattern_Large,61.96010825014673,67.97164933406748,3.0,Object_Sea_Pattern_Large,6.0,,,,,,,,,,,
encoding,value,18,11310064,11316076,11312071.0,11312244.0,174.0,174.0,1504.4,1231.0,1591.0,891.0,Object_Sea_Pattern_Large,61.96010825014673,67.97164933406748,3.0,Object_Sea_Pattern_Large,6.0,,,,,,,,,,,
encoding,value,18,11310064,11316076,11312257.0,11316411.0,4155.0,3819.0,1536.5,1189.5,1591.0,891.0,Object_Sea_Pattern_Large,61.96010825014673,67.97164933406748,3.0,Object_Sea_Pattern_Large,6.0,,,,,,,,,,,
encoding,attention,18,11316076,11319095,11316423.0,11316696.0,274.0,274.0,1572.8,1194.1,1591.0,891.0,Object_Sea_Pattern_Large,67.97178250015713,70.99016458401456,3.0,Object_Sea_Pattern_Large,6.0,6.0,1.0,1.6126138330437243,,,,,,,,
encoding,attention,18,11316076,11319095,11316936.0,11317147.0,212.0,212.0,1556.3,1210.9,1591.0,891.0,Object_Sea_Pattern_Large,67.97178250015713,70.99016458401456,3.0,Object_Sea_Pattern_Large,6.0,6.0,1.0,1.6126138330437243,,,,,,,,
encoding,attention,18,11316076,11319095,11317154.0,11318336.0,1183.0,1183.0,1588.5,1172.5,1591.0,891.0,Object_Sea_Pattern_Large,67.97178250015713,70.99016458401456,3.0,Object_Sea_Pattern_Large,6.0,6.0,1.0,1.6126138330437243,,,,,,,,
encoding,attention,18,11316076,11319095,11318358.0,11318617.0,260.0,260.0,1793.1,1134.5,1591.0,891.0,Object_Sea_Pattern_Large,67.97178250015713,70.99016458401456,3.0,Object_Sea_Pattern_Large,6.0,6.0,1.0,1.6126138330437243,,,,,,,,
encoding,fixation,19,11659061,11659566,11659288.0,11659438.0,151.0,151.0,1842.7,1124.7,1591.0,891.0,Object_Land_Solid_Small,4.680742957862094,5.186151499859989,4.0,Object_Sea_Solid_Small,7.0,,,,,,,,,,,
encoding,fixation,19,11659061,11659566,11659450.0,11659640.0,191.0,116.0,1903.0,1107.4,1920.0,1080.0,fixation,4.680742957862094,5.186151499859989,4.0,Object_Sea_Solid_Small,7.0,,,,,,,,,,,
encoding,image,19,11659566,11660579,11659833.0,11659909.0,77.0,77.0,1887.6,1384.5,1920.0,700.0,Object_Sea_Solid_Small,5.186288749799132,6.199290707940236,4.0,Object_Sea_Solid_Small,7.0,,,,,,,,,,,
encoding,image,19,11659566,11660579,11659929.0,11660835.0,907.0,650.0,1894.6,1479.4,1920.0,700.0,Object_Sea_Solid_Small,5.186288749799132,6.199290707940236,4.0,Object_Sea_Solid_Small,7.0,,,,,,,,,,,
encoding,value,19,11660579,11666592,11660856.0,11661200.0,345.0,345.0,1886.6,1365.1,1920.0,700.0,Object_Sea_Solid_Small,6.199401624966413,12.21196720795706,4.0,Object_Sea_Solid_Small,7.0,,,,,,,,,,,
encoding,value,19,11660579,11666592,11661366.0,11661385.0,20.0,20.0,1839.4,1449.1,1920.0,700.0,Object_Sea_Solid_Small,6.199401624966413,12.21196720795706,4.0,Object_Sea_Solid_Small,7.0,,,,,,,,,,,
encoding,value,19,11660579,11666592,11661402.0,11661980.0,579.0,579.0,1883.8,1376.2,1920.0,700.0,Object_Sea_Solid_Small,6.199401624966413,12.21196720795706,4.0,Object_Sea_Solid_Small,7.0,,,,,,,,,,,
encoding,value,19,11660579,11666592,11662187.0,11662284.0,98.0,98.0,1854.6,1402.9,1920.0,700.0,Object_Sea_Solid_Small,6.199401624966413,12.21196720795706,4.0,Object_Sea_Solid_Small,7.0,,,,,,,,,,,
encoding,value,19,11660579,11666592,11662292.0,11662923.0,632.0,632.0,1887.1,1372.5,1920.0,700.0,Object_Sea_Solid_Small,6.199401624966413,12.21196720795706,4.0,Object_Sea_Solid_Small,7.0,,,,,,,,,,,
encoding,value,19,11660579,11666592,11662941.0,11663045.0,105.0,105.0,1924.5,1269.8,1920.0,700.0,Object_Sea_Solid_Small,6.199401624966413,12.21196720795706,4.0,Object_Sea_Solid_Small,7.0,,,,,,,,,,,
encoding,value,19,11660579,11666592,11663063.0,11664637.0,1575.0,1575.0,1886.4,1383.0,1920.0,700.0,Object_Sea_Solid_Small,6.199401624966413,12.21196720795706,4.0,Object_Sea_Solid_Small,7.0,,,,,,,,,,,
encoding,value,19,11660579,11666592,11664653.0,11665654.0,1002.0,1002.0,1877.0,1461.9,1920.0,700.0,Object_Sea_Solid_Small,6.199401624966413,12.21196720795706,4.0,Object_Sea_Solid_Small,7.0,,,,,,,,,,,
encoding,value,19,11660579,11666592,11665670.0,11667921.0,2252.0,922.0,1865.8,1356.5,1920.0,700.0,Object_Sea_Solid_Small,6.199401624966413,12.21196720795706,4.0,Object_Sea_Solid_Small,7.0,,,,,,,,,,,
encoding,attention,19,11666592,11669610,11667934.0,11668289.0,356.0,356.0,1860.6,1437.5,1920.0,700.0,Object_Sea_Solid_Small,12.212086624931544,15.229846665868536,4.0,Object_Sea_Solid_Small,7.0,7.0,1.0,0.847305916948244,,,,,,,,
encoding,attention,19,11666592,11669610,11668459.0,11668514.0,56.0,56.0,1819.4,1502.2,1920.0,700.0,Object_Sea_Solid_Small,12.212086624931544,15.229846665868536,4.0,Object_Sea_Solid_Small,7.0,7.0,1.0,0.847305916948244,,,,,,,,
encoding,attention,19,11666592,11669610,11668529.0,11668629.0,101.0,101.0,1853.8,1488.5,1920.0,700.0,Object_Sea_Solid_Small,12.212086624931544,15.229846665868536,4.0,Object_Sea_Solid_Small,7.0,7.0,1.0,0.847305916948244,,,,,,,,
encoding,fixation,20,11669610,11670366,11669848.0,11670128.0,281.0,281.0,1892.3,1129.6,1920.0,1080.0,fixation,15.230024999938903,15.985152040841058,4.0,Object_Land_Pattern_Large,-1.0,,,,,,,,,,,
encoding,fixation,20,11669610,11670366,11670156.0,11671462.0,1307.0,210.0,1862.9,1437.4,1920.0,700.0,Object_Sea_Solid_Small,15.230024999938903,15.985152040841058,4.0,Object_Land_Pattern_Large,-1.0,,,,,,,,,,,
encoding,image,20,11670366,11671379,,,,,,,,,none,15.985271707875654,16.99875224987045,4.0,Object_Land_Pattern_Large,-1.0,,,,,,,,,,,
encoding,value,20,11671379,11677393,11671505.0,11671679.0,175.0,175.0,1670.4,1141.6,1591.0,891.0,Object_Land_Solid_Small,16.99888737499714,23.012284957803782,4.0,Object_Land_Pattern_Large,-1.0,,,,,,,,,,,
encoding,value,20,11671379,11677393,11671723.0,11672060.0,338.0,338.0,1570.5,807.0999999999999,1591.0,1269.0,Object_Land_Pattern_Large,16.99888737499714,23.012284957803782,4.0,Object_Land_Pattern_Large,-1.0,,,,,,,,,,,
encoding,value,20,11671379,11677393,11672071.0,11672316.0,246.0,246.0,1587.0,748.5999999999999,1591.0,1269.0,Object_Land_Pattern_Large,16.99888737499714,23.012284957803782,4.0,Object_Land_Pattern_Large,-1.0,,,,,,,,,,,
encoding,value,20,11671379,11677393,11672330.0,11673351.0,1022.0,1022.0,1594.9,854.7,1591.0,1269.0,Object_Land_Pattern_Large,16.99888737499714,23.012284957803782,4.0,Object_Land_Pattern_Large,-1.0,,,,,,,,,,,
encoding,value,20,11671379,11677393,11673363.0,11673496.0,134.0,134.0,1618.8,908.8,1591.0,1269.0,Object_Land_Pattern_Large,16.99888737499714,23.012284957803782,4.0,Object_Land_Pattern_Large,-1.0,,,,,,,,,,,
encoding,value,20,11671379,11677393,11673505.0,11674209.0,705.0,705.0,1583.4,908.5999999999999,1591.0,1269.0,Object_Land_Pattern_Large,16.99888737499714,23.012284957803782,4.0,Object_Land_Pattern_Large,-1.0,,,,,,,,,,,
encoding,value,20,11671379,11677393,11674228.0,11676250.0,2023.0,2023.0,1564.1,826.7,1591.0,1269.0,Object_Land_Pattern_Large,16.99888737499714,23.012284957803782,4.0,Object_Land_Pattern_Large,-1.0,,,,,,,,,,,
encoding,value,20,11671379,11677393,11676267.0,11678557.0,2291.0,1126.0,1536.6,869.9000000000001,1591.0,1269.0,Object_Land_Pattern_Large,16.99888737499714,23.012284957803782,4.0,Object_Land_Pattern_Large,-1.0,,,,,,,,,,,
encoding,attention,20,11677393,11680412,11678797.0,11679372.0,576.0,576.0,1929.1,1275.4,1920.0,700.0,Object_Sea_Solid_Small,23.012405874906108,26.031217332929373,4.0,Object_Land_Pattern_Large,-1.0,-1.0,1.0,0.9261467498727144,,,,,,,,
encoding,attention,20,11677393,11680412,11679392.0,11679977.0,586.0,586.0,1944.0,1421.6,1920.0,700.0,Object_Sea_Solid_Small,23.012405874906108,26.031217332929373,4.0,Object_Land_Pattern_Large,-1.0,-1.0,1.0,0.9261467498727144,,,,,,,,
encoding,attention,20,11677393,11680412,11679994.0,11680068.0,75.0,75.0,2051.6,1476.9,1920.0,700.0,Object_Sea_Solid_Small,23.012405874906108,26.031217332929373,4.0,Object_Land_Pattern_Large,-1.0,-1.0,1.0,0.9261467498727144,,,,,,,,
encoding,fixation,21,11680412,11680917,11680696.0,11681146.0,451.0,221.0,1918.8,1300.0,1920.0,700.0,Object_Sea_Solid_Small,26.031389665789906,26.536530290963128,4.0,Animal_Sea_Pattern_Large,-6.0,,,,,,,,,,,
encoding,image,21,11680917,11681929,11681171.0,11681363.0,193.0,193.0,2192.9,1277.8,2249.0,891.0,Animal_Sea_Pattern_Large,26.536640374921262,27.548521374817938,4.0,Animal_Sea_Pattern_Large,-6.0,,,,,,,,,,,
encoding,image,21,11680917,11681929,11681374.0,11681641.0,268.0,268.0,2146.5,1295.1,2249.0,891.0,Animal_Sea_Pattern_Large,26.536640374921262,27.548521374817938,4.0,Animal_Sea_Pattern_Large,-6.0,,,,,,,,,,,
encoding,image,21,11680917,11681929,11681665.0,11682176.0,512.0,264.0,1924.1,1362.6,1920.0,700.0,Object_Sea_Solid_Small,26.536640374921262,27.548521374817938,4.0,Animal_Sea_Pattern_Large,-6.0,,,,,,,,,,,
encoding,value,21,11681929,11687941,11682200.0,11682559.0,360.0,360.0,2083.9,1285.7,2249.0,891.0,Animal_Sea_Pattern_Large,27.5486407908611,33.55955629097298,4.0,Animal_Sea_Pattern_Large,-6.0,,,,,,,,,,,
encoding,value,21,11681929,11687941,11682583.0,11683640.0,1058.0,1058.0,1919.1,1244.3,1920.0,700.0,Object_Sea_Solid_Small,27.5486407908611,33.55955629097298,4.0,Animal_Sea_Pattern_Large,-6.0,,,,,,,,,,,
encoding,value,21,11681929,11687941,11683665.0,11684149.0,485.0,485.0,2064.9,1232.1,2249.0,891.0,Animal_Sea_Pattern_Large,27.5486407908611,33.55955629097298,4.0,Animal_Sea_Pattern_Large,-6.0,,,,,,,,,,,
encoding,value,21,11681929,11687941,11684169.0,11684770.0,602.0,602.0,2214.6,1196.2,2249.0,891.0,Animal_Sea_Pattern_Large,27.5486407908611,33.55955629097298,4.0,Animal_Sea_Pattern_Large,-6.0,,,,,,,,,,,
encoding,value,21,11681929,11687941,11684786.0,11685174.0,389.0,389.0,2127.5,1197.5,2249.0,891.0,Animal_Sea_Pattern_Large,27.5486407908611,33.55955629097298,4.0,Animal_Sea_Pattern_Large,-6.0,,,,,,,,,,,
encoding,value,21,11681929,11687941,11685189.0,11685622.0,434.0,434.0,2215.4,1185.0,2249.0,891.0,Animal_Sea_Pattern_Large,27.5486407908611,33.55955629097298,4.0,Animal_Sea_Pattern_Large,-6.0,,,,,,,,,,,
encoding,value,21,11681929,11687941,11685639.0,11685842.0,204.0,204.0,2163.0,1237.4,2249.0,891.0,Animal_Sea_Pattern_Large,27.5486407908611,33.55955629097298,4.0,Animal_Sea_Pattern_Large,-6.0,,,,,,,,,,,
encoding,value,21,11681929,11687941,11685849.0,11688685.0,2837.0,2092.0,2160.4,1280.7,2249.0,891.0,Animal_Sea_Pattern_Large,27.5486407908611,33.55955629097298,4.0,Animal_Sea_Pattern_Large,-6.0,,,,,,,,,,,
encoding,attention,21,11687941,11690953,11688704.0,11688811.0,108.0,108.0,2174.5,1201.4,2249.0,891.0,Animal_Sea_Pattern_Large,33.55971641582437,36.57180941593833,4.0,Animal_Sea_Pattern_Large,-6.0,,,,,,,,,,,
encoding,attention,21,11687941,11690953,11688988.0,11689595.0,608.0,608.0,2173.0,1193.9,2249.0,891.0,Animal_Sea_Pattern_Large,33.55971641582437,36.57180941593833,4.0,Animal_Sea_Pattern_Large,-6.0,,,,,,,,,,,
encoding,attention,21,11687941,11690953,11689603.0,11689893.0,291.0,291.0,2165.4,1201.4,2249.0,891.0,Animal_Sea_Pattern_Large,33.55971641582437,36.57180941593833,4.0,Animal_Sea_Pattern_Large,-6.0,,,,,,,,,,,
encoding,fixation,22,11690953,11691458,11691060.0,11691321.0,262.0,262.0,2230.4,1173.3,2249.0,891.0,Animal_Sea_Pattern_Large,36.571940790861845,37.077183165820315,4.0,Animal_Sea_Solid_Small,-2.0,,,,,,,,,,,
encoding,fixation,22,11690953,11691458,11691347.0,11691542.0,196.0,111.0,1949.0,1128.6,1920.0,1080.0,fixation,36.571940790861845,37.077183165820315,4.0,Animal_Sea_Solid_Small,-2.0,,,,,,,,,,,
encoding,image,22,11691459,11692470,11691556.0,11691848.0,293.0,293.0,1863.0,1088.0,1920.0,1080.0,fixation,37.077298290794715,38.08806437486783,4.0,Animal_Sea_Solid_Small,-2.0,,,,,,,,,,,
encoding,image,22,11691459,11692470,11691873.0,11692097.0,225.0,225.0,1876.6,860.9000000000001,1920.0,1460.0,Animal_Sea_Solid_Small,37.077298290794715,38.08806437486783,4.0,Animal_Sea_Solid_Small,-2.0,,,,,,,,,,,
encoding,image,22,11691459,11692470,11692131.0,11692745.0,615.0,339.0,1868.3,1115.1,1920.0,1080.0,fixation,37.077298290794715,38.08806437486783,4.0,Animal_Sea_Solid_Small,-2.0,,,,,,,,,,,
encoding,value,22,11692470,11698481,11692793.0,11693347.0,555.0,555.0,1901.7,714.7,1920.0,1460.0,Animal_Sea_Solid_Small,38.08819037489593,44.099352332996204,4.0,Animal_Sea_Solid_Small,-2.0,,,,,,,,,,,
encoding,value,22,11692470,11698481,11693367.0,11693617.0,251.0,251.0,1879.6,832.2,1920.0,1460.0,Animal_Sea_Solid_Small,38.08819037489593,44.099352332996204,4.0,Animal_Sea_Solid_Small,-2.0,,,,,,,,,,,
encoding,value,22,11692470,11698481,11693642.0,11694323.0,682.0,682.0,1906.5,1054.4,1920.0,1080.0,fixation,38.08819037489593,44.099352332996204,4.0,Animal_Sea_Solid_Small,-2.0,,,,,,,,,,,
encoding,value,22,11692470,11698481,11694333.0,11694409.0,77.0,77.0,1895.3,1086.9,1920.0,1080.0,fixation,38.08819037489593,44.099352332996204,4.0,Animal_Sea_Solid_Small,-2.0,,,,,,,,,,,
encoding,value,22,11692470,11698481,11694592.0,11695244.0,653.0,653.0,1884.2,1122.9,1920.0,1080.0,fixation,38.08819037489593,44.099352332996204,4.0,Animal_Sea_Solid_Small,-2.0,,,,,,,,,,,
encoding,value,22,11692470,11698481,11695293.0,11695678.0,386.0,386.0,1902.8,797.0,1920.0,1460.0,Animal_Sea_Solid_Small,38.08819037489593,44.099352332996204,4.0,Animal_Sea_Solid_Small,-2.0,,,,,,,,,,,
encoding,value,22,11692470,11698481,11695703.0,11696041.0,339.0,339.0,1870.4,925.3,1920.0,1460.0,Animal_Sea_Solid_Small,38.08819037489593,44.099352332996204,4.0,Animal_Sea_Solid_Small,-2.0,,,,,,,,,,,
encoding,value,22,11692470,11698481,11696084.0,11696551.0,468.0,468.0,1892.7,641.3,1920.0,1460.0,Animal_Sea_Solid_Small,38.08819037489593,44.099352332996204,4.0,Animal_Sea_Solid_Small,-2.0,,,,,,,,,,,
encoding,value,22,11692470,11698481,11696570.0,11696921.0,352.0,352.0,1877.5,741.4000000000001,1920.0,1460.0,Animal_Sea_Solid_Small,38.08819037489593,44.099352332996204,4.0,Animal_Sea_Solid_Small,-2.0,,,,,,,,,,,
encoding,value,22,11692470,11698481,11696945.0,11698932.0,1988.0,1536.0,1875.4,615.5999999999999,1920.0,1460.0,Animal_Sea_Solid_Small,38.08819037489593,44.099352332996204,4.0,Animal_Sea_Solid_Small,-2.0,,,,,,,,,,,
encoding,attention,22,11698481,11701499,11698944.0,11699505.0,562.0,562.0,1939.5,614.7,1920.0,1460.0,Animal_Sea_Solid_Small,44.099551665829495,47.11704204091802,4.0,Animal_Sea_Solid_Small,-2.0,-2.0,1.0,0.7856873329728842,,,,,,,,
encoding,attention,22,11698481,11701499,11699739.0,11699774.0,36.0,36.0,1858.0,942.8,1920.0,1460.0,Animal_Sea_Solid_Small,44.099551665829495,47.11704204091802,4.0,Animal_Sea_Solid_Small,-2.0,-2.0,1.0,0.7856873329728842,,,,,,,,
encoding,attention,22,11698481,11701499,11699799.0,11700098.0,300.0,300.0,1904.2,1193.8,1920.0,700.0,Object_Sea_Solid_Small,44.099551665829495,47.11704204091802,4.0,Animal_Sea_Solid_Small,-2.0,-2.0,1.0,0.7856873329728842,,,,,,,,
encoding,attention,22,11698481,11701499,11700119.0,11700498.0,380.0,380.0,1875.1,1326.0,1920.0,700.0,Object_Sea_Solid_Small,44.099551665829495,47.11704204091802,4.0,Animal_Sea_Solid_Small,-2.0,-2.0,1.0,0.7856873329728842,,,,,,,,
encoding,attention,22,11698481,11701499,11700524.0,11701013.0,490.0,490.0,1885.1,1137.5,1920.0,1080.0,fixation,44.099551665829495,47.11704204091802,4.0,Animal_Sea_Solid_Small,-2.0,-2.0,1.0,0.7856873329728842,,,,,,,,
encoding,attention,22,11698481,11701499,11701027.0,11701344.0,318.0,318.0,1887.0,1068.6,1920.0,1080.0,fixation,44.099551665829495,47.11704204091802,4.0,Animal_Sea_Solid_Small,-2.0,-2.0,1.0,0.7856873329728842,,,,,,,,
encoding,fixation,23,11701499,11702005,11701709.0,11702229.0,521.0,296.0,1878.2,1097.1,1920.0,1080.0,fixation,47.11729179089889,47.62288595782593,4.0,Animal_Land_Pattern_Large,9.0,,,,,,,,,,,
encoding,image,23,11702005,11703016,11702259.0,11703171.0,913.0,757.0,2179.7,957.9000000000001,2249.0,1269.0,Animal_Land_Pattern_Large,47.623007707996294,48.63402791577391,4.0,Animal_Land_Pattern_Large,9.0,,,,,,,,,,,
encoding,value,23,11703016,11709028,11703192.0,11703687.0,496.0,496.0,2227.1,830.4000000000001,2249.0,1269.0,Animal_Land_Pattern_Large,48.6341361659579,54.64610949996859,4.0,Animal_Land_Pattern_Large,9.0,,,,,,,,,,,
encoding,value,23,11703016,11709028,11703698.0,11703879.0,182.0,182.0,2189.5,885.5999999999999,2249.0,1269.0,Animal_Land_Pattern_Large,48.6341361659579,54.64610949996859,4.0,Animal_Land_Pattern_Large,9.0,,,,,,,,,,,
encoding,value,23,11703016,11709028,11703891.0,11704237.0,347.0,347.0,2188.4,946.5999999999999,2249.0,1269.0,Animal_Land_Pattern_Large,48.6341361659579,54.64610949996859,4.0,Animal_Land_Pattern_Large,9.0,,,,,,,,,,,
encoding,value,23,11703016,11709028,11704255.0,11704710.0,456.0,456.0,2200.5,861.0,2249.0,1269.0,Animal_Land_Pattern_Large,48.6341361659579,54.64610949996859,4.0,Animal_Land_Pattern_Large,9.0,,,,,,,,,,,
encoding,value,23,11703016,11709028,11704907.0,11705035.0,129.0,129.0,2177.7,859.3,2249.0,1269.0,Animal_Land_Pattern_Large,48.6341361659579,54.64610949996859,4.0,Animal_Land_Pattern_Large,9.0,,,,,,,,,,,
encoding,value,23,11703016,11709028,11705043.0,11705252.0,210.0,210.0,2231.7,849.5999999999999,2249.0,1269.0,Animal_Land_Pattern_Large,48.6341361659579,54.64610949996859,4.0,Animal_Land_Pattern_Large,9.0,,,,,,,,,,,
encoding,value,23,11703016,11709028,11705269.0,11705478.0,210.0,210.0,2171.6,921.7,2249.0,1269.0,Animal_Land_Pattern_Large,48.6341361659579,54.64610949996859,4.0,Animal_Land_Pattern_Large,9.0,,,,,,,,,,,
encoding,value,23,11703016,11709028,11705485.0,11705697.0,213.0,213.0,2161.1,939.8,2249.0,1269.0,Animal_Land_Pattern_Large,48.6341361659579,54.64610949996859,4.0,Animal_Land_Pattern_Large,9.0,,,,,,,,,,,
encoding,value,23,11703016,11709028,11705724.0,11706045.0,322.0,322.0,1903.7,1097.3,1920.0,1080.0,fixation,48.6341361659579,54.64610949996859,4.0,Animal_Land_Pattern_Large,9.0,,,,,,,,,,,
encoding,value,23,11703016,11709028,11706077.0,11706331.0,255.0,255.0,2196.4,933.5999999999999,2249.0,1269.0,Animal_Land_Pattern_Large,48.6341361659579,54.64610949996859,4.0,Animal_Land_Pattern_Large,9.0,,,,,,,,,,,
encoding,value,23,11703016,11709028,11706338.0,11707092.0,755.0,755.0,2168.6,942.7,2249.0,1269.0,Animal_Land_Pattern_Large,48.6341361659579,54.64610949996859,4.0,Animal_Land_Pattern_Large,9.0,,,,,,,,,,,
encoding,value,23,11703016,11709028,11707102.0,11709919.0,2818.0,1926.0,2218.8,828.9000000000001,2249.0,1269.0,Animal_Land_Pattern_Large,48.6341361659579,54.64610949996859,4.0,Animal_Land_Pattern_Large,9.0,,,,,,,,,,,
encoding,attention,23,11709028,11712046,11709932.0,11710347.0,416.0,416.0,2275.7,820.2,2249.0,1269.0,Animal_Land_Pattern_Large,54.64622554089874,57.6632676247973,4.0,Animal_Land_Pattern_Large,9.0,-7.0,0.0,0.6250860001891851,,,,,,,,
encoding,attention,23,11709028,11712046,11710356.0,11710655.0,300.0,300.0,2199.0,818.5,2249.0,1269.0,Animal_Land_Pattern_Large,54.64622554089874,57.6632676247973,4.0,Animal_Land_Pattern_Large,9.0,-7.0,0.0,0.6250860001891851,,,,,,,,
encoding,attention,23,11709028,11712046,11710667.0,11711035.0,369.0,369.0,2272.6,813.4000000000001,2249.0,1269.0,Animal_Land_Pattern_Large,54.64622554089874,57.6632676247973,4.0,Animal_Land_Pattern_Large,9.0,-7.0,0.0,0.6250860001891851,,,,,,,,
encoding,attention,23,11709028,11712046,11711046.0,11711318.0,273.0,273.0,2199.0,857.5,2249.0,1269.0,Animal_Land_Pattern_Large,54.64622554089874,57.6632676247973,4.0,Animal_Land_Pattern_Large,9.0,-7.0,0.0,0.6250860001891851,,,,,,,,
encoding,attention,23,11709028,11712046,11711333.0,11711611.0,279.0,279.0,2180.5,934.5999999999999,2249.0,1269.0,Animal_Land_Pattern_Large,54.64622554089874,57.6632676247973,4.0,Animal_Land_Pattern_Large,9.0,-7.0,0.0,0.6250860001891851,,,,,,,,
encoding,fixation,24,11712046,11713301,11712307.0,11712611.0,305.0,305.0,1864.9,1068.5,1920.0,1080.0,fixation,57.66341795795597,58.91841670777649,4.0,Object_Land_Solid_Small,-7.0,,,,,,,,,,,
encoding,fixation,24,11712046,11713301,11712634.0,11713198.0,565.0,565.0,1866.9,1256.8,1920.0,700.0,Object_Sea_Solid_Small,57.66341795795597,58.91841670777649,4.0,Object_Land_Solid_Small,-7.0,,,,,,,,,,,
encoding,fixation,24,11712046,11713301,11713220.0,11713480.0,261.0,81.0,1679.8,1239.0,1591.0,891.0,Object_Land_Solid_Small,57.66341795795597,58.91841670777649,4.0,Object_Land_Solid_Small,-7.0,,,,,,,,,,,
encoding,image,24,11713301,11714316,11713500.0,11713995.0,496.0,496.0,1528.5,1238.4,1591.0,891.0,Object_Land_Solid_Small,58.91854641586542,59.933675249805674,4.0,Object_Land_Solid_Small,-7.0,,,,,,,,,,,
encoding,image,24,11713301,11714316,11714009.0,11714353.0,345.0,307.0,1610.8,1271.4,1591.0,891.0,Object_Land_Solid_Small,58.91854641586542,59.933675249805674,4.0,Object_Land_Solid_Small,-7.0,,,,,,,,,,,
encoding,value,24,11714316,11720329,11714365.0,11714802.0,438.0,438.0,1541.5,1272.3,1591.0,891.0,Object_Land_Solid_Small,59.93383429083042,65.94593845796771,4.0,Object_Land_Solid_Small,-7.0,,,,,,,,,,,
encoding,value,24,11714316,11720329,11714816.0,11718465.0,3650.0,3650.0,1556.0,1184.2,1591.0,891.0,Object_Land_Solid_Small,59.93383429083042,65.94593845796771,4.0,Object_Land_Solid_Small,-7.0,,,,,,,,,,,
encoding,value,24,11714316,11720329,11718472.0,11718677.0,206.0,206.0,1501.5,1189.8,1591.0,891.0,Object_Land_Solid_Small,59.93383429083042,65.94593845796771,4.0,Object_Land_Solid_Small,-7.0,,,,,,,,,,,
encoding,value,24,11714316,11720329,11718686.0,11720562.0,1877.0,1643.0,1550.2,1179.8,1591.0,891.0,Object_Land_Solid_Small,59.93383429083042,65.94593845796771,4.0,Object_Land_Solid_Small,-7.0,,,,,,,,,,,
encoding,attention,24,11720329,11723347,11720570.0,11720933.0,364.0,364.0,1586.6,1195.9,1591.0,891.0,Object_Land_Solid_Small,65.94605791592039,68.96406574989669,4.0,Object_Land_Solid_Small,-7.0,-7.0,1.0,1.1464693751186132,,,,,,,,
encoding,attention,24,11720329,11723347,11720941.0,11721684.0,744.0,744.0,1500.7,1188.2,1591.0,891.0,Object_Land_Solid_Small,65.94605791592039,68.96406574989669,4.0,Object_Land_Solid_Small,-7.0,-7.0,1.0,1.1464693751186132,,,,,,,,
encoding,attention,24,11720329,11723347,11721916.0,11721968.0,53.0,53.0,1773.1,1413.0,1920.0,700.0,Object_Sea_Solid_Small,65.94605791592039,68.96406574989669,4.0,Object_Land_Solid_Small,-7.0,-7.0,1.0,1.1464693751186132,,,,,,,,
encoding,attention,24,11720329,11723347,11721984.0,11722241.0,258.0,258.0,1821.3,1385.5,1920.0,700.0,Object_Sea_Solid_Small,65.94605791592039,68.96406574989669,4.0,Object_Land_Solid_Small,-7.0,-7.0,1.0,1.1464693751186132,,,,,,,,
encoding,attention,24,11720329,11723347,11722267.0,11722587.0,321.0,321.0,1626.8,1297.9,1591.0,891.0,Object_Land_Solid_Small,65.94605791592039,68.96406574989669,4.0,Object_Land_Solid_Small,-7.0,-7.0,1.0,1.1464693751186132,,,,,,,,
encoding,attention,24,11720329,11723347,11722603.0,11722838.0,236.0,236.0,1550.0,1246.8,1591.0,891.0,Object_Land_Solid_Small,65.94605791592039,68.96406574989669,4.0,Object_Land_Solid_Small,-7.0,-7.0,1.0,1.1464693751186132,,,,,,,,
encoding,attention,24,11720329,11723347,11722867.0,11723262.0,396.0,396.0,1854.8,1238.2,1920.0,700.0,Object_Sea_Solid_Small,65.94605791592039,68.96406574989669,4.0,Object_Land_Solid_Small,-7.0,-7.0,1.0,1.1464693751186132,,,,,,,,
encoding,fixation,25,11994795,11995551,11995017.0,11995607.0,591.0,534.0,1898.3,1095.6,1920.0,1080.0,fixation,2.08464308292605,2.8403670419938862,5.0,Animal_Land_Solid_Small,-5.0,,,,,,,,,,,
encoding,image,25,11995551,11996561,11995819.0,11995868.0,50.0,50.0,1701.7,1152.1,1591.0,891.0,Object_Sea_Pattern_Large,2.8405186249874532,3.850785791873932,5.0,Animal_Land_Solid_Small,-5.0,,,,,,,,,,,
encoding,image,25,11995551,11996561,11995892.0,11996790.0,899.0,669.0,1604.8,912.8,1591.0,1269.0,Animal_Land_Solid_Small,2.8405186249874532,3.850785791873932,5.0,Animal_Land_Solid_Small,-5.0,,,,,,,,,,,
encoding,value,25,11996561,12002578,11996807.0,11997370.0,564.0,564.0,1594.4,786.0999999999999,1591.0,1269.0,Animal_Land_Solid_Small,3.8509032079018657,9.866993207950143,5.0,Animal_Land_Solid_Small,-5.0,,,,,,,,,,,
encoding,value,25,11996561,12002578,11997583.0,11997692.0,110.0,110.0,1520.9,929.8,1591.0,1269.0,Animal_Land_Solid_Small,3.8509032079018657,9.866993207950143,5.0,Animal_Land_Solid_Small,-5.0,,,,,,,,,,,
encoding,value,25,11996561,12002578,11997705.0,11997735.0,31.0,31.0,1544.7,947.2,1591.0,1269.0,Animal_Land_Solid_Small,3.8509032079018657,9.866993207950143,5.0,Animal_Land_Solid_Small,-5.0,,,,,,,,,,,
encoding,value,25,11996561,12002578,11997803.0,11997908.0,106.0,106.0,1557.6,904.0999999999999,1591.0,1269.0,Animal_Land_Solid_Small,3.8509032079018657,9.866993207950143,5.0,Animal_Land_Solid_Small,-5.0,,,,,,,,,,,
encoding,value,25,11996561,12002578,11997954.0,11998238.0,285.0,285.0,1576.2,953.7,1591.0,1269.0,Animal_Land_Solid_Small,3.8509032079018657,9.866993207950143,5.0,Animal_Land_Solid_Small,-5.0,,,,,,,,,,,
encoding,value,25,11996561,12002578,11998263.0,11998518.0,256.0,256.0,1851.3,1095.6,1591.0,891.0,Object_Sea_Pattern_Large,3.8509032079018657,9.866993207950143,5.0,Animal_Land_Solid_Small,-5.0,,,,,,,,,,,
encoding,value,25,11996561,12002578,11998531.0,11998982.0,452.0,452.0,1899.1,1133.6,1920.0,1080.0,fixation,3.8509032079018657,9.866993207950143,5.0,Animal_Land_Solid_Small,-5.0,,,,,,,,,,,
encoding,value,25,11996561,12002578,11999166.0,11999585.0,420.0,420.0,1808.7,1146.5,1591.0,891.0,Object_Sea_Pattern_Large,3.8509032079018657,9.866993207950143,5.0,Animal_Land_Solid_Small,-5.0,,,,,,,,,,,
encoding,value,25,11996561,12002578,11999843.0,11999931.0,89.0,89.0,1814.1,846.3,1920.0,1460.0,Animal_Sea_Pattern_Small,3.8509032079018657,9.866993207950143,5.0,Animal_Land_Solid_Small,-5.0,,,,,,,,,,,
encoding,value,25,11996561,12002578,11999984.0,12000376.0,393.0,393.0,1864.1,1138.9,1591.0,891.0,Object_Sea_Pattern_Large,3.8509032079018657,9.866993207950143,5.0,Animal_Land_Solid_Small,-5.0,,,,,,,,,,,
encoding,value,25,11996561,12002578,12000423.0,12000830.0,408.0,408.0,1599.9,889.5,1591.0,1269.0,Animal_Land_Solid_Small,3.8509032079018657,9.866993207950143,5.0,Animal_Land_Solid_Small,-5.0,,,,,,,,,,,
encoding,value,25,11996561,12002578,12000837.0,12003662.0,2826.0,1741.0,1572.9,847.5,1591.0,1269.0,Animal_Land_Solid_Small,3.8509032079018657,9.866993207950143,5.0,Animal_Land_Solid_Small,-5.0,,,,,,,,,,,
encoding,attention,25,12002578,12005596,12003674.0,12005080.0,1407.0,1407.0,1621.1,842.2,1591.0,1269.0,Animal_Land_Solid_Small,9.867112833075224,12.88513158308342,5.0,Animal_Land_Solid_Small,-5.0,-5.0,1.0,2.1086154161021113,,,,,,,,
encoding,attention,25,12002578,12005596,12005132.0,12005396.0,265.0,265.0,1553.2,867.2,1591.0,1269.0,Animal_Land_Solid_Small,9.867112833075224,12.88513158308342,5.0,Animal_Land_Solid_Small,-5.0,-5.0,1.0,2.1086154161021113,,,,,,,,
encoding,fixation,26,12005596,12007101,12005833.0,12007440.0,1608.0,1268.0,1883.3,1132.1,1920.0,1080.0,fixation,12.885277207940817,14.39023270807229,5.0,Object_Sea_Pattern_Large,-9.0,,,,,,,,,,,
encoding,image,26,12007101,12008112,12007468.0,12007594.0,127.0,127.0,1601.6,1244.5,1591.0,891.0,Object_Sea_Pattern_Large,14.390347708016634,15.401337666902691,5.0,Object_Sea_Pattern_Large,-9.0,,,,,,,,,,,
encoding,image,26,12007101,12008112,12007800.0,12007894.0,95.0,95.0,1664.7,1198.2,1591.0,891.0,Object_Sea_Pattern_Large,14.390347708016634,15.401337666902691,5.0,Object_Sea_Pattern_Large,-9.0,,,,,,,,,,,
encoding,image,26,12007101,12008112,12007905.0,12008330.0,426.0,207.0,1715.6,1181.4,1591.0,891.0,Object_Sea_Pattern_Large,14.390347708016634,15.401337666902691,5.0,Object_Sea_Pattern_Large,-9.0,,,,,,,,,,,
encoding,value,26,12008112,12014129,12008351.0,12010181.0,1831.0,1831.0,1544.8,1200.8,1591.0,891.0,Object_Sea_Pattern_Large,15.401445708004758,21.417499125003815,5.0,Object_Sea_Pattern_Large,-9.0,,,,,,,,,,,
encoding,value,26,12008112,12014129,12010206.0,12010384.0,179.0,179.0,1664.3,1205.8,1591.0,891.0,Object_Sea_Pattern_Large,15.401445708004758,21.417499125003815,5.0,Object_Sea_Pattern_Large,-9.0,,,,,,,,,,,
encoding,value,26,12008112,12014129,12010404.0,12014930.0,4527.0,3725.0,1555.3,1202.5,1591.0,891.0,Object_Sea_Pattern_Large,15.401445708004758,21.417499125003815,5.0,Object_Sea_Pattern_Large,-9.0,,,,,,,,,,,
encoding,attention,26,12014129,12017150,12015146.0,12015258.0,113.0,113.0,1539.8,1221.2,1591.0,891.0,Object_Sea_Pattern_Large,21.41760875005275,24.437938041985035,5.0,Object_Sea_Pattern_Large,-9.0,-9.0,1.0,0.5242938329465687,,,,,,,,
encoding,attention,26,12014129,12017150,12015302.0,12016346.0,1045.0,1045.0,1598.5,1182.9,1591.0,891.0,Object_Sea_Pattern_Large,21.41760875005275,24.437938041985035,5.0,Object_Sea_Pattern_Large,-9.0,-9.0,1.0,0.5242938329465687,,,,,,,,
encoding,attention,26,12014129,12017150,12016372.0,12016815.0,444.0,444.0,1828.1,1120.4,1591.0,891.0,Object_Sea_Pattern_Large,21.41760875005275,24.437938041985035,5.0,Object_Sea_Pattern_Large,-9.0,-9.0,1.0,0.5242938329465687,,,,,,,,
encoding,fixation,27,12017150,12018655,12017164.0,12018926.0,1763.0,1491.0,1868.9,1137.4,1591.0,891.0,Object_Sea_Pattern_Large,24.438106207875535,25.94360816688277,5.0,Animal_Sea_Pattern_Small,3.0,,,,,,,,,,,
encoding,image,27,12018655,12019667,12018966.0,12019152.0,187.0,187.0,1862.3,869.5999999999999,1920.0,1460.0,Animal_Sea_Pattern_Small,25.943722333060578,26.955131167080253,5.0,Animal_Sea_Pattern_Small,3.0,,,,,,,,,,,
encoding,image,27,12018655,12019667,12019403.0,12020232.0,830.0,264.0,1843.6,1095.3,1591.0,891.0,Object_Sea_Pattern_Large,25.943722333060578,26.955131167080253,5.0,Animal_Sea_Pattern_Small,3.0,,,,,,,,,,,
encoding,value,27,12019667,12025679,12020283.0,12020450.0,168.0,168.0,1896.8,570.8,1920.0,1460.0,Animal_Sea_Pattern_Small,26.955265749944378,32.967546083033085,5.0,Animal_Sea_Pattern_Small,3.0,,,,,,,,,,,
encoding,value,27,12019667,12025679,12020459.0,12020710.0,252.0,252.0,1893.8,586.5999999999999,1920.0,1460.0,Animal_Sea_Pattern_Small,26.955265749944378,32.967546083033085,5.0,Animal_Sea_Pattern_Small,3.0,,,,,,,,,,,
encoding,value,27,12019667,12025679,12020725.0,12021156.0,432.0,432.0,1893.6,743.7,1920.0,1460.0,Animal_Sea_Pattern_Small,26.955265749944378,32.967546083033085,5.0,Animal_Sea_Pattern_Small,3.0,,,,,,,,,,,
encoding,value,27,12019667,12025679,12021174.0,12021387.0,214.0,214.0,1791.2,810.8,1920.0,1460.0,Animal_Sea_Pattern_Small,26.955265749944378,32.967546083033085,5.0,Animal_Sea_Pattern_Small,3.0,,,,,,,,,,,
encoding,value,27,12019667,12025679,12021407.0,12022735.0,1329.0,1329.0,1852.5,774.3,1920.0,1460.0,Animal_Sea_Pattern_Small,26.955265749944378,32.967546083033085,5.0,Animal_Sea_Pattern_Small,3.0,,,,,,,,,,,
encoding,value,27,12019667,12025679,12022751.0,12026060.0,3310.0,2928.0,1871.8,675.0,1920.0,1460.0,Animal_Sea_Pattern_Small,26.955265749944378,32.967546083033085,5.0,Animal_Sea_Pattern_Small,3.0,,,,,,,,,,,
encoding,attention,27,12025679,12028701,12026075.0,12027302.0,1228.0,1228.0,1895.7,682.5999999999999,1920.0,1460.0,Animal_Sea_Pattern_Small,32.96766229206696,35.98864366696216,5.0,Animal_Sea_Pattern_Small,3.0,3.0,1.0,0.950419790809974,,,,,,,,
encoding,attention,27,12025679,12028701,12027312.0,12027619.0,308.0,308.0,1862.9,772.2,1920.0,1460.0,Animal_Sea_Pattern_Small,32.96766229206696,35.98864366696216,5.0,Animal_Sea_Pattern_Small,3.0,3.0,1.0,0.950419790809974,,,,,,,,
encoding,attention,27,12025679,12028701,12027880.0,12028586.0,707.0,707.0,1851.7,773.5999999999999,1920.0,1460.0,Animal_Sea_Pattern_Small,32.96766229206696,35.98864366696216,5.0,Animal_Sea_Pattern_Small,3.0,3.0,1.0,0.950419790809974,,,,,,,,
encoding,fixation,28,12028701,12029456,12028848.0,12029018.0,171.0,171.0,1825.0,1025.5,1591.0,1269.0,Animal_Land_Solid_Small,35.9887992918957,36.74438662501052,5.0,Object_Sea_Solid_Large,1.0,,,,,,,,,,,
encoding,fixation,28,12028701,12029456,12029038.0,12029256.0,219.0,219.0,1810.8,1140.4,1591.0,891.0,Object_Sea_Pattern_Large,35.9887992918957,36.74438662501052,5.0,Object_Sea_Solid_Large,1.0,,,,,,,,,,,
encoding,fixation,28,12028701,12029456,12029264.0,12029627.0,364.0,192.0,1848.2,1149.2,1591.0,891.0,Object_Sea_Pattern_Large,35.9887992918957,36.74438662501052,5.0,Object_Sea_Solid_Large,1.0,,,,,,,,,,,
encoding,image,28,12029457,12030468,12029640.0,12029829.0,190.0,190.0,1843.8,1218.1,1920.0,700.0,Object_Sea_Solid_Large,36.744506207993254,37.75592116708867,5.0,Object_Sea_Solid_Large,1.0,,,,,,,,,,,
encoding,image,28,12029457,12030468,12029856.0,12030248.0,393.0,393.0,1857.1,1429.8,1920.0,700.0,Object_Sea_Solid_Large,36.744506207993254,37.75592116708867,5.0,Object_Sea_Solid_Large,1.0,,,,,,,,,,,
encoding,image,28,12029457,12030468,12030284.0,12030718.0,435.0,184.0,1838.8,1276.9,1920.0,700.0,Object_Sea_Solid_Large,36.744506207993254,37.75592116708867,5.0,Object_Sea_Solid_Large,1.0,,,,,,,,,,,
encoding,value,28,12030468,12036481,12030727.0,12030926.0,200.0,200.0,1854.2,1331.6,1920.0,700.0,Object_Sea_Solid_Large,37.75603495794349,43.76834158296697,5.0,Object_Sea_Solid_Large,1.0,,,,,,,,,,,
encoding,value,28,12030468,12036481,12030934.0,12031594.0,661.0,661.0,1844.8,1385.0,1920.0,700.0,Object_Sea_Solid_Large,37.75603495794349,43.76834158296697,5.0,Object_Sea_Solid_Large,1.0,,,,,,,,,,,
encoding,value,28,12030468,12036481,12031850.0,12032010.0,161.0,161.0,1814.3,1422.5,1920.0,700.0,Object_Sea_Solid_Large,37.75603495794349,43.76834158296697,5.0,Object_Sea_Solid_Large,1.0,,,,,,,,,,,
encoding,value,28,12030468,12036481,12032023.0,12036838.0,4816.0,4458.0,1847.4,1403.1,1920.0,700.0,Object_Sea_Solid_Large,37.75603495794349,43.76834158296697,5.0,Object_Sea_Solid_Large,1.0,,,,,,,,,,,
encoding,attention,28,12036481,12039500,12036965.0,12036996.0,32.0,32.0,1895.7,551.7,1920.0,1460.0,Animal_Sea_Pattern_Small,43.76846058294177,46.78746333299205,5.0,Object_Sea_Solid_Large,1.0,1.0,1.0,0.7177196668926626,,,,,,,,
encoding,attention,28,12036481,12039500,12037026.0,12037499.0,474.0,474.0,1852.4,1358.8,1920.0,700.0,Object_Sea_Solid_Large,43.76846058294177,46.78746333299205,5.0,Object_Sea_Solid_Large,1.0,1.0,1.0,0.7177196668926626,,,,,,,,
encoding,attention,28,12036481,12039500,12037510.0,12037692.0,183.0,183.0,1805.5,1386.7,1920.0,700.0,Object_Sea_Solid_Large,43.76846058294177,46.78746333299205,5.0,Object_Sea_Solid_Large,1.0,1.0,1.0,0.7177196668926626,,,,,,,,
encoding,attention,28,12036481,12039500,12037717.0,12037949.0,233.0,233.0,1551.5,1220.6,1591.0,891.0,Object_Sea_Pattern_Large,43.76846058294177,46.78746333299205,5.0,Object_Sea_Solid_Large,1.0,1.0,1.0,0.7177196668926626,,,,,,,,
encoding,attention,28,12036481,12039500,12037974.0,12038174.0,201.0,201.0,1838.3,1336.0,1920.0,700.0,Object_Sea_Solid_Large,43.76846058294177,46.78746333299205,5.0,Object_Sea_Solid_Large,1.0,1.0,1.0,0.7177196668926626,,,,,,,,
encoding,attention,28,12036481,12039500,12038463.0,12039077.0,615.0,615.0,1866.5,1417.3,1920.0,700.0,Object_Sea_Solid_Large,43.76846058294177,46.78746333299205,5.0,Object_Sea_Solid_Large,1.0,1.0,1.0,0.7177196668926626,,,,,,,,
encoding,fixation,29,12039500,12040006,12039785.0,12040465.0,681.0,221.0,1854.3,1134.9,1591.0,891.0,Object_Sea_Pattern_Large,46.78767204191536,47.29294058308005,5.0,Object_Land_Pattern_Small,4.0,,,,,,,,,,,
encoding,image,29,12040006,12041017,12040493.0,12040557.0,65.0,65.0,2142.9,1216.1,2249.0,891.0,Object_Land_Pattern_Small,47.293074666988105,48.304288167040795,5.0,Object_Land_Pattern_Small,4.0,,,,,,,,,,,
encoding,image,29,12040006,12041017,12040829.0,12041252.0,424.0,188.0,2162.5,1242.8,2249.0,891.0,Object_Land_Pattern_Small,47.293074666988105,48.304288167040795,5.0,Object_Land_Pattern_Small,4.0,,,,,,,,,,,
encoding,value,29,12041017,12047029,12041266.0,12041845.0,580.0,580.0,2228.5,1217.6,2249.0,891.0,Object_Land_Pattern_Small,48.304409791948274,54.316225999966264,5.0,Object_Land_Pattern_Small,4.0,,,,,,,,,,,
encoding,value,29,12041017,12047029,12042096.0,12042729.0,634.0,634.0,2195.0,779.2,2249.0,1269.0,Animal_Land_Solid_Large,48.304409791948274,54.316225999966264,5.0,Object_Land_Pattern_Small,4.0,,,,,,,,,,,
encoding,value,29,12041017,12047029,12042737.0,12043142.0,406.0,406.0,2209.2,1259.7,2249.0,891.0,Object_Land_Pattern_Small,48.304409791948274,54.316225999966264,5.0,Object_Land_Pattern_Small,4.0,,,,,,,,,,,
encoding,value,29,12041017,12047029,12043156.0,12043635.0,480.0,480.0,1989.7,1223.8,1920.0,700.0,Object_Sea_Solid_Large,48.304409791948274,54.316225999966264,5.0,Object_Land_Pattern_Small,4.0,,,,,,,,,,,
encoding,value,29,12041017,12047029,12043656.0,12043956.0,301.0,301.0,2167.4,1239.4,2249.0,891.0,Object_Land_Pattern_Small,48.304409791948274,54.316225999966264,5.0,Object_Land_Pattern_Small,4.0,,,,,,,,,,,
encoding,value,29,12041017,12047029,12043982.0,12044139.0,158.0,158.0,1866.0,1227.9,1920.0,700.0,Object_Sea_Solid_Large,48.304409791948274,54.316225999966264,5.0,Object_Land_Pattern_Small,4.0,,,,,,,,,,,
encoding,value,29,12041017,12047029,12044197.0,12044283.0,87.0,87.0,1563.9,1229.2,1591.0,891.0,Object_Sea_Pattern_Large,48.304409791948274,54.316225999966264,5.0,Object_Land_Pattern_Small,4.0,,,,,,,,,,,
encoding,value,29,12041017,12047029,12044313.0,12044387.0,75.0,75.0,1566.5,1231.8,1591.0,891.0,Object_Sea_Pattern_Large,48.304409791948274,54.316225999966264,5.0,Object_Land_Pattern_Small,4.0,,,,,,,,,,,
encoding,value,29,12041017,12047029,12044397.0,12044718.0,322.0,322.0,1548.2,1252.4,1591.0,891.0,Object_Sea_Pattern_Large,48.304409791948274,54.316225999966264,5.0,Object_Land_Pattern_Small,4.0,,,,,,,,,,,
encoding,value,29,12041017,12047029,12044738.0,12044976.0,239.0,239.0,1420.5,1260.6,1591.0,891.0,Object_Sea_Pattern_Large,48.304409791948274,54.316225999966264,5.0,Object_Land_Pattern_Small,4.0,,,,,,,,,,,
encoding,value,29,12041017,12047029,12045071.0,12045221.0,151.0,151.0,1676.5,1219.2,1591.0,891.0,Object_Sea_Pattern_Large,48.304409791948274,54.316225999966264,5.0,Object_Land_Pattern_Small,4.0,,,,,,,,,,,
encoding,value,29,12041017,12047029,12045262.0,12045487.0,226.0,226.0,2135.3,1218.5,2249.0,891.0,Object_Land_Pattern_Small,48.304409791948274,54.316225999966264,5.0,Object_Land_Pattern_Small,4.0,,,,,,,,,,,
encoding,value,29,12041017,12047029,12045495.0,12045857.0,363.0,363.0,2201.6,1210.4,2249.0,891.0,Object_Land_Pattern_Small,48.304409791948274,54.316225999966264,5.0,Object_Land_Pattern_Small,4.0,,,,,,,,,,,
encoding,value,29,12041017,12047029,12046110.0,12047043.0,934.0,919.0,1520.7,1123.8,1591.0,891.0,Object_Sea_Pattern_Large,48.304409791948274,54.316225999966264,5.0,Object_Land_Pattern_Small,4.0,,,,,,,,,,,
encoding,attention,29,12047029,12050047,12047067.0,12047215.0,149.0,149.0,1673.0,1289.9,1591.0,891.0,Object_Sea_Pattern_Large,54.31641137506813,57.33404424996115,5.0,Object_Land_Pattern_Small,4.0,4.0,1.0,2.1155705000273883,,,,,,,,
encoding,attention,29,12047029,12050047,12047227.0,12047275.0,49.0,49.0,1840.2,1256.3,1920.0,700.0,Object_Sea_Solid_Large,54.31641137506813,57.33404424996115,5.0,Object_Land_Pattern_Small,4.0,4.0,1.0,2.1155705000273883,,,,,,,,
encoding,attention,29,12047029,12050047,12047559.0,12048418.0,860.0,860.0,2173.8,1247.5,2249.0,891.0,Object_Land_Pattern_Small,54.31641137506813,57.33404424996115,5.0,Object_Land_Pattern_Small,4.0,4.0,1.0,2.1155705000273883,,,,,,,,
encoding,attention,29,12047029,12050047,12048433.0,12048737.0,305.0,305.0,2250.1,1236.5,2249.0,891.0,Object_Land_Pattern_Small,54.31641137506813,57.33404424996115,5.0,Object_Land_Pattern_Small,4.0,4.0,1.0,2.1155705000273883,,,,,,,,
encoding,attention,29,12047029,12050047,12048750.0,12049001.0,252.0,252.0,2170.2,1241.4,2249.0,891.0,Object_Land_Pattern_Small,54.31641137506813,57.33404424996115,5.0,Object_Land_Pattern_Small,4.0,4.0,1.0,2.1155705000273883,,,,,,,,
encoding,attention,29,12047029,12050047,12049010.0,12049398.0,389.0,389.0,2252.9,1227.6,2249.0,891.0,Object_Land_Pattern_Small,54.31641137506813,57.33404424996115,5.0,Object_Land_Pattern_Small,4.0,4.0,1.0,2.1155705000273883,,,,,,,,
encoding,fixation,30,12050047,12050552,12050127.0,12050159.0,33.0,33.0,1738.4,1320.9,1591.0,891.0,Object_Sea_Pattern_Large,57.3342007920146,57.83923512487672,5.0,Animal_Land_Solid_Large,3.0,,,,,,,,,,,
encoding,fixation,30,12050047,12050552,12050178.0,12050437.0,260.0,260.0,1736.5,1324.2,1591.0,891.0,Object_Sea_Pattern_Large,57.3342007920146,57.83923512487672,5.0,Animal_Land_Solid_Large,3.0,,,,,,,,,,,
encoding,fixation,30,12050047,12050552,12050461.0,12050655.0,195.0,91.0,1753.0,1145.9,1591.0,891.0,Object_Sea_Pattern_Large,57.3342007920146,57.83923512487672,5.0,Animal_Land_Solid_Large,3.0,,,,,,,,,,,
encoding,image,30,12050552,12051563,12050667.0,12050891.0,225.0,225.0,1853.0,1096.6,1920.0,1080.0,fixation,57.839347375091165,58.8503677919507,5.0,Animal_Land_Solid_Large,3.0,,,,,,,,,,,
encoding,image,30,12050552,12051563,12050915.0,12051262.0,348.0,348.0,2164.2,996.7,2249.0,1269.0,Animal_Land_Solid_Large,57.839347375091165,58.8503677919507,5.0,Animal_Land_Solid_Large,3.0,,,,,,,,,,,
encoding,image,30,12050552,12051563,12051287.0,12051513.0,227.0,227.0,1922.9,1053.7,1920.0,1080.0,fixation,57.839347375091165,58.8503677919507,5.0,Animal_Land_Solid_Large,3.0,,,,,,,,,,,
encoding,image,30,12050552,12051563,12051551.0,12052494.0,944.0,12.0,2222.6,986.0,2249.0,1269.0,Animal_Land_Solid_Large,57.839347375091165,58.8503677919507,5.0,Animal_Land_Solid_Large,3.0,,,,,,,,,,,
encoding,value,30,12051564,12057575,12053808.0,12053951.0,144.0,144.0,2095.8,847.3,2249.0,1269.0,Animal_Land_Solid_Large,58.850477332947776,64.86223183292896,5.0,Animal_Land_Solid_Large,3.0,,,,,,,,,,,
encoding,value,30,12051564,12057575,12053964.0,12054318.0,355.0,355.0,2235.2,862.7,2249.0,1269.0,Animal_Land_Solid_Large,58.850477332947776,64.86223183292896,5.0,Animal_Land_Solid_Large,3.0,,,,,,,,,,,
encoding,value,30,12051564,12057575,12054325.0,12057992.0,3668.0,3250.0,2226.7,827.0999999999999,2249.0,1269.0,Animal_Land_Solid_Large,58.850477332947776,64.86223183292896,5.0,Animal_Land_Solid_Large,3.0,,,,,,,,,,,
encoding,attention,30,12057576,12060596,12058003.0,12058607.0,605.0,605.0,2267.6,842.3,2249.0,1269.0,Animal_Land_Solid_Large,64.86238616704941,67.88242941698991,5.0,Animal_Land_Solid_Large,3.0,3.0,1.0,0.6013604579493403,,,,,,,,
encoding,attention,30,12057576,12060596,12058619.0,12059772.0,1154.0,1154.0,2237.0,966.5999999999999,2249.0,1269.0,Animal_Land_Solid_Large,64.86238616704941,67.88242941698991,5.0,Animal_Land_Solid_Large,3.0,3.0,1.0,0.6013604579493403,,,,,,,,
encoding,fixation,31,12344778,12345534,12344987.0,12345873.0,887.0,547.0,1869.8,1116.1,1920.0,1080.0,fixation,3.900599083164707,4.656954208156094,6.0,Object_Land_Solid_Large,9.0,,,,,,,,,,,
encoding,image,31,12345535,12346545,12345917.0,12346091.0,175.0,175.0,1883.0,734.4000000000001,1920.0,1460.0,Object_Land_Solid_Large,4.657074500108138,5.66798683302477,6.0,Object_Land_Solid_Large,9.0,,,,,,,,,,,
encoding,image,31,12345535,12346545,12346103.0,12346555.0,453.0,442.0,1873.3,686.8,1920.0,1460.0,Object_Land_Solid_Large,4.657074500108138,5.66798683302477,6.0,Object_Land_Solid_Large,9.0,,,,,,,,,,,
encoding,value,31,12346546,12352559,12346759.0,12347041.0,283.0,283.0,1884.9,750.3,1920.0,1460.0,Object_Land_Solid_Large,5.668103291187435,11.681088250130417,6.0,Object_Land_Solid_Large,9.0,,,,,,,,,,,
encoding,value,31,12346546,12352559,12347063.0,12347553.0,491.0,491.0,1883.7,606.0,1920.0,1460.0,Object_Land_Solid_Large,5.668103291187435,11.681088250130417,6.0,Object_Land_Solid_Large,9.0,,,,,,,,,,,
encoding,value,31,12346546,12352559,12347750.0,12348110.0,361.0,361.0,1862.7,650.9000000000001,1920.0,1460.0,Object_Land_Solid_Large,5.668103291187435,11.681088250130417,6.0,Object_Land_Solid_Large,9.0,,,,,,,,,,,
encoding,value,31,12346546,12352559,12348117.0,12348456.0,340.0,340.0,1888.1,608.5999999999999,1920.0,1460.0,Object_Land_Solid_Large,5.668103291187435,11.681088250130417,6.0,Object_Land_Solid_Large,9.0,,,,,,,,,,,
encoding,value,31,12346546,12352559,12348472.0,12348828.0,357.0,357.0,1872.4,701.8,1920.0,1460.0,Object_Land_Solid_Large,5.668103291187435,11.681088250130417,6.0,Object_Land_Solid_Large,9.0,,,,,,,,,,,
encoding,value,31,12346546,12352559,12348847.0,12349049.0,203.0,203.0,1897.8,591.2,1920.0,1460.0,Object_Land_Solid_Large,5.668103291187435,11.681088250130417,6.0,Object_Land_Solid_Large,9.0,,,,,,,,,,,
encoding,value,31,12346546,12352559,12349244.0,12349949.0,706.0,706.0,1882.8,614.0,1920.0,1460.0,Object_Land_Solid_Large,5.668103291187435,11.681088250130417,6.0,Object_Land_Solid_Large,9.0,,,,,,,,,,,
encoding,value,31,12346546,12352559,12349968.0,12350239.0,272.0,272.0,1860.6,681.5,1920.0,1460.0,Object_Land_Solid_Large,5.668103291187435,11.681088250130417,6.0,Object_Land_Solid_Large,9.0,,,,,,,,,,,
encoding,value,31,12346546,12352559,12350444.0,12350664.0,221.0,221.0,1885.5,673.3,1920.0,1460.0,Object_Land_Solid_Large,5.668103291187435,11.681088250130417,6.0,Object_Land_Solid_Large,9.0,,,,,,,,,,,
encoding,value,31,12346546,12352559,12350672.0,12353002.0,2331.0,1887.0,1872.4,629.5,1920.0,1460.0,Object_Land_Solid_Large,5.668103291187435,11.681088250130417,6.0,Object_Land_Solid_Large,9.0,,,,,,,,,,,
encoding,attention,31,12352559,12355576,12353016.0,12353777.0,762.0,762.0,1919.4,617.0,1920.0,1460.0,Object_Land_Solid_Large,11.68121337518096,14.698743041139096,6.0,Object_Land_Solid_Large,9.0,9.0,1.0,0.673183083999902,,,,,,,,
encoding,fixation,32,12355577,12356582,12356096.0,12356731.0,636.0,486.0,1820.8,1036.0,1591.0,1269.0,Animal_Land_Solid_Small,14.698890916071832,15.704080207971856,6.0,Animal_Land_Pattern_Small,6.0,,,,,,,,,,,
encoding,image,32,12356582,12357593,12356763.0,12359288.0,2526.0,830.0,1840.4,1342.8,1920.0,700.0,Animal_Land_Pattern_Small,15.704192833043637,16.71517925010994,6.0,Animal_Land_Pattern_Small,6.0,,,,,,,,,,,
encoding,value,32,12357593,12363605,12359307.0,12360384.0,1078.0,1078.0,1860.2,1243.2,1920.0,700.0,Animal_Land_Pattern_Small,16.715388749958947,22.72724845795892,6.0,Animal_Land_Pattern_Small,6.0,,,,,,,,,,,
encoding,value,32,12357593,12363605,12360392.0,12360584.0,193.0,193.0,1854.6,1305.4,1920.0,700.0,Animal_Land_Pattern_Small,16.715388749958947,22.72724845795892,6.0,Animal_Land_Pattern_Small,6.0,,,,,,,,,,,
encoding,value,32,12357593,12363605,12360592.0,12360712.0,121.0,121.0,1834.8,1336.0,1920.0,700.0,Animal_Land_Pattern_Small,16.715388749958947,22.72724845795892,6.0,Animal_Land_Pattern_Small,6.0,,,,,,,,,,,
encoding,value,32,12357593,12363605,12360931.0,12362805.0,1875.0,1875.0,1834.6,1349.1,1920.0,700.0,Animal_Land_Pattern_Small,16.715388749958947,22.72724845795892,6.0,Animal_Land_Pattern_Small,6.0,,,,,,,,,,,
encoding,value,32,12357593,12363605,12362813.0,12362986.0,174.0,174.0,1827.2,1366.6,1920.0,700.0,Animal_Land_Pattern_Small,16.715388749958947,22.72724845795892,6.0,Animal_Land_Pattern_Small,6.0,,,,,,,,,,,
encoding,value,32,12357593,12363605,12362994.0,12363949.0,956.0,611.0,1851.0,1347.6,1920.0,700.0,Animal_Land_Pattern_Small,16.715388749958947,22.72724845795892,6.0,Animal_Land_Pattern_Small,6.0,,,,,,,,,,,
encoding,attention,32,12363605,12366623,12363959.0,12364566.0,608.0,608.0,1896.3,1362.1,1920.0,700.0,Animal_Land_Pattern_Small,22.727385750040412,25.744900583056733,6.0,Animal_Land_Pattern_Small,6.0,6.0,1.0,0.675065582850948,,,,,,,,
encoding,attention,32,12363605,12366623,12364772.0,12365808.0,1037.0,1037.0,1874.6,1355.3,1920.0,700.0,Animal_Land_Pattern_Small,22.727385750040412,25.744900583056733,6.0,Animal_Land_Pattern_Small,6.0,6.0,1.0,0.675065582850948,,,,,,,,
