subject,phase,event,trial_number,game,option,choice,rt,roi_content,item_index,is_center,is_relevant,fix_start,fix_end,fix_duration_bounded
122,choice,choice,1,1.0,Object,1.0,14.46251254202798,Object_Land_Solid_Small,0,0,1,10450915.0,10454719.0,3804.0
122,choice,choice,1,1.0,Object,1.0,14.46251254202798,Animal_Sea_Solid_Small,1,0,0,10455012.0,10455057.0,45.0
122,choice,choice,1,1.0,Object,1.0,14.46251254202798,Object_Land_Pattern_Large,2,0,1,10455103.0,10458790.0,3687.0
122,choice,choice,1,1.0,Object,1.0,14.46251254202798,Object_Land_Solid_Small,0,0,1,10458879.0,10459404.0,525.0
122,choice,choice,1,1.0,Object,1.0,14.46251254202798,fixation,-1,1,0,10459420.0,10459616.0,196.0
122,choice,choice,1,1.0,Object,1.0,14.46251254202798,Object_Land_Solid_Small,0,0,1,10459632.0,10459944.0,312.0
122,choice,choice,1,1.0,Object,1.0,14.46251254202798,Animal_Sea_Solid_Small,1,0,0,10459966.0,10460097.0,131.0
122,choice,choice,1,1.0,Object,1.0,14.46251254202798,Object_Land_Pattern_Large,2,0,1,10460118.0,10460458.0,340.0
122,choice,choice,1,1.0,Object,1.0,14.46251254202798,Object_Land_Solid_Small,0,0,1,10460479.0,10462185.0,1706.0
122,choice,choice,1,1.0,Object,1.0,14.46251254202798,Object_Sea_Solid_Small,3,0,1,10462265.0,10463549.0,1284.0
122,choice,choice,1,1.0,Object,1.0,14.46251254202798,Object_Land_Solid_Small,0,0,1,10463607.0,10464376.0,769.0
122,choice,choice,2,1.0,Sea,1.0,2.401650291867554,Object_Land_Pattern_Large,2,0,0,10468315.0,10468556.0,241.0
122,choice,choice,2,1.0,Sea,1.0,2.401650291867554,Animal_Sea_Solid_Small,1,0,1,10469199.0,10469703.0,504.0
122,choice,choice,2,1.0,Sea,1.0,2.401650291867554,fixation,-1,1,0,10469755.0,10470349.0,594.0
122,choice,choice,3,1.0,Large,2.0,5.128558542113751,Object_Land_Pattern_Large,2,0,1,10473747.0,10475074.0,1327.0
122,choice,choice,3,1.0,Large,2.0,5.128558542113751,Animal_Sea_Solid_Small,1,0,0,10475086.0,10475685.0,599.0
122,choice,choice,3,1.0,Large,2.0,5.128558542113751,Object_Land_Pattern_Large,2,0,1,10475705.0,10478486.0,2781.0
122,choice,choice,4,1.0,Land,2.0,4.120517915813252,Object_Land_Solid_Small,0,0,1,10481655.0,10483864.0,2209.0
122,choice,choice,4,1.0,Land,2.0,4.120517915813252,Animal_Land_Pattern_Large,4,0,1,10483881.0,10484271.0,390.0
122,choice,choice,5,1.0,Pattern,2.0,4.948804625077173,Object_Land_Solid_Small,0,0,0,10488733.0,10491099.0,2366.0
122,choice,choice,5,1.0,Pattern,2.0,4.948804625077173,fixation,-1,1,0,10491483.0,10492414.0,931.0
122,choice,choice,5,1.0,Pattern,2.0,4.948804625077173,Animal_Land_Pattern_Large,4,0,1,10492435.0,10493085.0,650.0
122,choice,choice,5,1.0,Pattern,2.0,4.948804625077173,Object_Land_Solid_Small,0,0,0,10493108.0,10493218.0,110.0
122,choice,choice,6,1.0,Animal,2.0,9.432623958215116,Animal_Sea_Pattern_Large,5,0,1,10496727.0,10497714.0,987.0
122,choice,choice,6,1.0,Animal,2.0,9.432623958215116,Animal_Land_Pattern_Large,4,0,1,10505100.0,10505361.0,261.0
122,choice,choice,7,1.0,Small,2.0,10.07149775000289,Object_Land_Pattern_Large,2,0,0,10509272.0,10509412.0,140.0
122,choice,choice,7,1.0,Small,2.0,10.07149775000289,Object_Land_Solid_Small,0,0,1,10509420.0,10509647.0,227.0
122,choice,choice,7,1.0,Small,2.0,10.07149775000289,fixation,-1,1,0,10509656.0,10510209.0,553.0
122,choice,choice,7,1.0,Small,2.0,10.07149775000289,Animal_Land_Pattern_Large,4,0,0,10510238.0,10510514.0,276.0
122,choice,choice,7,1.0,Small,2.0,10.07149775000289,fixation,-1,1,0,10510531.0,10510696.0,165.0
122,choice,choice,7,1.0,Small,2.0,10.07149775000289,Object_Land_Pattern_Large,2,0,0,10510716.0,10510804.0,88.0
122,choice,choice,7,1.0,Small,2.0,10.07149775000289,Animal_Land_Pattern_Large,4,0,0,10511100.0,10511371.0,271.0
122,choice,choice,7,1.0,Small,2.0,10.07149775000289,Object_Land_Pattern_Large,2,0,0,10513398.0,10514525.0,1127.0
122,choice,choice,7,1.0,Small,2.0,10.07149775000289,Object_Land_Solid_Small,0,0,1,10514885.0,10517697.0,2812.0
122,choice,choice,7,1.0,Small,2.0,10.07149775000289,Object_Land_Pattern_Large,2,0,0,10517734.0,10519056.0,1322.0
122,choice,choice,8,1.0,Solid,1.0,9.584993042051792,Object_Land_Pattern_Large,2,0,0,10522404.0,10523367.0,963.0
122,choice,choice,8,1.0,Solid,1.0,9.584993042051792,Object_Land_Solid_Small,0,0,1,10523385.0,10524434.0,1049.0
122,choice,choice,8,1.0,Solid,1.0,9.584993042051792,Object_Land_Pattern_Large,2,0,0,10524750.0,10525981.0,1231.0
122,choice,choice,8,1.0,Solid,1.0,9.584993042051792,Animal_Sea_Solid_Small,1,0,1,10525996.0,10528834.0,2838.0
122,choice,choice,8,1.0,Solid,1.0,9.584993042051792,Object_Land_Pattern_Large,2,0,0,10529453.0,10530147.0,694.0
122,choice,choice,9,2.0,Small,2.0,17.270169334020466,Animal_Land_Solid_Small,0,0,1,10919622.0,10920118.0,496.0
122,choice,choice,9,2.0,Small,2.0,17.270169334020466,Animal_Sea_Pattern_Small,1,0,1,10920137.0,10922229.0,2092.0
122,choice,choice,9,2.0,Small,2.0,17.270169334020466,Animal_Land_Solid_Small,0,0,1,10922237.0,10924490.0,2253.0
122,choice,choice,9,2.0,Small,2.0,17.270169334020466,Animal_Sea_Pattern_Small,1,0,1,10924559.0,10924795.0,236.0
122,choice,choice,9,2.0,Small,2.0,17.270169334020466,Animal_Land_Solid_Small,0,0,1,10924816.0,10925565.0,749.0
122,choice,choice,9,2.0,Small,2.0,17.270169334020466,fixation,-1,1,0,10925598.0,10926079.0,481.0
122,choice,choice,9,2.0,Small,2.0,17.270169334020466,Animal_Land_Solid_Large,2,0,0,10926103.0,10928787.0,2684.0
122,choice,choice,9,2.0,Small,2.0,17.270169334020466,Animal_Sea_Pattern_Small,1,0,1,10929171.0,10929437.0,266.0
122,choice,choice,9,2.0,Small,2.0,17.270169334020466,Animal_Land_Solid_Small,0,0,1,10929444.0,10930904.0,1460.0
122,choice,choice,9,2.0,Small,2.0,17.270169334020466,Animal_Sea_Pattern_Small,1,0,1,10930915.0,10931298.0,383.0
122,choice,choice,9,2.0,Small,2.0,17.270169334020466,Animal_Land_Solid_Small,0,0,1,10931310.0,10931522.0,212.0
122,choice,choice,9,2.0,Small,2.0,17.270169334020466,Animal_Sea_Pattern_Small,1,0,1,10931541.0,10932742.0,1201.0
122,choice,choice,9,2.0,Small,2.0,17.270169334020466,Animal_Land_Solid_Large,2,0,0,10932752.0,10933646.0,894.0
122,choice,choice,9,2.0,Small,2.0,17.270169334020466,Animal_Sea_Pattern_Small,1,0,1,10933886.0,10934002.0,116.0
122,choice,choice,9,2.0,Small,2.0,17.270169334020466,Animal_Land_Solid_Small,0,0,1,10934026.0,10934230.0,204.0
122,choice,choice,9,2.0,Small,2.0,17.270169334020466,Animal_Sea_Pattern_Small,1,0,1,10934251.0,10934605.0,354.0
122,choice,choice,9,2.0,Small,2.0,17.270169334020466,Animal_Land_Solid_Large,2,0,0,10934620.0,10934981.0,361.0
122,choice,choice,9,2.0,Small,2.0,17.270169334020466,fixation,-1,1,0,10934995.0,10935310.0,315.0
122,choice,choice,9,2.0,Small,2.0,17.270169334020466,Animal_Land_Solid_Small,0,0,1,10935325.0,10935717.0,392.0
122,choice,choice,10,2.0,Object,2.0,13.776339208940044,Object_Sea_Pattern_Large,3,0,1,10938542.0,10939776.0,1234.0
122,choice,choice,10,2.0,Object,2.0,13.776339208940044,Animal_Land_Solid_Small,0,0,0,10940049.0,10941734.0,1685.0
122,choice,choice,10,2.0,Object,2.0,13.776339208940044,fixation,-1,1,0,10942033.0,10944681.0,2648.0
122,choice,choice,10,2.0,Object,2.0,13.776339208940044,Animal_Sea_Pattern_Small,1,0,0,10944921.0,10945081.0,160.0
122,choice,choice,10,2.0,Object,2.0,13.776339208940044,Object_Sea_Pattern_Large,3,0,1,10945098.0,10946820.0,1722.0
122,choice,choice,10,2.0,Object,2.0,13.776339208940044,Animal_Sea_Pattern_Small,1,0,0,10947081.0,10947305.0,224.0
122,choice,choice,10,2.0,Object,2.0,13.776339208940044,Animal_Land_Solid_Small,0,0,0,10947604.0,10947940.0,336.0
122,choice,choice,10,2.0,Object,2.0,13.776339208940044,Object_Sea_Pattern_Large,3,0,1,10947950.0,10948796.0,846.0
122,choice,choice,10,2.0,Object,2.0,13.776339208940044,Animal_Land_Solid_Small,0,0,0,10948834.0,10949064.0,230.0
122,choice,choice,10,2.0,Object,2.0,13.776339208940044,Animal_Sea_Pattern_Small,1,0,0,10949349.0,10949687.0,338.0
122,choice,choice,10,2.0,Object,2.0,13.776339208940044,Animal_Land_Solid_Small,0,0,0,10949699.0,10950473.0,774.0
122,choice,choice,10,2.0,Object,2.0,13.776339208940044,Animal_Sea_Pattern_Small,1,0,0,10950785.0,10951774.0,989.0
122,choice,choice,10,2.0,Object,2.0,13.776339208940044,fixation,-1,1,0,10951786.0,10952049.0,263.0
122,choice,choice,11,2.0,Pattern,2.0,9.113440416986125,Animal_Land_Solid_Small,0,0,0,10956745.0,10957234.0,489.0
122,choice,choice,11,2.0,Pattern,2.0,9.113440416986125,Animal_Sea_Pattern_Small,1,0,1,10957485.0,10958338.0,853.0
122,choice,choice,11,2.0,Pattern,2.0,9.113440416986125,fixation,-1,1,0,10958643.0,10959391.0,748.0
122,choice,choice,11,2.0,Pattern,2.0,9.113440416986125,Animal_Land_Solid_Large,2,0,0,10959624.0,10960357.0,733.0
122,choice,choice,11,2.0,Pattern,2.0,9.113440416986125,Object_Land_Pattern_Small,4,0,1,10960365.0,10961212.0,847.0
122,choice,choice,11,2.0,Pattern,2.0,9.113440416986125,Animal_Land_Solid_Small,0,0,0,10961224.0,10961461.0,237.0
122,choice,choice,11,2.0,Pattern,2.0,9.113440416986125,Animal_Sea_Pattern_Small,1,0,1,10961711.0,10961892.0,181.0
122,choice,choice,11,2.0,Pattern,2.0,9.113440416986125,Animal_Land_Solid_Small,0,0,0,10961900.0,10962064.0,164.0
122,choice,choice,11,2.0,Pattern,2.0,9.113440416986125,fixation,-1,1,0,10962071.0,10962492.0,421.0
122,choice,choice,11,2.0,Pattern,2.0,9.113440416986125,Object_Sea_Pattern_Large,3,0,1,10962516.0,10963028.0,512.0
122,choice,choice,11,2.0,Pattern,2.0,9.113440416986125,Animal_Land_Solid_Large,2,0,0,10963334.0,10963478.0,144.0
122,choice,choice,11,2.0,Pattern,2.0,9.113440416986125,fixation,-1,1,0,10963498.0,10963746.0,248.0
122,choice,choice,12,2.0,Large,2.0,7.295969333965331,Animal_Sea_Pattern_Small,1,0,0,10967000.0,10968240.0,1240.0
122,choice,choice,12,2.0,Large,2.0,7.295969333965331,Animal_Land_Solid_Large,2,0,1,10968614.0,10970373.0,1759.0
122,choice,choice,12,2.0,Large,2.0,7.295969333965331,Animal_Land_Solid_Small,0,0,0,10971024.0,10971399.0,375.0
122,choice,choice,12,2.0,Large,2.0,7.295969333965331,Animal_Sea_Pattern_Small,1,0,0,10971448.0,10972809.0,1361.0
122,choice,choice,12,2.0,Large,2.0,7.295969333965331,Animal_Land_Solid_Small,0,0,0,10973043.0,10973803.0,760.0
122,choice,choice,13,2.0,Solid,1.0,15.750260666012764,Animal_Sea_Pattern_Small,1,0,0,10977943.0,10981427.0,3484.0
122,choice,choice,13,2.0,Solid,1.0,15.750260666012764,Animal_Land_Solid_Small,0,0,1,10983178.0,10983607.0,429.0
122,choice,choice,13,2.0,Solid,1.0,15.750260666012764,Animal_Sea_Pattern_Small,1,0,0,10983617.0,10983684.0,67.0
122,choice,choice,13,2.0,Solid,1.0,15.750260666012764,fixation,-1,1,0,10983875.0,10984594.0,719.0
122,choice,choice,13,2.0,Solid,1.0,15.750260666012764,Animal_Land_Solid_Small,0,0,1,10985106.0,10986085.0,979.0
122,choice,choice,13,2.0,Solid,1.0,15.750260666012764,Object_Sea_Solid_Large,5,0,1,10986106.0,10987469.0,1363.0
122,choice,choice,13,2.0,Solid,1.0,15.750260666012764,fixation,-1,1,0,10987632.0,10988059.0,427.0
122,choice,choice,13,2.0,Solid,1.0,15.750260666012764,Object_Sea_Pattern_Large,3,0,0,10988074.0,10988319.0,245.0
122,choice,choice,13,2.0,Solid,1.0,15.750260666012764,Object_Sea_Solid_Large,5,0,1,10988330.0,10989062.0,732.0
122,choice,choice,13,2.0,Solid,1.0,15.750260666012764,Object_Sea_Pattern_Large,3,0,0,10989250.0,10990995.0,1745.0
122,choice,choice,13,2.0,Solid,1.0,15.750260666012764,Animal_Land_Solid_Small,0,0,1,10991201.0,10991364.0,163.0
122,choice,choice,13,2.0,Solid,1.0,15.750260666012764,fixation,-1,1,0,10991380.0,10991782.0,402.0
122,choice,choice,13,2.0,Solid,1.0,15.750260666012764,Object_Sea_Pattern_Large,3,0,0,10991792.0,10992368.0,576.0
122,choice,choice,14,2.0,Land,1.0,7.419093000004068,Animal_Sea_Pattern_Small,1,0,0,10996007.0,10996585.0,578.0
122,choice,choice,14,2.0,Land,1.0,7.419093000004068,Animal_Land_Solid_Small,0,0,1,10996921.0,10997427.0,506.0
122,choice,choice,14,2.0,Land,1.0,7.419093000004068,Animal_Land_Solid_Large,2,0,1,10998735.0,10999891.0,1156.0
122,choice,choice,14,2.0,Land,1.0,7.419093000004068,Animal_Sea_Pattern_Small,1,0,0,11001035.0,11002521.0,1486.0
122,choice,choice,15,2.0,Animal,2.0,2.559630832867697,Animal_Sea_Pattern_Small,1,0,1,11007196.0,11007363.0,167.0
122,choice,choice,15,2.0,Animal,2.0,2.559630832867697,Animal_Land_Solid_Small,0,0,1,11007371.0,11007927.0,556.0
122,choice,choice,15,2.0,Animal,2.0,2.559630832867697,Animal_Sea_Pattern_Small,1,0,1,11008192.0,11008953.0,761.0
122,choice,choice,16,2.0,Sea,2.0,24.724316083826125,Animal_Sea_Pattern_Small,1,0,1,11012571.0,11013023.0,452.0
122,choice,choice,16,2.0,Sea,2.0,24.724316083826125,Animal_Land_Solid_Large,2,0,0,11014210.0,11014624.0,414.0
122,choice,choice,16,2.0,Sea,2.0,24.724316083826125,Animal_Sea_Pattern_Small,1,0,1,11015231.0,11015418.0,187.0
122,choice,choice,16,2.0,Sea,2.0,24.724316083826125,fixation,-1,1,0,11015431.0,11016810.0,1379.0
122,choice,choice,16,2.0,Sea,2.0,24.724316083826125,Object_Sea_Solid_Large,5,0,1,11017534.0,11018102.0,568.0
122,choice,choice,16,2.0,Sea,2.0,24.724316083826125,Object_Sea_Pattern_Large,3,0,1,11018318.0,11020274.0,1956.0
122,choice,choice,16,2.0,Sea,2.0,24.724316083826125,fixation,-1,1,0,11020532.0,11021975.0,1443.0
122,choice,choice,16,2.0,Sea,2.0,24.724316083826125,Object_Sea_Solid_Large,5,0,1,11021981.0,11022871.0,890.0
122,choice,choice,16,2.0,Sea,2.0,24.724316083826125,Object_Sea_Pattern_Large,3,0,1,11023170.0,11026659.0,3489.0
122,choice,choice,16,2.0,Sea,2.0,24.724316083826125,Animal_Sea_Pattern_Small,1,0,1,11026905.0,11027060.0,155.0
122,choice,choice,16,2.0,Sea,2.0,24.724316083826125,Object_Sea_Solid_Large,5,0,1,11027404.0,11032552.0,5148.0
122,choice,choice,16,2.0,Sea,2.0,24.724316083826125,Object_Sea_Pattern_Large,3,0,1,11032790.0,11033355.0,565.0
122,choice,choice,16,2.0,Sea,2.0,24.724316083826125,Object_Land_Pattern_Small,4,0,0,11033698.0,11034245.0,547.0
122,choice,choice,16,2.0,Sea,2.0,24.724316083826125,Animal_Sea_Pattern_Small,1,0,1,11034588.0,11034616.0,28.0
122,choice,choice,16,2.0,Sea,2.0,24.724316083826125,Object_Land_Pattern_Small,4,0,0,11034629.0,11034890.0,261.0
122,choice,choice,16,2.0,Sea,2.0,24.724316083826125,Object_Sea_Solid_Large,5,0,1,11034897.0,11035025.0,128.0
122,choice,choice,16,2.0,Sea,2.0,24.724316083826125,fixation,-1,1,0,11035252.0,11036496.0,1244.0
122,choice,choice,17,3.0,Sea,1.0,15.45941258314997,Object_Sea_Pattern_Large,0,0,1,11384980.0,11385718.0,738.0
122,choice,choice,17,3.0,Sea,1.0,15.45941258314997,Animal_Land_Pattern_Small,1,0,0,11386106.0,11387431.0,1325.0
122,choice,choice,17,3.0,Sea,1.0,15.45941258314997,Object_Sea_Pattern_Large,0,0,1,11387462.0,11389020.0,1558.0
122,choice,choice,17,3.0,Sea,1.0,15.45941258314997,fixation,-1,1,0,11389027.0,11389890.0,863.0
122,choice,choice,17,3.0,Sea,1.0,15.45941258314997,Animal_Sea_Solid_Large,2,0,1,11389909.0,11390382.0,473.0
122,choice,choice,17,3.0,Sea,1.0,15.45941258314997,Object_Sea_Pattern_Small,3,0,1,11390404.0,11391094.0,690.0
122,choice,choice,17,3.0,Sea,1.0,15.45941258314997,Animal_Land_Solid_Small,4,0,0,11392108.0,11392356.0,248.0
122,choice,choice,17,3.0,Sea,1.0,15.45941258314997,Object_Sea_Pattern_Large,0,0,1,11392644.0,11393927.0,1283.0
122,choice,choice,17,3.0,Sea,1.0,15.45941258314997,fixation,-1,1,0,11394223.0,11394674.0,451.0
122,choice,choice,17,3.0,Sea,1.0,15.45941258314997,Object_Sea_Pattern_Small,3,0,1,11394692.0,11394972.0,280.0
122,choice,choice,17,3.0,Sea,1.0,15.45941258314997,fixation,-1,1,0,11395000.0,11395962.0,962.0
122,choice,choice,17,3.0,Sea,1.0,15.45941258314997,Object_Sea_Pattern_Small,3,0,1,11395996.0,11396477.0,481.0
122,choice,choice,17,3.0,Sea,1.0,15.45941258314997,Animal_Sea_Solid_Large,2,0,1,11396751.0,11397237.0,486.0
122,choice,choice,17,3.0,Sea,1.0,15.45941258314997,Object_Sea_Pattern_Small,3,0,1,11398461.0,11399100.0,639.0
122,choice,choice,17,3.0,Sea,1.0,15.45941258314997,fixation,-1,1,0,11399113.0,11399647.0,534.0
122,choice,choice,17,3.0,Sea,1.0,15.45941258314997,Animal_Land_Solid_Small,4,0,0,11399679.0,11399682.0,3.0
122,choice,choice,18,3.0,Object,1.0,3.3954597080592066,Object_Sea_Pattern_Large,0,0,1,11403091.0,11403776.0,685.0
122,choice,choice,18,3.0,Object,1.0,3.3954597080592066,Animal_Land_Pattern_Small,1,0,0,11403792.0,11404133.0,341.0
122,choice,choice,18,3.0,Object,1.0,3.3954597080592066,fixation,-1,1,0,11404157.0,11404738.0,581.0
122,choice,choice,18,3.0,Object,1.0,3.3954597080592066,Object_Sea_Pattern_Large,0,0,1,11404770.0,11406372.0,1602.0
122,choice,choice,19,3.0,Large,2.0,5.156400208128616,Animal_Land_Solid_Small,4,0,0,11410147.0,11411318.0,1171.0
122,choice,choice,19,3.0,Large,2.0,5.156400208128616,Object_Sea_Pattern_Large,0,0,1,11411330.0,11412125.0,795.0
122,choice,choice,19,3.0,Large,2.0,5.156400208128616,Animal_Land_Solid_Small,4,0,0,11412132.0,11413753.0,1621.0
122,choice,choice,19,3.0,Large,2.0,5.156400208128616,Object_Sea_Pattern_Small,3,0,0,11414285.0,11414594.0,309.0
122,choice,choice,20,3.0,Pattern,2.0,9.43464408395812,Object_Sea_Pattern_Large,0,0,1,11418316.0,11418912.0,596.0
122,choice,choice,20,3.0,Pattern,2.0,9.43464408395812,Object_Land_Solid_Large,5,0,0,11419239.0,11420363.0,1124.0
122,choice,choice,20,3.0,Pattern,2.0,9.43464408395812,Object_Sea_Pattern_Large,0,0,1,11420684.0,11421121.0,437.0
122,choice,choice,20,3.0,Pattern,2.0,9.43464408395812,Object_Land_Solid_Large,5,0,0,11422970.0,11426817.0,3847.0
122,choice,choice,21,3.0,Small,1.0,3.472166874911636,Object_Land_Solid_Large,5,0,0,11430701.0,11431486.0,785.0
122,choice,choice,21,3.0,Small,1.0,3.472166874911636,Animal_Land_Solid_Small,4,0,1,11432299.0,11432773.0,474.0
122,choice,choice,21,3.0,Small,1.0,3.472166874911636,fixation,-1,1,0,11433029.0,11433610.0,581.0
122,choice,choice,22,3.0,Animal,1.0,4.2081847079098225,Animal_Land_Pattern_Small,1,0,1,11436321.0,11437231.0,910.0
122,choice,choice,23,3.0,Solid,1.0,4.095894958823919,Object_Land_Solid_Large,5,0,1,11445803.0,11446174.0,371.0
122,choice,choice,23,3.0,Solid,1.0,4.095894958823919,Object_Sea_Pattern_Large,0,0,0,11447128.0,11447450.0,322.0
122,choice,choice,23,3.0,Solid,1.0,4.095894958823919,Animal_Land_Pattern_Small,1,0,0,11447937.0,11448020.0,83.0
122,choice,choice,24,3.0,Land,2.0,3.8389424588531256,Animal_Land_Solid_Small,4,0,1,11451187.0,11452415.0,1228.0
122,choice,choice,24,3.0,Land,2.0,3.8389424588531256,Object_Sea_Pattern_Large,0,0,0,11453178.0,11453642.0,464.0
122,choice,choice,24,3.0,Land,2.0,3.8389424588531256,Animal_Sea_Solid_Large,2,0,0,11454150.0,11454242.0,92.0
122,choice,choice,24,3.0,Land,2.0,3.8389424588531256,Animal_Land_Pattern_Small,1,0,1,11454260.0,11454526.0,266.0
122,choice,choice,24,3.0,Land,2.0,3.8389424588531256,fixation,-1,1,0,11454549.0,11454661.0,112.0
122,choice,choice,25,4.0,Sea,1.0,3.2725292921531945,fixation,-1,1,0,11787899.0,11790850.0,2951.0
122,choice,choice,26,4.0,Object,2.0,3.593986833933741,Object_Land_Solid_Small,0,0,1,11795272.0,11795372.0,100.0
122,choice,choice,26,4.0,Object,2.0,3.593986833933741,fixation,-1,1,0,11795387.0,11796016.0,629.0
122,choice,choice,26,4.0,Object,2.0,3.593986833933741,Object_Land_Pattern_Large,1,0,1,11796034.0,11796569.0,535.0
122,choice,choice,26,4.0,Object,2.0,3.593986833933741,fixation,-1,1,0,11796608.0,11797061.0,453.0
122,choice,choice,26,4.0,Object,2.0,3.593986833933741,Object_Land_Solid_Small,0,0,1,11797083.0,11797337.0,254.0
122,choice,choice,26,4.0,Object,2.0,3.593986833933741,fixation,-1,1,0,11797358.0,11797746.0,388.0
122,choice,choice,27,4.0,Large,2.0,1.6032352920155972,Object_Land_Solid_Small,0,0,0,11801727.0,11802643.0,916.0
122,choice,choice,28,4.0,Small,1.0,3.9819540828466415,Object_Land_Solid_Small,0,0,1,11805986.0,11809541.0,3555.0
122,choice,choice,29,4.0,Animal,2.0,2.1074580419808626,Animal_Sea_Pattern_Large,2,0,1,11813712.0,11813963.0,251.0
122,choice,choice,29,4.0,Animal,2.0,2.1074580419808626,fixation,-1,1,0,11813977.0,11814235.0,258.0
122,choice,choice,29,4.0,Animal,2.0,2.1074580419808626,Object_Land_Pattern_Large,1,0,0,11814255.0,11814699.0,444.0
122,choice,choice,29,4.0,Animal,2.0,2.1074580419808626,fixation,-1,1,0,11814707.0,11815146.0,439.0
122,choice,choice,29,4.0,Animal,2.0,2.1074580419808626,Animal_Sea_Solid_Small,3,0,1,11815163.0,11815347.0,184.0
122,choice,choice,30,4.0,Pattern,2.0,1.9011217500083148,Object_Land_Pattern_Large,1,0,1,11818969.0,11819913.0,944.0
122,choice,choice,30,4.0,Pattern,2.0,1.9011217500083148,Object_Land_Solid_Small,0,0,0,11819934.0,11820550.0,616.0
122,choice,choice,31,4.0,Solid,2.0,1.967278291936964,Object_Sea_Solid_Small,4,0,1,11823863.0,11824559.0,696.0
122,choice,choice,31,4.0,Solid,2.0,1.967278291936964,Object_Land_Solid_Small,0,0,1,11824565.0,11825319.0,754.0
122,choice,choice,32,4.0,Land,1.0,5.709816375048831,Object_Land_Pattern_Large,1,0,1,11828396.0,11829055.0,659.0
122,choice,choice,32,4.0,Land,1.0,5.709816375048831,Animal_Sea_Solid_Small,3,0,0,11829321.0,11829731.0,410.0
122,choice,choice,32,4.0,Land,1.0,5.709816375048831,Object_Land_Pattern_Large,1,0,1,11830125.0,11832221.0,2096.0
122,choice,choice,32,4.0,Land,1.0,5.709816375048831,fixation,-1,1,0,11832236.0,11832523.0,287.0
122,choice,choice,32,4.0,Land,1.0,5.709816375048831,Animal_Sea_Pattern_Large,2,0,0,11832543.0,11833818.0,1275.0
122,choice,choice,33,5.0,Object,2.0,15.866053042002022,Object_Sea_Pattern_Large,0,0,1,12127187.0,12128839.0,1652.0
122,choice,choice,33,5.0,Object,2.0,15.866053042002022,Object_Sea_Solid_Large,1,0,1,12129001.0,12129152.0,151.0
122,choice,choice,33,5.0,Object,2.0,15.866053042002022,Object_Sea_Pattern_Large,0,0,1,12129407.0,12129624.0,217.0
122,choice,choice,33,5.0,Object,2.0,15.866053042002022,Object_Sea_Solid_Large,1,0,1,12129660.0,12129795.0,135.0
122,choice,choice,33,5.0,Object,2.0,15.866053042002022,Object_Sea_Pattern_Large,0,0,1,12129802.0,12130211.0,409.0
122,choice,choice,33,5.0,Object,2.0,15.866053042002022,Object_Land_Pattern_Small,2,0,1,12130223.0,12130414.0,191.0
122,choice,choice,33,5.0,Object,2.0,15.866053042002022,Object_Sea_Pattern_Large,0,0,1,12130426.0,12131049.0,623.0
122,choice,choice,33,5.0,Object,2.0,15.866053042002022,Object_Land_Pattern_Small,2,0,1,12131063.0,12131201.0,138.0
122,choice,choice,33,5.0,Object,2.0,15.866053042002022,Object_Sea_Pattern_Large,0,0,1,12131218.0,12131511.0,293.0
122,choice,choice,33,5.0,Object,2.0,15.866053042002022,Object_Land_Pattern_Small,2,0,1,12131532.0,12131711.0,179.0
122,choice,choice,33,5.0,Object,2.0,15.866053042002022,Object_Sea_Pattern_Large,0,0,1,12131731.0,12139259.0,7528.0
122,choice,choice,33,5.0,Object,2.0,15.866053042002022,fixation,-1,1,0,12142093.0,12142767.0,674.0
122,choice,choice,33,5.0,Object,2.0,15.866053042002022,Object_Sea_Pattern_Large,0,0,1,12142796.0,12142982.0,186.0
122,choice,choice,34,5.0,Pattern,1.0,8.048778916941956,Object_Sea_Pattern_Large,0,0,1,12146376.0,12151531.0,5155.0
122,choice,choice,34,5.0,Pattern,1.0,8.048778916941956,fixation,-1,1,0,12152173.0,12153186.0,1013.0
122,choice,choice,34,5.0,Pattern,1.0,8.048778916941956,Object_Sea_Pattern_Large,0,0,1,12153205.0,12153587.0,382.0
122,choice,choice,34,5.0,Pattern,1.0,8.048778916941956,fixation,-1,1,0,12153599.0,12153841.0,242.0
122,choice,choice,34,5.0,Pattern,1.0,8.048778916941956,Object_Sea_Pattern_Large,0,0,1,12153855.0,12154330.0,475.0
122,choice,choice,35,5.0,Solid,1.0,10.293735542101786,Object_Sea_Pattern_Large,0,0,0,12157471.0,12158918.0,1447.0
122,choice,choice,35,5.0,Solid,1.0,10.293735542101786,Animal_Land_Solid_Small,3,0,1,12160092.0,12160250.0,158.0
122,choice,choice,35,5.0,Solid,1.0,10.293735542101786,Object_Sea_Pattern_Large,0,0,0,12160275.0,12160842.0,567.0
122,choice,choice,35,5.0,Solid,1.0,10.293735542101786,Animal_Land_Solid_Small,3,0,1,12160859.0,12161281.0,422.0
122,choice,choice,35,5.0,Solid,1.0,10.293735542101786,Object_Sea_Pattern_Large,0,0,0,12161342.0,12161990.0,648.0
122,choice,choice,35,5.0,Solid,1.0,10.293735542101786,Animal_Land_Solid_Small,3,0,1,12162619.0,12162882.0,263.0
122,choice,choice,35,5.0,Solid,1.0,10.293735542101786,fixation,-1,1,0,12162902.0,12163370.0,468.0
122,choice,choice,35,5.0,Solid,1.0,10.293735542101786,Object_Sea_Pattern_Large,0,0,0,12163376.0,12163545.0,169.0
122,choice,choice,35,5.0,Solid,1.0,10.293735542101786,Object_Sea_Solid_Large,1,0,1,12163577.0,12164858.0,1281.0
122,choice,choice,35,5.0,Solid,1.0,10.293735542101786,Object_Sea_Pattern_Large,0,0,0,12164879.0,12165606.0,727.0
122,choice,choice,35,5.0,Solid,1.0,10.293735542101786,Object_Land_Pattern_Small,2,0,0,12165637.0,12166362.0,725.0
122,choice,choice,35,5.0,Solid,1.0,10.293735542101786,Object_Sea_Pattern_Large,0,0,0,12166639.0,12167415.0,776.0
122,choice,choice,36,5.0,Sea,2.0,14.112775542074814,Object_Sea_Pattern_Large,0,0,1,12170398.0,12172275.0,1877.0
122,choice,choice,36,5.0,Sea,2.0,14.112775542074814,Animal_Sea_Pattern_Small,4,0,1,12172319.0,12172577.0,258.0
122,choice,choice,36,5.0,Sea,2.0,14.112775542074814,Animal_Land_Solid_Small,3,0,0,12172620.0,12172781.0,161.0
122,choice,choice,36,5.0,Sea,2.0,14.112775542074814,Object_Sea_Pattern_Large,0,0,1,12172792.0,12173237.0,445.0
122,choice,choice,36,5.0,Sea,2.0,14.112775542074814,Animal_Land_Solid_Small,3,0,0,12174275.0,12174326.0,51.0
122,choice,choice,36,5.0,Sea,2.0,14.112775542074814,Object_Sea_Pattern_Large,0,0,1,12174527.0,12180439.0,5912.0
122,choice,choice,36,5.0,Sea,2.0,14.112775542074814,Object_Sea_Solid_Large,1,0,1,12182161.0,12182761.0,600.0
122,choice,choice,36,5.0,Sea,2.0,14.112775542074814,Object_Sea_Pattern_Large,0,0,1,12182792.0,12183780.0,988.0
122,choice,choice,36,5.0,Sea,2.0,14.112775542074814,Animal_Land_Solid_Small,3,0,0,12183823.0,12184342.0,519.0
122,choice,choice,37,5.0,Small,1.0,5.153217833023518,Animal_Land_Solid_Small,3,0,1,12187701.0,12188193.0,492.0
122,choice,choice,37,5.0,Small,1.0,5.153217833023518,Object_Sea_Pattern_Large,0,0,0,12188210.0,12188903.0,693.0
122,choice,choice,37,5.0,Small,1.0,5.153217833023518,Object_Land_Pattern_Small,2,0,1,12188925.0,12189580.0,655.0
122,choice,choice,37,5.0,Small,1.0,5.153217833023518,fixation,-1,1,0,12189595.0,12189932.0,337.0
122,choice,choice,37,5.0,Small,1.0,5.153217833023518,Object_Land_Pattern_Small,2,0,1,12189949.0,12190228.0,279.0
122,choice,choice,37,5.0,Small,1.0,5.153217833023518,fixation,-1,1,0,12190248.0,12190895.0,647.0
122,choice,choice,37,5.0,Small,1.0,5.153217833023518,Animal_Land_Solid_Small,3,0,1,12191151.0,12191352.0,201.0
122,choice,choice,37,5.0,Small,1.0,5.153217833023518,fixation,-1,1,0,12191365.0,12191644.0,279.0
122,choice,choice,37,5.0,Small,1.0,5.153217833023518,Animal_Land_Solid_Large,5,0,0,12191669.0,12192534.0,865.0
122,choice,choice,37,5.0,Small,1.0,5.153217833023518,Animal_Sea_Pattern_Small,4,0,1,12192557.0,12192805.0,248.0
122,choice,choice,38,5.0,Animal,2.0,2.0642014578916132,Object_Sea_Pattern_Large,0,0,0,12196045.0,12196696.0,651.0
122,choice,choice,38,5.0,Animal,2.0,2.0642014578916132,fixation,-1,1,0,12196715.0,12197193.0,478.0
122,choice,choice,38,5.0,Animal,2.0,2.0642014578916132,Object_Sea_Pattern_Large,0,0,0,12197209.0,12197420.0,211.0
122,choice,choice,39,5.0,Land,2.0,1.7093943329527974,Object_Sea_Pattern_Large,0,0,0,12201042.0,12201855.0,813.0
122,choice,choice,40,5.0,Large,1.0,3.198448000010103,Object_Sea_Pattern_Large,0,0,1,12205633.0,12207330.0,1697.0
122,choice,choice,40,5.0,Large,1.0,3.198448000010103,Animal_Land_Solid_Small,3,0,0,12207629.0,12207738.0,109.0
122,choice,choice,40,5.0,Large,1.0,3.198448000010103,Object_Sea_Pattern_Large,0,0,1,12207744.0,12208088.0,344.0
122,choice,choice,40,5.0,Large,1.0,3.198448000010103,Object_Land_Pattern_Small,2,0,0,12208110.0,12208351.0,241.0
122,choice,choice,40,5.0,Large,1.0,3.198448000010103,fixation,-1,1,0,12208372.0,12208685.0,313.0
122,choice,choice,41,6.0,Animal,2.0,8.50073429197073,fixation,-1,1,0,12475202.0,12476064.0,862.0
122,choice,choice,41,6.0,Animal,2.0,8.50073429197073,Object_Land_Solid_Large,0,0,0,12476273.0,12476772.0,499.0
122,choice,choice,41,6.0,Animal,2.0,8.50073429197073,Object_Sea_Pattern_Large,1,0,0,12476786.0,12478488.0,1702.0
122,choice,choice,41,6.0,Animal,2.0,8.50073429197073,Animal_Land_Solid_Small,2,0,1,12478742.0,12479178.0,436.0
122,choice,choice,41,6.0,Animal,2.0,8.50073429197073,fixation,-1,1,0,12479198.0,12479468.0,270.0
122,choice,choice,41,6.0,Animal,2.0,8.50073429197073,Animal_Land_Solid_Small,2,0,1,12479484.0,12480090.0,606.0
122,choice,choice,41,6.0,Animal,2.0,8.50073429197073,Object_Sea_Pattern_Small,3,0,0,12480352.0,12481438.0,1086.0
122,choice,choice,41,6.0,Animal,2.0,8.50073429197073,Animal_Sea_Solid_Large,4,0,1,12481467.0,12482358.0,891.0
122,choice,choice,41,6.0,Animal,2.0,8.50073429197073,fixation,-1,1,0,12482390.0,12482580.0,190.0
122,choice,choice,41,6.0,Animal,2.0,8.50073429197073,Animal_Land_Solid_Small,2,0,1,12482595.0,12483238.0,643.0
122,choice,choice,42,6.0,Sea,2.0,12.821305874967948,Animal_Land_Solid_Small,2,0,0,12486795.0,12487792.0,997.0
122,choice,choice,42,6.0,Sea,2.0,12.821305874967948,Object_Sea_Pattern_Large,1,0,1,12487808.0,12489244.0,1436.0
122,choice,choice,42,6.0,Sea,2.0,12.821305874967948,Animal_Sea_Solid_Large,4,0,1,12489571.0,12490909.0,1338.0
122,choice,choice,42,6.0,Sea,2.0,12.821305874967948,Object_Sea_Pattern_Large,1,0,1,12491195.0,12494499.0,3304.0
122,choice,choice,42,6.0,Sea,2.0,12.821305874967948,Animal_Land_Solid_Small,2,0,0,12495153.0,12495506.0,353.0
122,choice,choice,42,6.0,Sea,2.0,12.821305874967948,Animal_Sea_Solid_Large,4,0,1,12495520.0,12496181.0,661.0
122,choice,choice,42,6.0,Sea,2.0,12.821305874967948,Object_Sea_Pattern_Small,3,0,1,12496447.0,12497014.0,567.0
122,choice,choice,42,6.0,Sea,2.0,12.821305874967948,Animal_Sea_Solid_Large,4,0,1,12497036.0,12497074.0,38.0
122,choice,choice,42,6.0,Sea,2.0,12.821305874967948,Animal_Land_Solid_Small,2,0,0,12497082.0,12497928.0,846.0
122,choice,choice,43,6.0,Object,2.0,14.576413000002503,Animal_Sea_Solid_Large,4,0,0,12502101.0,12502454.0,353.0
122,choice,choice,43,6.0,Object,2.0,14.576413000002503,Animal_Land_Pattern_Small,5,0,0,12502473.0,12502652.0,179.0
122,choice,choice,43,6.0,Object,2.0,14.576413000002503,Object_Sea_Pattern_Large,1,0,1,12502658.0,12506741.0,4083.0
122,choice,choice,43,6.0,Object,2.0,14.576413000002503,Object_Land_Solid_Large,0,0,1,12507896.0,12508250.0,354.0
122,choice,choice,43,6.0,Object,2.0,14.576413000002503,Object_Sea_Pattern_Large,1,0,1,12510079.0,12510734.0,655.0
122,choice,choice,43,6.0,Object,2.0,14.576413000002503,Object_Land_Solid_Large,0,0,1,12511106.0,12513089.0,1983.0
122,choice,choice,43,6.0,Object,2.0,14.576413000002503,Animal_Land_Solid_Small,2,0,0,12514487.0,12515983.0,1496.0
122,choice,choice,44,6.0,Large,1.0,0.6051915842108428,Animal_Land_Solid_Small,2,0,0,12520031.0,12520138.0,107.0
122,choice,choice,45,6.0,Solid,1.0,13.562532166019082,Animal_Land_Solid_Small,2,0,1,12523587.0,12524290.0,703.0
122,choice,choice,45,6.0,Solid,1.0,13.562532166019082,Object_Land_Solid_Large,0,0,1,12525125.0,12525408.0,283.0
122,choice,choice,45,6.0,Solid,1.0,13.562532166019082,Animal_Land_Solid_Small,2,0,1,12525706.0,12525876.0,170.0
122,choice,choice,45,6.0,Solid,1.0,13.562532166019082,fixation,-1,1,0,12525884.0,12526103.0,219.0
122,choice,choice,45,6.0,Solid,1.0,13.562532166019082,Object_Land_Solid_Large,0,0,1,12526437.0,12526662.0,225.0
122,choice,choice,45,6.0,Solid,1.0,13.562532166019082,Object_Sea_Pattern_Large,1,0,0,12526942.0,12528211.0,1269.0
122,choice,choice,45,6.0,Solid,1.0,13.562532166019082,Animal_Land_Solid_Small,2,0,1,12528815.0,12529955.0,1140.0
122,choice,choice,45,6.0,Solid,1.0,13.562532166019082,Object_Land_Solid_Large,0,0,1,12530572.0,12530756.0,184.0
122,choice,choice,45,6.0,Solid,1.0,13.562532166019082,Animal_Land_Solid_Small,2,0,1,12531090.0,12531355.0,265.0
122,choice,choice,45,6.0,Solid,1.0,13.562532166019082,Object_Land_Solid_Large,0,0,1,12531650.0,12532254.0,604.0
122,choice,choice,45,6.0,Solid,1.0,13.562532166019082,Animal_Land_Solid_Small,2,0,1,12532934.0,12533786.0,852.0
122,choice,choice,45,6.0,Solid,1.0,13.562532166019082,fixation,-1,1,0,12534044.0,12536625.0,2581.0
122,choice,choice,45,6.0,Solid,1.0,13.562532166019082,Object_Land_Solid_Large,0,0,1,12536634.0,12536755.0,121.0
122,choice,choice,46,6.0,Pattern,1.0,6.999979833839461,Object_Land_Solid_Large,0,0,0,12540578.0,12543402.0,2824.0
122,choice,choice,46,6.0,Pattern,1.0,6.999979833839461,Animal_Land_Solid_Small,2,0,0,12543725.0,12545755.0,2030.0
122,choice,choice,46,6.0,Pattern,1.0,6.999979833839461,Object_Land_Solid_Large,0,0,0,12546064.0,12547206.0,1142.0
122,choice,choice,46,6.0,Pattern,1.0,6.999979833839461,Animal_Land_Solid_Small,2,0,0,12547225.0,12547308.0,83.0
122,choice,choice,47,6.0,Small,1.0,10.6785312499851,Animal_Land_Pattern_Small,5,0,1,12551460.0,12552273.0,813.0
122,choice,choice,47,6.0,Small,1.0,10.6785312499851,Animal_Sea_Solid_Large,4,0,0,12552701.0,12552924.0,223.0
122,choice,choice,47,6.0,Small,1.0,10.6785312499851,Animal_Land_Pattern_Small,5,0,1,12552934.0,12554064.0,1130.0
122,choice,choice,47,6.0,Small,1.0,10.6785312499851,Object_Land_Solid_Large,0,0,0,12554988.0,12559172.0,4184.0
122,choice,choice,47,6.0,Small,1.0,10.6785312499851,Animal_Land_Solid_Small,2,0,1,12560298.0,12560680.0,382.0
122,choice,choice,48,6.0,Land,1.0,5.0400567499455065,Object_Sea_Pattern_Large,1,0,0,12563468.0,12564235.0,767.0
122,choice,choice,48,6.0,Land,1.0,5.0400567499455065,Animal_Land_Solid_Small,2,0,1,12564276.0,12564362.0,86.0
122,choice,choice,48,6.0,Land,1.0,5.0400567499455065,fixation,-1,1,0,12567514.0,12567717.0,203.0
122,choice,choice,48,6.0,Land,1.0,5.0400567499455065,Animal_Land_Pattern_Small,5,0,1,12567727.0,12568388.0,661.0
122,choice,choice,49,7.0,Sea,1.0,3.6978589999489486,Object_Land_Solid_Small,0,0,0,12838109.0,12838774.0,665.0
122,choice,choice,49,7.0,Sea,1.0,3.6978589999489486,Object_Sea_Solid_Small,1,0,1,12838783.0,12838935.0,152.0
122,choice,choice,49,7.0,Sea,1.0,3.6978589999489486,Object_Land_Solid_Small,0,0,0,12838950.0,12840697.0,1747.0
122,choice,choice,50,7.0,Object,1.0,3.9416889171116054,Animal_Sea_Pattern_Large,2,0,0,12844834.0,12845018.0,184.0
122,choice,choice,50,7.0,Object,1.0,3.9416889171116054,Object_Land_Solid_Small,0,0,1,12845043.0,12848546.0,3503.0
122,choice,choice,51,7.0,Pattern,1.0,1.723421375034377,fixation,-1,1,0,12853532.0,12853682.0,150.0
122,choice,choice,52,7.0,Small,1.0,6.162160167004913,Object_Land_Solid_Small,0,0,1,12858188.0,12861177.0,2989.0
122,choice,choice,52,7.0,Small,1.0,6.162160167004913,Object_Land_Pattern_Large,3,0,0,12861331.0,12861788.0,457.0
122,choice,choice,53,7.0,Land,1.0,5.554009082959965,Object_Sea_Solid_Small,1,0,0,12866480.0,12867225.0,745.0
122,choice,choice,53,7.0,Land,1.0,5.554009082959965,Object_Land_Solid_Small,0,0,1,12867251.0,12867461.0,210.0
122,choice,choice,53,7.0,Land,1.0,5.554009082959965,fixation,-1,1,0,12867481.0,12867759.0,278.0
122,choice,choice,53,7.0,Land,1.0,5.554009082959965,Animal_Land_Pattern_Large,4,0,1,12867779.0,12867959.0,180.0
122,choice,choice,53,7.0,Land,1.0,5.554009082959965,Object_Land_Solid_Small,0,0,1,12867983.0,12868955.0,972.0
122,choice,choice,53,7.0,Land,1.0,5.554009082959965,fixation,-1,1,0,12869027.0,12869328.0,301.0
122,choice,choice,53,7.0,Land,1.0,5.554009082959965,Object_Land_Pattern_Large,3,0,1,12869341.0,12869956.0,615.0
122,choice,choice,53,7.0,Land,1.0,5.554009082959965,Animal_Land_Pattern_Large,4,0,1,12869982.0,12870144.0,162.0
122,choice,choice,53,7.0,Land,1.0,5.554009082959965,Object_Land_Pattern_Large,3,0,1,12871683.0,12872002.0,319.0
122,choice,choice,54,7.0,Animal,1.0,4.394475916866213,Object_Land_Pattern_Large,3,0,0,12875362.0,12876210.0,848.0
122,choice,choice,54,7.0,Animal,1.0,4.394475916866213,fixation,-1,1,0,12876231.0,12876556.0,325.0
122,choice,choice,54,7.0,Animal,1.0,4.394475916866213,Object_Land_Solid_Small,0,0,0,12876575.0,12876879.0,304.0
122,choice,choice,54,7.0,Animal,1.0,4.394475916866213,Object_Sea_Solid_Small,1,0,0,12876901.0,12878074.0,1173.0
122,choice,choice,54,7.0,Animal,1.0,4.394475916866213,Object_Land_Solid_Small,0,0,0,12878100.0,12878598.0,498.0
122,choice,choice,54,7.0,Animal,1.0,4.394475916866213,fixation,-1,1,0,12878617.0,12878749.0,132.0
122,choice,choice,54,7.0,Animal,1.0,4.394475916866213,Object_Land_Solid_Small,0,0,0,12878761.0,12879201.0,440.0
122,choice,choice,55,7.0,Large,1.0,2.3360122081357986,Object_Land_Solid_Small,0,0,0,12882261.0,12882668.0,407.0
122,choice,choice,55,7.0,Large,1.0,2.3360122081357986,Animal_Land_Pattern_Large,4,0,1,12882955.0,12883101.0,146.0
122,choice,choice,55,7.0,Large,1.0,2.3360122081357986,Object_Land_Pattern_Large,3,0,1,12883124.0,12884037.0,913.0
122,choice,choice,56,7.0,Solid,1.0,2.0246058749035,Object_Land_Solid_Small,0,0,1,12887983.0,12888158.0,175.0
122,choice,choice,56,7.0,Solid,1.0,2.0246058749035,Object_Sea_Solid_Small,1,0,1,12888173.0,12888312.0,139.0
122,choice,choice,56,7.0,Solid,1.0,2.0246058749035,Object_Land_Solid_Small,0,0,1,12888335.0,12889407.0,1072.0
