subject,phase,event,trial_number,game,option,choice,rt,roi_content,item_index,is_relevant,fix_start,fix_end,fix_duration_bounded
150,choice,choice,1,1.0,Object,2.0,40.80027549999977,Animal_Land_Pattern_Large,0,0,16267248.0,16267707.0,459.0
150,choice,choice,1,1.0,Object,2.0,40.80027549999977,Object_Sea_Solid_Large,1,1,16268834.0,16268964.0,130.0
150,choice,choice,1,1.0,Object,2.0,40.80027549999977,Animal_Land_Pattern_Large,0,0,16269276.0,16271154.0,1878.0
150,choice,choice,1,1.0,Object,2.0,40.80027549999977,Object_Sea_Solid_Large,1,1,16273753.0,16274181.0,428.0
150,choice,choice,1,1.0,Object,2.0,40.80027549999977,Animal_Land_Pattern_Large,0,0,16274658.0,16276840.0,2182.0
150,choice,choice,1,1.0,Object,2.0,40.80027549999977,Animal_Sea_Solid_Large,2,0,16278404.0,16278664.0,260.0
150,choice,choice,1,1.0,Object,2.0,40.80027549999977,Animal_Land_Pattern_Small,3,0,16278895.0,16279844.0,949.0
150,choice,choice,1,1.0,Object,2.0,40.80027549999977,Object_Sea_Solid_Small,4,1,16279911.0,16280145.0,234.0
150,choice,choice,1,1.0,Object,2.0,40.80027549999977,Object_Sea_Solid_Large,1,1,16280170.0,16281011.0,841.0
150,choice,choice,1,1.0,Object,2.0,40.80027549999977,Animal_Sea_Solid_Large,2,0,16282989.0,16283189.0,200.0
150,choice,choice,1,1.0,Object,2.0,40.80027549999977,Animal_Land_Pattern_Large,0,0,16283229.0,16283408.0,179.0
150,choice,choice,1,1.0,Object,2.0,40.80027549999977,Object_Sea_Solid_Large,1,1,16283638.0,16284555.0,917.0
150,choice,choice,1,1.0,Object,2.0,40.80027549999977,Animal_Land_Pattern_Large,0,0,16284846.0,16285049.0,203.0
150,choice,choice,1,1.0,Object,2.0,40.80027549999977,Animal_Sea_Solid_Large,2,0,16285268.0,16285685.0,417.0
150,choice,choice,1,1.0,Object,2.0,40.80027549999977,Animal_Land_Pattern_Large,0,0,16285742.0,16285987.0,245.0
150,choice,choice,1,1.0,Object,2.0,40.80027549999977,Object_Sea_Solid_Large,1,1,16286009.0,16286206.0,197.0
150,choice,choice,1,1.0,Object,2.0,40.80027549999977,Animal_Land_Pattern_Large,0,0,16286427.0,16286898.0,471.0
150,choice,choice,1,1.0,Object,2.0,40.80027549999977,Object_Land_Pattern_Small,5,1,16286950.0,16287516.0,566.0
150,choice,choice,1,1.0,Object,2.0,40.80027549999977,Animal_Land_Pattern_Large,0,0,16287728.0,16288390.0,662.0
150,choice,choice,1,1.0,Object,2.0,40.80027549999977,Animal_Sea_Solid_Large,2,0,16288422.0,16288628.0,206.0
150,choice,choice,1,1.0,Object,2.0,40.80027549999977,Animal_Land_Pattern_Large,0,0,16288648.0,16288859.0,211.0
150,choice,choice,1,1.0,Object,2.0,40.80027549999977,Object_Sea_Solid_Large,1,1,16288896.0,16289213.0,317.0
150,choice,choice,1,1.0,Object,2.0,40.80027549999977,Animal_Sea_Solid_Large,2,0,16293184.0,16293998.0,814.0
150,choice,choice,1,1.0,Object,2.0,40.80027549999977,Animal_Land_Pattern_Small,3,0,16294834.0,16295613.0,779.0
150,choice,choice,1,1.0,Object,2.0,40.80027549999977,Object_Sea_Solid_Small,4,1,16295874.0,16296019.0,145.0
150,choice,choice,1,1.0,Object,2.0,40.80027549999977,Animal_Land_Pattern_Large,0,0,16296613.0,16298164.0,1551.0
150,choice,choice,1,1.0,Object,2.0,40.80027549999977,Animal_Sea_Solid_Large,2,0,16298616.0,16299172.0,556.0
150,choice,choice,1,1.0,Object,2.0,40.80027549999977,Animal_Land_Pattern_Large,0,0,16299582.0,16299722.0,140.0
150,choice,choice,1,1.0,Object,2.0,40.80027549999977,Object_Sea_Solid_Large,1,1,16299792.0,16299937.0,145.0
150,choice,choice,1,1.0,Object,2.0,40.80027549999977,Animal_Sea_Solid_Large,2,0,16299959.0,16300363.0,404.0
150,choice,choice,1,1.0,Object,2.0,40.80027549999977,Animal_Land_Pattern_Large,0,0,16300605.0,16300981.0,376.0
150,choice,choice,1,1.0,Object,2.0,40.80027549999977,Object_Sea_Solid_Large,1,1,16302483.0,16302593.0,110.0
150,choice,choice,1,1.0,Object,2.0,40.80027549999977,Animal_Land_Pattern_Large,0,0,16302634.0,16305536.0,2902.0
150,choice,choice,1,1.0,Object,2.0,40.80027549999977,Animal_Sea_Solid_Large,2,0,16306492.0,16306677.0,185.0
150,choice,choice,1,1.0,Object,2.0,40.80027549999977,Object_Land_Pattern_Small,5,1,16306709.0,16307052.0,343.0
150,choice,choice,1,1.0,Object,2.0,40.80027549999977,Object_Sea_Solid_Small,4,1,16307081.0,16307524.0,443.0
150,choice,choice,1,1.0,Object,2.0,40.80027549999977,Animal_Land_Pattern_Large,0,0,16307756.0,16307930.0,174.0
150,choice,choice,2,1.0,Large,2.0,20.41174837499966,Animal_Land_Pattern_Large,0,1,16311029.0,16311434.0,405.0
150,choice,choice,2,1.0,Large,2.0,20.41174837499966,Object_Land_Pattern_Small,5,0,16311699.0,16311850.0,151.0
150,choice,choice,2,1.0,Large,2.0,20.41174837499966,Animal_Land_Pattern_Large,0,1,16311882.0,16313151.0,1269.0
150,choice,choice,2,1.0,Large,2.0,20.41174837499966,Object_Sea_Solid_Large,1,1,16313730.0,16314190.0,460.0
150,choice,choice,2,1.0,Large,2.0,20.41174837499966,Animal_Land_Pattern_Large,0,1,16314426.0,16314845.0,419.0
150,choice,choice,2,1.0,Large,2.0,20.41174837499966,Animal_Sea_Solid_Large,2,1,16314883.0,16315233.0,350.0
150,choice,choice,2,1.0,Large,2.0,20.41174837499966,Animal_Land_Pattern_Large,0,1,16315430.0,16316231.0,801.0
150,choice,choice,2,1.0,Large,2.0,20.41174837499966,Animal_Sea_Solid_Large,2,1,16316535.0,16316801.0,266.0
150,choice,choice,2,1.0,Large,2.0,20.41174837499966,Object_Land_Pattern_Small,5,0,16316824.0,16317076.0,252.0
150,choice,choice,2,1.0,Large,2.0,20.41174837499966,Animal_Land_Pattern_Small,3,0,16317104.0,16317263.0,159.0
150,choice,choice,2,1.0,Large,2.0,20.41174837499966,Object_Sea_Solid_Large,1,1,16317508.0,16317706.0,198.0
150,choice,choice,2,1.0,Large,2.0,20.41174837499966,Animal_Land_Pattern_Small,3,0,16317750.0,16317910.0,160.0
150,choice,choice,2,1.0,Large,2.0,20.41174837499966,Object_Sea_Solid_Small,4,0,16317936.0,16318169.0,233.0
150,choice,choice,2,1.0,Large,2.0,20.41174837499966,Object_Sea_Solid_Large,1,1,16318193.0,16319647.0,1454.0
150,choice,choice,2,1.0,Large,2.0,20.41174837499966,Animal_Land_Pattern_Large,0,1,16320171.0,16320417.0,246.0
150,choice,choice,2,1.0,Large,2.0,20.41174837499966,Object_Sea_Solid_Large,1,1,16320440.0,16320654.0,214.0
150,choice,choice,2,1.0,Large,2.0,20.41174837499966,Animal_Land_Pattern_Large,0,1,16320867.0,16321208.0,341.0
150,choice,choice,2,1.0,Large,2.0,20.41174837499966,Object_Sea_Solid_Large,1,1,16321446.0,16322829.0,1383.0
150,choice,choice,2,1.0,Large,2.0,20.41174837499966,Animal_Land_Pattern_Large,0,1,16324836.0,16327121.0,2285.0
150,choice,choice,2,1.0,Large,2.0,20.41174837499966,Object_Sea_Solid_Large,1,1,16328318.0,16328713.0,395.0
150,choice,choice,2,1.0,Large,2.0,20.41174837499966,Animal_Land_Pattern_Large,0,1,16328903.0,16330943.0,2040.0
150,choice,choice,3,1.0,Pattern,2.0,22.026961916999426,Animal_Land_Pattern_Large,0,1,16335228.0,16337422.0,2194.0
150,choice,choice,3,1.0,Pattern,2.0,22.026961916999426,Animal_Land_Pattern_Small,3,1,16339520.0,16340393.0,873.0
150,choice,choice,3,1.0,Pattern,2.0,22.026961916999426,Object_Sea_Solid_Small,4,0,16341034.0,16341886.0,852.0
150,choice,choice,3,1.0,Pattern,2.0,22.026961916999426,Animal_Land_Pattern_Large,0,1,16341928.0,16343766.0,1838.0
150,choice,choice,3,1.0,Pattern,2.0,22.026961916999426,Object_Sea_Solid_Small,4,0,16344312.0,16344756.0,444.0
150,choice,choice,3,1.0,Pattern,2.0,22.026961916999426,Animal_Sea_Solid_Large,2,0,16345019.0,16345499.0,480.0
150,choice,choice,3,1.0,Pattern,2.0,22.026961916999426,Object_Sea_Solid_Small,4,0,16345525.0,16345807.0,282.0
150,choice,choice,3,1.0,Pattern,2.0,22.026961916999426,Object_Sea_Solid_Large,1,0,16346046.0,16347596.0,1550.0
150,choice,choice,3,1.0,Pattern,2.0,22.026961916999426,Animal_Land_Pattern_Large,0,1,16347855.0,16348697.0,842.0
150,choice,choice,3,1.0,Pattern,2.0,22.026961916999426,Object_Land_Pattern_Small,5,1,16349283.0,16349524.0,241.0
150,choice,choice,3,1.0,Pattern,2.0,22.026961916999426,Animal_Land_Pattern_Large,0,1,16349550.0,16350504.0,954.0
150,choice,choice,3,1.0,Pattern,2.0,22.026961916999426,Animal_Sea_Solid_Large,2,0,16351026.0,16351334.0,308.0
150,choice,choice,3,1.0,Pattern,2.0,22.026961916999426,Animal_Land_Pattern_Large,0,1,16351375.0,16353369.0,1994.0
150,choice,choice,3,1.0,Pattern,2.0,22.026961916999426,Object_Land_Pattern_Small,5,1,16353875.0,16354102.0,227.0
150,choice,choice,3,1.0,Pattern,2.0,22.026961916999426,Animal_Land_Pattern_Large,0,1,16355317.0,16355816.0,499.0
150,choice,choice,3,1.0,Pattern,2.0,22.026961916999426,Animal_Sea_Solid_Large,2,0,16356477.0,16356574.0,97.0
150,choice,choice,4,1.0,Solid,1.0,19.352647375000743,Animal_Land_Pattern_Large,0,0,16359959.0,16362602.0,2643.0
150,choice,choice,4,1.0,Solid,1.0,19.352647375000743,Animal_Land_Pattern_Small,3,0,16366505.0,16367699.0,1194.0
150,choice,choice,4,1.0,Solid,1.0,19.352647375000743,Object_Sea_Solid_Small,4,1,16368729.0,16369439.0,710.0
150,choice,choice,4,1.0,Solid,1.0,19.352647375000743,Animal_Land_Pattern_Large,0,0,16370188.0,16370625.0,437.0
150,choice,choice,4,1.0,Solid,1.0,19.352647375000743,Object_Sea_Solid_Large,1,1,16370917.0,16371683.0,766.0
150,choice,choice,4,1.0,Solid,1.0,19.352647375000743,Animal_Land_Pattern_Large,0,0,16372883.0,16374935.0,2052.0
150,choice,choice,4,1.0,Solid,1.0,19.352647375000743,Object_Sea_Solid_Large,1,1,16375181.0,16375609.0,428.0
150,choice,choice,5,1.0,Animal,1.0,17.717367917000956,Animal_Sea_Solid_Large,2,1,16386398.0,16386684.0,286.0
150,choice,choice,5,1.0,Animal,1.0,17.717367917000956,Animal_Land_Pattern_Large,0,1,16387162.0,16389235.0,2073.0
150,choice,choice,5,1.0,Animal,1.0,17.717367917000956,Object_Sea_Solid_Large,1,0,16389519.0,16389710.0,191.0
150,choice,choice,5,1.0,Animal,1.0,17.717367917000956,Animal_Land_Pattern_Small,3,1,16389767.0,16390064.0,297.0
150,choice,choice,5,1.0,Animal,1.0,17.717367917000956,Object_Sea_Solid_Small,4,0,16390978.0,16391241.0,263.0
150,choice,choice,5,1.0,Animal,1.0,17.717367917000956,Object_Sea_Solid_Large,1,0,16391458.0,16391809.0,351.0
150,choice,choice,5,1.0,Animal,1.0,17.717367917000956,Object_Sea_Solid_Small,4,0,16391829.0,16392340.0,511.0
150,choice,choice,5,1.0,Animal,1.0,17.717367917000956,Object_Sea_Solid_Large,1,0,16392612.0,16392839.0,227.0
150,choice,choice,5,1.0,Animal,1.0,17.717367917000956,Animal_Land_Pattern_Large,0,1,16392876.0,16394715.0,1839.0
150,choice,choice,5,1.0,Animal,1.0,17.717367917000956,Animal_Land_Pattern_Small,3,1,16395165.0,16395516.0,351.0
150,choice,choice,5,1.0,Animal,1.0,17.717367917000956,Animal_Land_Pattern_Large,0,1,16395544.0,16395903.0,359.0
150,choice,choice,5,1.0,Animal,1.0,17.717367917000956,Animal_Land_Pattern_Small,3,1,16395933.0,16396080.0,147.0
150,choice,choice,5,1.0,Animal,1.0,17.717367917000956,Animal_Land_Pattern_Large,0,1,16396108.0,16396388.0,280.0
150,choice,choice,5,1.0,Animal,1.0,17.717367917000956,Object_Sea_Solid_Small,4,0,16396597.0,16396911.0,314.0
150,choice,choice,5,1.0,Animal,1.0,17.717367917000956,Animal_Land_Pattern_Small,3,1,16396936.0,16397390.0,454.0
150,choice,choice,5,1.0,Animal,1.0,17.717367917000956,Animal_Land_Pattern_Large,0,1,16397835.0,16398936.0,1101.0
150,choice,choice,6,1.0,Land,2.0,17.587575749999814,Animal_Land_Pattern_Large,0,1,16403477.0,16404214.0,737.0
150,choice,choice,6,1.0,Land,2.0,17.587575749999814,Animal_Sea_Solid_Large,2,0,16404473.0,16404961.0,488.0
150,choice,choice,6,1.0,Land,2.0,17.587575749999814,Animal_Land_Pattern_Large,0,1,16405026.0,16406641.0,1615.0
150,choice,choice,6,1.0,Land,2.0,17.587575749999814,Object_Land_Pattern_Small,5,1,16406919.0,16407457.0,538.0
150,choice,choice,6,1.0,Land,2.0,17.587575749999814,Animal_Sea_Solid_Large,2,0,16407651.0,16408272.0,621.0
150,choice,choice,6,1.0,Land,2.0,17.587575749999814,Object_Sea_Solid_Small,4,0,16409648.0,16410079.0,431.0
150,choice,choice,6,1.0,Land,2.0,17.587575749999814,Object_Sea_Solid_Large,1,0,16410126.0,16410403.0,277.0
150,choice,choice,6,1.0,Land,2.0,17.587575749999814,Animal_Land_Pattern_Small,3,1,16410459.0,16410870.0,411.0
150,choice,choice,6,1.0,Land,2.0,17.587575749999814,Animal_Land_Pattern_Large,0,1,16411459.0,16411779.0,320.0
150,choice,choice,6,1.0,Land,2.0,17.587575749999814,Object_Land_Pattern_Small,5,1,16411837.0,16413447.0,1610.0
150,choice,choice,6,1.0,Land,2.0,17.587575749999814,Animal_Land_Pattern_Large,0,1,16414205.0,16414831.0,626.0
150,choice,choice,6,1.0,Land,2.0,17.587575749999814,Animal_Land_Pattern_Small,3,1,16415313.0,16415988.0,675.0
150,choice,choice,6,1.0,Land,2.0,17.587575749999814,Animal_Land_Pattern_Large,0,1,16416046.0,16418978.0,2932.0
150,choice,choice,7,1.0,Small,1.0,16.9068502909995,Animal_Land_Pattern_Large,0,0,16424236.0,16427098.0,2862.0
150,choice,choice,7,1.0,Small,1.0,16.9068502909995,Animal_Sea_Solid_Large,2,0,16428041.0,16428722.0,681.0
150,choice,choice,7,1.0,Small,1.0,16.9068502909995,Object_Land_Pattern_Small,5,1,16429093.0,16429304.0,211.0
150,choice,choice,7,1.0,Small,1.0,16.9068502909995,Animal_Sea_Solid_Large,2,0,16429534.0,16429911.0,377.0
150,choice,choice,7,1.0,Small,1.0,16.9068502909995,Object_Land_Pattern_Small,5,1,16429924.0,16430155.0,231.0
150,choice,choice,7,1.0,Small,1.0,16.9068502909995,Animal_Land_Pattern_Small,3,1,16431600.0,16431668.0,68.0
150,choice,choice,7,1.0,Small,1.0,16.9068502909995,Object_Sea_Solid_Small,4,1,16431693.0,16431901.0,208.0
150,choice,choice,7,1.0,Small,1.0,16.9068502909995,Animal_Land_Pattern_Small,3,1,16431926.0,16432622.0,696.0
150,choice,choice,7,1.0,Small,1.0,16.9068502909995,Object_Sea_Solid_Large,1,0,16432865.0,16433206.0,341.0
150,choice,choice,7,1.0,Small,1.0,16.9068502909995,Object_Sea_Solid_Small,4,1,16433223.0,16433755.0,532.0
150,choice,choice,7,1.0,Small,1.0,16.9068502909995,Object_Sea_Solid_Large,1,0,16433804.0,16434977.0,1173.0
150,choice,choice,7,1.0,Small,1.0,16.9068502909995,Object_Sea_Solid_Small,4,1,16435737.0,16436739.0,1002.0
150,choice,choice,7,1.0,Small,1.0,16.9068502909995,Object_Sea_Solid_Large,1,0,16437642.0,16439903.0,2261.0
150,choice,choice,8,1.0,Sea,1.0,15.155120957999316,Animal_Land_Pattern_Large,0,0,16443669.0,16444799.0,1130.0
150,choice,choice,8,1.0,Sea,1.0,15.155120957999316,Object_Sea_Solid_Large,1,1,16445235.0,16445446.0,211.0
150,choice,choice,8,1.0,Sea,1.0,15.155120957999316,Animal_Land_Pattern_Large,0,0,16445470.0,16446874.0,1404.0
150,choice,choice,8,1.0,Sea,1.0,15.155120957999316,Animal_Sea_Solid_Large,2,1,16447102.0,16447616.0,514.0
150,choice,choice,8,1.0,Sea,1.0,15.155120957999316,Animal_Land_Pattern_Small,3,0,16448323.0,16448436.0,113.0
150,choice,choice,8,1.0,Sea,1.0,15.155120957999316,Object_Sea_Solid_Small,4,1,16448458.0,16449088.0,630.0
150,choice,choice,8,1.0,Sea,1.0,15.155120957999316,Object_Sea_Solid_Large,1,1,16449133.0,16449882.0,749.0
150,choice,choice,8,1.0,Sea,1.0,15.155120957999316,Object_Sea_Solid_Small,4,1,16450155.0,16451676.0,1521.0
150,choice,choice,8,1.0,Sea,1.0,15.155120957999316,Object_Sea_Solid_Large,1,1,16451740.0,16452453.0,713.0
150,choice,choice,8,1.0,Sea,1.0,15.155120957999316,Animal_Sea_Solid_Large,2,1,16452713.0,16453090.0,377.0
150,choice,choice,8,1.0,Sea,1.0,15.155120957999316,Object_Sea_Solid_Large,1,1,16453127.0,16453855.0,728.0
150,choice,choice,8,1.0,Sea,1.0,15.155120957999316,Animal_Land_Pattern_Large,0,0,16453902.0,16454346.0,444.0
150,choice,choice,8,1.0,Sea,1.0,15.155120957999316,Object_Sea_Solid_Small,4,1,16454828.0,16456540.0,1712.0
150,choice,choice,8,1.0,Sea,1.0,15.155120957999316,Animal_Land_Pattern_Small,3,0,16457180.0,16457315.0,135.0
150,choice,choice,8,1.0,Sea,1.0,15.155120957999316,Animal_Sea_Solid_Large,2,1,16457338.0,16457556.0,218.0
150,choice,choice,8,1.0,Sea,1.0,15.155120957999316,Object_Sea_Solid_Small,4,1,16457617.0,16458067.0,450.0
150,choice,choice,8,1.0,Sea,1.0,15.155120957999316,Object_Sea_Solid_Large,1,1,16458120.0,16458468.0,348.0
150,choice,choice,9,2.0,Land,1.0,58.22159724999983,Object_Sea_Pattern_Large,0,0,16890281.0,16892184.0,1903.0
150,choice,choice,9,2.0,Land,1.0,58.22159724999983,Animal_Sea_Pattern_Small,1,0,16892579.0,16893043.0,464.0
150,choice,choice,9,2.0,Land,1.0,58.22159724999983,Object_Sea_Pattern_Large,0,0,16893214.0,16893400.0,186.0
150,choice,choice,9,2.0,Land,1.0,58.22159724999983,Object_Sea_Pattern_Small,2,0,16893446.0,16893902.0,456.0
150,choice,choice,9,2.0,Land,1.0,58.22159724999983,Object_Land_Solid_Large,3,1,16894185.0,16894356.0,171.0
150,choice,choice,9,2.0,Land,1.0,58.22159724999983,Animal_Land_Solid_Large,4,1,16894387.0,16894677.0,290.0
150,choice,choice,9,2.0,Land,1.0,58.22159724999983,Animal_Land_Solid_Small,5,1,16894701.0,16897355.0,2654.0
150,choice,choice,9,2.0,Land,1.0,58.22159724999983,Object_Sea_Pattern_Large,0,0,16897858.0,16898088.0,230.0
150,choice,choice,9,2.0,Land,1.0,58.22159724999983,Animal_Sea_Pattern_Small,1,0,16898112.0,16898439.0,327.0
150,choice,choice,9,2.0,Land,1.0,58.22159724999983,Object_Sea_Pattern_Large,0,0,16898459.0,16899288.0,829.0
150,choice,choice,9,2.0,Land,1.0,58.22159724999983,Animal_Land_Solid_Large,4,1,16899696.0,16900059.0,363.0
150,choice,choice,9,2.0,Land,1.0,58.22159724999983,Object_Sea_Pattern_Large,0,0,16901466.0,16904045.0,2579.0
150,choice,choice,9,2.0,Land,1.0,58.22159724999983,Animal_Land_Solid_Small,5,1,16904342.0,16904724.0,382.0
150,choice,choice,9,2.0,Land,1.0,58.22159724999983,Object_Sea_Pattern_Large,0,0,16904744.0,16904944.0,200.0
150,choice,choice,9,2.0,Land,1.0,58.22159724999983,Object_Sea_Pattern_Small,2,0,16905828.0,16906264.0,436.0
150,choice,choice,9,2.0,Land,1.0,58.22159724999983,Object_Land_Solid_Large,3,1,16906283.0,16907219.0,936.0
150,choice,choice,9,2.0,Land,1.0,58.22159724999983,Animal_Sea_Pattern_Small,1,0,16908527.0,16912924.0,4397.0
150,choice,choice,9,2.0,Land,1.0,58.22159724999983,Object_Land_Solid_Large,3,1,16913704.0,16914755.0,1051.0
150,choice,choice,9,2.0,Land,1.0,58.22159724999983,Animal_Sea_Pattern_Small,1,0,16914849.0,16916215.0,1366.0
150,choice,choice,9,2.0,Land,1.0,58.22159724999983,Object_Sea_Pattern_Large,0,0,16916489.0,16917154.0,665.0
150,choice,choice,9,2.0,Land,1.0,58.22159724999983,Animal_Land_Solid_Small,5,1,16917558.0,16917964.0,406.0
150,choice,choice,9,2.0,Land,1.0,58.22159724999983,Object_Land_Solid_Large,3,1,16918182.0,16919194.0,1012.0
150,choice,choice,9,2.0,Land,1.0,58.22159724999983,Animal_Sea_Pattern_Small,1,0,16919762.0,16920087.0,325.0
150,choice,choice,9,2.0,Land,1.0,58.22159724999983,Object_Land_Solid_Large,3,1,16920124.0,16920884.0,760.0
150,choice,choice,9,2.0,Land,1.0,58.22159724999983,Animal_Sea_Pattern_Small,1,0,16921144.0,16921266.0,122.0
150,choice,choice,9,2.0,Land,1.0,58.22159724999983,Object_Sea_Pattern_Large,0,0,16922213.0,16924537.0,2324.0
150,choice,choice,9,2.0,Land,1.0,58.22159724999983,Animal_Land_Solid_Small,5,1,16924797.0,16925081.0,284.0
150,choice,choice,9,2.0,Land,1.0,58.22159724999983,Object_Sea_Pattern_Large,0,0,16925103.0,16925863.0,760.0
150,choice,choice,9,2.0,Land,1.0,58.22159724999983,Animal_Sea_Pattern_Small,1,0,16927274.0,16927413.0,139.0
150,choice,choice,9,2.0,Land,1.0,58.22159724999983,Object_Land_Solid_Large,3,1,16927463.0,16928105.0,642.0
150,choice,choice,9,2.0,Land,1.0,58.22159724999983,Object_Sea_Pattern_Large,0,0,16928336.0,16928454.0,118.0
150,choice,choice,9,2.0,Land,1.0,58.22159724999983,Animal_Sea_Pattern_Small,1,0,16929940.0,16930132.0,192.0
150,choice,choice,9,2.0,Land,1.0,58.22159724999983,Object_Land_Solid_Large,3,1,16930168.0,16930617.0,449.0
150,choice,choice,9,2.0,Land,1.0,58.22159724999983,Animal_Land_Solid_Small,5,1,16930671.0,16930975.0,304.0
150,choice,choice,9,2.0,Land,1.0,58.22159724999983,Object_Sea_Pattern_Large,0,0,16930992.0,16931303.0,311.0
150,choice,choice,9,2.0,Land,1.0,58.22159724999983,Animal_Sea_Pattern_Small,1,0,16931512.0,16931602.0,90.0
150,choice,choice,9,2.0,Land,1.0,58.22159724999983,Object_Land_Solid_Large,3,1,16931638.0,16931910.0,272.0
150,choice,choice,9,2.0,Land,1.0,58.22159724999983,Animal_Land_Solid_Large,4,1,16932441.0,16932723.0,282.0
150,choice,choice,9,2.0,Land,1.0,58.22159724999983,Animal_Land_Solid_Small,5,1,16933099.0,16933273.0,174.0
150,choice,choice,9,2.0,Land,1.0,58.22159724999983,Object_Land_Solid_Large,3,1,16933299.0,16933953.0,654.0
150,choice,choice,9,2.0,Land,1.0,58.22159724999983,Animal_Land_Solid_Large,4,1,16934221.0,16934478.0,257.0
150,choice,choice,9,2.0,Land,1.0,58.22159724999983,Animal_Sea_Pattern_Small,1,0,16934873.0,16935158.0,285.0
150,choice,choice,9,2.0,Land,1.0,58.22159724999983,Object_Sea_Pattern_Large,0,0,16936007.0,16936176.0,169.0
150,choice,choice,9,2.0,Land,1.0,58.22159724999983,Animal_Land_Solid_Small,5,1,16938021.0,16938156.0,135.0
150,choice,choice,9,2.0,Land,1.0,58.22159724999983,Object_Sea_Pattern_Large,0,0,16938176.0,16938601.0,425.0
150,choice,choice,9,2.0,Land,1.0,58.22159724999983,Animal_Sea_Pattern_Small,1,0,16938614.0,16939669.0,1055.0
150,choice,choice,9,2.0,Land,1.0,58.22159724999983,Object_Sea_Pattern_Large,0,0,16939982.0,16940277.0,295.0
150,choice,choice,9,2.0,Land,1.0,58.22159724999983,Object_Sea_Pattern_Small,2,0,16940620.0,16940978.0,358.0
150,choice,choice,9,2.0,Land,1.0,58.22159724999983,Object_Land_Solid_Large,3,1,16941822.0,16942415.0,593.0
150,choice,choice,9,2.0,Land,1.0,58.22159724999983,Animal_Land_Solid_Large,4,1,16942987.0,16943185.0,198.0
150,choice,choice,9,2.0,Land,1.0,58.22159724999983,Animal_Land_Solid_Small,5,1,16943383.0,16943731.0,348.0
150,choice,choice,9,2.0,Land,1.0,58.22159724999983,Object_Sea_Pattern_Small,2,0,16944369.0,16944488.0,119.0
150,choice,choice,9,2.0,Land,1.0,58.22159724999983,Object_Land_Solid_Large,3,1,16944513.0,16945479.0,966.0
150,choice,choice,9,2.0,Land,1.0,58.22159724999983,Animal_Land_Solid_Small,5,1,16945774.0,16946225.0,451.0
150,choice,choice,9,2.0,Land,1.0,58.22159724999983,Object_Sea_Pattern_Large,0,0,16946286.0,16946536.0,250.0
150,choice,choice,9,2.0,Land,1.0,58.22159724999983,Object_Land_Solid_Large,3,1,16946574.0,16947689.0,1115.0
150,choice,choice,10,2.0,Large,1.0,41.17830387499998,Object_Sea_Pattern_Large,0,1,16951921.0,16952318.0,397.0
150,choice,choice,10,2.0,Large,1.0,41.17830387499998,Animal_Land_Solid_Small,5,0,16952352.0,16952632.0,280.0
150,choice,choice,10,2.0,Large,1.0,41.17830387499998,Animal_Land_Solid_Large,4,1,16952949.0,16953080.0,131.0
150,choice,choice,10,2.0,Large,1.0,41.17830387499998,Object_Sea_Pattern_Small,2,0,16953105.0,16954438.0,1333.0
150,choice,choice,10,2.0,Large,1.0,41.17830387499998,Animal_Land_Solid_Small,5,0,16955373.0,16955874.0,501.0
150,choice,choice,10,2.0,Large,1.0,41.17830387499998,Object_Sea_Pattern_Small,2,0,16956347.0,16956586.0,239.0
150,choice,choice,10,2.0,Large,1.0,41.17830387499998,Object_Land_Solid_Large,3,1,16956898.0,16957664.0,766.0
150,choice,choice,10,2.0,Large,1.0,41.17830387499998,Animal_Land_Solid_Small,5,0,16959014.0,16959288.0,274.0
150,choice,choice,10,2.0,Large,1.0,41.17830387499998,Object_Sea_Pattern_Small,2,0,16959501.0,16961039.0,1538.0
150,choice,choice,10,2.0,Large,1.0,41.17830387499998,Animal_Land_Solid_Small,5,0,16962134.0,16962339.0,205.0
150,choice,choice,10,2.0,Large,1.0,41.17830387499998,Object_Sea_Pattern_Small,2,0,16964703.0,16965365.0,662.0
150,choice,choice,10,2.0,Large,1.0,41.17830387499998,Object_Land_Solid_Large,3,1,16965431.0,16965818.0,387.0
150,choice,choice,10,2.0,Large,1.0,41.17830387499998,Object_Sea_Pattern_Small,2,0,16965837.0,16966037.0,200.0
150,choice,choice,10,2.0,Large,1.0,41.17830387499998,Animal_Land_Solid_Small,5,0,16966480.0,16966923.0,443.0
150,choice,choice,10,2.0,Large,1.0,41.17830387499998,Animal_Land_Solid_Large,4,1,16966939.0,16967898.0,959.0
150,choice,choice,10,2.0,Large,1.0,41.17830387499998,Object_Sea_Pattern_Large,0,1,16967976.0,16968153.0,177.0
150,choice,choice,10,2.0,Large,1.0,41.17830387499998,Object_Land_Solid_Large,3,1,16968208.0,16969170.0,962.0
150,choice,choice,10,2.0,Large,1.0,41.17830387499998,Animal_Sea_Pattern_Small,1,0,16969618.0,16972802.0,3184.0
150,choice,choice,10,2.0,Large,1.0,41.17830387499998,Object_Sea_Pattern_Large,0,1,16973100.0,16974089.0,989.0
150,choice,choice,10,2.0,Large,1.0,41.17830387499998,Animal_Land_Solid_Large,4,1,16975156.0,16975782.0,626.0
150,choice,choice,10,2.0,Large,1.0,41.17830387499998,Object_Land_Solid_Large,3,1,16976331.0,16977102.0,771.0
150,choice,choice,10,2.0,Large,1.0,41.17830387499998,Animal_Land_Solid_Large,4,1,16977470.0,16978498.0,1028.0
150,choice,choice,10,2.0,Large,1.0,41.17830387499998,Object_Land_Solid_Large,3,1,16978774.0,16979196.0,422.0
150,choice,choice,10,2.0,Large,1.0,41.17830387499998,Animal_Sea_Pattern_Small,1,0,16979753.0,16979795.0,42.0
150,choice,choice,10,2.0,Large,1.0,41.17830387499998,Object_Land_Solid_Large,3,1,16979814.0,16981441.0,1627.0
150,choice,choice,10,2.0,Large,1.0,41.17830387499998,Object_Sea_Pattern_Large,0,1,16982365.0,16986939.0,4574.0
150,choice,choice,10,2.0,Large,1.0,41.17830387499998,Animal_Land_Solid_Large,4,1,16989179.0,16989855.0,676.0
150,choice,choice,10,2.0,Large,1.0,41.17830387499998,Object_Land_Solid_Large,3,1,16990681.0,16991584.0,903.0
150,choice,choice,11,2.0,Small,2.0,18.832846084000263,Animal_Land_Solid_Small,5,1,16995193.0,16995403.0,210.0
150,choice,choice,11,2.0,Small,2.0,18.832846084000263,Animal_Sea_Pattern_Small,1,1,16995427.0,16996251.0,824.0
150,choice,choice,11,2.0,Small,2.0,18.832846084000263,Object_Sea_Pattern_Small,2,1,16996757.0,16997221.0,464.0
150,choice,choice,11,2.0,Small,2.0,18.832846084000263,Object_Land_Solid_Large,3,0,16997456.0,16997642.0,186.0
150,choice,choice,11,2.0,Small,2.0,18.832846084000263,Animal_Land_Solid_Small,5,1,16998087.0,16998268.0,181.0
150,choice,choice,11,2.0,Small,2.0,18.832846084000263,Object_Sea_Pattern_Small,2,1,16998338.0,16998730.0,392.0
150,choice,choice,11,2.0,Small,2.0,18.832846084000263,Object_Land_Solid_Large,3,0,16999252.0,16999659.0,407.0
150,choice,choice,11,2.0,Small,2.0,18.832846084000263,Object_Sea_Pattern_Small,2,1,16999876.0,17001357.0,1481.0
150,choice,choice,11,2.0,Small,2.0,18.832846084000263,Object_Land_Solid_Large,3,0,17001445.0,17001962.0,517.0
150,choice,choice,11,2.0,Small,2.0,18.832846084000263,Animal_Land_Solid_Small,5,1,17003105.0,17003323.0,218.0
150,choice,choice,11,2.0,Small,2.0,18.832846084000263,Object_Land_Solid_Large,3,0,17003377.0,17004131.0,754.0
150,choice,choice,11,2.0,Small,2.0,18.832846084000263,Animal_Sea_Pattern_Small,1,1,17004188.0,17006316.0,2128.0
150,choice,choice,11,2.0,Small,2.0,18.832846084000263,Object_Land_Solid_Large,3,0,17006861.0,17007377.0,516.0
150,choice,choice,11,2.0,Small,2.0,18.832846084000263,Animal_Sea_Pattern_Small,1,1,17007417.0,17007967.0,550.0
150,choice,choice,11,2.0,Small,2.0,18.832846084000263,Object_Sea_Pattern_Large,0,0,17008021.0,17008211.0,190.0
150,choice,choice,11,2.0,Small,2.0,18.832846084000263,Animal_Sea_Pattern_Small,1,1,17008415.0,17008764.0,349.0
150,choice,choice,11,2.0,Small,2.0,18.832846084000263,Animal_Land_Solid_Small,5,1,17008790.0,17009071.0,281.0
150,choice,choice,11,2.0,Small,2.0,18.832846084000263,Object_Sea_Pattern_Large,0,0,17009094.0,17009513.0,419.0
150,choice,choice,11,2.0,Small,2.0,18.832846084000263,Animal_Land_Solid_Small,5,1,17009530.0,17009737.0,207.0
150,choice,choice,11,2.0,Small,2.0,18.832846084000263,Object_Sea_Pattern_Large,0,0,17009941.0,17010220.0,279.0
150,choice,choice,11,2.0,Small,2.0,18.832846084000263,Object_Sea_Pattern_Small,2,1,17011331.0,17011807.0,476.0
150,choice,choice,12,2.0,Sea,1.0,20.642862541000795,Object_Sea_Pattern_Large,0,1,17017310.0,17017946.0,636.0
150,choice,choice,12,2.0,Sea,1.0,20.642862541000795,Animal_Sea_Pattern_Small,1,1,17017966.0,17018536.0,570.0
150,choice,choice,12,2.0,Sea,1.0,20.642862541000795,Object_Sea_Pattern_Small,2,1,17018800.0,17019184.0,384.0
150,choice,choice,12,2.0,Sea,1.0,20.642862541000795,Object_Land_Solid_Large,3,0,17019400.0,17020631.0,1231.0
150,choice,choice,12,2.0,Sea,1.0,20.642862541000795,Animal_Sea_Pattern_Small,1,1,17021227.0,17021485.0,258.0
150,choice,choice,12,2.0,Sea,1.0,20.642862541000795,Object_Sea_Pattern_Large,0,1,17021508.0,17028059.0,6551.0
150,choice,choice,12,2.0,Sea,1.0,20.642862541000795,Animal_Sea_Pattern_Small,1,1,17028744.0,17028934.0,190.0
150,choice,choice,12,2.0,Sea,1.0,20.642862541000795,Animal_Land_Solid_Small,5,0,17029326.0,17029874.0,548.0
150,choice,choice,12,2.0,Sea,1.0,20.642862541000795,Object_Land_Solid_Large,3,0,17030432.0,17031047.0,615.0
150,choice,choice,12,2.0,Sea,1.0,20.642862541000795,Animal_Sea_Pattern_Small,1,1,17031276.0,17032505.0,1229.0
150,choice,choice,12,2.0,Sea,1.0,20.642862541000795,Object_Sea_Pattern_Large,0,1,17032765.0,17033241.0,476.0
150,choice,choice,12,2.0,Sea,1.0,20.642862541000795,Animal_Sea_Pattern_Small,1,1,17033290.0,17034602.0,1312.0
150,choice,choice,12,2.0,Sea,1.0,20.642862541000795,Object_Sea_Pattern_Large,0,1,17034865.0,17035109.0,244.0
150,choice,choice,12,2.0,Sea,1.0,20.642862541000795,Animal_Sea_Pattern_Small,1,1,17035139.0,17035534.0,395.0
150,choice,choice,12,2.0,Sea,1.0,20.642862541000795,Object_Sea_Pattern_Large,0,1,17035761.0,17037265.0,1504.0
150,choice,choice,12,2.0,Sea,1.0,20.642862541000795,Animal_Sea_Pattern_Small,1,1,17037332.0,17037690.0,358.0
150,choice,choice,13,2.0,Solid,1.0,26.14837974999864,Object_Sea_Pattern_Large,0,0,17040729.0,17042255.0,1526.0
150,choice,choice,13,2.0,Solid,1.0,26.14837974999864,Animal_Land_Solid_Small,5,1,17042513.0,17044601.0,2088.0
150,choice,choice,13,2.0,Solid,1.0,26.14837974999864,Animal_Land_Solid_Large,4,1,17045700.0,17045997.0,297.0
150,choice,choice,13,2.0,Solid,1.0,26.14837974999864,Object_Sea_Pattern_Large,0,0,17046939.0,17047253.0,314.0
150,choice,choice,13,2.0,Solid,1.0,26.14837974999864,Animal_Land_Solid_Small,5,1,17047488.0,17048049.0,561.0
150,choice,choice,13,2.0,Solid,1.0,26.14837974999864,Animal_Land_Solid_Large,4,1,17048499.0,17048755.0,256.0
150,choice,choice,13,2.0,Solid,1.0,26.14837974999864,Animal_Land_Solid_Small,5,1,17049164.0,17049412.0,248.0
150,choice,choice,13,2.0,Solid,1.0,26.14837974999864,Animal_Land_Solid_Large,4,1,17050194.0,17050457.0,263.0
150,choice,choice,13,2.0,Solid,1.0,26.14837974999864,Animal_Land_Solid_Small,5,1,17051314.0,17051572.0,258.0
150,choice,choice,13,2.0,Solid,1.0,26.14837974999864,Object_Sea_Pattern_Large,0,0,17051597.0,17052242.0,645.0
150,choice,choice,13,2.0,Solid,1.0,26.14837974999864,Animal_Land_Solid_Small,5,1,17052281.0,17053592.0,1311.0
150,choice,choice,13,2.0,Solid,1.0,26.14837974999864,Object_Sea_Pattern_Small,2,0,17055488.0,17056142.0,654.0
150,choice,choice,13,2.0,Solid,1.0,26.14837974999864,Object_Land_Solid_Large,3,1,17056397.0,17057765.0,1368.0
150,choice,choice,13,2.0,Solid,1.0,26.14837974999864,Object_Sea_Pattern_Large,0,0,17058624.0,17058836.0,212.0
150,choice,choice,13,2.0,Solid,1.0,26.14837974999864,Object_Land_Solid_Large,3,1,17058879.0,17059209.0,330.0
150,choice,choice,13,2.0,Solid,1.0,26.14837974999864,Animal_Land_Solid_Small,5,1,17059536.0,17059695.0,159.0
150,choice,choice,13,2.0,Solid,1.0,26.14837974999864,Animal_Sea_Pattern_Small,1,0,17059722.0,17060800.0,1078.0
150,choice,choice,13,2.0,Solid,1.0,26.14837974999864,Object_Sea_Pattern_Large,0,0,17061050.0,17061203.0,153.0
150,choice,choice,13,2.0,Solid,1.0,26.14837974999864,Animal_Land_Solid_Small,5,1,17061228.0,17061726.0,498.0
150,choice,choice,13,2.0,Solid,1.0,26.14837974999864,Object_Land_Solid_Large,3,1,17061929.0,17062246.0,317.0
150,choice,choice,13,2.0,Solid,1.0,26.14837974999864,Animal_Land_Solid_Large,4,1,17062293.0,17062569.0,276.0
150,choice,choice,13,2.0,Solid,1.0,26.14837974999864,Animal_Sea_Pattern_Small,1,0,17062940.0,17063209.0,269.0
150,choice,choice,13,2.0,Solid,1.0,26.14837974999864,Animal_Land_Solid_Small,5,1,17063943.0,17064233.0,290.0
150,choice,choice,13,2.0,Solid,1.0,26.14837974999864,Animal_Sea_Pattern_Small,1,0,17064266.0,17064666.0,400.0
150,choice,choice,13,2.0,Solid,1.0,26.14837974999864,Animal_Land_Solid_Large,4,1,17064907.0,17065126.0,219.0
150,choice,choice,13,2.0,Solid,1.0,26.14837974999864,Object_Land_Solid_Large,3,1,17065530.0,17066358.0,828.0
150,choice,choice,14,2.0,Pattern,1.0,21.110333500000703,Object_Sea_Pattern_Large,0,1,17069480.0,17071766.0,2286.0
150,choice,choice,14,2.0,Pattern,1.0,21.110333500000703,Object_Sea_Pattern_Small,2,1,17073574.0,17073743.0,169.0
150,choice,choice,14,2.0,Pattern,1.0,21.110333500000703,Object_Sea_Pattern_Large,0,1,17074407.0,17079202.0,4795.0
150,choice,choice,14,2.0,Pattern,1.0,21.110333500000703,Animal_Land_Solid_Small,5,0,17080040.0,17081759.0,1719.0
150,choice,choice,14,2.0,Pattern,1.0,21.110333500000703,Object_Sea_Pattern_Small,2,1,17082662.0,17082894.0,232.0
150,choice,choice,14,2.0,Pattern,1.0,21.110333500000703,Animal_Sea_Pattern_Small,1,1,17082928.0,17083124.0,196.0
150,choice,choice,14,2.0,Pattern,1.0,21.110333500000703,Object_Sea_Pattern_Large,0,1,17083145.0,17083576.0,431.0
150,choice,choice,14,2.0,Pattern,1.0,21.110333500000703,Animal_Sea_Pattern_Small,1,1,17083762.0,17084231.0,469.0
150,choice,choice,14,2.0,Pattern,1.0,21.110333500000703,Object_Sea_Pattern_Large,0,1,17084290.0,17085625.0,1335.0
150,choice,choice,14,2.0,Pattern,1.0,21.110333500000703,Animal_Sea_Pattern_Small,1,1,17085891.0,17087210.0,1319.0
150,choice,choice,14,2.0,Pattern,1.0,21.110333500000703,Object_Sea_Pattern_Large,0,1,17087616.0,17087904.0,288.0
150,choice,choice,14,2.0,Pattern,1.0,21.110333500000703,Animal_Sea_Pattern_Small,1,1,17087924.0,17088201.0,277.0
150,choice,choice,14,2.0,Pattern,1.0,21.110333500000703,Object_Sea_Pattern_Large,0,1,17088224.0,17088638.0,414.0
150,choice,choice,14,2.0,Pattern,1.0,21.110333500000703,Object_Sea_Pattern_Small,2,1,17089125.0,17089273.0,148.0
150,choice,choice,14,2.0,Pattern,1.0,21.110333500000703,Object_Sea_Pattern_Large,0,1,17089302.0,17090219.0,917.0
150,choice,choice,14,2.0,Pattern,1.0,21.110333500000703,Animal_Sea_Pattern_Small,1,1,17090237.0,17090375.0,138.0
150,choice,choice,15,2.0,Object,1.0,20.02482641700044,Object_Sea_Pattern_Large,0,1,17093757.0,17094182.0,425.0
150,choice,choice,15,2.0,Object,1.0,20.02482641700044,Object_Sea_Pattern_Small,2,1,17095115.0,17095792.0,677.0
150,choice,choice,15,2.0,Object,1.0,20.02482641700044,Object_Land_Solid_Large,3,1,17096067.0,17097863.0,1796.0
150,choice,choice,15,2.0,Object,1.0,20.02482641700044,Animal_Sea_Pattern_Small,1,0,17100278.0,17100655.0,377.0
150,choice,choice,15,2.0,Object,1.0,20.02482641700044,Object_Land_Solid_Large,3,1,17100681.0,17101595.0,914.0
150,choice,choice,15,2.0,Object,1.0,20.02482641700044,Animal_Sea_Pattern_Small,1,0,17101908.0,17102138.0,230.0
150,choice,choice,15,2.0,Object,1.0,20.02482641700044,Object_Land_Solid_Large,3,1,17102161.0,17102535.0,374.0
150,choice,choice,15,2.0,Object,1.0,20.02482641700044,Animal_Sea_Pattern_Small,1,0,17102782.0,17103199.0,417.0
150,choice,choice,15,2.0,Object,1.0,20.02482641700044,Object_Land_Solid_Large,3,1,17103460.0,17104010.0,550.0
150,choice,choice,15,2.0,Object,1.0,20.02482641700044,Animal_Sea_Pattern_Small,1,0,17104574.0,17105905.0,1331.0
150,choice,choice,15,2.0,Object,1.0,20.02482641700044,Object_Sea_Pattern_Large,0,1,17106185.0,17106776.0,591.0
150,choice,choice,15,2.0,Object,1.0,20.02482641700044,Animal_Land_Solid_Small,5,0,17106815.0,17107537.0,722.0
150,choice,choice,15,2.0,Object,1.0,20.02482641700044,Animal_Sea_Pattern_Small,1,0,17107805.0,17108044.0,239.0
150,choice,choice,15,2.0,Object,1.0,20.02482641700044,Object_Land_Solid_Large,3,1,17108278.0,17108487.0,209.0
150,choice,choice,15,2.0,Object,1.0,20.02482641700044,Object_Sea_Pattern_Small,2,1,17108538.0,17109000.0,462.0
150,choice,choice,15,2.0,Object,1.0,20.02482641700044,Object_Land_Solid_Large,3,1,17109062.0,17109321.0,259.0
150,choice,choice,15,2.0,Object,1.0,20.02482641700044,Animal_Sea_Pattern_Small,1,0,17109345.0,17109883.0,538.0
150,choice,choice,15,2.0,Object,1.0,20.02482641700044,Object_Sea_Pattern_Large,0,1,17109925.0,17111451.0,1526.0
150,choice,choice,15,2.0,Object,1.0,20.02482641700044,Object_Land_Solid_Large,3,1,17111865.0,17112556.0,691.0
150,choice,choice,15,2.0,Object,1.0,20.02482641700044,Animal_Sea_Pattern_Small,1,0,17113190.0,17113571.0,381.0
150,choice,choice,16,2.0,Animal,1.0,9.25202524999986,Object_Sea_Pattern_Large,0,0,17117093.0,17117756.0,663.0
150,choice,choice,16,2.0,Animal,1.0,9.25202524999986,Animal_Sea_Pattern_Small,1,1,17117804.0,17118267.0,463.0
150,choice,choice,16,2.0,Animal,1.0,9.25202524999986,Object_Land_Solid_Large,3,0,17118495.0,17119330.0,835.0
150,choice,choice,16,2.0,Animal,1.0,9.25202524999986,Object_Sea_Pattern_Small,2,0,17119393.0,17119630.0,237.0
150,choice,choice,16,2.0,Animal,1.0,9.25202524999986,Animal_Land_Solid_Large,4,1,17119655.0,17119840.0,185.0
150,choice,choice,16,2.0,Animal,1.0,9.25202524999986,Animal_Sea_Pattern_Small,1,1,17119877.0,17120373.0,496.0
150,choice,choice,16,2.0,Animal,1.0,9.25202524999986,Animal_Land_Solid_Small,5,1,17120582.0,17121383.0,801.0
150,choice,choice,16,2.0,Animal,1.0,9.25202524999986,Animal_Land_Solid_Large,4,1,17121594.0,17122036.0,442.0
150,choice,choice,16,2.0,Animal,1.0,9.25202524999986,Animal_Sea_Pattern_Small,1,1,17122287.0,17122806.0,519.0
150,choice,choice,16,2.0,Animal,1.0,9.25202524999986,Object_Sea_Pattern_Large,0,0,17123059.0,17123226.0,167.0
150,choice,choice,16,2.0,Animal,1.0,9.25202524999986,Animal_Sea_Pattern_Small,1,1,17123260.0,17123912.0,652.0
150,choice,choice,16,2.0,Animal,1.0,9.25202524999986,Animal_Land_Solid_Small,5,1,17124118.0,17124373.0,255.0
150,choice,choice,16,2.0,Animal,1.0,9.25202524999986,Object_Sea_Pattern_Large,0,0,17124394.0,17124835.0,441.0
150,choice,choice,16,2.0,Animal,1.0,9.25202524999986,Animal_Land_Solid_Small,5,1,17124850.0,17125306.0,456.0
150,choice,choice,17,3.0,Sea,2.0,35.849033374999635,Object_Land_Pattern_Large,0,0,17510827.0,17514440.0,3613.0
150,choice,choice,17,3.0,Sea,2.0,35.849033374999635,Object_Land_Solid_Small,1,0,17518389.0,17518804.0,415.0
150,choice,choice,17,3.0,Sea,2.0,35.849033374999635,Animal_Sea_Solid_Small,2,1,17520322.0,17520555.0,233.0
150,choice,choice,17,3.0,Sea,2.0,35.849033374999635,Object_Land_Solid_Small,1,0,17521870.0,17522194.0,324.0
150,choice,choice,17,3.0,Sea,2.0,35.849033374999635,Object_Land_Pattern_Large,0,0,17523180.0,17523437.0,257.0
150,choice,choice,17,3.0,Sea,2.0,35.849033374999635,Object_Land_Solid_Large,3,0,17523686.0,17525705.0,2019.0
150,choice,choice,17,3.0,Sea,2.0,35.849033374999635,Animal_Sea_Pattern_Small,4,1,17526722.0,17528479.0,1757.0
150,choice,choice,17,3.0,Sea,2.0,35.849033374999635,Object_Land_Solid_Small,1,0,17529363.0,17529660.0,297.0
150,choice,choice,17,3.0,Sea,2.0,35.849033374999635,Animal_Sea_Pattern_Small,4,1,17529851.0,17530256.0,405.0
150,choice,choice,17,3.0,Sea,2.0,35.849033374999635,Object_Land_Pattern_Large,0,0,17530290.0,17530613.0,323.0
150,choice,choice,17,3.0,Sea,2.0,35.849033374999635,Animal_Sea_Pattern_Small,4,1,17530636.0,17531815.0,1179.0
150,choice,choice,17,3.0,Sea,2.0,35.849033374999635,Object_Land_Solid_Small,1,0,17532083.0,17532441.0,358.0
150,choice,choice,17,3.0,Sea,2.0,35.849033374999635,Object_Land_Pattern_Large,0,0,17532463.0,17532714.0,251.0
150,choice,choice,17,3.0,Sea,2.0,35.849033374999635,Animal_Sea_Pattern_Small,4,1,17532895.0,17534083.0,1188.0
150,choice,choice,17,3.0,Sea,2.0,35.849033374999635,Object_Land_Pattern_Large,0,0,17534314.0,17534968.0,654.0
150,choice,choice,17,3.0,Sea,2.0,35.849033374999635,Animal_Sea_Pattern_Small,4,1,17535185.0,17537834.0,2649.0
150,choice,choice,17,3.0,Sea,2.0,35.849033374999635,Object_Land_Solid_Large,3,0,17538881.0,17539023.0,142.0
150,choice,choice,17,3.0,Sea,2.0,35.849033374999635,Animal_Sea_Pattern_Large,5,1,17539071.0,17539779.0,708.0
150,choice,choice,17,3.0,Sea,2.0,35.849033374999635,Animal_Sea_Pattern_Small,4,1,17540104.0,17540633.0,529.0
150,choice,choice,17,3.0,Sea,2.0,35.849033374999635,Object_Land_Solid_Large,3,0,17541842.0,17541974.0,132.0
150,choice,choice,17,3.0,Sea,2.0,35.849033374999635,Animal_Sea_Pattern_Large,5,1,17542337.0,17542541.0,204.0
150,choice,choice,17,3.0,Sea,2.0,35.849033374999635,Object_Land_Solid_Large,3,0,17542741.0,17542928.0,187.0
150,choice,choice,17,3.0,Sea,2.0,35.849033374999635,Object_Land_Pattern_Large,0,0,17542962.0,17543432.0,470.0
150,choice,choice,17,3.0,Sea,2.0,35.849033374999635,Animal_Sea_Solid_Small,2,1,17543488.0,17544271.0,783.0
150,choice,choice,17,3.0,Sea,2.0,35.849033374999635,Animal_Sea_Pattern_Large,5,1,17544939.0,17545426.0,487.0
150,choice,choice,17,3.0,Sea,2.0,35.849033374999635,Object_Land_Pattern_Large,0,0,17545779.0,17546252.0,473.0
150,choice,choice,18,3.0,Solid,2.0,18.466269291999197,Object_Land_Pattern_Large,0,0,17549281.0,17551166.0,1885.0
150,choice,choice,18,3.0,Solid,2.0,18.466269291999197,Object_Land_Solid_Small,1,1,17551393.0,17551847.0,454.0
150,choice,choice,18,3.0,Solid,2.0,18.466269291999197,Object_Land_Pattern_Large,0,0,17551860.0,17552530.0,670.0
150,choice,choice,18,3.0,Solid,2.0,18.466269291999197,Object_Land_Solid_Small,1,1,17552716.0,17553059.0,343.0
150,choice,choice,18,3.0,Solid,2.0,18.466269291999197,Object_Land_Pattern_Large,0,0,17553250.0,17553500.0,250.0
150,choice,choice,18,3.0,Solid,2.0,18.466269291999197,Object_Land_Solid_Small,1,1,17554053.0,17554614.0,561.0
150,choice,choice,18,3.0,Solid,2.0,18.466269291999197,Animal_Sea_Solid_Small,2,1,17554838.0,17555369.0,531.0
150,choice,choice,18,3.0,Solid,2.0,18.466269291999197,Object_Land_Pattern_Large,0,0,17556422.0,17556546.0,124.0
150,choice,choice,18,3.0,Solid,2.0,18.466269291999197,Object_Land_Solid_Large,3,1,17557786.0,17558076.0,290.0
150,choice,choice,18,3.0,Solid,2.0,18.466269291999197,Animal_Sea_Pattern_Large,5,0,17558100.0,17558608.0,508.0
150,choice,choice,18,3.0,Solid,2.0,18.466269291999197,Object_Land_Solid_Small,1,1,17559840.0,17560772.0,932.0
150,choice,choice,18,3.0,Solid,2.0,18.466269291999197,Animal_Sea_Solid_Small,2,1,17561054.0,17561792.0,738.0
150,choice,choice,18,3.0,Solid,2.0,18.466269291999197,Object_Land_Solid_Large,3,1,17562540.0,17562667.0,127.0
150,choice,choice,18,3.0,Solid,2.0,18.466269291999197,Animal_Sea_Pattern_Large,5,0,17563673.0,17564041.0,368.0
150,choice,choice,18,3.0,Solid,2.0,18.466269291999197,Object_Land_Solid_Large,3,1,17564064.0,17565125.0,1061.0
150,choice,choice,18,3.0,Solid,2.0,18.466269291999197,Object_Land_Pattern_Large,0,0,17565165.0,17565691.0,526.0
150,choice,choice,18,3.0,Solid,2.0,18.466269291999197,Animal_Sea_Pattern_Small,4,0,17565706.0,17565865.0,159.0
150,choice,choice,18,3.0,Solid,2.0,18.466269291999197,Object_Land_Pattern_Large,0,0,17566098.0,17566676.0,578.0
150,choice,choice,18,3.0,Solid,2.0,18.466269291999197,Animal_Sea_Pattern_Small,4,0,17566708.0,17567310.0,602.0
150,choice,choice,18,3.0,Solid,2.0,18.466269291999197,Object_Land_Solid_Large,3,1,17567372.0,17567417.0,45.0
150,choice,choice,19,3.0,Land,2.0,19.173672249999072,Object_Land_Pattern_Large,0,1,17570617.0,17571689.0,1072.0
150,choice,choice,19,3.0,Land,2.0,19.173672249999072,Object_Land_Solid_Small,1,1,17574394.0,17574647.0,253.0
150,choice,choice,19,3.0,Land,2.0,19.173672249999072,Object_Land_Pattern_Large,0,1,17575243.0,17575511.0,268.0
150,choice,choice,19,3.0,Land,2.0,19.173672249999072,Object_Land_Solid_Small,1,1,17575531.0,17575875.0,344.0
150,choice,choice,19,3.0,Land,2.0,19.173672249999072,Object_Land_Pattern_Large,0,1,17575896.0,17578430.0,2534.0
150,choice,choice,19,3.0,Land,2.0,19.173672249999072,Object_Land_Solid_Small,1,1,17578900.0,17579453.0,553.0
150,choice,choice,19,3.0,Land,2.0,19.173672249999072,Animal_Sea_Solid_Small,2,0,17580446.0,17581298.0,852.0
150,choice,choice,19,3.0,Land,2.0,19.173672249999072,Object_Land_Solid_Large,3,1,17581354.0,17582650.0,1296.0
150,choice,choice,19,3.0,Land,2.0,19.173672249999072,Animal_Sea_Pattern_Small,4,0,17582869.0,17586254.0,3385.0
150,choice,choice,19,3.0,Land,2.0,19.173672249999072,Object_Land_Pattern_Large,0,1,17586818.0,17587116.0,298.0
150,choice,choice,19,3.0,Land,2.0,19.173672249999072,Object_Land_Solid_Large,3,1,17587154.0,17587816.0,662.0
150,choice,choice,19,3.0,Land,2.0,19.173672249999072,Animal_Sea_Pattern_Small,4,0,17587855.0,17588028.0,173.0
150,choice,choice,19,3.0,Land,2.0,19.173672249999072,Object_Land_Solid_Small,1,1,17588050.0,17589227.0,1177.0
150,choice,choice,20,3.0,Large,2.0,12.965666000000056,Object_Land_Pattern_Large,0,1,17592266.0,17594257.0,1991.0
150,choice,choice,20,3.0,Large,2.0,12.965666000000056,Object_Land_Solid_Small,1,0,17594513.0,17594749.0,236.0
150,choice,choice,20,3.0,Large,2.0,12.965666000000056,Object_Land_Pattern_Large,0,1,17594773.0,17595298.0,525.0
150,choice,choice,20,3.0,Large,2.0,12.965666000000056,Animal_Sea_Pattern_Small,4,0,17595524.0,17595813.0,289.0
150,choice,choice,20,3.0,Large,2.0,12.965666000000056,Object_Land_Solid_Small,1,0,17595852.0,17596423.0,571.0
150,choice,choice,20,3.0,Large,2.0,12.965666000000056,Object_Land_Pattern_Large,0,1,17596465.0,17596817.0,352.0
150,choice,choice,20,3.0,Large,2.0,12.965666000000056,Object_Land_Solid_Small,1,0,17597016.0,17597339.0,323.0
150,choice,choice,20,3.0,Large,2.0,12.965666000000056,Animal_Sea_Pattern_Small,4,0,17597379.0,17598075.0,696.0
150,choice,choice,20,3.0,Large,2.0,12.965666000000056,Object_Land_Pattern_Large,0,1,17598109.0,17598837.0,728.0
150,choice,choice,20,3.0,Large,2.0,12.965666000000056,Object_Land_Solid_Large,3,1,17598873.0,17599908.0,1035.0
150,choice,choice,20,3.0,Large,2.0,12.965666000000056,Object_Land_Pattern_Large,0,1,17599965.0,17600673.0,708.0
150,choice,choice,20,3.0,Large,2.0,12.965666000000056,Object_Land_Solid_Large,3,1,17600758.0,17601128.0,370.0
150,choice,choice,20,3.0,Large,2.0,12.965666000000056,Animal_Sea_Pattern_Large,5,1,17601728.0,17602775.0,1047.0
150,choice,choice,20,3.0,Large,2.0,12.965666000000056,Object_Land_Pattern_Large,0,1,17603074.0,17603674.0,600.0
150,choice,choice,20,3.0,Large,2.0,12.965666000000056,Animal_Sea_Pattern_Large,5,1,17603746.0,17604354.0,608.0
150,choice,choice,21,3.0,Small,2.0,12.200053332999232,Animal_Sea_Pattern_Small,4,1,17608835.0,17609096.0,261.0
150,choice,choice,21,3.0,Small,2.0,12.200053332999232,Animal_Sea_Solid_Small,2,1,17609167.0,17609429.0,262.0
150,choice,choice,21,3.0,Small,2.0,12.200053332999232,Object_Land_Pattern_Large,0,0,17609461.0,17610329.0,868.0
150,choice,choice,21,3.0,Small,2.0,12.200053332999232,Object_Land_Solid_Small,1,1,17610729.0,17610986.0,257.0
150,choice,choice,21,3.0,Small,2.0,12.200053332999232,Animal_Sea_Pattern_Small,4,1,17611028.0,17612241.0,1213.0
150,choice,choice,21,3.0,Small,2.0,12.200053332999232,Object_Land_Pattern_Large,0,0,17612474.0,17612705.0,231.0
150,choice,choice,21,3.0,Small,2.0,12.200053332999232,Animal_Sea_Solid_Small,2,1,17613096.0,17613118.0,22.0
150,choice,choice,21,3.0,Small,2.0,12.200053332999232,Object_Land_Solid_Small,1,1,17613396.0,17613459.0,63.0
150,choice,choice,21,3.0,Small,2.0,12.200053332999232,Object_Land_Solid_Large,3,0,17613497.0,17614384.0,887.0
150,choice,choice,21,3.0,Small,2.0,12.200053332999232,Animal_Sea_Pattern_Small,4,1,17614415.0,17614555.0,140.0
150,choice,choice,21,3.0,Small,2.0,12.200053332999232,Object_Land_Pattern_Large,0,0,17614591.0,17615798.0,1207.0
150,choice,choice,21,3.0,Small,2.0,12.200053332999232,Animal_Sea_Solid_Small,2,1,17615873.0,17616286.0,413.0
150,choice,choice,21,3.0,Small,2.0,12.200053332999232,Object_Land_Pattern_Large,0,0,17617679.0,17618441.0,762.0
150,choice,choice,21,3.0,Small,2.0,12.200053332999232,Object_Land_Solid_Small,1,1,17618674.0,17619332.0,658.0
150,choice,choice,21,3.0,Small,2.0,12.200053332999232,Animal_Sea_Pattern_Small,4,1,17620409.0,17620419.0,10.0
150,choice,choice,22,3.0,Object,2.0,17.516627125000014,Object_Land_Pattern_Large,0,1,17624654.0,17624735.0,81.0
150,choice,choice,22,3.0,Object,2.0,17.516627125000014,Object_Land_Solid_Small,1,1,17626749.0,17627155.0,406.0
150,choice,choice,22,3.0,Object,2.0,17.516627125000014,Animal_Sea_Solid_Small,2,0,17627204.0,17627602.0,398.0
150,choice,choice,22,3.0,Object,2.0,17.516627125000014,Animal_Sea_Pattern_Large,5,0,17628328.0,17628571.0,243.0
150,choice,choice,22,3.0,Object,2.0,17.516627125000014,Object_Land_Solid_Large,3,1,17628600.0,17629049.0,449.0
150,choice,choice,22,3.0,Object,2.0,17.516627125000014,Animal_Sea_Pattern_Small,4,0,17629261.0,17630237.0,976.0
150,choice,choice,22,3.0,Object,2.0,17.516627125000014,Object_Land_Pattern_Large,0,1,17630310.0,17631372.0,1062.0
150,choice,choice,22,3.0,Object,2.0,17.516627125000014,Object_Land_Solid_Small,1,1,17631592.0,17632248.0,656.0
150,choice,choice,22,3.0,Object,2.0,17.516627125000014,Animal_Sea_Pattern_Small,4,0,17632275.0,17632491.0,216.0
150,choice,choice,22,3.0,Object,2.0,17.516627125000014,Object_Land_Solid_Large,3,1,17632515.0,17632790.0,275.0
150,choice,choice,22,3.0,Object,2.0,17.516627125000014,Object_Land_Pattern_Large,0,1,17632833.0,17635115.0,2282.0
150,choice,choice,22,3.0,Object,2.0,17.516627125000014,Animal_Sea_Pattern_Small,4,0,17635380.0,17635625.0,245.0
150,choice,choice,22,3.0,Object,2.0,17.516627125000014,Object_Land_Solid_Large,3,1,17635865.0,17635988.0,123.0
150,choice,choice,22,3.0,Object,2.0,17.516627125000014,Object_Land_Solid_Small,1,1,17636016.0,17636191.0,175.0
150,choice,choice,22,3.0,Object,2.0,17.516627125000014,Animal_Sea_Pattern_Small,4,0,17636211.0,17637706.0,1495.0
150,choice,choice,22,3.0,Object,2.0,17.516627125000014,Object_Land_Pattern_Large,0,1,17637949.0,17638546.0,597.0
150,choice,choice,22,3.0,Object,2.0,17.516627125000014,Object_Land_Solid_Large,3,1,17638611.0,17639484.0,873.0
150,choice,choice,22,3.0,Object,2.0,17.516627125000014,Object_Land_Solid_Small,1,1,17639806.0,17640351.0,545.0
150,choice,choice,23,3.0,Pattern,1.0,14.28091250000034,Object_Land_Pattern_Large,0,1,17643682.0,17647497.0,3815.0
150,choice,choice,23,3.0,Pattern,1.0,14.28091250000034,Object_Land_Solid_Large,3,0,17648453.0,17648692.0,239.0
150,choice,choice,23,3.0,Pattern,1.0,14.28091250000034,Object_Land_Pattern_Large,0,1,17649081.0,17649894.0,813.0
150,choice,choice,23,3.0,Pattern,1.0,14.28091250000034,Animal_Sea_Pattern_Small,4,1,17650098.0,17651125.0,1027.0
150,choice,choice,23,3.0,Pattern,1.0,14.28091250000034,Object_Land_Pattern_Large,0,1,17651301.0,17652034.0,733.0
150,choice,choice,23,3.0,Pattern,1.0,14.28091250000034,Animal_Sea_Pattern_Small,4,1,17652081.0,17652877.0,796.0
150,choice,choice,23,3.0,Pattern,1.0,14.28091250000034,Object_Land_Pattern_Large,0,1,17652920.0,17653818.0,898.0
150,choice,choice,23,3.0,Pattern,1.0,14.28091250000034,Animal_Sea_Pattern_Large,5,1,17654079.0,17654575.0,496.0
150,choice,choice,23,3.0,Pattern,1.0,14.28091250000034,Animal_Sea_Pattern_Small,4,1,17654610.0,17654969.0,359.0
150,choice,choice,23,3.0,Pattern,1.0,14.28091250000034,Object_Land_Pattern_Large,0,1,17655027.0,17657421.0,2394.0
150,choice,choice,24,3.0,Animal,2.0,11.446311208001134,Object_Land_Pattern_Large,0,0,17662975.0,17663437.0,462.0
150,choice,choice,24,3.0,Animal,2.0,11.446311208001134,Animal_Sea_Pattern_Small,4,1,17663650.0,17665863.0,2213.0
150,choice,choice,24,3.0,Animal,2.0,11.446311208001134,Animal_Sea_Pattern_Large,5,1,17667011.0,17667269.0,258.0
150,choice,choice,24,3.0,Animal,2.0,11.446311208001134,Object_Land_Solid_Large,3,0,17667542.0,17667751.0,209.0
150,choice,choice,24,3.0,Animal,2.0,11.446311208001134,Object_Land_Solid_Small,1,0,17668162.0,17668344.0,182.0
150,choice,choice,24,3.0,Animal,2.0,11.446311208001134,Animal_Sea_Pattern_Small,4,1,17668372.0,17668736.0,364.0
150,choice,choice,24,3.0,Animal,2.0,11.446311208001134,Object_Land_Solid_Large,3,0,17668961.0,17669351.0,390.0
150,choice,choice,24,3.0,Animal,2.0,11.446311208001134,Animal_Sea_Solid_Small,2,1,17669394.0,17669779.0,385.0
150,choice,choice,24,3.0,Animal,2.0,11.446311208001134,Object_Land_Solid_Large,3,0,17669808.0,17671211.0,1403.0
150,choice,choice,25,4.0,Animal,1.0,50.20493945800081,Animal_Land_Pattern_Large,0,1,17985327.0,17992229.0,6902.0
150,choice,choice,25,4.0,Animal,1.0,50.20493945800081,Animal_Sea_Solid_Large,1,1,17992838.0,17992927.0,89.0
150,choice,choice,25,4.0,Animal,1.0,50.20493945800081,Animal_Land_Pattern_Large,0,1,17994575.0,17995250.0,675.0
150,choice,choice,25,4.0,Animal,1.0,50.20493945800081,Animal_Sea_Solid_Large,1,1,17995259.0,17995463.0,204.0
150,choice,choice,25,4.0,Animal,1.0,50.20493945800081,Animal_Land_Pattern_Large,0,1,17995970.0,18000118.0,4148.0
150,choice,choice,25,4.0,Animal,1.0,50.20493945800081,Animal_Sea_Solid_Large,1,1,18000565.0,18002138.0,1573.0
150,choice,choice,25,4.0,Animal,1.0,50.20493945800081,Object_Land_Pattern_Small,2,0,18002729.0,18002983.0,254.0
150,choice,choice,25,4.0,Animal,1.0,50.20493945800081,Object_Sea_Solid_Large,3,0,18003006.0,18003669.0,663.0
150,choice,choice,25,4.0,Animal,1.0,50.20493945800081,Object_Sea_Solid_Small,4,0,18004364.0,18004505.0,141.0
150,choice,choice,25,4.0,Animal,1.0,50.20493945800081,Animal_Sea_Solid_Large,1,1,18005362.0,18005665.0,303.0
150,choice,choice,25,4.0,Animal,1.0,50.20493945800081,Animal_Land_Pattern_Small,5,1,18005708.0,18006373.0,665.0
150,choice,choice,25,4.0,Animal,1.0,50.20493945800081,Animal_Land_Pattern_Large,0,1,18006596.0,18006687.0,91.0
150,choice,choice,25,4.0,Animal,1.0,50.20493945800081,Animal_Sea_Solid_Large,1,1,18006724.0,18007100.0,376.0
150,choice,choice,25,4.0,Animal,1.0,50.20493945800081,Animal_Land_Pattern_Large,0,1,18007151.0,18007387.0,236.0
150,choice,choice,25,4.0,Animal,1.0,50.20493945800081,Object_Sea_Solid_Small,4,0,18007925.0,18010855.0,2930.0
150,choice,choice,25,4.0,Animal,1.0,50.20493945800081,Object_Sea_Solid_Large,3,0,18011893.0,18013188.0,1295.0
150,choice,choice,25,4.0,Animal,1.0,50.20493945800081,Animal_Land_Pattern_Large,0,1,18013242.0,18014894.0,1652.0
150,choice,choice,25,4.0,Animal,1.0,50.20493945800081,Animal_Sea_Solid_Large,1,1,18015195.0,18016835.0,1640.0
150,choice,choice,25,4.0,Animal,1.0,50.20493945800081,Animal_Land_Pattern_Large,0,1,18016886.0,18017096.0,210.0
150,choice,choice,25,4.0,Animal,1.0,50.20493945800081,Animal_Land_Pattern_Small,5,1,18017460.0,18018465.0,1005.0
150,choice,choice,25,4.0,Animal,1.0,50.20493945800081,Animal_Land_Pattern_Large,0,1,18018756.0,18018998.0,242.0
150,choice,choice,25,4.0,Animal,1.0,50.20493945800081,Animal_Sea_Solid_Large,1,1,18019019.0,18019389.0,370.0
150,choice,choice,25,4.0,Animal,1.0,50.20493945800081,Animal_Land_Pattern_Large,0,1,18019586.0,18019667.0,81.0
150,choice,choice,25,4.0,Animal,1.0,50.20493945800081,Animal_Land_Pattern_Small,5,1,18019720.0,18020161.0,441.0
150,choice,choice,25,4.0,Animal,1.0,50.20493945800081,Object_Sea_Solid_Small,4,0,18020399.0,18020595.0,196.0
150,choice,choice,25,4.0,Animal,1.0,50.20493945800081,Animal_Land_Pattern_Small,5,1,18020617.0,18020766.0,149.0
150,choice,choice,25,4.0,Animal,1.0,50.20493945800081,Animal_Sea_Solid_Large,1,1,18020793.0,18022054.0,1261.0
150,choice,choice,25,4.0,Animal,1.0,50.20493945800081,Animal_Land_Pattern_Large,0,1,18022102.0,18022318.0,216.0
150,choice,choice,25,4.0,Animal,1.0,50.20493945800081,Animal_Sea_Solid_Large,1,1,18022336.0,18022649.0,313.0
150,choice,choice,25,4.0,Animal,1.0,50.20493945800081,Animal_Land_Pattern_Large,0,1,18022665.0,18023567.0,902.0
150,choice,choice,25,4.0,Animal,1.0,50.20493945800081,Animal_Sea_Solid_Large,1,1,18023604.0,18024528.0,924.0
150,choice,choice,25,4.0,Animal,1.0,50.20493945800081,Animal_Land_Pattern_Large,0,1,18024730.0,18026103.0,1373.0
150,choice,choice,25,4.0,Animal,1.0,50.20493945800081,Object_Sea_Solid_Large,3,0,18026326.0,18026848.0,522.0
150,choice,choice,25,4.0,Animal,1.0,50.20493945800081,Object_Sea_Solid_Small,4,0,18026891.0,18027219.0,328.0
150,choice,choice,25,4.0,Animal,1.0,50.20493945800081,Object_Sea_Solid_Large,3,0,18027234.0,18027492.0,258.0
150,choice,choice,25,4.0,Animal,1.0,50.20493945800081,Object_Sea_Solid_Small,4,0,18027523.0,18028197.0,674.0
150,choice,choice,25,4.0,Animal,1.0,50.20493945800081,Object_Sea_Solid_Large,3,0,18028233.0,18028628.0,395.0
150,choice,choice,25,4.0,Animal,1.0,50.20493945800081,Object_Sea_Solid_Small,4,0,18028825.0,18029387.0,562.0
150,choice,choice,25,4.0,Animal,1.0,50.20493945800081,Object_Sea_Solid_Large,3,0,18029420.0,18029620.0,200.0
150,choice,choice,25,4.0,Animal,1.0,50.20493945800081,Animal_Sea_Solid_Large,1,1,18029671.0,18029985.0,314.0
150,choice,choice,25,4.0,Animal,1.0,50.20493945800081,Object_Land_Pattern_Small,2,0,18030002.0,18030504.0,502.0
150,choice,choice,25,4.0,Animal,1.0,50.20493945800081,Animal_Land_Pattern_Large,0,1,18030559.0,18031143.0,584.0
150,choice,choice,25,4.0,Animal,1.0,50.20493945800081,Animal_Sea_Solid_Large,1,1,18031179.0,18031449.0,270.0
150,choice,choice,25,4.0,Animal,1.0,50.20493945800081,Animal_Land_Pattern_Small,5,1,18031490.0,18032060.0,570.0
150,choice,choice,25,4.0,Animal,1.0,50.20493945800081,Object_Land_Pattern_Small,2,0,18032317.0,18032625.0,308.0
150,choice,choice,25,4.0,Animal,1.0,50.20493945800081,Animal_Land_Pattern_Large,0,1,18032647.0,18032855.0,208.0
150,choice,choice,25,4.0,Animal,1.0,50.20493945800081,Animal_Sea_Solid_Large,1,1,18032877.0,18033774.0,897.0
150,choice,choice,25,4.0,Animal,1.0,50.20493945800081,Animal_Land_Pattern_Large,0,1,18033996.0,18035452.0,1456.0
150,choice,choice,26,4.0,Pattern,2.0,101.82119354199858,Animal_Land_Pattern_Large,0,1,18039750.0,18040699.0,949.0
150,choice,choice,26,4.0,Pattern,2.0,101.82119354199858,Animal_Sea_Solid_Large,1,0,18041229.0,18041429.0,200.0
150,choice,choice,26,4.0,Pattern,2.0,101.82119354199858,Object_Sea_Solid_Large,3,0,18041455.0,18042034.0,579.0
150,choice,choice,26,4.0,Pattern,2.0,101.82119354199858,Animal_Land_Pattern_Large,0,1,18042066.0,18045331.0,3265.0
150,choice,choice,26,4.0,Pattern,2.0,101.82119354199858,Object_Sea_Solid_Small,4,0,18048213.0,18048627.0,414.0
150,choice,choice,26,4.0,Pattern,2.0,101.82119354199858,Animal_Land_Pattern_Small,5,1,18048857.0,18050107.0,1250.0
150,choice,choice,26,4.0,Pattern,2.0,101.82119354199858,Object_Sea_Solid_Large,3,0,18050374.0,18051077.0,703.0
150,choice,choice,26,4.0,Pattern,2.0,101.82119354199858,Object_Sea_Solid_Small,4,0,18051127.0,18052218.0,1091.0
150,choice,choice,26,4.0,Pattern,2.0,101.82119354199858,Object_Sea_Solid_Large,3,0,18052509.0,18053090.0,581.0
150,choice,choice,26,4.0,Pattern,2.0,101.82119354199858,Animal_Land_Pattern_Small,5,1,18053365.0,18053598.0,233.0
150,choice,choice,26,4.0,Pattern,2.0,101.82119354199858,Object_Sea_Solid_Large,3,0,18053633.0,18053931.0,298.0
150,choice,choice,26,4.0,Pattern,2.0,101.82119354199858,Animal_Land_Pattern_Small,5,1,18054437.0,18054609.0,172.0
150,choice,choice,26,4.0,Pattern,2.0,101.82119354199858,Object_Sea_Solid_Large,3,0,18055626.0,18055793.0,167.0
150,choice,choice,26,4.0,Pattern,2.0,101.82119354199858,Animal_Land_Pattern_Small,5,1,18055816.0,18055988.0,172.0
150,choice,choice,26,4.0,Pattern,2.0,101.82119354199858,Object_Sea_Solid_Small,4,0,18056024.0,18056986.0,962.0
150,choice,choice,26,4.0,Pattern,2.0,101.82119354199858,Object_Land_Pattern_Small,2,1,18057390.0,18057602.0,212.0
150,choice,choice,26,4.0,Pattern,2.0,101.82119354199858,Object_Sea_Solid_Small,4,0,18057975.0,18058214.0,239.0
150,choice,choice,26,4.0,Pattern,2.0,101.82119354199858,Animal_Land_Pattern_Small,5,1,18058560.0,18058800.0,240.0
150,choice,choice,26,4.0,Pattern,2.0,101.82119354199858,Object_Sea_Solid_Small,4,0,18059061.0,18060174.0,1113.0
150,choice,choice,26,4.0,Pattern,2.0,101.82119354199858,Animal_Land_Pattern_Large,0,1,18060289.0,18060946.0,657.0
150,choice,choice,26,4.0,Pattern,2.0,101.82119354199858,Object_Sea_Solid_Small,4,0,18061005.0,18061483.0,478.0
150,choice,choice,26,4.0,Pattern,2.0,101.82119354199858,Animal_Land_Pattern_Large,0,1,18061537.0,18062056.0,519.0
150,choice,choice,26,4.0,Pattern,2.0,101.82119354199858,Animal_Land_Pattern_Small,5,1,18062325.0,18063136.0,811.0
150,choice,choice,26,4.0,Pattern,2.0,101.82119354199858,Animal_Land_Pattern_Large,0,1,18063472.0,18065790.0,2318.0
150,choice,choice,26,4.0,Pattern,2.0,101.82119354199858,Object_Sea_Solid_Large,3,0,18066449.0,18066842.0,393.0
150,choice,choice,26,4.0,Pattern,2.0,101.82119354199858,Animal_Land_Pattern_Large,0,1,18066861.0,18069249.0,2388.0
150,choice,choice,26,4.0,Pattern,2.0,101.82119354199858,Object_Sea_Solid_Large,3,0,18069748.0,18069959.0,211.0
150,choice,choice,26,4.0,Pattern,2.0,101.82119354199858,Animal_Land_Pattern_Large,0,1,18070008.0,18070496.0,488.0
150,choice,choice,26,4.0,Pattern,2.0,101.82119354199858,Animal_Sea_Solid_Large,1,0,18070512.0,18070883.0,371.0
150,choice,choice,26,4.0,Pattern,2.0,101.82119354199858,Animal_Land_Pattern_Large,0,1,18071047.0,18071258.0,211.0
150,choice,choice,26,4.0,Pattern,2.0,101.82119354199858,Object_Sea_Solid_Large,3,0,18071287.0,18071628.0,341.0
150,choice,choice,26,4.0,Pattern,2.0,101.82119354199858,Animal_Land_Pattern_Large,0,1,18071648.0,18071831.0,183.0
150,choice,choice,26,4.0,Pattern,2.0,101.82119354199858,Object_Sea_Solid_Large,3,0,18071861.0,18072505.0,644.0
150,choice,choice,26,4.0,Pattern,2.0,101.82119354199858,Object_Sea_Solid_Small,4,0,18072547.0,18073034.0,487.0
150,choice,choice,26,4.0,Pattern,2.0,101.82119354199858,Object_Sea_Solid_Large,3,0,18073226.0,18073404.0,178.0
150,choice,choice,26,4.0,Pattern,2.0,101.82119354199858,Animal_Land_Pattern_Large,0,1,18073425.0,18073687.0,262.0
150,choice,choice,26,4.0,Pattern,2.0,101.82119354199858,Animal_Sea_Solid_Large,1,0,18073706.0,18074039.0,333.0
150,choice,choice,26,4.0,Pattern,2.0,101.82119354199858,Animal_Land_Pattern_Large,0,1,18074059.0,18074533.0,474.0
150,choice,choice,26,4.0,Pattern,2.0,101.82119354199858,Animal_Sea_Solid_Large,1,0,18074551.0,18075045.0,494.0
150,choice,choice,26,4.0,Pattern,2.0,101.82119354199858,Animal_Land_Pattern_Large,0,1,18075463.0,18080925.0,5462.0
150,choice,choice,26,4.0,Pattern,2.0,101.82119354199858,Object_Sea_Solid_Large,3,0,18082754.0,18082899.0,145.0
150,choice,choice,26,4.0,Pattern,2.0,101.82119354199858,Animal_Land_Pattern_Large,0,1,18082930.0,18089360.0,6430.0
150,choice,choice,26,4.0,Pattern,2.0,101.82119354199858,Animal_Sea_Solid_Large,1,0,18090504.0,18090950.0,446.0
150,choice,choice,26,4.0,Pattern,2.0,101.82119354199858,Animal_Land_Pattern_Large,0,1,18091193.0,18092763.0,1570.0
150,choice,choice,26,4.0,Pattern,2.0,101.82119354199858,Object_Sea_Solid_Small,4,0,18093025.0,18094485.0,1460.0
150,choice,choice,26,4.0,Pattern,2.0,101.82119354199858,Object_Sea_Solid_Large,3,0,18094862.0,18097772.0,2910.0
150,choice,choice,26,4.0,Pattern,2.0,101.82119354199858,Animal_Land_Pattern_Large,0,1,18098048.0,18098295.0,247.0
150,choice,choice,26,4.0,Pattern,2.0,101.82119354199858,Object_Sea_Solid_Large,3,0,18098326.0,18099105.0,779.0
150,choice,choice,26,4.0,Pattern,2.0,101.82119354199858,Animal_Land_Pattern_Large,0,1,18099298.0,18099617.0,319.0
150,choice,choice,26,4.0,Pattern,2.0,101.82119354199858,Object_Sea_Solid_Large,3,0,18099648.0,18102900.0,3252.0
150,choice,choice,26,4.0,Pattern,2.0,101.82119354199858,Object_Sea_Solid_Small,4,0,18103653.0,18104431.0,778.0
150,choice,choice,26,4.0,Pattern,2.0,101.82119354199858,Object_Sea_Solid_Large,3,0,18104504.0,18106033.0,1529.0
150,choice,choice,26,4.0,Pattern,2.0,101.82119354199858,Object_Sea_Solid_Small,4,0,18106364.0,18106682.0,318.0
150,choice,choice,26,4.0,Pattern,2.0,101.82119354199858,Object_Sea_Solid_Large,3,0,18106706.0,18107674.0,968.0
150,choice,choice,26,4.0,Pattern,2.0,101.82119354199858,Animal_Land_Pattern_Large,0,1,18107720.0,18107966.0,246.0
150,choice,choice,26,4.0,Pattern,2.0,101.82119354199858,Object_Sea_Solid_Large,3,0,18108189.0,18110221.0,2032.0
150,choice,choice,26,4.0,Pattern,2.0,101.82119354199858,Object_Sea_Solid_Small,4,0,18110542.0,18111350.0,808.0
150,choice,choice,26,4.0,Pattern,2.0,101.82119354199858,Object_Sea_Solid_Large,3,0,18111608.0,18111878.0,270.0
150,choice,choice,26,4.0,Pattern,2.0,101.82119354199858,Object_Sea_Solid_Small,4,0,18111898.0,18112479.0,581.0
150,choice,choice,26,4.0,Pattern,2.0,101.82119354199858,Object_Sea_Solid_Large,3,0,18112526.0,18113009.0,483.0
150,choice,choice,26,4.0,Pattern,2.0,101.82119354199858,Object_Sea_Solid_Small,4,0,18113033.0,18113963.0,930.0
150,choice,choice,26,4.0,Pattern,2.0,101.82119354199858,Object_Sea_Solid_Large,3,0,18113976.0,18116168.0,2192.0
150,choice,choice,26,4.0,Pattern,2.0,101.82119354199858,Object_Sea_Solid_Small,4,0,18116532.0,18117175.0,643.0
150,choice,choice,26,4.0,Pattern,2.0,101.82119354199858,Object_Sea_Solid_Large,3,0,18117238.0,18118146.0,908.0
150,choice,choice,26,4.0,Pattern,2.0,101.82119354199858,Animal_Land_Pattern_Small,5,1,18118218.0,18118522.0,304.0
150,choice,choice,26,4.0,Pattern,2.0,101.82119354199858,Object_Sea_Solid_Small,4,0,18118558.0,18118772.0,214.0
150,choice,choice,26,4.0,Pattern,2.0,101.82119354199858,Animal_Land_Pattern_Large,0,1,18118790.0,18119022.0,232.0
150,choice,choice,26,4.0,Pattern,2.0,101.82119354199858,Object_Sea_Solid_Small,4,0,18119251.0,18119509.0,258.0
150,choice,choice,26,4.0,Pattern,2.0,101.82119354199858,Animal_Land_Pattern_Small,5,1,18119559.0,18120135.0,576.0
150,choice,choice,26,4.0,Pattern,2.0,101.82119354199858,Object_Sea_Solid_Small,4,0,18120179.0,18120589.0,410.0
150,choice,choice,26,4.0,Pattern,2.0,101.82119354199858,Object_Sea_Solid_Large,3,0,18120641.0,18121645.0,1004.0
150,choice,choice,26,4.0,Pattern,2.0,101.82119354199858,Animal_Land_Pattern_Small,5,1,18121758.0,18122511.0,753.0
150,choice,choice,26,4.0,Pattern,2.0,101.82119354199858,Animal_Sea_Solid_Large,1,0,18122587.0,18122803.0,216.0
150,choice,choice,26,4.0,Pattern,2.0,101.82119354199858,Animal_Land_Pattern_Large,0,1,18122828.0,18123325.0,497.0
150,choice,choice,26,4.0,Pattern,2.0,101.82119354199858,Animal_Land_Pattern_Small,5,1,18123698.0,18124022.0,324.0
150,choice,choice,26,4.0,Pattern,2.0,101.82119354199858,Object_Sea_Solid_Small,4,0,18124577.0,18125566.0,989.0
150,choice,choice,26,4.0,Pattern,2.0,101.82119354199858,Animal_Land_Pattern_Small,5,1,18126675.0,18126904.0,229.0
150,choice,choice,26,4.0,Pattern,2.0,101.82119354199858,Object_Sea_Solid_Large,3,0,18126935.0,18127117.0,182.0
150,choice,choice,26,4.0,Pattern,2.0,101.82119354199858,Animal_Land_Pattern_Large,0,1,18127138.0,18129251.0,2113.0
150,choice,choice,26,4.0,Pattern,2.0,101.82119354199858,Animal_Sea_Solid_Large,1,0,18129811.0,18130068.0,257.0
150,choice,choice,26,4.0,Pattern,2.0,101.82119354199858,Animal_Land_Pattern_Large,0,1,18130695.0,18132046.0,1351.0
150,choice,choice,26,4.0,Pattern,2.0,101.82119354199858,Animal_Land_Pattern_Small,5,1,18132153.0,18132420.0,267.0
150,choice,choice,26,4.0,Pattern,2.0,101.82119354199858,Object_Sea_Solid_Small,4,0,18132441.0,18132887.0,446.0
150,choice,choice,26,4.0,Pattern,2.0,101.82119354199858,Animal_Land_Pattern_Small,5,1,18132904.0,18133350.0,446.0
150,choice,choice,26,4.0,Pattern,2.0,101.82119354199858,Object_Sea_Solid_Small,4,0,18133551.0,18134167.0,616.0
150,choice,choice,26,4.0,Pattern,2.0,101.82119354199858,Animal_Land_Pattern_Small,5,1,18134227.0,18134479.0,252.0
150,choice,choice,26,4.0,Pattern,2.0,101.82119354199858,Object_Sea_Solid_Small,4,0,18134513.0,18134678.0,165.0
150,choice,choice,26,4.0,Pattern,2.0,101.82119354199858,Animal_Land_Pattern_Small,5,1,18135335.0,18135834.0,499.0
150,choice,choice,26,4.0,Pattern,2.0,101.82119354199858,Object_Sea_Solid_Small,4,0,18135905.0,18136459.0,554.0
150,choice,choice,26,4.0,Pattern,2.0,101.82119354199858,Animal_Land_Pattern_Large,0,1,18137002.0,18139223.0,2221.0
150,choice,choice,27,4.0,Object,1.0,53.42925133300014,Animal_Land_Pattern_Large,0,0,18143813.0,18145578.0,1765.0
150,choice,choice,27,4.0,Object,1.0,53.42925133300014,Animal_Sea_Solid_Large,1,0,18147056.0,18147331.0,275.0
150,choice,choice,27,4.0,Object,1.0,53.42925133300014,Animal_Land_Pattern_Large,0,0,18147358.0,18151296.0,3938.0
150,choice,choice,27,4.0,Object,1.0,53.42925133300014,Animal_Sea_Solid_Large,1,0,18152879.0,18152998.0,119.0
150,choice,choice,27,4.0,Object,1.0,53.42925133300014,Object_Land_Pattern_Small,2,1,18153211.0,18153697.0,486.0
150,choice,choice,27,4.0,Object,1.0,53.42925133300014,Object_Sea_Solid_Small,4,1,18154250.0,18154690.0,440.0
150,choice,choice,27,4.0,Object,1.0,53.42925133300014,Object_Sea_Solid_Large,3,1,18154738.0,18155036.0,298.0
150,choice,choice,27,4.0,Object,1.0,53.42925133300014,Animal_Land_Pattern_Large,0,0,18155062.0,18155881.0,819.0
150,choice,choice,27,4.0,Object,1.0,53.42925133300014,Animal_Sea_Solid_Large,1,0,18155942.0,18156328.0,386.0
150,choice,choice,27,4.0,Object,1.0,53.42925133300014,Object_Sea_Solid_Small,4,1,18156589.0,18156701.0,112.0
150,choice,choice,27,4.0,Object,1.0,53.42925133300014,Animal_Land_Pattern_Small,5,0,18157291.0,18157676.0,385.0
150,choice,choice,27,4.0,Object,1.0,53.42925133300014,Object_Sea_Solid_Small,4,1,18157698.0,18158974.0,1276.0
150,choice,choice,27,4.0,Object,1.0,53.42925133300014,Object_Sea_Solid_Large,3,1,18159194.0,18160163.0,969.0
150,choice,choice,27,4.0,Object,1.0,53.42925133300014,Animal_Land_Pattern_Large,0,0,18160237.0,18160470.0,233.0
150,choice,choice,27,4.0,Object,1.0,53.42925133300014,Object_Sea_Solid_Large,3,1,18160504.0,18162491.0,1987.0
150,choice,choice,27,4.0,Object,1.0,53.42925133300014,Object_Sea_Solid_Small,4,1,18163132.0,18163887.0,755.0
150,choice,choice,27,4.0,Object,1.0,53.42925133300014,Object_Land_Pattern_Small,2,1,18163990.0,18164638.0,648.0
150,choice,choice,27,4.0,Object,1.0,53.42925133300014,Animal_Land_Pattern_Large,0,0,18165501.0,18166161.0,660.0
150,choice,choice,27,4.0,Object,1.0,53.42925133300014,Animal_Sea_Solid_Large,1,0,18166180.0,18166612.0,432.0
150,choice,choice,27,4.0,Object,1.0,53.42925133300014,Animal_Land_Pattern_Large,0,0,18167468.0,18167937.0,469.0
150,choice,choice,27,4.0,Object,1.0,53.42925133300014,Object_Land_Pattern_Small,2,1,18167952.0,18168193.0,241.0
150,choice,choice,27,4.0,Object,1.0,53.42925133300014,Object_Sea_Solid_Small,4,1,18168777.0,18169128.0,351.0
150,choice,choice,27,4.0,Object,1.0,53.42925133300014,Animal_Sea_Solid_Large,1,0,18170055.0,18171159.0,1104.0
150,choice,choice,27,4.0,Object,1.0,53.42925133300014,Animal_Land_Pattern_Large,0,0,18172202.0,18172454.0,252.0
150,choice,choice,27,4.0,Object,1.0,53.42925133300014,Animal_Sea_Solid_Large,1,0,18172920.0,18174008.0,1088.0
150,choice,choice,27,4.0,Object,1.0,53.42925133300014,Object_Land_Pattern_Small,2,1,18176833.0,18177071.0,238.0
150,choice,choice,27,4.0,Object,1.0,53.42925133300014,Animal_Sea_Solid_Large,1,0,18177607.0,18177993.0,386.0
150,choice,choice,27,4.0,Object,1.0,53.42925133300014,Animal_Land_Pattern_Small,5,0,18178024.0,18178219.0,195.0
150,choice,choice,27,4.0,Object,1.0,53.42925133300014,Animal_Land_Pattern_Large,0,0,18178525.0,18178767.0,242.0
150,choice,choice,27,4.0,Object,1.0,53.42925133300014,Animal_Sea_Solid_Large,1,0,18178786.0,18179031.0,245.0
150,choice,choice,27,4.0,Object,1.0,53.42925133300014,Object_Land_Pattern_Small,2,1,18179079.0,18179334.0,255.0
150,choice,choice,27,4.0,Object,1.0,53.42925133300014,Animal_Sea_Solid_Large,1,0,18180817.0,18181186.0,369.0
150,choice,choice,27,4.0,Object,1.0,53.42925133300014,Object_Land_Pattern_Small,2,1,18182291.0,18183531.0,1240.0
150,choice,choice,27,4.0,Object,1.0,53.42925133300014,Animal_Sea_Solid_Large,1,0,18184229.0,18184787.0,558.0
150,choice,choice,27,4.0,Object,1.0,53.42925133300014,Object_Land_Pattern_Small,2,1,18185248.0,18190718.0,5470.0
150,choice,choice,27,4.0,Object,1.0,53.42925133300014,Object_Sea_Solid_Small,4,1,18193419.0,18194084.0,665.0
150,choice,choice,27,4.0,Object,1.0,53.42925133300014,Object_Sea_Solid_Large,3,1,18194906.0,18195625.0,719.0
150,choice,choice,27,4.0,Object,1.0,53.42925133300014,Object_Sea_Solid_Small,4,1,18195661.0,18196244.0,583.0
150,choice,choice,27,4.0,Object,1.0,53.42925133300014,Object_Land_Pattern_Small,2,1,18196300.0,18196468.0,168.0
150,choice,choice,28,4.0,Sea,1.0,14.44437066699902,Object_Sea_Solid_Large,3,1,18200449.0,18200612.0,163.0
150,choice,choice,28,4.0,Sea,1.0,14.44437066699902,Animal_Land_Pattern_Large,0,0,18201550.0,18203109.0,1559.0
150,choice,choice,28,4.0,Sea,1.0,14.44437066699902,Object_Sea_Solid_Large,3,1,18203226.0,18205002.0,1776.0
150,choice,choice,28,4.0,Sea,1.0,14.44437066699902,Object_Sea_Solid_Small,4,1,18205351.0,18205905.0,554.0
150,choice,choice,28,4.0,Sea,1.0,14.44437066699902,Object_Sea_Solid_Large,3,1,18205948.0,18206608.0,660.0
150,choice,choice,28,4.0,Sea,1.0,14.44437066699902,Animal_Land_Pattern_Large,0,0,18206651.0,18207516.0,865.0
150,choice,choice,28,4.0,Sea,1.0,14.44437066699902,Animal_Sea_Solid_Large,1,1,18207578.0,18208824.0,1246.0
150,choice,choice,28,4.0,Sea,1.0,14.44437066699902,Animal_Land_Pattern_Large,0,0,18208899.0,18209443.0,544.0
150,choice,choice,28,4.0,Sea,1.0,14.44437066699902,Animal_Land_Pattern_Small,5,0,18209673.0,18209896.0,223.0
150,choice,choice,28,4.0,Sea,1.0,14.44437066699902,Object_Sea_Solid_Large,3,1,18210173.0,18210322.0,149.0
150,choice,choice,28,4.0,Sea,1.0,14.44437066699902,Animal_Sea_Solid_Large,1,1,18210345.0,18210553.0,208.0
150,choice,choice,28,4.0,Sea,1.0,14.44437066699902,Object_Sea_Solid_Large,3,1,18210591.0,18212394.0,1803.0
150,choice,choice,28,4.0,Sea,1.0,14.44437066699902,Animal_Land_Pattern_Large,0,0,18212831.0,18213084.0,253.0
150,choice,choice,28,4.0,Sea,1.0,14.44437066699902,Animal_Sea_Solid_Large,1,1,18213108.0,18213400.0,292.0
150,choice,choice,28,4.0,Sea,1.0,14.44437066699902,Animal_Land_Pattern_Large,0,0,18213425.0,18213732.0,307.0
150,choice,choice,29,4.0,Land,1.0,14.007528125001045,Animal_Land_Pattern_Large,0,1,18217249.0,18217746.0,497.0
150,choice,choice,29,4.0,Land,1.0,14.007528125001045,Object_Sea_Solid_Large,3,0,18217788.0,18218054.0,266.0
150,choice,choice,29,4.0,Land,1.0,14.007528125001045,Object_Land_Pattern_Small,2,1,18218135.0,18219403.0,1268.0
150,choice,choice,29,4.0,Land,1.0,14.007528125001045,Animal_Land_Pattern_Small,5,1,18220105.0,18220340.0,235.0
150,choice,choice,29,4.0,Land,1.0,14.007528125001045,Object_Sea_Solid_Small,4,0,18220596.0,18220775.0,179.0
150,choice,choice,29,4.0,Land,1.0,14.007528125001045,Animal_Land_Pattern_Small,5,1,18220827.0,18221342.0,515.0
150,choice,choice,29,4.0,Land,1.0,14.007528125001045,Object_Sea_Solid_Large,3,0,18221420.0,18221780.0,360.0
150,choice,choice,29,4.0,Land,1.0,14.007528125001045,Animal_Land_Pattern_Large,0,1,18221790.0,18222013.0,223.0
150,choice,choice,29,4.0,Land,1.0,14.007528125001045,Animal_Land_Pattern_Small,5,1,18222052.0,18223275.0,1223.0
150,choice,choice,29,4.0,Land,1.0,14.007528125001045,Object_Land_Pattern_Small,2,1,18224088.0,18224311.0,223.0
150,choice,choice,29,4.0,Land,1.0,14.007528125001045,Object_Sea_Solid_Small,4,0,18224804.0,18225388.0,584.0
150,choice,choice,29,4.0,Land,1.0,14.007528125001045,Animal_Sea_Solid_Large,1,0,18226577.0,18226779.0,202.0
150,choice,choice,29,4.0,Land,1.0,14.007528125001045,Animal_Land_Pattern_Large,0,1,18226802.0,18227181.0,379.0
150,choice,choice,29,4.0,Land,1.0,14.007528125001045,Object_Sea_Solid_Small,4,0,18227424.0,18228503.0,1079.0
150,choice,choice,29,4.0,Land,1.0,14.007528125001045,Animal_Land_Pattern_Large,0,1,18229180.0,18229469.0,289.0
150,choice,choice,29,4.0,Land,1.0,14.007528125001045,Object_Sea_Solid_Large,3,0,18229502.0,18230048.0,546.0
150,choice,choice,29,4.0,Land,1.0,14.007528125001045,Animal_Land_Pattern_Large,0,1,18230093.0,18231010.0,917.0
150,choice,choice,30,4.0,Small,2.0,6.336846707999939,Animal_Land_Pattern_Small,5,1,18234518.0,18234757.0,239.0
150,choice,choice,30,4.0,Small,2.0,6.336846707999939,Object_Sea_Solid_Small,4,1,18235006.0,18235894.0,888.0
150,choice,choice,30,4.0,Small,2.0,6.336846707999939,Object_Land_Pattern_Small,2,1,18236307.0,18236494.0,187.0
150,choice,choice,30,4.0,Small,2.0,6.336846707999939,Animal_Sea_Solid_Large,1,0,18236518.0,18236839.0,321.0
150,choice,choice,30,4.0,Small,2.0,6.336846707999939,Object_Land_Pattern_Small,2,1,18236859.0,18237508.0,649.0
150,choice,choice,30,4.0,Small,2.0,6.336846707999939,Animal_Land_Pattern_Small,5,1,18237769.0,18238163.0,394.0
150,choice,choice,30,4.0,Small,2.0,6.336846707999939,Object_Land_Pattern_Small,2,1,18238255.0,18238444.0,189.0
150,choice,choice,30,4.0,Small,2.0,6.336846707999939,Object_Sea_Solid_Large,3,0,18238482.0,18239035.0,553.0
150,choice,choice,30,4.0,Small,2.0,6.336846707999939,Object_Sea_Solid_Small,4,1,18239305.0,18239960.0,655.0
150,choice,choice,30,4.0,Small,2.0,6.336846707999939,Object_Sea_Solid_Large,3,0,18240174.0,18240535.0,361.0
150,choice,choice,31,4.0,Solid,1.0,9.743578499999783,Object_Sea_Solid_Large,3,1,18244790.0,18245058.0,268.0
150,choice,choice,31,4.0,Solid,1.0,9.743578499999783,Animal_Land_Pattern_Large,0,0,18245944.0,18246350.0,406.0
150,choice,choice,31,4.0,Solid,1.0,9.743578499999783,Animal_Sea_Solid_Large,1,1,18246390.0,18248307.0,1917.0
150,choice,choice,31,4.0,Solid,1.0,9.743578499999783,Object_Land_Pattern_Small,2,0,18248580.0,18249208.0,628.0
150,choice,choice,31,4.0,Solid,1.0,9.743578499999783,Animal_Land_Pattern_Small,5,0,18249257.0,18249582.0,325.0
150,choice,choice,31,4.0,Solid,1.0,9.743578499999783,Object_Sea_Solid_Small,4,1,18249609.0,18250479.0,870.0
150,choice,choice,31,4.0,Solid,1.0,9.743578499999783,Object_Sea_Solid_Large,3,1,18250523.0,18251760.0,1237.0
150,choice,choice,31,4.0,Solid,1.0,9.743578499999783,Animal_Sea_Solid_Large,1,1,18251875.0,18252098.0,223.0
150,choice,choice,31,4.0,Solid,1.0,9.743578499999783,Animal_Land_Pattern_Large,0,0,18252111.0,18252427.0,316.0
150,choice,choice,31,4.0,Solid,1.0,9.743578499999783,Animal_Sea_Solid_Large,1,1,18252444.0,18252570.0,126.0
150,choice,choice,31,4.0,Solid,1.0,9.743578499999783,Object_Sea_Solid_Small,4,1,18252936.0,18253398.0,462.0
150,choice,choice,31,4.0,Solid,1.0,9.743578499999783,Animal_Sea_Solid_Large,1,1,18253466.0,18253681.0,215.0
150,choice,choice,32,4.0,Large,1.0,15.354175208001834,Animal_Land_Pattern_Large,0,1,18258096.0,18259854.0,1758.0
150,choice,choice,32,4.0,Large,1.0,15.354175208001834,Object_Sea_Solid_Large,3,1,18260677.0,18260875.0,198.0
150,choice,choice,32,4.0,Large,1.0,15.354175208001834,Animal_Land_Pattern_Large,0,1,18260886.0,18261812.0,926.0
150,choice,choice,32,4.0,Large,1.0,15.354175208001834,Animal_Sea_Solid_Large,1,1,18261889.0,18262823.0,934.0
150,choice,choice,32,4.0,Large,1.0,15.354175208001834,Animal_Land_Pattern_Large,0,1,18262881.0,18263756.0,875.0
150,choice,choice,32,4.0,Large,1.0,15.354175208001834,Animal_Sea_Solid_Large,1,1,18263976.0,18264577.0,601.0
150,choice,choice,32,4.0,Large,1.0,15.354175208001834,Animal_Land_Pattern_Large,0,1,18264611.0,18264895.0,284.0
150,choice,choice,32,4.0,Large,1.0,15.354175208001834,Object_Land_Pattern_Small,2,0,18264928.0,18265186.0,258.0
150,choice,choice,32,4.0,Large,1.0,15.354175208001834,Animal_Land_Pattern_Small,5,0,18265222.0,18265444.0,222.0
150,choice,choice,32,4.0,Large,1.0,15.354175208001834,Object_Sea_Solid_Small,4,0,18265463.0,18266008.0,545.0
150,choice,choice,32,4.0,Large,1.0,15.354175208001834,Object_Sea_Solid_Large,3,1,18266054.0,18267234.0,1180.0
150,choice,choice,32,4.0,Large,1.0,15.354175208001834,Animal_Land_Pattern_Large,0,1,18267342.0,18267488.0,146.0
150,choice,choice,32,4.0,Large,1.0,15.354175208001834,Object_Sea_Solid_Large,3,1,18267514.0,18268368.0,854.0
150,choice,choice,32,4.0,Large,1.0,15.354175208001834,Animal_Land_Pattern_Large,0,1,18268440.0,18269214.0,774.0
150,choice,choice,32,4.0,Large,1.0,15.354175208001834,Object_Sea_Solid_Large,3,1,18269256.0,18269672.0,416.0
150,choice,choice,32,4.0,Large,1.0,15.354175208001834,Animal_Land_Pattern_Large,0,1,18269737.0,18269923.0,186.0
150,choice,choice,32,4.0,Large,1.0,15.354175208001834,Animal_Sea_Solid_Large,1,1,18269943.0,18270202.0,259.0
150,choice,choice,32,4.0,Large,1.0,15.354175208001834,Animal_Land_Pattern_Large,0,1,18270223.0,18270449.0,226.0
150,choice,choice,32,4.0,Large,1.0,15.354175208001834,Animal_Sea_Solid_Large,1,1,18270466.0,18270837.0,371.0
150,choice,choice,32,4.0,Large,1.0,15.354175208001834,Animal_Land_Pattern_Large,0,1,18270854.0,18271517.0,663.0
150,choice,choice,33,5.0,Land,2.0,25.514274542001655,Object_Sea_Pattern_Large,0,0,18550557.0,18551911.0,1354.0
150,choice,choice,33,5.0,Land,2.0,25.514274542001655,Animal_Land_Solid_Small,1,1,18553538.0,18554089.0,551.0
150,choice,choice,33,5.0,Land,2.0,25.514274542001655,Animal_Land_Solid_Large,2,1,18554132.0,18554388.0,256.0
150,choice,choice,33,5.0,Land,2.0,25.514274542001655,Object_Sea_Pattern_Large,0,0,18554413.0,18554777.0,364.0
150,choice,choice,33,5.0,Land,2.0,25.514274542001655,Animal_Land_Solid_Large,2,1,18554792.0,18555189.0,397.0
150,choice,choice,33,5.0,Land,2.0,25.514274542001655,Object_Sea_Pattern_Small,3,0,18555612.0,18556441.0,829.0
150,choice,choice,33,5.0,Land,2.0,25.514274542001655,Object_Land_Solid_Large,4,1,18556685.0,18557204.0,519.0
150,choice,choice,33,5.0,Land,2.0,25.514274542001655,Object_Sea_Pattern_Small,3,0,18557254.0,18557538.0,284.0
150,choice,choice,33,5.0,Land,2.0,25.514274542001655,Object_Land_Solid_Large,4,1,18557560.0,18558389.0,829.0
150,choice,choice,33,5.0,Land,2.0,25.514274542001655,Animal_Sea_Pattern_Small,5,0,18559335.0,18560589.0,1254.0
150,choice,choice,33,5.0,Land,2.0,25.514274542001655,Object_Sea_Pattern_Large,0,0,18560627.0,18561355.0,728.0
150,choice,choice,33,5.0,Land,2.0,25.514274542001655,Animal_Land_Solid_Small,1,1,18561410.0,18562493.0,1083.0
150,choice,choice,33,5.0,Land,2.0,25.514274542001655,Object_Sea_Pattern_Large,0,0,18562700.0,18563802.0,1102.0
150,choice,choice,33,5.0,Land,2.0,25.514274542001655,Animal_Land_Solid_Small,1,1,18563836.0,18564331.0,495.0
150,choice,choice,33,5.0,Land,2.0,25.514274542001655,Object_Sea_Pattern_Large,0,0,18564372.0,18564928.0,556.0
150,choice,choice,33,5.0,Land,2.0,25.514274542001655,Animal_Land_Solid_Small,1,1,18564944.0,18566012.0,1068.0
150,choice,choice,33,5.0,Land,2.0,25.514274542001655,Object_Sea_Pattern_Large,0,0,18566059.0,18566239.0,180.0
150,choice,choice,33,5.0,Land,2.0,25.514274542001655,Animal_Land_Solid_Small,1,1,18566429.0,18566679.0,250.0
150,choice,choice,33,5.0,Land,2.0,25.514274542001655,Animal_Land_Solid_Large,2,1,18567242.0,18567490.0,248.0
150,choice,choice,33,5.0,Land,2.0,25.514274542001655,Object_Sea_Pattern_Small,3,0,18567510.0,18567707.0,197.0
150,choice,choice,33,5.0,Land,2.0,25.514274542001655,Animal_Land_Solid_Large,2,1,18567729.0,18568482.0,753.0
150,choice,choice,33,5.0,Land,2.0,25.514274542001655,Animal_Land_Solid_Small,1,1,18568514.0,18568800.0,286.0
150,choice,choice,33,5.0,Land,2.0,25.514274542001655,Animal_Land_Solid_Large,2,1,18568810.0,18569158.0,348.0
150,choice,choice,33,5.0,Land,2.0,25.514274542001655,Animal_Sea_Pattern_Small,5,0,18569553.0,18569727.0,174.0
150,choice,choice,33,5.0,Land,2.0,25.514274542001655,Object_Land_Solid_Large,4,1,18569749.0,18570319.0,570.0
150,choice,choice,33,5.0,Land,2.0,25.514274542001655,Animal_Land_Solid_Small,1,1,18570362.0,18570858.0,496.0
150,choice,choice,33,5.0,Land,2.0,25.514274542001655,Object_Land_Solid_Large,4,1,18570943.0,18571309.0,366.0
150,choice,choice,33,5.0,Land,2.0,25.514274542001655,Animal_Land_Solid_Small,1,1,18571361.0,18571783.0,422.0
150,choice,choice,33,5.0,Land,2.0,25.514274542001655,Animal_Sea_Pattern_Small,5,0,18571838.0,18572122.0,284.0
150,choice,choice,33,5.0,Land,2.0,25.514274542001655,Object_Land_Solid_Large,4,1,18572142.0,18572412.0,270.0
150,choice,choice,33,5.0,Land,2.0,25.514274542001655,Animal_Land_Solid_Small,1,1,18572659.0,18573037.0,378.0
150,choice,choice,33,5.0,Land,2.0,25.514274542001655,Object_Land_Solid_Large,4,1,18573083.0,18573661.0,578.0
150,choice,choice,33,5.0,Land,2.0,25.514274542001655,Animal_Land_Solid_Large,2,1,18574076.0,18574560.0,484.0
150,choice,choice,34,5.0,Large,2.0,16.221718791999592,Object_Land_Solid_Large,4,1,18578666.0,18578985.0,319.0
150,choice,choice,34,5.0,Large,2.0,16.221718791999592,Animal_Land_Solid_Large,2,1,18579501.0,18579688.0,187.0
150,choice,choice,34,5.0,Large,2.0,16.221718791999592,Object_Land_Solid_Large,4,1,18579722.0,18580075.0,353.0
150,choice,choice,34,5.0,Large,2.0,16.221718791999592,Object_Sea_Pattern_Large,0,1,18580140.0,18581099.0,959.0
150,choice,choice,34,5.0,Large,2.0,16.221718791999592,Object_Land_Solid_Large,4,1,18581162.0,18581394.0,232.0
150,choice,choice,34,5.0,Large,2.0,16.221718791999592,Animal_Sea_Pattern_Small,5,0,18581419.0,18583043.0,1624.0
150,choice,choice,34,5.0,Large,2.0,16.221718791999592,Object_Sea_Pattern_Large,0,1,18583165.0,18583383.0,218.0
150,choice,choice,34,5.0,Large,2.0,16.221718791999592,Animal_Land_Solid_Small,1,0,18583403.0,18583695.0,292.0
150,choice,choice,34,5.0,Large,2.0,16.221718791999592,Animal_Sea_Pattern_Small,5,0,18583731.0,18585057.0,1326.0
150,choice,choice,34,5.0,Large,2.0,16.221718791999592,Object_Land_Solid_Large,4,1,18585169.0,18585389.0,220.0
150,choice,choice,34,5.0,Large,2.0,16.221718791999592,Object_Sea_Pattern_Small,3,0,18585620.0,18586104.0,484.0
150,choice,choice,34,5.0,Large,2.0,16.221718791999592,Object_Sea_Pattern_Large,0,1,18586147.0,18588412.0,2265.0
150,choice,choice,34,5.0,Large,2.0,16.221718791999592,Object_Land_Solid_Large,4,1,18588866.0,18590568.0,1702.0
150,choice,choice,34,5.0,Large,2.0,16.221718791999592,Object_Sea_Pattern_Large,0,1,18590878.0,18591059.0,181.0
150,choice,choice,34,5.0,Large,2.0,16.221718791999592,Object_Land_Solid_Large,4,1,18591113.0,18593274.0,2161.0
150,choice,choice,34,5.0,Large,2.0,16.221718791999592,Animal_Land_Solid_Large,2,1,18593379.0,18593762.0,383.0
150,choice,choice,35,5.0,Object,1.0,10.382180915999925,Object_Land_Solid_Large,4,1,18597677.0,18597855.0,178.0
150,choice,choice,35,5.0,Object,1.0,10.382180915999925,Animal_Land_Solid_Large,2,0,18597909.0,18598383.0,474.0
150,choice,choice,35,5.0,Object,1.0,10.382180915999925,Object_Sea_Pattern_Small,3,1,18598443.0,18598695.0,252.0
150,choice,choice,35,5.0,Object,1.0,10.382180915999925,Object_Land_Solid_Large,4,1,18598918.0,18599099.0,181.0
150,choice,choice,35,5.0,Object,1.0,10.382180915999925,Object_Sea_Pattern_Small,3,1,18599677.0,18600010.0,333.0
150,choice,choice,35,5.0,Object,1.0,10.382180915999925,Object_Land_Solid_Large,4,1,18600034.0,18600227.0,193.0
150,choice,choice,35,5.0,Object,1.0,10.382180915999925,Animal_Sea_Pattern_Small,5,0,18600254.0,18600448.0,194.0
150,choice,choice,35,5.0,Object,1.0,10.382180915999925,Object_Sea_Pattern_Large,0,1,18600469.0,18600714.0,245.0
150,choice,choice,35,5.0,Object,1.0,10.382180915999925,Animal_Sea_Pattern_Small,5,0,18600734.0,18601035.0,301.0
150,choice,choice,35,5.0,Object,1.0,10.382180915999925,Animal_Land_Solid_Small,1,0,18601060.0,18602206.0,1146.0
150,choice,choice,35,5.0,Object,1.0,10.382180915999925,Object_Sea_Pattern_Large,0,1,18602245.0,18602444.0,199.0
150,choice,choice,35,5.0,Object,1.0,10.382180915999925,Animal_Sea_Pattern_Small,5,0,18602480.0,18602710.0,230.0
150,choice,choice,35,5.0,Object,1.0,10.382180915999925,Object_Sea_Pattern_Small,3,1,18603692.0,18604865.0,1173.0
150,choice,choice,35,5.0,Object,1.0,10.382180915999925,Object_Sea_Pattern_Large,0,1,18605377.0,18606060.0,683.0
150,choice,choice,35,5.0,Object,1.0,10.382180915999925,Object_Land_Solid_Large,4,1,18606120.0,18606395.0,275.0
150,choice,choice,35,5.0,Object,1.0,10.382180915999925,Animal_Sea_Pattern_Small,5,0,18606418.0,18606694.0,276.0
150,choice,choice,35,5.0,Object,1.0,10.382180915999925,Object_Land_Solid_Large,4,1,18606730.0,18607412.0,682.0
150,choice,choice,36,5.0,Small,2.0,20.332863040999655,Object_Sea_Pattern_Large,0,0,18612831.0,18613418.0,587.0
150,choice,choice,36,5.0,Small,2.0,20.332863040999655,Animal_Land_Solid_Small,1,1,18613439.0,18615299.0,1860.0
150,choice,choice,36,5.0,Small,2.0,20.332863040999655,Animal_Land_Solid_Large,2,0,18615533.0,18615945.0,412.0
150,choice,choice,36,5.0,Small,2.0,20.332863040999655,Animal_Land_Solid_Small,1,1,18616673.0,18616939.0,266.0
150,choice,choice,36,5.0,Small,2.0,20.332863040999655,Object_Sea_Pattern_Small,3,1,18617285.0,18617432.0,147.0
150,choice,choice,36,5.0,Small,2.0,20.332863040999655,Animal_Land_Solid_Large,2,0,18618073.0,18618303.0,230.0
150,choice,choice,36,5.0,Small,2.0,20.332863040999655,Animal_Land_Solid_Small,1,1,18618328.0,18619975.0,1647.0
150,choice,choice,36,5.0,Small,2.0,20.332863040999655,Object_Sea_Pattern_Small,3,1,18620353.0,18620695.0,342.0
150,choice,choice,36,5.0,Small,2.0,20.332863040999655,Object_Land_Solid_Large,4,0,18620719.0,18621402.0,683.0
150,choice,choice,36,5.0,Small,2.0,20.332863040999655,Animal_Sea_Pattern_Small,5,1,18621464.0,18622405.0,941.0
150,choice,choice,36,5.0,Small,2.0,20.332863040999655,Object_Sea_Pattern_Large,0,0,18622457.0,18622824.0,367.0
150,choice,choice,36,5.0,Small,2.0,20.332863040999655,Object_Sea_Pattern_Small,3,1,18622868.0,18625063.0,2195.0
150,choice,choice,36,5.0,Small,2.0,20.332863040999655,Animal_Sea_Pattern_Small,5,1,18625424.0,18626922.0,1498.0
150,choice,choice,36,5.0,Small,2.0,20.332863040999655,Object_Land_Solid_Large,4,0,18627467.0,18627710.0,243.0
150,choice,choice,36,5.0,Small,2.0,20.332863040999655,Object_Sea_Pattern_Small,3,1,18627716.0,18627857.0,141.0
150,choice,choice,36,5.0,Small,2.0,20.332863040999655,Object_Land_Solid_Large,4,0,18628236.0,18628426.0,190.0
150,choice,choice,36,5.0,Small,2.0,20.332863040999655,Animal_Sea_Pattern_Small,5,1,18628452.0,18628693.0,241.0
150,choice,choice,36,5.0,Small,2.0,20.332863040999655,Object_Sea_Pattern_Large,0,0,18628715.0,18628969.0,254.0
150,choice,choice,36,5.0,Small,2.0,20.332863040999655,Animal_Land_Solid_Small,1,1,18629000.0,18629421.0,421.0
150,choice,choice,36,5.0,Small,2.0,20.332863040999655,Object_Sea_Pattern_Large,0,0,18629440.0,18629712.0,272.0
150,choice,choice,36,5.0,Small,2.0,20.332863040999655,Animal_Land_Solid_Small,1,1,18629735.0,18630382.0,647.0
150,choice,choice,36,5.0,Small,2.0,20.332863040999655,Animal_Sea_Pattern_Small,5,1,18630448.0,18630670.0,222.0
150,choice,choice,36,5.0,Small,2.0,20.332863040999655,Object_Land_Solid_Large,4,0,18630975.0,18631298.0,323.0
150,choice,choice,37,5.0,Animal,2.0,4.231366624997463,Animal_Sea_Pattern_Small,5,1,18634573.0,18634982.0,409.0
150,choice,choice,37,5.0,Animal,2.0,4.231366624997463,Object_Sea_Pattern_Large,0,0,18635003.0,18635296.0,293.0
150,choice,choice,37,5.0,Animal,2.0,4.231366624997463,Object_Sea_Pattern_Small,3,0,18636230.0,18637262.0,1032.0
150,choice,choice,37,5.0,Animal,2.0,4.231366624997463,Object_Land_Solid_Large,4,0,18637307.0,18637723.0,416.0
150,choice,choice,37,5.0,Animal,2.0,4.231366624997463,Animal_Land_Solid_Small,1,1,18637760.0,18638266.0,506.0
150,choice,choice,38,5.0,Pattern,2.0,10.285687957999473,Object_Sea_Pattern_Large,0,1,18642465.0,18644130.0,1665.0
150,choice,choice,38,5.0,Pattern,2.0,10.285687957999473,Object_Sea_Pattern_Small,3,1,18644234.0,18645511.0,1277.0
150,choice,choice,38,5.0,Pattern,2.0,10.285687957999473,Object_Sea_Pattern_Large,0,1,18645851.0,18646459.0,608.0
150,choice,choice,38,5.0,Pattern,2.0,10.285687957999473,Animal_Sea_Pattern_Small,5,1,18646666.0,18647088.0,422.0
150,choice,choice,38,5.0,Pattern,2.0,10.285687957999473,Object_Sea_Pattern_Large,0,1,18647109.0,18647417.0,308.0
150,choice,choice,38,5.0,Pattern,2.0,10.285687957999473,Animal_Land_Solid_Small,1,0,18647437.0,18647711.0,274.0
150,choice,choice,38,5.0,Pattern,2.0,10.285687957999473,Animal_Sea_Pattern_Small,5,1,18647741.0,18647978.0,237.0
150,choice,choice,38,5.0,Pattern,2.0,10.285687957999473,Object_Sea_Pattern_Large,0,1,18647995.0,18648277.0,282.0
150,choice,choice,38,5.0,Pattern,2.0,10.285687957999473,Animal_Sea_Pattern_Small,5,1,18648306.0,18649706.0,1400.0
150,choice,choice,38,5.0,Pattern,2.0,10.285687957999473,Object_Sea_Pattern_Large,0,1,18649793.0,18649908.0,115.0
150,choice,choice,38,5.0,Pattern,2.0,10.285687957999473,Animal_Sea_Pattern_Small,5,1,18650084.0,18652062.0,1978.0
150,choice,choice,39,5.0,Solid,2.0,12.422288166999351,Object_Sea_Pattern_Large,0,0,18657325.0,18657837.0,512.0
150,choice,choice,39,5.0,Solid,2.0,12.422288166999351,Animal_Sea_Pattern_Small,5,0,18657857.0,18659507.0,1650.0
150,choice,choice,39,5.0,Solid,2.0,12.422288166999351,Object_Sea_Pattern_Large,0,0,18659588.0,18659996.0,408.0
150,choice,choice,39,5.0,Solid,2.0,12.422288166999351,Animal_Sea_Pattern_Small,5,0,18660057.0,18660890.0,833.0
150,choice,choice,39,5.0,Solid,2.0,12.422288166999351,Object_Sea_Pattern_Large,0,0,18660963.0,18661206.0,243.0
150,choice,choice,39,5.0,Solid,2.0,12.422288166999351,Animal_Land_Solid_Small,1,1,18661229.0,18662462.0,1233.0
150,choice,choice,39,5.0,Solid,2.0,12.422288166999351,Object_Sea_Pattern_Large,0,0,18662643.0,18662889.0,246.0
150,choice,choice,39,5.0,Solid,2.0,12.422288166999351,Object_Land_Solid_Large,4,1,18662933.0,18664328.0,1395.0
150,choice,choice,39,5.0,Solid,2.0,12.422288166999351,Animal_Sea_Pattern_Small,5,0,18664403.0,18664624.0,221.0
150,choice,choice,39,5.0,Solid,2.0,12.422288166999351,Animal_Land_Solid_Small,1,1,18664644.0,18665068.0,424.0
150,choice,choice,39,5.0,Solid,2.0,12.422288166999351,Animal_Sea_Pattern_Small,5,0,18665091.0,18665254.0,163.0
150,choice,choice,39,5.0,Solid,2.0,12.422288166999351,Animal_Land_Solid_Small,1,1,18665276.0,18665845.0,569.0
150,choice,choice,39,5.0,Solid,2.0,12.422288166999351,Object_Land_Solid_Large,4,1,18665890.0,18666595.0,705.0
150,choice,choice,39,5.0,Solid,2.0,12.422288166999351,Animal_Land_Solid_Small,1,1,18666859.0,18667478.0,619.0
150,choice,choice,40,5.0,Sea,2.0,11.012248415998329,Object_Sea_Pattern_Large,0,1,18675971.0,18677738.0,1767.0
150,choice,choice,40,5.0,Sea,2.0,11.012248415998329,Animal_Land_Solid_Small,1,0,18678054.0,18678244.0,190.0
150,choice,choice,40,5.0,Sea,2.0,11.012248415998329,Object_Sea_Pattern_Large,0,1,18678274.0,18678617.0,343.0
150,choice,choice,40,5.0,Sea,2.0,11.012248415998329,Animal_Sea_Pattern_Small,5,1,18678636.0,18679146.0,510.0
150,choice,choice,40,5.0,Sea,2.0,11.012248415998329,Object_Land_Solid_Large,4,0,18679191.0,18680019.0,828.0
150,choice,choice,40,5.0,Sea,2.0,11.012248415998329,Animal_Sea_Pattern_Small,5,1,18680057.0,18681750.0,1693.0
150,choice,choice,40,5.0,Sea,2.0,11.012248415998329,Object_Land_Solid_Large,4,0,18682015.0,18682248.0,233.0
150,choice,choice,40,5.0,Sea,2.0,11.012248415998329,Animal_Sea_Pattern_Small,5,1,18682273.0,18682524.0,251.0
150,choice,choice,41,6.0,Object,1.0,63.97941387500032,Object_Land_Pattern_Large,0,1,18968102.0,18971153.0,3051.0
150,choice,choice,41,6.0,Object,1.0,63.97941387500032,Animal_Sea_Pattern_Small,1,0,18971887.0,18973498.0,1611.0
150,choice,choice,41,6.0,Object,1.0,63.97941387500032,Object_Land_Pattern_Large,0,1,18973759.0,18976595.0,2836.0
150,choice,choice,41,6.0,Object,1.0,63.97941387500032,Object_Land_Solid_Small,2,1,18976875.0,18978293.0,1418.0
150,choice,choice,41,6.0,Object,1.0,63.97941387500032,Object_Land_Pattern_Large,0,1,18979095.0,18979415.0,320.0
150,choice,choice,41,6.0,Object,1.0,63.97941387500032,Animal_Sea_Pattern_Large,3,0,18979666.0,18980357.0,691.0
150,choice,choice,41,6.0,Object,1.0,63.97941387500032,Animal_Sea_Pattern_Small,1,0,18980420.0,18980724.0,304.0
150,choice,choice,41,6.0,Object,1.0,63.97941387500032,Object_Land_Solid_Large,4,1,18980762.0,18981579.0,817.0
150,choice,choice,41,6.0,Object,1.0,63.97941387500032,Animal_Sea_Pattern_Small,1,0,18981818.0,18982183.0,365.0
150,choice,choice,41,6.0,Object,1.0,63.97941387500032,Object_Land_Solid_Large,4,1,18982197.0,18982377.0,180.0
150,choice,choice,41,6.0,Object,1.0,63.97941387500032,Animal_Sea_Pattern_Small,1,0,18982614.0,18982832.0,218.0
150,choice,choice,41,6.0,Object,1.0,63.97941387500032,Object_Land_Solid_Large,4,1,18982850.0,18984484.0,1634.0
150,choice,choice,41,6.0,Object,1.0,63.97941387500032,Animal_Sea_Pattern_Small,1,0,18984736.0,18987879.0,3143.0
150,choice,choice,41,6.0,Object,1.0,63.97941387500032,Object_Land_Pattern_Large,0,1,18988042.0,18988567.0,525.0
150,choice,choice,41,6.0,Object,1.0,63.97941387500032,Animal_Sea_Pattern_Small,1,0,18988734.0,18989776.0,1042.0
150,choice,choice,41,6.0,Object,1.0,63.97941387500032,Object_Land_Pattern_Large,0,1,18989833.0,18990066.0,233.0
150,choice,choice,41,6.0,Object,1.0,63.97941387500032,Animal_Sea_Pattern_Small,1,0,18990095.0,18990300.0,205.0
150,choice,choice,41,6.0,Object,1.0,63.97941387500032,Object_Land_Pattern_Large,0,1,18990328.0,18991581.0,1253.0
150,choice,choice,41,6.0,Object,1.0,63.97941387500032,Animal_Sea_Pattern_Small,1,0,18991638.0,18991882.0,244.0
150,choice,choice,41,6.0,Object,1.0,63.97941387500032,Object_Land_Solid_Large,4,1,18991901.0,18992434.0,533.0
150,choice,choice,41,6.0,Object,1.0,63.97941387500032,Object_Land_Solid_Small,2,1,18992667.0,18993396.0,729.0
150,choice,choice,41,6.0,Object,1.0,63.97941387500032,Object_Land_Pattern_Large,0,1,18993430.0,18995091.0,1661.0
150,choice,choice,41,6.0,Object,1.0,63.97941387500032,Animal_Sea_Solid_Small,5,0,18995452.0,18996520.0,1068.0
150,choice,choice,41,6.0,Object,1.0,63.97941387500032,Object_Land_Solid_Small,2,1,18999543.0,18999695.0,152.0
150,choice,choice,41,6.0,Object,1.0,63.97941387500032,Animal_Sea_Solid_Small,5,0,19000590.0,19001974.0,1384.0
150,choice,choice,41,6.0,Object,1.0,63.97941387500032,Animal_Sea_Pattern_Large,3,0,19002814.0,19002941.0,127.0
150,choice,choice,41,6.0,Object,1.0,63.97941387500032,Object_Land_Pattern_Large,0,1,19003419.0,19003708.0,289.0
150,choice,choice,41,6.0,Object,1.0,63.97941387500032,Object_Land_Solid_Small,2,1,19003747.0,19003957.0,210.0
150,choice,choice,41,6.0,Object,1.0,63.97941387500032,Animal_Sea_Pattern_Large,3,0,19003996.0,19005246.0,1250.0
150,choice,choice,41,6.0,Object,1.0,63.97941387500032,Object_Land_Solid_Small,2,1,19005553.0,19006189.0,636.0
150,choice,choice,41,6.0,Object,1.0,63.97941387500032,Animal_Sea_Solid_Small,5,0,19006251.0,19006757.0,506.0
150,choice,choice,41,6.0,Object,1.0,63.97941387500032,Object_Land_Solid_Large,4,1,19007573.0,19008512.0,939.0
150,choice,choice,41,6.0,Object,1.0,63.97941387500032,Animal_Sea_Pattern_Large,3,0,19008589.0,19008824.0,235.0
150,choice,choice,41,6.0,Object,1.0,63.97941387500032,Object_Land_Pattern_Large,0,1,19009367.0,19009527.0,160.0
150,choice,choice,41,6.0,Object,1.0,63.97941387500032,Animal_Sea_Pattern_Large,3,0,19010579.0,19010885.0,306.0
150,choice,choice,41,6.0,Object,1.0,63.97941387500032,Object_Land_Solid_Large,4,1,19010903.0,19011437.0,534.0
150,choice,choice,41,6.0,Object,1.0,63.97941387500032,Animal_Sea_Pattern_Large,3,0,19011464.0,19011703.0,239.0
150,choice,choice,41,6.0,Object,1.0,63.97941387500032,Object_Land_Pattern_Large,0,1,19011731.0,19012838.0,1107.0
150,choice,choice,41,6.0,Object,1.0,63.97941387500032,Animal_Sea_Pattern_Small,1,0,19012911.0,19013189.0,278.0
150,choice,choice,41,6.0,Object,1.0,63.97941387500032,Object_Land_Pattern_Large,0,1,19013209.0,19013448.0,239.0
150,choice,choice,41,6.0,Object,1.0,63.97941387500032,Animal_Sea_Pattern_Large,3,0,19014384.0,19014869.0,485.0
150,choice,choice,41,6.0,Object,1.0,63.97941387500032,Object_Land_Pattern_Large,0,1,19016782.0,19020133.0,3351.0
150,choice,choice,41,6.0,Object,1.0,63.97941387500032,Animal_Sea_Pattern_Small,1,0,19021203.0,19021434.0,231.0
150,choice,choice,41,6.0,Object,1.0,63.97941387500032,Object_Land_Solid_Large,4,1,19021842.0,19022326.0,484.0
150,choice,choice,41,6.0,Object,1.0,63.97941387500032,Animal_Sea_Pattern_Small,1,0,19022349.0,19024324.0,1975.0
150,choice,choice,41,6.0,Object,1.0,63.97941387500032,Object_Land_Solid_Small,2,1,19024459.0,19025557.0,1098.0
150,choice,choice,41,6.0,Object,1.0,63.97941387500032,Object_Land_Pattern_Large,0,1,19025614.0,19026892.0,1278.0
150,choice,choice,41,6.0,Object,1.0,63.97941387500032,Object_Land_Solid_Small,2,1,19027262.0,19027879.0,617.0
150,choice,choice,41,6.0,Object,1.0,63.97941387500032,Animal_Sea_Pattern_Small,1,0,19027898.0,19028075.0,177.0
150,choice,choice,41,6.0,Object,1.0,63.97941387500032,Object_Land_Solid_Large,4,1,19028098.0,19029221.0,1123.0
150,choice,choice,41,6.0,Object,1.0,63.97941387500032,Animal_Sea_Pattern_Small,1,0,19029299.0,19029568.0,269.0
150,choice,choice,41,6.0,Object,1.0,63.97941387500032,Object_Land_Solid_Large,4,1,19029589.0,19031005.0,1416.0
150,choice,choice,41,6.0,Object,1.0,63.97941387500032,Object_Land_Pattern_Large,0,1,19031045.0,19031800.0,755.0
150,choice,choice,42,6.0,Small,2.0,16.948476542002027,Object_Land_Pattern_Large,0,0,19035407.0,19036358.0,951.0
150,choice,choice,42,6.0,Small,2.0,16.948476542002027,Object_Land_Solid_Small,2,1,19036430.0,19036882.0,452.0
150,choice,choice,42,6.0,Small,2.0,16.948476542002027,Animal_Sea_Solid_Small,5,1,19037146.0,19037802.0,656.0
150,choice,choice,42,6.0,Small,2.0,16.948476542002027,Animal_Sea_Pattern_Large,3,0,19038143.0,19038588.0,445.0
150,choice,choice,42,6.0,Small,2.0,16.948476542002027,Object_Land_Solid_Large,4,0,19038652.0,19040125.0,1473.0
150,choice,choice,42,6.0,Small,2.0,16.948476542002027,Object_Land_Pattern_Large,0,0,19040384.0,19040581.0,197.0
150,choice,choice,42,6.0,Small,2.0,16.948476542002027,Animal_Sea_Pattern_Small,1,1,19040604.0,19040924.0,320.0
150,choice,choice,42,6.0,Small,2.0,16.948476542002027,Object_Land_Pattern_Large,0,0,19040952.0,19041333.0,381.0
150,choice,choice,42,6.0,Small,2.0,16.948476542002027,Object_Land_Solid_Small,2,1,19041372.0,19042015.0,643.0
150,choice,choice,42,6.0,Small,2.0,16.948476542002027,Object_Land_Pattern_Large,0,0,19042057.0,19042436.0,379.0
150,choice,choice,42,6.0,Small,2.0,16.948476542002027,Object_Land_Solid_Small,2,1,19042609.0,19042797.0,188.0
