phase,event,onset,offset,trial_number,game,image,outcome,choice,correct,rt,letter,match,response,option,true_value,true_position,recalled_position,
encoding,fixation,19.714476291999745,20.47659137499977,1,1,Animal_Land_Pattern_Small,3,,,,,,,,,,,
encoding,image,20.476812541999607,21.49443699999938,1,1,Animal_Land_Pattern_Small,3,,,,,,,,,,,
encoding,value,21.494608249999146,27.509250958999473,1,1,Animal_Land_Pattern_Small,3,,,,,,,,,,,
encoding,attention,27.509399791999385,30.52732033400025,1,1,Animal_Land_Pattern_Small,3,+3,1,1.3566834169996582,,,,,,,,
encoding,fixation,30.52752049999981,31.28282641700025,2,1,Animal_Sea_Solid_Large,-2,,,,,,,,,,,
encoding,image,31.282972917000734,32.294670916999166,2,1,Animal_Sea_Solid_Large,-2,,,,,,,,,,,
encoding,value,32.2947938340003,38.30719924999903,2,1,Animal_Sea_Solid_Large,-2,,,,,,,,,,,
encoding,attention,38.30732374999934,41.325181374999374,2,1,Animal_Sea_Solid_Large,-2,-2,1,0.9167850829999225,,,,,,,,
encoding,fixation,41.32536149999942,42.08338479200029,3,1,Object_Land_Pattern_Small,-9,,,,,,,,,,,
encoding,image,42.083503500000006,43.09553854200021,3,1,Object_Land_Pattern_Small,-9,,,,,,,,,,,
encoding,value,43.09565679200023,49.10864170899913,3,1,Object_Land_Pattern_Small,-9,,,,,,,,,,,
encoding,attention,49.10877641700063,52.12948529200003,3,1,Object_Land_Pattern_Small,-9,-9,1,1.136556790999748,,,,,,,,
encoding,fixation,52.12964416700015,53.13479083399943,4,1,Animal_Land_Pattern_Large,4,,,,,,,,,,,
encoding,image,53.134916999999405,54.15024900000026,4,1,Animal_Land_Pattern_Large,4,,,,,,,,,,,
encoding,value,54.15036904199951,60.1616439999998,4,1,Animal_Land_Pattern_Large,4,,,,,,,,,,,
encoding,attention,60.1617643339996,63.178316749999794,4,1,Animal_Land_Pattern_Large,4,+4,1,1.0551755000014964,,,,,,,,
encoding,fixation,63.178473542000575,64.43376591699962,5,1,Object_Sea_Solid_Large,-3,,,,,,,,,,,
encoding,image,64.43387787500069,65.44495395900049,5,1,Object_Sea_Solid_Large,-3,,,,,,,,,,,
encoding,value,65.44506899999942,71.45672179199937,5,1,Object_Sea_Solid_Large,-3,,,,,,,,,,,
encoding,attention,71.45683383399955,74.5263175,5,1,Object_Sea_Solid_Large,-3,-3,1,0.667118291999941,,,,,,,,
encoding,fixation,74.52656445899993,76.03313250000065,6,1,Object_Sea_Solid_Small,7,,,,,,,,,,,
encoding,image,76.03331991699997,77.04473074999987,6,1,Object_Sea_Solid_Small,7,,,,,,,,,,,
encoding,value,77.04485358400052,83.055161667,6,1,Object_Sea_Solid_Small,7,,,,,,,,,,,
encoding,attention,83.0552755839999,86.07302916700064,6,1,Object_Sea_Solid_Small,7,+7,1,1.1683920830000716,,,,,,,,
n-back,,,,1,1,,,,0,None,Z,True,None,,,,,
n-back,,,,2,1,,,,1,None,C,False,None,,,,,
n-back,,,,3,1,,,,1,None,V,False,None,,,,,
n-back,,,,4,1,,,,1,0.6926972499986732,C,True,1,,,,,
n-back,,,,5,1,,,,1,None,C,False,None,,,,,
n-back,,,,6,1,,,,1,None,N,False,None,,,,,
n-back,,,,7,1,,,,1,None,N,False,None,,,,,
n-back,,,,8,1,,,,0,None,N,True,None,,,,,
n-back,,,,9,1,,,,1,None,V,False,None,,,,,
n-back,,,,10,1,,,,1,None,C,False,None,,,,,
n-back,,,,11,1,,,,1,0.4477614170009474,V,True,1,,,,,
n-back,,,,12,1,,,,1,None,B,False,None,,,,,
n-back,,,,13,1,,,,1,None,N,False,None,,,,,
n-back,,,,14,1,,,,1,None,Z,False,None,,,,,
n-back,,,,15,1,,,,0,None,N,True,None,,,,,
n-back,,,,16,1,,,,1,None,N,False,None,,,,,
n-back,,,,17,1,,,,1,None,Z,False,None,,,,,
n-back,,,,18,1,,,,1,None,Z,False,None,,,,,
n-back,,,,19,1,,,,1,None,X,False,None,,,,,
n-back,,,,20,1,,,,1,0.4150638749997597,Z,True,1,,,,,
n-back,,,,21,1,,,,1,None,V,False,None,,,,,
n-back,,,,22,1,,,,1,None,V,False,None,,,,,
n-back,,,,23,1,,,,1,None,Z,False,None,,,,,
n-back,,,,24,1,,,,1,0.4589582079988759,V,True,1,,,,,
n-back,,,,25,1,,,,0,None,Z,True,None,,,,,
n-back,,,,26,1,,,,1,None,C,False,None,,,,,
n-back,,,,27,1,,,,1,None,B,False,None,,,,,
n-back,,,,28,1,,,,1,None,N,False,None,,,,,
n-back,,,,29,1,,,,0,None,B,True,None,,,,,
n-back,,,,30,1,,,,0,None,N,True,None,,,,,
choice,fixation,179.6684275839998,180.67471495899917,1,1,,,,,,,,,Object,,,,
choice,option,180.68488008399981,181.80015549999916,1,1,,,,,,,,,Object,,,,
choice,choice,181.80028524999943,223.61141062500064,1,1,,,2,1,40.80027549999977,,,,Object,,,,
choice,fixation,223.61158554199937,224.36676875000012,2,1,,,,,,,,,Large,,,,
choice,option,224.3757324170001,225.4038747499999,2,1,,,,,,,,,Large,,,,
choice,choice,225.4039931669995,246.82682787500016,2,1,,,2,1,20.41174837499966,,,,Large,,,,
choice,fixation,246.8269475420002,248.33183879200078,3,1,,,,,,,,,Pattern,,,,
choice,option,248.34114416699958,249.36855829200067,3,1,,,,,,,,,Pattern,,,,
choice,choice,249.3686792089993,272.40757329199914,3,1,,,2,1,22.026961916999426,,,,Pattern,,,,
choice,fixation,272.407756958999,272.91304554199996,4,1,,,,,,,,,Solid,,,,
choice,option,272.9233667089993,273.9508304589999,4,1,,,,,,,,,Solid,,,,
choice,choice,273.95095941699947,294.31697216700013,4,1,,,1,1,19.352647375000743,,,,Solid,,,,
choice,fixation,294.31710199999907,295.0720713749997,5,1,,,,,,,,,Animal,,,,
choice,option,295.0814647919997,296.1085102920006,5,1,,,,,,,,,Animal,,,,
choice,choice,296.10862087500027,314.83656979199986,5,1,,,1,1,17.717367917000956,,,,Animal,,,,
choice,fixation,314.8367066669998,316.34209020900016,6,1,,,,,,,,,Land,,,,
choice,option,316.35127162500066,317.37870133400065,6,1,,,,,,,,,Land,,,,
choice,choice,317.37890733399945,335.97665433399925,6,1,,,2,1,17.587575749999814,,,,Land,,,,
choice,fixation,335.9767953339997,337.48207125000044,7,1,,,,,,,,,Small,,,,
choice,option,337.4907293750002,338.5190858749993,7,1,,,,,,,,,Small,,,,
choice,choice,338.51920229200005,356.436809249999,7,1,,,1,1,16.9068502909995,,,,Small,,,,
choice,fixation,356.4370385839993,357.19256283399955,8,1,,,,,,,,,Sea,,,,
choice,option,357.20073887500075,358.2281631250007,8,1,,,,,,,,,Sea,,,,
choice,choice,358.2282809589997,374.3942370419991,8,1,,,1,1,15.155120957999316,,,,Sea,,,,
memory,free_recall,433.88394241700007,444.7483053750002,0,1,,,,,,,,,,,,,
memory,value_recall,485.6080051249992,495.37075829199966,1,1,Object_Sea_Solid_Large,,,,9.755350249999537,,,,,-3,,,
memory,value_recall,497.1666977090008,501.54723308400025,2,1,Animal_Land_Pattern_Large,,,,4.376362291999612,,,,,4,,,
memory,value_recall,502.5938392499993,507.55563933399935,3,1,Animal_Sea_Solid_Large,,,,4.9584800000011455,,,,,-2,,,
memory,value_recall,508.8527159999994,514.1388425000005,4,1,Object_Land_Pattern_Small,,,,5.282006041999921,,,,,-9,,,
memory,value_recall,515.4344375420005,520.7656727089998,5,1,Object_Sea_Solid_Small,,,,5.327048957999068,,,,,7,,,
memory,value_recall,521.8115247499991,526.3004599169999,6,1,Animal_Land_Pattern_Small,,,,4.48563891699996,,,,,3,,,
memory,spatial_recall,543.509100792,550.7706600000001,6,1,Animal_Sea_Solid_Large,,,1,7.257404999998471,,,,,,"[329, 189]","[329, 189]",
memory,spatial_recall,552.8387734999997,559.1865005,6,1,Object_Land_Pattern_Small,,,1,6.343676667000182,,,,,,"[329, -190]","[329, -190]",
memory,spatial_recall,560.2516643750005,562.9208281249994,6,1,Animal_Land_Pattern_Large,,,1,2.6667104589996597,,,,,,"[0, 380]","[0, 380]",
memory,spatial_recall,564.987448459,568.7530007919995,6,1,Object_Sea_Solid_Large,,,1,3.761462542001027,,,,,,"[-329, 190]","[-329, 190]",
memory,spatial_recall,570.3194821670004,573.0712190419999,6,1,Animal_Land_Pattern_Small,,,1,2.7476274170003308,,,,,,"[0, -380]","[0, -380]",
memory,spatial_recall,575.1328782090004,580.6835097919993,6,1,Object_Sea_Solid_Small,,,1,5.548071708000862,,,,,,"[-329, -190]","[-329, -190]",
encoding,fixation,15.441911665999214,16.698586250000517,7,2,Object_Land_Solid_Large,6,,,,,,,,,,,
encoding,image,16.698709915999643,17.70930425000006,7,2,Object_Land_Solid_Large,6,,,,,,,,,,,
encoding,value,17.70944899999995,23.721454291000555,7,2,Object_Land_Solid_Large,6,,,,,,,,,,,
encoding,attention,23.72158004099947,26.73898679100057,7,2,Object_Land_Solid_Large,6,+6,1,1.1963972920002561,,,,,,,,
encoding,fixation,26.739139125000293,27.244649082998876,8,2,Animal_Sea_Pattern_Small,8,,,,,,,,,,,
encoding,image,27.24475849999908,28.256307040999673,8,2,Animal_Sea_Pattern_Small,8,,,,,,,,,,,
encoding,value,28.256445125000027,34.268353375000515,8,2,Animal_Sea_Pattern_Small,8,,,,,,,,,,,
encoding,attention,34.26857474999997,37.286510874999294,8,2,Animal_Sea_Pattern_Small,8,+8,1,2.1114965830001893,,,,,,,,
encoding,fixation,37.286674416000096,37.79190670800017,9,2,Object_Sea_Pattern_Large,-4,,,,,,,,,,,
encoding,image,37.79202116600027,38.80310666600053,9,2,Object_Sea_Pattern_Large,-4,,,,,,,,,,,
encoding,value,38.80321537499913,44.815186750000066,9,2,Object_Sea_Pattern_Large,-4,,,,,,,,,,,
encoding,attention,44.81535724999958,47.83329591599977,9,2,Object_Sea_Pattern_Large,-4,-4,1,1.869281791998219,,,,,,,,
encoding,fixation,47.83350729099948,48.838739499999065,10,2,Object_Sea_Pattern_Small,-1,,,,,,,,,,,
encoding,image,48.83887233299902,49.84990133300016,10,2,Object_Sea_Pattern_Small,-1,,,,,,,,,,,
encoding,value,49.85001883299992,55.861589000000095,10,2,Object_Sea_Pattern_Small,-1,,,,,,,,,,,
encoding,attention,55.86173445799977,58.879431999999724,10,2,Object_Sea_Pattern_Small,-1,-1,1,1.3045042080011626,,,,,,,,
encoding,fixation,58.879621333000614,59.88473024999985,11,2,Animal_Land_Solid_Large,5,,,,,,,,,,,
encoding,image,59.88485354099976,60.89690429099937,11,2,Animal_Land_Solid_Large,5,,,,,,,,,,,
encoding,value,60.89702733299964,66.90906141599953,11,2,Animal_Land_Solid_Large,5,,,,,,,,,,,
encoding,attention,66.90924112500034,69.92983716600065,11,2,Animal_Land_Solid_Large,5,+5,1,0.9924788339994848,,,,,,,,
encoding,fixation,69.9300632909999,71.43856441599928,12,2,Animal_Land_Solid_Small,-8,,,,,,,,,,,
encoding,image,71.43867391599997,72.44949420800003,12,2,Animal_Land_Solid_Small,-8,,,,,,,,,,,
encoding,value,72.44960733299922,78.46070654100004,12,2,Animal_Land_Solid_Small,-8,,,,,,,,,,,
encoding,attention,78.46082354099963,81.47830704099943,12,2,Animal_Land_Solid_Small,-8,-8,1,2.0479657079995377,,,,,,,,
n-back,,,,31,2,,,,1,None,V,False,None,,,,,
n-back,,,,32,2,,,,1,None,C,False,None,,,,,
n-back,,,,33,2,,,,1,None,C,False,None,,,,,
n-back,,,,34,2,,,,1,None,X,False,None,,,,,
n-back,,,,35,2,,,,1,0.43593733299894666,C,True,1,,,,,
n-back,,,,36,2,,,,1,None,B,False,None,,,,,
n-back,,,,37,2,,,,1,None,X,False,None,,,,,
n-back,,,,38,2,,,,1,0.8000107499992737,B,True,1,,,,,
n-back,,,,39,2,,,,1,None,Z,False,None,,,,,
n-back,,,,40,2,,,,1,1.0251559580010507,B,True,1,,,,,
n-back,,,,41,2,,,,1,None,N,False,None,,,,,
n-back,,,,42,2,,,,1,None,X,False,None,,,,,
n-back,,,,43,2,,,,1,None,Z,False,None,,,,,
n-back,,,,44,2,,,,1,0.439260541999829,X,True,1,,,,,
n-back,,,,45,2,,,,0,None,Z,True,None,,,,,
n-back,,,,46,2,,,,1,1.1497116249993269,X,True,1,,,,,
n-back,,,,47,2,,,,1,None,B,False,None,,,,,
n-back,,,,48,2,,,,1,None,Z,False,None,,,,,
n-back,,,,49,2,,,,1,0.5914855419996456,B,True,1,,,,,
n-back,,,,50,2,,,,0,None,Z,True,None,,,,,
n-back,,,,51,2,,,,1,None,X,False,None,,,,,
n-back,,,,52,2,,,,1,None,C,False,None,,,,,
n-back,,,,53,2,,,,1,None,N,False,None,,,,,
n-back,,,,54,2,,,,1,None,Z,False,None,,,,,
n-back,,,,55,2,,,,1,None,X,False,None,,,,,
n-back,,,,56,2,,,,1,0.3786295829995652,Z,True,1,,,,,
n-back,,,,57,2,,,,1,None,B,False,None,,,,,
n-back,,,,58,2,,,,1,None,V,False,None,,,,,
n-back,,,,59,2,,,,1,0.4168399579994002,B,True,1,,,,,
n-back,,,,60,2,,,,1,None,X,False,None,,,,,
choice,fixation,159.54549929099994,160.54881475000002,9,2,,,,,,,,,Land,,,,
choice,option,160.55730933300038,161.58460541599925,9,2,,,,,,,,,Land,,,,
choice,choice,161.58471208300034,220.81907933299954,9,2,,,1,1,58.22159724999983,,,,Land,,,,
choice,fixation,220.81922483299968,221.32423358300002,10,2,,,,,,,,,Large,,,,
choice,option,221.3331332079997,222.36107104099938,10,2,,,,,,,,,Large,,,,
choice,choice,222.36118895800064,264.55080695799916,10,2,,,1,1,41.17830387499998,,,,Large,,,,
choice,fixation,264.550970332999,265.055908332999,11,2,,,,,,,,,Small,,,,
choice,option,265.0649262499992,266.09150179099925,11,2,,,,,,,,,Small,,,,
choice,choice,266.0916184580001,285.93544637500054,11,2,,,2,1,18.832846084000266,,,,Small,,,,
choice,fixation,285.93558529099937,287.44081029100016,12,2,,,,,,,,,Sea,,,,
choice,option,287.44907537499967,288.47497574999943,12,2,,,,,,,,,Sea,,,,
choice,choice,288.4750883329998,310.1289301659999,12,2,,,1,1,20.642862541000795,,,,Sea,,,,
choice,fixation,310.1290742910005,310.8839232909995,13,2,,,,,,,,,Solid,,,,
choice,option,310.89329200000066,311.9213193329997,13,2,,,,,,,,,Solid,,,,
choice,choice,311.9214421659999,339.08057174999885,13,2,,,1,1,26.14837974999864,,,,Solid,,,,
choice,fixation,339.0807004159997,339.83587854100006,14,2,,,,,,,,,Pattern,,,,
choice,option,339.84574820799935,340.87257845800013,14,2,,,,,,,,,Pattern,,,,
choice,choice,340.872701332999,362.99400791600056,14,2,,,1,1,21.110333500000706,,,,Pattern,,,,
choice,fixation,362.99414341599913,363.9991496250004,15,2,,,,,,,,,Object,,,,
choice,option,364.0087381659996,365.035748332999,15,2,,,,,,,,,Object,,,,
choice,choice,365.03586695800004,386.07182595799895,15,2,,,1,1,20.02482641700044,,,,Object,,,,
choice,fixation,386.0719531249997,387.3270525829994,16,2,,,,,,,,,Animal,,,,
choice,option,387.3369906659991,388.36362529100006,16,2,,,,,,,,,Animal,,,,
choice,choice,388.36375425000006,398.62614399999984,16,2,,,1,1,9.25202524999986,,,,Animal,,,,
memory,free_recall,432.86387449999893,456.7763005409997,6,2,,,,,,,,,,,,,
memory,value_recall,460.4892488330006,466.8582719160004,7,2,Object_Sea_Pattern_Small,,,,6.364907291999771,,,,,-1,,,
memory,value_recall,468.40548583300006,478.7470266250002,8,2,Animal_Sea_Pattern_Small,,,,10.337314875001539,,,,,8,,,
memory,value_recall,480.0448927079997,486.93686516600064,9,2,Object_Land_Solid_Large,,,,6.887915291999889,,,,,6,,,
memory,value_recall,487.9821696660001,491.8044000409991,10,2,Object_Sea_Pattern_Large,,,,3.817726291999861,,,,,-4,,,
memory,value_recall,492.8514422499993,499.69778866600063,11,2,Animal_Land_Solid_Small,,,,6.84332650000033,,,,,-8,,,
memory,value_recall,500.99617020799997,504.40851875000044,12,2,Animal_Land_Solid_Large,,,,3.408334667001327,,,,,5,,,
memory,spatial_recall,514.2931897079998,521.8597355410002,12,2,Animal_Land_Solid_Large,,,1,7.562304417000632,,,,,,"[329, -190]","[329, -190]",
memory,spatial_recall,523.6738864580002,526.5889656250001,12,2,Object_Land_Solid_Large,,,1,2.9107609999991837,,,,,,"[-329, -190]","[-329, -190]",
memory,spatial_recall,528.6578232079992,533.5581438749996,12,2,Object_Sea_Pattern_Small,,,1,4.896334916998967,,,,,,"[0, -380]","[0, -380]",
memory,spatial_recall,534.6247763749998,540.1097386250003,12,2,Animal_Land_Solid_Small,,,1,5.4824399999997695,,,,,,"[329, 189]","[329, 189]",
memory,spatial_recall,541.425234332999,543.8891814159997,12,2,Animal_Sea_Pattern_Small,,,1,2.4595557500015275,,,,,,"[-329, 190]","[-329, 190]",
memory,spatial_recall,545.4579854580006,547.2754236250003,12,2,Object_Sea_Pattern_Large,,,1,1.8133969999998953,,,,,,"[0, 380]","[0, 380]",
encoding,fixation,23.248985500000344,24.005225917000644,13,3,Object_Land_Solid_Large,5,,,,,,,,,,,
encoding,image,24.005357333000575,25.016153708000274,13,3,Object_Land_Solid_Large,5,,,,,,,,,,,
encoding,value,25.016277708000416,31.03080958300052,13,3,Object_Land_Solid_Large,5,,,,,,,,,,,
encoding,attention,31.030971707999925,34.04784666699925,13,3,Object_Land_Solid_Large,5,+5,1,0.8865369579998514,,,,,,,,
encoding,fixation,34.04800866699952,34.80326083299951,14,3,Animal_Sea_Pattern_Small,9,,,,,,,,,,,
encoding,image,34.80339008299961,35.81534204200034,14,3,Animal_Sea_Pattern_Small,9,,,,,,,,,,,
encoding,value,35.81553712499954,41.827328082999884,14,3,Animal_Sea_Pattern_Small,9,,,,,,,,,,,
encoding,attention,41.82745183299994,44.84546520799995,14,3,Animal_Sea_Pattern_Small,9,+9,1,1.4481863330001943,,,,,,,,
encoding,fixation,44.845639749999464,46.100704500000575,15,3,Object_Land_Solid_Small,-9,,,,,,,,,,,
encoding,image,46.10082183300074,47.113885291999395,15,3,Object_Land_Solid_Small,-9,,,,,,,,,,,
encoding,value,47.11405787500007,53.125669499999276,15,3,Object_Land_Solid_Small,-9,,,,,,,,,,,
encoding,attention,53.12579279199963,56.142608250000194,15,3,Object_Land_Solid_Small,-9,-9,1,1.6618728339999507,,,,,,,,
encoding,fixation,56.142782667000574,56.64891024999997,16,3,Object_Land_Pattern_Large,1,,,,,,,,,,,
encoding,image,56.649029833000895,57.66070349999973,16,3,Object_Land_Pattern_Large,1,,,,,,,,,,,
encoding,value,57.66082445800021,63.673666832999515,16,3,Object_Land_Pattern_Large,1,,,,,,,,,,,
encoding,attention,63.67379012499987,66.69186137500037,16,3,Object_Land_Pattern_Large,1,+1,1,0.8099801670014131,,,,,,,,
encoding,fixation,66.69206833300086,67.1986114579995,17,3,Animal_Sea_Pattern_Large,-9,,,,,,,,,,,
encoding,image,67.19875866700022,68.20953416699922,17,3,Animal_Sea_Pattern_Large,-9,,,,,,,,,,,
encoding,value,68.20964470800027,74.22033358299996,17,3,Animal_Sea_Pattern_Large,-9,,,,,,,,,,,
encoding,attention,74.22044475000075,77.23656629200013,17,3,Animal_Sea_Pattern_Large,-9,-9,1,1.4974907920004625,,,,,,,,
encoding,fixation,77.23674912500064,77.99286383300023,18,3,Animal_Sea_Solid_Small,-2,,,,,,,,,,,
encoding,image,77.99298191699927,79.00371237500076,18,3,Animal_Sea_Solid_Small,-2,,,,,,,,,,,
encoding,value,79.00382737499967,85.01592275000075,18,3,Animal_Sea_Solid_Small,-2,,,,,,,,,,,
encoding,attention,85.01606354199976,88.03374475000055,18,3,Animal_Sea_Solid_Small,-2,-2,1,2.3185677920009766,,,,,,,,
n-back,,,,61,3,,,,1,None,N,False,None,,,,,
n-back,,,,62,3,,,,1,None,Z,False,None,,,,,
n-back,,,,63,3,,,,1,None,C,False,None,,,,,
n-back,,,,64,3,,,,1,0.4437288749995787,Z,True,1,,,,,
n-back,,,,65,3,,,,1,None,V,False,None,,,,,
n-back,,,,66,3,,,,1,None,V,False,None,,,,,
n-back,,,,67,3,,,,1,0.6236987500014948,V,True,1,,,,,
n-back,,,,68,3,,,,1,None,Z,False,None,,,,,
n-back,,,,69,3,,,,1,0.5089945409999928,V,True,1,,,,,
n-back,,,,70,3,,,,1,None,X,False,None,,,,,
n-back,,,,71,3,,,,1,None,B,False,None,,,,,
n-back,,,,72,3,,,,1,0.4463531660003355,X,True,1,,,,,
n-back,,,,73,3,,,,0,None,B,True,None,,,,,
n-back,,,,74,3,,,,1,None,Z,False,None,,,,,
n-back,,,,75,3,,,,1,None,C,False,None,,,,,
n-back,,,,76,3,,,,1,None,B,False,None,,,,,
n-back,,,,77,3,,,,1,None,N,False,None,,,,,
n-back,,,,78,3,,,,1,0.780388708000828,B,True,1,,,,,
n-back,,,,79,3,,,,1,0.7706641670010868,N,True,1,,,,,
n-back,,,,80,3,,,,0,None,B,True,None,,,,,
n-back,,,,81,3,,,,0,None,N,True,None,,,,,
n-back,,,,82,3,,,,1,None,V,False,None,,,,,
n-back,,,,83,3,,,,1,None,C,False,None,,,,,
n-back,,,,84,3,,,,1,None,Z,False,None,,,,,
n-back,,,,85,3,,,,1,None,N,False,None,,,,,
n-back,,,,86,3,,,,1,None,C,False,None,,,,,
n-back,,,,87,3,,,,1,None,V,False,None,,,,,
n-back,,,,88,3,,,,1,None,N,False,None,,,,,
n-back,,,,89,3,,,,1,None,X,False,None,,,,,
n-back,,,,90,3,,,,1,0.3698969159995613,N,True,1,,,,,
choice,fixation,165.05279758299912,166.05667645799986,17,3,,,,,,,,,Sea,,,,
choice,option,166.06464824999966,167.09068262499932,17,3,,,,,,,,,Sea,,,,
choice,choice,167.09088579200034,203.95313949999945,17,3,,,2,1,35.849033374999635,,,,Sea,,,,
choice,fixation,203.95326458300042,204.4586370420002,18,3,,,,,,,,,Solid,,,,
choice,option,204.46875983300015,205.49806116699983,18,3,,,,,,,,,Solid,,,,
choice,choice,205.49817916699976,224.97581812499993,18,3,,,2,1,18.466269291999197,,,,Solid,,,,
choice,fixation,224.97596737499953,225.73261529199954,19,3,,,,,,,,,Land,,,,
choice,option,225.74167083300017,226.76848654199966,19,3,,,,,,,,,Land,,,,
choice,choice,226.76859262499966,246.9534871249998,19,3,,,2,1,19.173672249999072,,,,Land,,,,
choice,fixation,246.95362070800002,247.45872233299997,20,3,,,,,,,,,Large,,,,
choice,option,247.46815895799955,248.49488358300005,20,3,,,,,,,,,Large,,,,
choice,choice,248.49505195799975,262.47070899999926,20,3,,,2,1,12.965666000000056,,,,Large,,,,
choice,fixation,262.47081437499946,263.7260044579998,21,3,,,,,,,,,Small,,,,
choice,option,263.7353807920008,264.76447949999965,21,3,,,,,,,,,Small,,,,
choice,choice,264.7646110829992,277.9763003749995,21,3,,,2,1,12.200053332999232,,,,Small,,,,
choice,fixation,277.97644924999986,278.98056016699957,22,3,,,,,,,,,Object,,,,
choice,option,278.99007791700024,280.0158076250009,22,3,,,,,,,,,Object,,,,
choice,choice,280.01592187499955,298.54359750000003,22,3,,,2,1,17.516627125000014,,,,Object,,,,
choice,fixation,298.54378287500003,299.04891512500035,23,3,,,,,,,,,Pattern,,,,
choice,option,299.05817829199987,300.08408354200037,23,3,,,,,,,,,Pattern,,,,
choice,choice,300.0842040419993,315.37625554199985,23,3,,,1,1,14.28091250000034,,,,Pattern,,,,
choice,fixation,315.37640320799983,315.88139349999983,24,3,,,,,,,,,Animal,,,,
choice,option,315.8906911670001,316.91733637499965,24,3,,,,,,,,,Animal,,,,
choice,choice,316.9174672499994,329.37460912499955,24,3,,,2,1,11.446311208001134,,,,Animal,,,,
memory,free_recall,349.25547704199926,369.8473202080004,12,3,,,,,,,,,,,,,
memory,value_recall,375.62634808300027,378.9616970829993,13,3,Object_Land_Pattern_Large,,,,3.331253416999971,,,,,1,,,
memory,value_recall,380.0063425829994,383.6712459169994,14,3,Object_Land_Solid_Small,,,,3.6612420000001293,,,,,-9,,,
memory,value_recall,385.4670683330005,388.9924425829995,15,3,Animal_Sea_Pattern_Large,,,,3.521233957999357,,,,,-9,,,
memory,value_recall,391.03757362500073,396.9529162079998,16,3,Animal_Sea_Pattern_Small,,,,5.9112407920001715,,,,,9,,,
memory,value_recall,398.9995450419992,405.8990405000004,17,3,Object_Land_Solid_Large,,,,6.8953492079999705,,,,,5,,,
memory,value_recall,407.194588458,409.2554004169997,18,3,Animal_Sea_Solid_Small,,,,2.056699791999563,,,,,-2,,,
memory,spatial_recall,424.13038391699956,427.9031046250002,18,3,Object_Land_Solid_Large,,,1,3.7682373330007977,,,,,,"[-329, -190]","[-329, -190]",
memory,spatial_recall,429.72453533299995,431.81799879199934,18,3,Object_Land_Pattern_Large,,,1,2.0893162909997045,,,,,,"[0, 380]","[0, 380]",
memory,spatial_recall,433.38543570799993,436.1026461670008,18,3,Object_Land_Solid_Small,,,1,2.7132270419988345,,,,,,"[329, 189]","[329, 189]",
memory,spatial_recall,437.9190521670007,441.6701927920003,18,3,Animal_Sea_Pattern_Small,,,1,3.747117790999255,,,,,,"[-329, 190]","[-329, 190]",
memory,spatial_recall,443.7317112919991,447.03169312499995,18,3,Animal_Sea_Pattern_Large,,,1,3.296073790999799,,,,,,"[0, -380]","[0, -380]",
memory,spatial_recall,449.10124641699986,455.43442208300075,18,3,Animal_Sea_Solid_Small,,,1,6.329133250001178,,,,,,"[329, -190]","[329, -190]",
encoding,fixation,10.2481090830006,11.50441441700059,19,4,Object_Sea_Solid_Large,-6,,,,,,,,,,,
encoding,image,11.504615375000867,12.517075792000469,19,4,Object_Sea_Solid_Large,-6,,,,,,,,,,,
encoding,value,12.517184875001476,18.531072000001586,19,4,Object_Sea_Solid_Large,-6,,,,,,,,,,,
encoding,attention,18.531207333000566,21.54942070800098,19,4,Object_Sea_Solid_Large,-6,-6,1,1.6167747920007969,,,,,,,,
encoding,fixation,21.54959966700153,23.056607917000292,20,4,Object_Sea_Solid_Small,-1,,,,,,,,,,,
encoding,image,23.056723417001194,24.0670417500005,20,4,Object_Sea_Solid_Small,-1,,,,,,,,,,,
encoding,value,24.067158333000407,30.078117167000528,20,4,Object_Sea_Solid_Small,-1,,,,,,,,,,,
encoding,attention,30.078237708001325,33.09540904200003,20,4,Object_Sea_Solid_Small,-1,-1,1,2.2387487920004787,,,,,,,,
encoding,fixation,33.095645750001495,33.850891208001485,21,4,Animal_Sea_Solid_Large,8,,,,,,,,,,,
encoding,image,33.8510112920012,34.86191920800047,21,4,Animal_Sea_Solid_Large,8,,,,,,,,,,,
encoding,value,34.86204520800129,40.87436937500024,21,4,Animal_Sea_Solid_Large,8,,,,,,,,,,,
encoding,attention,40.874479625001186,43.89419670800089,21,4,Animal_Sea_Solid_Large,8,+8,1,2.3921636670002044,,,,,,,,
encoding,fixation,43.894362583001566,45.149656792000314,22,4,Object_Land_Pattern_Small,9,,,,,,,,,,,
encoding,image,45.14977495800122,46.16129691700007,22,4,Object_Land_Pattern_Small,9,,,,,,,,,,,
encoding,value,46.161414583000806,52.17334879200098,22,4,Object_Land_Pattern_Small,9,,,,,,,,,,,
encoding,attention,52.173490042001504,55.19114579200141,22,4,Object_Land_Pattern_Small,9,+9,1,2.302829791999102,,,,,,,,
encoding,fixation,55.19130341700111,56.44628545800151,23,4,Animal_Land_Pattern_Small,-9,,,,,,,,,,,
encoding,image,56.44641225000123,57.45773075000034,23,4,Animal_Land_Pattern_Small,-9,,,,,,,,,,,
encoding,value,57.45783645800111,63.46906841700002,23,4,Animal_Land_Pattern_Small,-9,,,,,,,,,,,
encoding,attention,63.46919800000069,66.48734695800158,23,4,Animal_Land_Pattern_Small,-9,-9,1,1.118995291999454,,,,,,,,
encoding,fixation,66.48753175000093,67.9926129580017,24,4,Animal_Land_Pattern_Large,5,,,,,,,,,,,
encoding,image,67.99272954200023,69.00706954199995,24,4,Animal_Land_Pattern_Large,5,,,,,,,,,,,
encoding,value,69.00719737500003,75.0193872079999,24,4,Animal_Land_Pattern_Large,5,,,,,,,,,,,
encoding,attention,75.01951708300112,78.03848758300046,24,4,Animal_Land_Pattern_Large,5,+5,1,2.200540750000073,,,,,,,,
n-back,,,,91,4,,,,1,None,N,False,None,,,,,
n-back,,,,92,4,,,,1,None,X,False,None,,,,,
n-back,,,,93,4,,,,1,0.3617515000005369,N,True,1,,,,,
n-back,,,,94,4,,,,1,None,B,False,None,,,,,
n-back,,,,95,4,,,,1,None,B,False,None,,,,,
n-back,,,,96,4,,,,1,0.4914983750004467,B,True,1,,,,,
n-back,,,,97,4,,,,1,None,N,False,None,,,,,
n-back,,,,98,4,,,,1,None,V,False,None,,,,,
n-back,,,,99,4,,,,1,None,V,False,None,,,,,
n-back,,,,100,4,,,,1,0.45588466600020183,V,True,1,,,,,
n-back,,,,101,4,,,,0,None,V,True,None,,,,,
n-back,,,,102,4,,,,1,None,N,False,None,,,,,
n-back,,,,103,4,,,,1,None,C,False,None,,,,,
n-back,,,,104,4,,,,1,0.6966405409984873,N,True,1,,,,,
n-back,,,,105,4,,,,1,None,V,False,None,,,,,
n-back,,,,106,4,,,,1,None,B,False,None,,,,,
n-back,,,,107,4,,,,1,0.3723277080007392,V,True,1,,,,,
n-back,,,,108,4,,,,1,None,N,False,None,,,,,
n-back,,,,109,4,,,,1,None,C,False,None,,,,,
n-back,,,,110,4,,,,1,None,V,False,None,,,,,
n-back,,,,111,4,,,,1,None,X,False,None,,,,,
n-back,,,,112,4,,,,1,0.7407237919996987,V,True,1,,,,,
n-back,,,,113,4,,,,1,None,V,False,None,,,,,
n-back,,,,114,4,,,,1,None,B,False,None,,,,,
n-back,,,,115,4,,,,1,None,N,False,None,,,,,
n-back,,,,116,4,,,,1,0.35280962500110036,B,True,1,,,,,
n-back,,,,117,4,,,,0,None,N,True,None,,,,,
n-back,,,,118,4,,,,0,None,B,True,None,,,,,
n-back,,,,119,4,,,,1,None,X,False,None,,,,,
n-back,,,,120,4,,,,1,None,N,False,None,,,,,
choice,fixation,153.23248433300068,153.9880901250017,25,4,,,,,,,,,Animal,,,,
choice,option,153.997097417001,155.02311912500045,25,4,,,,,,,,,Animal,,,,
choice,choice,155.02323937500114,206.23919408300026,25,4,,,1,1,50.20493945800081,,,,Animal,,,,
choice,fixation,206.23932762500044,206.9942423750017,26,4,,,,,,,,,Pattern,,,,
choice,option,207.00378854200062,208.03089691700006,26,4,,,,,,,,,Pattern,,,,
choice,choice,208.03102991700143,310.8639276670001,26,4,,,2,0,101.82119354199858,,,,Pattern,,,,
choice,fixation,310.86406983300003,311.8690687500002,27,4,,,,,,,,,Object,,,,
choice,option,311.87865437500113,312.907008958,27,4,,,,,,,,,Object,,,,
choice,choice,312.907122042001,367.3471076250007,27,4,,,1,1,53.42925133300014,,,,Object,,,,
choice,fixation,367.3472390000006,368.6022531670005,28,4,,,,,,,,,Sea,,,,
choice,option,368.6107356250013,369.6392426250004,28,4,,,,,,,,,Sea,,,,
choice,choice,369.639363667,385.0944870000003,28,4,,,1,1,14.44437066699902,,,,Sea,,,,
choice,fixation,385.09462341700055,385.84955179200006,29,4,,,,,,,,,Land,,,,
choice,option,385.85832533300163,386.88489808300073,29,4,,,,,,,,,Land,,,,
choice,choice,386.8850670000011,401.90401920800105,29,4,,,1,1,14.007528125001045,,,,Land,,,,
choice,fixation,401.9042020420002,403.1593361670002,30,4,,,,,,,,,Small,,,,
choice,option,403.1685971670013,404.1965862500001,30,4,,,,,,,,,Small,,,,
choice,choice,404.1967194580011,411.5436139580015,30,4,,,2,1,6.336846707999939,,,,Small,,,,
choice,fixation,411.5437403750002,412.7986536670014,31,4,,,,,,,,,Solid,,,,
choice,option,412.8079674170003,413.8352785830011,31,4,,,,,,,,,Solid,,,,
choice,choice,413.8354205830001,424.59020062500167,31,4,,,1,1,9.743578499999785,,,,Solid,,,,
choice,fixation,424.5903323750008,425.84524729200166,32,4,,,,,,,,,Large,,,,
choice,option,425.8539250420017,426.8810573749997,32,4,,,,,,,,,Large,,,,
choice,choice,426.88125633300115,443.2472947080005,32,4,,,1,1,15.354175208001834,,,,Large,,,,
memory,free_recall,460.87198216700017,481.7547457919991,18,4,,,,,,,,,,,,,
memory,value_recall,489.153056707999,494.01637729200047,19,4,Object_Sea_Solid_Large,,,,4.859293792000244,,,,,-6,,,
memory,value_recall,495.5636832500004,497.83159720799995,20,4,Object_Sea_Solid_Small,,,,2.263651375000336,,,,,-1,,,
memory,value_recall,499.62786379200224,504.80794383300054,21,4,Animal_Sea_Solid_Large,,,,5.175966957998753,,,,,8,,,
memory,value_recall,506.60660220799946,509.329013083001,22,4,Object_Land_Pattern_Small,,,,2.718268959000852,,,,,9,,,
memory,value_recall,510.6252147079995,512.7207593330004,23,4,Animal_Land_Pattern_Small,,,,2.0913530420002644,,,,,-9,,,
memory,value_recall,514.7675654579998,516.1930003329999,24,4,Animal_Land_Pattern_Large,,,,1.4211682499990275,,,,,5,,,
memory,spatial_recall,520.0605688330015,521.7756449579992,24,4,Animal_Land_Pattern_Large,,,1,1.7116193330002716,,,,,,"[0, 380]","[0, 380]",
memory,spatial_recall,523.3462385830007,525.8599273330019,24,4,Animal_Sea_Solid_Large,,,1,2.509716542001115,,,,,,"[329, 189]","[329, 189]",
memory,spatial_recall,526.9242676670019,528.927931917,24,4,Object_Land_Pattern_Small,,,1,2.0011867499997607,,,,,,"[329, -190]","[329, -190]",
memory,spatial_recall,530.2441621670023,532.2105869169991,24,4,Object_Sea_Solid_Large,,,1,1.9624216250012978,,,,,,"[-329, 190]","[-329, 190]",
memory,spatial_recall,534.2728924580024,536.5428432080025,24,4,Animal_Land_Pattern_Small,,,1,2.2658853749999253,,,,,,"[0, -380]","[0, -380]",
memory,spatial_recall,538.357880583002,539.8415944169992,24,4,Object_Sea_Solid_Small,,,1,1.479782582999178,,,,,,"[-329, -190]","[-329, -190]",
encoding,fixation,6.263433083000564,7.5193254170008,25,5,Object_Sea_Pattern_Small,-5,,,,,,,,,,,
encoding,image,7.519447374997981,8.532087332998344,25,5,Object_Sea_Pattern_Small,-5,,,,,,,,,,,
encoding,value,8.532205332998274,14.545614750000823,25,5,Object_Sea_Pattern_Small,-5,,,,,,,,,,,
encoding,attention,14.545757542000501,17.563709582998854,25,5,Object_Sea_Pattern_Small,-5,-5,1,1.2092215000011493,,,,,,,,
encoding,fixation,17.56387445799919,18.06881145800071,26,5,Object_Sea_Pattern_Large,5,,,,,,,,,,,
encoding,image,18.069008374997793,19.079477999999654,26,5,Object_Sea_Pattern_Large,5,,,,,,,,,,,
encoding,value,19.07962816700092,25.09140941700025,26,5,Object_Sea_Pattern_Large,5,,,,,,,,,,,
encoding,attention,25.091610249997757,28.108746207999502,26,5,Object_Sea_Pattern_Large,5,+5,1,0.9186383330015815,,,,,,,,
encoding,fixation,28.10891279199859,28.86605970799792,27,5,Animal_Sea_Pattern_Small,-1,,,,,,,,,,,
encoding,image,28.866181666999182,29.877238082997792,27,5,Animal_Sea_Pattern_Small,-1,,,,,,,,,,,
encoding,value,29.877362916999118,35.8897649999999,27,5,Animal_Sea_Pattern_Small,-1,,,,,,,,,,,
encoding,attention,35.8898912500008,38.906403000000864,27,5,Animal_Sea_Pattern_Small,-1,-1,1,2.91288062500098,,,,,,,,
encoding,fixation,38.90654495799754,40.1606740419993,28,5,Animal_Land_Solid_Large,-9,,,,,,,,,,,
encoding,image,40.16079908299798,41.17262308299905,28,5,Animal_Land_Solid_Large,-9,,,,,,,,,,,
encoding,value,41.17274354199981,47.185269666999375,28,5,Animal_Land_Solid_Large,-9,,,,,,,,,,,
encoding,attention,47.185425167001085,50.203999207999004,28,5,Animal_Land_Solid_Large,-9,-9,1,1.8714815829989675,,,,,,,,
encoding,fixation,50.20415850000063,50.95927124999798,29,5,Object_Land_Solid_Large,3,,,,,,,,,,,
encoding,image,50.95946108299904,51.96976629200071,29,5,Object_Land_Solid_Large,3,,,,,,,,,,,
encoding,value,51.96989145800035,57.98184033299913,29,5,Object_Land_Solid_Large,3,,,,,,,,,,,
encoding,attention,57.982030332997965,60.99861766699905,29,5,Object_Land_Solid_Large,3,+3,1,1.2932370000016817,,,,,,,,
encoding,fixation,60.998820500000875,62.25387512499947,30,5,Animal_Land_Solid_Small,4,,,,,,,,,,,
encoding,image,62.25402349999786,63.264512916997774,30,5,Animal_Land_Solid_Small,4,,,,,,,,,,,
encoding,value,63.264629082998,69.275867458,30,5,Animal_Land_Solid_Small,4,,,,,,,,,,,
encoding,attention,69.27599295799882,72.2936633749996,30,5,Animal_Land_Solid_Small,4,+4,1,1.3274712090023968,,,,,,,,
n-back,,,,121,5,,,,1,None,V,False,None,,,,,
n-back,,,,122,5,,,,1,None,B,False,None,,,,,
n-back,,,,123,5,,,,1,None,X,False,None,,,,,
n-back,,,,124,5,,,,1,0.3444165420005447,B,True,1,,,,,
n-back,,,,125,5,,,,1,0.5787252919981256,X,True,1,,,,,
n-back,,,,126,5,,,,1,0.6138697089991183,B,True,1,,,,,
n-back,,,,127,5,,,,1,0.6201682499995513,X,True,1,,,,,
n-back,,,,128,5,,,,1,None,C,False,None,,,,,
n-back,,,,129,5,,,,1,None,B,False,None,,,,,
n-back,,,,130,5,,,,1,None,N,False,None,,,,,
n-back,,,,131,5,,,,1,None,Z,False,None,,,,,
n-back,,,,132,5,,,,1,None,V,False,None,,,,,
n-back,,,,133,5,,,,1,0.5266256659997453,Z,True,1,,,,,
n-back,,,,134,5,,,,1,0.962287334001303,V,True,1,,,,,
n-back,,,,135,5,,,,1,None,N,False,None,,,,,
n-back,,,,136,5,,,,0,None,V,True,None,,,,,
n-back,,,,137,5,,,,1,None,V,False,None,,,,,
n-back,,,,138,5,,,,1,None,N,False,None,,,,,
n-back,,,,139,5,,,,1,None,X,False,None,,,,,
n-back,,,,140,5,,,,1,None,Z,False,None,,,,,
n-back,,,,141,5,,,,1,None,B,False,None,,,,,
n-back,,,,142,5,,,,1,None,B,False,None,,,,,
n-back,,,,143,5,,,,1,None,C,False,None,,,,,
n-back,,,,144,5,,,,1,0.33145320800031186,B,True,1,,,,,
n-back,,,,145,5,,,,1,None,B,False,None,,,,,
n-back,,,,146,5,,,,1,0.5564242079999531,B,True,1,,,,,
n-back,,,,147,5,,,,1,None,N,False,None,,,,,
n-back,,,,148,5,,,,1,None,X,False,None,,,,,
n-back,,,,149,5,,,,1,None,X,False,None,,,,,
n-back,,,,150,5,,,,1,0.523422334001225,X,True,1,,,,,
choice,fixation,145.9011725829987,146.65443683299964,33,5,,,,,,,,,Land,,,,
choice,option,146.6626480829982,147.6881393750009,33,5,,,,,,,,,Land,,,,
choice,choice,147.68830724999862,174.21375975000046,33,5,,,2,1,25.514274542001658,,,,Land,,,,
choice,fixation,174.21389258300042,175.21901074999914,34,5,,,,,,,,,Large,,,,
choice,option,175.22815129199807,176.2544473329981,34,5,,,,,,,,,Large,,,,
choice,choice,176.25455495799906,193.4882244170003,34,5,,,2,1,16.221718791999592,,,,Large,,,,
choice,fixation,193.48836908299927,193.99378633299784,35,5,,,,,,,,,Object,,,,
choice,option,194.00349970800016,195.02931545799947,35,5,,,,,,,,,Object,,,,
choice,choice,195.02943591700023,206.42189750000034,35,5,,,1,1,10.382180915999925,,,,Object,,,,
choice,fixation,206.42203833299936,207.92754687499837,36,5,,,,,,,,,Small,,,,
choice,option,207.93729650000023,208.9655864999986,36,5,,,,,,,,,Small,,,,
choice,choice,208.96571425000002,230.30920845799847,36,5,,,2,1,20.332863040999655,,,,Small,,,,
choice,fixation,230.30934633300058,231.06424933299786,37,5,,,,,,,,,Animal,,,,
choice,option,231.07360462499855,232.10013637500015,37,5,,,,,,,,,Animal,,,,
choice,choice,232.100258167,237.34112879199893,37,5,,,2,1,4.231366624997463,,,,Animal,,,,
choice,fixation,237.34128670800055,238.84971975000008,38,5,,,,,,,,,Pattern,,,,
choice,option,238.85877991699817,239.88496433299952,38,5,,,,,,,,,Pattern,,,,
choice,choice,239.88514504200066,251.1824421249985,38,5,,,2,1,10.285687957999471,,,,Pattern,,,,
choice,fixation,251.1826449170003,252.68770066700017,39,5,,,,,,,,,Solid,,,,
choice,option,252.6972627920004,253.7234832920003,39,5,,,,,,,,,Solid,,,,
choice,choice,253.72362704199986,267.1577486669994,39,5,,,2,1,12.422288166999351,,,,Solid,,,,
choice,fixation,267.1578763329999,268.4128829170004,40,5,,,,,,,,,Sea,,,,
choice,option,268.4211476249984,269.44878462499764,40,5,,,,,,,,,Sea,,,,
choice,choice,269.4489297079999,281.47236020799755,40,5,,,2,1,11.012248415998329,,,,Sea,,,,
memory,free_recall,289.91387770800065,303.7431864579994,24,5,,,,,,,,,,,,,
memory,value_recall,307.6753477079983,311.42298362499787,25,5,Object_Sea_Pattern_Small,,,,3.7418054999980086,,,,,-5,,,
memory,value_recall,313.4697974169976,316.31164145799994,26,5,Animal_Sea_Pattern_Small,,,,2.8375855829981447,,,,,-1,,,
memory,value_recall,317.6064684999983,319.7998593329976,27,5,Object_Sea_Pattern_Large,,,,2.189306750002288,,,,,5,,,
memory,value_recall,321.09480579199953,324.31817450000017,28,5,Object_Land_Solid_Large,,,,3.219407915999909,,,,,3,,,
memory,value_recall,326.1157328749978,329.50992425000004,29,5,Animal_Land_Solid_Small,,,,3.390088750002178,,,,,4,,,
memory,value_recall,331.05544304199793,335.7905455830005,30,5,Animal_Land_Solid_Large,,,,4.730786582997098,,,,,-9,,,
memory,spatial_recall,339.4096964169985,341.335611292001,30,5,Object_Sea_Pattern_Small,,,1,1.9205255000015313,,,,,,"[0, -380]","[0, -380]",
memory,spatial_recall,342.406737082998,346.58616883300056,30,5,Animal_Sea_Pattern_Small,,,1,4.175327958000707,,,,,,"[-329, 190]","[-329, 190]",
memory,spatial_recall,347.8990494999998,350.30460437500005,30,5,Object_Land_Solid_Large,,,1,2.4015215420004097,,,,,,"[-329, -190]","[-329, -190]",
memory,spatial_recall,352.36975766699834,354.9183779999985,30,5,Object_Sea_Pattern_Large,,,1,2.5441505839989986,,,,,,"[0, 380]","[0, 380]",
memory,spatial_recall,356.73548554199806,358.6533752920004,30,5,Animal_Land_Solid_Small,,,1,1.9139666250011942,,,,,,"[329, 189]","[329, 189]",
memory,spatial_recall,360.469630874999,365.3347994169999,30,5,Animal_Land_Solid_Large,,,1,4.861109082998155,,,,,,"[329, -190]","[329, -190]",
encoding,fixation,13.80378650000057,15.059977166998578,31,6,Animal_Sea_Pattern_Small,-8,,,,,,,,,,,
encoding,image,15.0602085419996,16.071319624999887,31,6,Animal_Sea_Pattern_Small,-8,,,,,,,,,,,
encoding,value,16.071446833000664,22.08735700000034,31,6,Animal_Sea_Pattern_Small,-8,,,,,,,,,,,
encoding,attention,22.08748708300118,25.10543641700133,31,6,Animal_Sea_Pattern_Small,-8,-8,1,1.789434499998606,,,,,,,,
encoding,fixation,25.105592708001495,25.86048658299842,32,6,Animal_Sea_Solid_Small,1,,,,,,,,,,,
encoding,image,25.860601416999998,26.871500792000006,32,6,Animal_Sea_Solid_Small,1,,,,,,,,,,,
encoding,value,26.871634667000762,32.8833890829992,32,6,Animal_Sea_Solid_Small,1,,,,,,,,,,,
encoding,attention,32.88352650000161,35.90105308299826,32,6,Animal_Sea_Solid_Small,1,+1,1,1.9085083329991903,,,,,,,,
encoding,fixation,35.901316999999835,37.40632041700155,33,6,Object_Land_Solid_Small,5,,,,,,,,,,,
encoding,image,37.40643379199901,38.421696082998096,33,6,Object_Land_Solid_Small,5,,,,,,,,,,,
encoding,value,38.42182179199881,44.43400266699973,33,6,Object_Land_Solid_Small,5,,,,,,,,,,,
encoding,attention,44.43412608300059,47.45184325000082,33,6,Object_Land_Solid_Small,5,+5,1,1.8430839169996034,,,,,,,,
encoding,fixation,47.45200783299879,48.70731912499832,34,6,Object_Land_Pattern_Large,1,,,,,,,,,,,
encoding,image,48.707446583001,49.72019166699829,34,6,Object_Land_Pattern_Large,1,,,,,,,,,,,
encoding,value,49.72031545799837,55.73236937500042,34,6,Object_Land_Pattern_Large,1,,,,,,,,,,,
encoding,attention,55.73256245800076,58.75161391700021,34,6,Object_Land_Pattern_Large,1,+1,1,1.8242376659982256,,,,,,,,
encoding,fixation,58.751800917001674,59.506764166999346,35,6,Animal_Sea_Pattern_Large,5,,,,,,,,,,,
encoding,image,59.50688287500088,60.51761729200007,35,6,Animal_Sea_Pattern_Large,5,,,,,,,,,,,
encoding,value,60.51774320799814,66.52843500000017,35,6,Animal_Sea_Pattern_Large,5,,,,,,,,,,,
encoding,attention,66.5285517500015,69.54493958300009,35,6,Animal_Sea_Pattern_Large,5,+5,1,0.7827907079990837,,,,,,,,
encoding,fixation,69.54509383299956,70.30036704200029,36,6,Object_Land_Solid_Large,-5,,,,,,,,,,,
encoding,image,70.30050037500041,71.30962833300146,36,6,Object_Land_Solid_Large,-5,,,,,,,,,,,
encoding,value,71.3098170000012,77.32066337500146,36,6,Object_Land_Solid_Large,-5,,,,,,,,,,,
encoding,attention,77.3208029999987,80.3376235830001,36,6,Object_Land_Solid_Large,-5,-5,1,2.1020235840005626,,,,,,,,
n-back,,,,151,6,,,,1,None,N,False,None,,,,,
n-back,,,,152,6,,,,0,None,Z,True,None,,,,,
n-back,,,,153,6,,,,1,0.42966312499993364,N,True,1,,,,,
n-back,,,,154,6,,,,1,0.7375979999997071,Z,True,1,,,,,
n-back,,,,155,6,,,,1,None,X,False,None,,,,,
n-back,,,,156,6,,,,1,None,C,False,None,,,,,
n-back,,,,157,6,,,,1,None,Z,False,None,,,,,
n-back,,,,158,6,,,,1,0.5888202499991166,C,True,1,,,,,
n-back,,,,159,6,,,,1,None,C,False,None,,,,,
n-back,,,,160,6,,,,1,0.46658820800075773,C,True,1,,,,,
n-back,,,,161,6,,,,1,None,N,False,None,,,,,
n-back,,,,162,6,,,,1,0.3787416660015879,C,True,1,,,,,
n-back,,,,163,6,,,,1,None,C,False,None,,,,,
n-back,,,,164,6,,,,1,None,B,False,None,,,,,
n-back,,,,165,6,,,,0,0.5790306250019057,N,False,1,,,,,
n-back,,,,166,6,,,,1,None,V,False,None,,,,,
n-back,,,,167,6,,,,1,None,Z,False,None,,,,,
n-back,,,,168,6,,,,1,None,N,False,None,,,,,
n-back,,,,169,6,,,,1,None,B,False,None,,,,,
n-back,,,,170,6,,,,1,None,V,False,None,,,,,
n-back,,,,171,6,,,,1,0.35030237500177464,B,True,1,,,,,
n-back,,,,172,6,,,,0,None,V,True,None,,,,,
n-back,,,,173,6,,,,1,None,Z,False,None,,,,,
n-back,,,,174,6,,,,1,None,X,False,None,,,,,
n-back,,,,175,6,,,,1,None,B,False,None,,,,,
n-back,,,,176,6,,,,1,None,N,False,None,,,,,
n-back,,,,177,6,,,,1,0.34232862499993644,B,True,1,,,,,
n-back,,,,178,6,,,,1,None,X,False,None,,,,,
n-back,,,,179,6,,,,1,None,X,False,None,,,,,
n-back,,,,180,6,,,,1,0.3937057080001978,X,True,1,,,,,
choice,fixation,155.2540759170006,156.75729316700017,41,6,,,,,,,,,Object,,,,
choice,option,156.7661573330006,157.79414987500058,41,6,,,,,,,,,Object,,,,
choice,choice,157.79429266700026,222.7846298330005,41,6,,,1,1,63.97941387500032,,,,Object,,,,
choice,fixation,222.784762416999,223.53984691699952,42,6,,,,,,,,,Small,,,,
choice,option,223.54895791699892,224.57614100000137,42,6,,,,,,,,,Small,,,,
choice,choice,224.57626833299946,242.53814683300152,42,6,,,2,1,16.948476542002027,,,,Small,,,,
choice,fixation,242.5382755419996,243.0431762920016,43,6,,,,,,,,,Land,,,,
choice,option,243.05165362499974,244.07856916699893,43,6,,,,,,,,,Land,,,,
choice,choice,244.07867816699945,262.10893962499904,43,6,,,1,1,17.01937341699886,,,,Land,,,,
choice,fixation,262.1090723749985,262.61414870799854,44,6,,,,,,,,,Solid,,,,
choice,option,262.6237724999992,263.65083708300153,44,6,,,,,,,,,Solid,,,,
choice,choice,263.6509569580012,287.72970754199923,44,6,,,1,1,23.06712716599941,,,,Solid,,,,
choice,fixation,287.72985408300156,289.2372224999999,45,6,,,,,,,,,Pattern,,,,
choice,option,289.24673458300094,290.2731305419984,45,6,,,,,,,,,Pattern,,,,
choice,choice,290.2732614999986,300.7990547920017,45,6,,,2,1,9.51551766600096,,,,Pattern,,,,
choice,fixation,300.79918808300135,302.0545956249989,46,6,,,,,,,,,Sea,,,,
choice,option,302.0631142919992,303.0898646249989,46,6,,,,,,,,,Sea,,,,
choice,choice,303.08998583300126,313.36078562499824,46,6,,,2,1,9.260519041999942,,,,Sea,,,,
choice,fixation,313.36091725000006,314.61612416700154,47,6,,,,,,,,,Large,,,,
choice,option,314.6249796250013,315.6538208749989,47,6,,,,,,,,,Large,,,,
choice,choice,315.65397949999897,324.3851279170012,47,6,,,2,0,7.72079154200037,,,,Large,,,,
choice,fixation,324.38525070800097,325.14029437499994,48,6,,,,,,,,,Animal,,,,
choice,option,325.14976687500166,326.17600866700013,48,6,,,,,,,,,Animal,,,,
choice,choice,326.1761285829998,337.154341458001,48,6,,,2,1,9.965560166001524,,,,Animal,,,,
memory,free_recall,345.0693997080016,366.4105238330012,30,6,,,,,,,,,,,,,
memory,value_recall,370.0711599999995,372.8985665,31,6,Object_Land_Pattern_Large,,,,2.8241114169977664,,,,,1,,,
memory,value_recall,374.69452154199826,377.2428354580006,32,6,Object_Land_Solid_Small,,,,2.5439225000009174,,,,,5,,,
memory,value_recall,379.0386707079997,382.2844657499991,33,6,Animal_Sea_Solid_Small,,,,3.2417649579983845,,,,,1,,,
memory,value_recall,383.57961720800085,388.4346344170008,34,6,Object_Land_Solid_Large,,,,4.850965917001304,,,,,-5,,,
memory,value_recall,389.72940087499956,403.63482770799965,35,6,Animal_Sea_Pattern_Large,,,,13.901084666002134,,,,,5,,,
memory,value_recall,405.4312017500015,411.6414881669989,36,6,Animal_Sea_Pattern_Small,,,,6.204910624997865,,,,,-8,,,
memory,spatial_recall,415.44299791699814,417.7088646250013,36,6,Animal_Sea_Pattern_Small,,,1,2.2616999999991094,,,,,,"[-329, 190]","[-329, 190]",
memory,spatial_recall,418.7719125830008,420.2560112079991,36,6,Animal_Sea_Pattern_Large,,,1,1.4815600420006376,,,,,,"[0, -380]","[0, -380]",
memory,spatial_recall,421.3109329170002,423.00561758299955,36,6,Animal_Sea_Solid_Small,,,1,1.6913838750006107,,,,,,"[329, -190]","[329, -190]",
memory,spatial_recall,425.07370029199956,426.9342371669991,36,6,Object_Land_Solid_Small,,,1,1.856505665997247,,,,,,"[329, 189]","[329, 189]",
memory,spatial_recall,428.4924552500015,430.9416317079995,36,6,Object_Land_Pattern_Large,,,1,2.445029540998803,,,,,,"[0, 380]","[0, 380]",
memory,spatial_recall,432.75391729200055,434.9579553750009,36,6,Object_Land_Solid_Large,,,1,2.2001967920004972,,,,,,"[-329, -190]","[-329, -190]",
encoding,fixation,11.678139499999816,12.184398541998235,37,7,Object_Sea_Solid_Small,-1,,,,,,,,,,,
encoding,image,12.184530582999287,13.196304874996713,37,7,Object_Sea_Solid_Small,-1,,,,,,,,,,,
encoding,value,13.196436874997744,19.208782582998538,37,7,Object_Sea_Solid_Small,-1,,,,,,,,,,,
encoding,attention,19.20894537499771,22.225206916999014,37,7,Object_Sea_Solid_Small,-1,-1,1,1.2953097079989675,,,,,,,,
encoding,fixation,22.225378791998082,22.73071083299874,38,7,Animal_Land_Pattern_Small,-3,,,,,,,,,,,
encoding,image,22.730833041998267,23.741772249999485,38,7,Animal_Land_Pattern_Small,-3,,,,,,,,,,,
encoding,value,23.741882832997362,29.75391770799979,38,7,Animal_Land_Pattern_Small,-3,,,,,,,,,,,
encoding,attention,29.754029499999888,32.77096662499753,38,7,Animal_Land_Pattern_Small,-3,-1,0,2.4471372500011057,,,,,,,,
encoding,fixation,32.77112308299911,34.026208832998236,39,7,Animal_Sea_Solid_Large,8,,,,,,,,,,,
encoding,image,34.02634333300011,35.03752133299713,39,7,Animal_Sea_Solid_Large,8,,,,,,,,,,,
encoding,value,35.037644249998266,41.0496627499997,39,7,Animal_Sea_Solid_Large,8,,,,,,,,,,,
encoding,attention,41.04978766699787,44.069546874998196,39,7,Animal_Sea_Solid_Large,8,+8,1,1.3233056249991932,,,,,,,,
encoding,fixation,44.06970324999929,45.57472462499936,40,7,Animal_Land_Pattern_Large,-3,,,,,,,,,,,
encoding,image,45.57487070799834,46.585889624999254,40,7,Animal_Land_Pattern_Large,-3,,,,,,,,,,,
encoding,value,46.58600824999667,52.597626332997606,40,7,Animal_Land_Pattern_Large,-3,,,,,,,,,,,
encoding,attention,52.59774841699982,55.60927520799669,40,7,Animal_Land_Pattern_Large,-3,None,None,None,,,,,,,,
encoding,fixation,55.609409041997424,56.36478241700024,41,7,Object_Sea_Solid_Large,-2,,,,,,,,,,,
encoding,image,56.36489512499975,57.37643054199725,41,7,Object_Sea_Solid_Large,-2,,,,,,,,,,,
encoding,value,57.37654383299741,63.38893483299762,41,7,Object_Sea_Solid_Large,-2,,,,,,,,,,,
encoding,attention,63.389063291997445,66.40115137499743,41,7,Object_Sea_Solid_Large,-2,None,None,None,,,,,,,,
encoding,fixation,66.40128337499846,67.90678112499882,42,7,Object_Land_Pattern_Small,7,,,,,,,,,,,
encoding,image,67.90689133299747,68.91905283300002,42,7,Object_Land_Pattern_Small,7,,,,,,,,,,,
encoding,value,68.9191652499976,74.93124512499708,42,7,Object_Land_Pattern_Small,7,,,,,,,,,,,
encoding,attention,74.93136120799682,77.9513299579994,42,7,Object_Land_Pattern_Small,7,+7,1,0.8251749999981257,,,,,,,,
n-back,,,,181,7,,,,0,None,V,True,None,,,,,
n-back,,,,182,7,,,,1,None,X,False,None,,,,,
n-back,,,,183,7,,,,1,0.39724474999820814,V,True,1,,,,,
n-back,,,,184,7,,,,1,None,N,False,None,,,,,
n-back,,,,185,7,,,,1,0.5626810409994505,V,True,1,,,,,
n-back,,,,186,7,,,,1,None,B,False,None,,,,,
n-back,,,,187,7,,,,1,0.6741451670022798,V,True,1,,,,,
n-back,,,,188,7,,,,1,None,Z,False,None,,,,,
n-back,,,,189,7,,,,1,0.7178329170019424,V,True,1,,,,,
n-back,,,,190,7,,,,1,None,B,False,None,,,,,
n-back,,,,191,7,,,,1,0.5220045839996601,V,True,1,,,,,
n-back,,,,192,7,,,,1,None,V,False,None,,,,,
n-back,,,,193,7,,,,1,None,B,False,None,,,,,
n-back,,,,194,7,,,,0,None,V,True,None,,,,,
n-back,,,,195,7,,,,1,None,N,False,None,,,,,
n-back,,,,196,7,,,,0,None,V,True,None,,,,,
n-back,,,,197,7,,,,0,None,N,True,None,,,,,
n-back,,,,198,7,,,,1,None,N,False,None,,,,,
n-back,,,,199,7,,,,1,0.43122020900045754,N,True,1,,,,,
n-back,,,,200,7,,,,1,None,Z,False,None,,,,,
n-back,,,,201,7,,,,1,None,X,False,None,,,,,
n-back,,,,202,7,,,,1,None,X,False,None,,,,,
n-back,,,,203,7,,,,1,None,B,False,None,,,,,
n-back,,,,204,7,,,,1,None,C,False,None,,,,,
n-back,,,,205,7,,,,1,None,V,False,None,,,,,
n-back,,,,206,7,,,,1,None,B,False,None,,,,,
n-back,,,,207,7,,,,1,None,Z,False,None,,,,,
n-back,,,,208,7,,,,1,None,N,False,None,,,,,
n-back,,,,209,7,,,,1,None,V,False,None,,,,,
n-back,,,,210,7,,,,1,None,V,False,None,,,,,
choice,fixation,155.7638507499978,156.51712049999696,49,7,,,,,,,,,Small,,,,
choice,option,156.5257961669995,157.5520042499993,49,7,,,,,,,,,Small,,,,
choice,choice,157.55211449999842,216.2265962499987,49,7,,,1,1,57.66331391699714,,,,Small,,,,
choice,fixation,216.22672766699907,216.7317612079969,50,7,,,,,,,,,Solid,,,,
choice,option,216.74163162499826,217.7674509999997,50,7,,,,,,,,,Solid,,,,
choice,choice,217.76756762500008,232.3812082919976,50,7,,,1,1,13.600915374998294,,,,Solid,,,,
choice,fixation,232.38135583300027,233.6363927079983,51,7,,,,,,,,,Pattern,,,,
choice,option,233.6457200829973,234.67279199999757,51,7,,,,,,,,,Pattern,,,,
choice,choice,234.6729322079991,255.85796516699702,51,7,,,1,1,20.17136208300144,,,,Pattern,,,,
choice,fixation,255.8581184169998,257.1134924170001,52,7,,,,,,,,,Large,,,,
choice,option,257.1223067079991,258.1494105419988,52,7,,,,,,,,,Large,,,,
choice,choice,258.14953666699876,279.61906420800005,52,7,,,1,1,20.458823542001483,,,,Large,,,,
choice,fixation,279.6191939169985,280.3746127079976,53,7,,,,,,,,,Land,,,,
choice,option,280.3834004579985,281.4093928329967,53,7,,,,,,,,,Land,,,,
choice,choice,281.4096024579994,300.355077917,53,7,,,1,1,17.934502084000997,,,,Land,,,,
choice,fixation,300.3552094999977,301.6102362919992,54,7,,,,,,,,,Animal,,,,
choice,option,301.6198207499983,302.646772832999,54,7,,,,,,,,,Animal,,,,
choice,choice,302.6469514169985,322.5216827919976,54,7,,,1,1,18.863793208998686,,,,Animal,,,,
choice,fixation,322.52192037499844,324.02693633299714,55,7,,,,,,,,,Object,,,,
choice,option,324.03636858299797,325.0633980829989,55,7,,,,,,,,,Object,,,,
choice,choice,325.0635139169972,335.4099127499976,55,7,,,1,1,9.336022999999841,,,,Object,,,,
choice,fixation,335.41004395799973,336.16532291699696,56,7,,,,,,,,,Sea,,,,
choice,option,336.1736909169995,337.19961245800005,56,7,,,,,,,,,Sea,,,,
choice,choice,337.19974699999875,346.53869266699985,56,7,,,1,1,8.3286243750008,,,,Sea,,,,
memory,free_recall,354.0189059999975,373.6790340419975,36,7,,,,,,,,,,,,,
memory,value_recall,376.50906154199765,378.8826939169994,37,7,Object_Land_Pattern_Small,,,,2.3693141659969115,,,,,7,,,
memory,value_recall,379.93029574999673,383.78867004199856,38,7,Object_Sea_Solid_Large,,,,3.8556482909989427,,,,,-2,,,
memory,value_recall,384.8337443749988,389.46800325000004,39,7,Animal_Sea_Solid_Large,,,,4.631600332999369,,,,,8,,,
memory,value_recall,390.5140436249967,393.3877443329984,40,7,Object_Sea_Solid_Small,,,,2.8704850829999486,,,,,-1,,,
memory,value_recall,394.9333752079983,397.7148700830003,41,7,Animal_Land_Pattern_Small,,,,2.777353999998013,,,,,-3,,,
memory,value_recall,398.7604661669975,401.1728328749996,42,7,Animal_Land_Pattern_Large,,,,2.4091041659994517,,,,,-3,,,
memory,spatial_recall,405.8221890419991,407.33565045799696,42,7,Animal_Sea_Solid_Large,,,1,1.5063899160013534,,,,,,"[329, 189]","[329, 189]",
memory,spatial_recall,409.40162375,412.6336130419986,42,7,Animal_Land_Pattern_Small,,,1,3.2278737090018694,,,,,,"[0, -380]","[0, -380]",
memory,spatial_recall,413.7010247500002,419.817524332997,42,7,Object_Sea_Solid_Large,,,1,6.112089582999033,,,,,,"[-329, 190]","[-329, 190]",
memory,spatial_recall,421.6313938329986,424.850516874998,42,7,Object_Sea_Solid_Small,,,1,3.2150031670025783,,,,,,"[-329, -190]","[-329, -190]",
memory,spatial_recall,426.6670517079983,428.15105824999773,42,7,Animal_Land_Pattern_Large,,,1,1.4800091670003894,,,,,,"[0, 380]","[0, 380]",
memory,spatial_recall,429.20332866699755,431.5345964169974,42,7,Object_Land_Pattern_Small,,,1,2.3285570410007495,,,,,,"[329, -190]","[329, -190]",
