phase,event,trial_number,eyetracker_onset,eyetracker_offset,fix_start,fix_end,fix_duration_full,fix_duration_bounded,fix_x,fix_y,roi_x,roi_y,roi_content,onset,offset,game,image,outcome,choice,correct,rt,letter,match,response,option,true_value,true_position,recalled_position,Unnamed: 18
encoding,fixation,1,16105031,16105793,16105274.0,16105457.0,184.0,184.0,1871.9,1172.0,1920.0,700.0,Animal_Land_Pattern_Large,19.714476291999745,20.47659137499977,1.0,Animal_Land_Pattern_Small,3.0,,,,,,,,,,,
encoding,fixation,1,16105031,16105793,16105472.0,16106048.0,577.0,321.0,1908.5,1118.7,1920.0,1080.0,fixation,19.714476291999745,20.47659137499977,1.0,Animal_Land_Pattern_Small,3.0,,,,,,,,,,,
encoding,image,1,16105793,16106811,16106106.0,16106999.0,894.0,705.0,1898.1,794.7,1920.0,1460.0,Animal_Land_Pattern_Small,20.476812541999607,21.49443699999938,1.0,Animal_Land_Pattern_Small,3.0,,,,,,,,,,,
encoding,value,1,16106811,16112826,16107038.0,16107357.0,320.0,320.0,1904.9,680.4000000000001,1920.0,1460.0,Animal_Land_Pattern_Small,21.494608249999143,27.509250958999473,1.0,Animal_Land_Pattern_Small,3.0,,,,,,,,,,,
encoding,value,1,16106811,16112826,16107609.0,16107744.0,136.0,136.0,1897.1,745.7,1920.0,1460.0,Animal_Land_Pattern_Small,21.494608249999143,27.509250958999473,1.0,Animal_Land_Pattern_Small,3.0,,,,,,,,,,,
encoding,value,1,16106811,16112826,16107775.0,16108260.0,486.0,486.0,1927.1,798.0999999999999,1920.0,1460.0,Animal_Land_Pattern_Small,21.494608249999143,27.509250958999473,1.0,Animal_Land_Pattern_Small,3.0,,,,,,,,,,,
encoding,value,1,16106811,16112826,16108269.0,16110194.0,1926.0,1926.0,1882.4,823.7,1920.0,1460.0,Animal_Land_Pattern_Small,21.494608249999143,27.509250958999473,1.0,Animal_Land_Pattern_Small,3.0,,,,,,,,,,,
encoding,value,1,16106811,16112826,16110211.0,16110263.0,53.0,53.0,1906.0,756.5999999999999,1920.0,1460.0,Animal_Land_Pattern_Small,21.494608249999143,27.509250958999473,1.0,Animal_Land_Pattern_Small,3.0,,,,,,,,,,,
encoding,value,1,16106811,16112826,16110494.0,16110662.0,169.0,169.0,1899.4,818.3,1920.0,1460.0,Animal_Land_Pattern_Small,21.494608249999143,27.509250958999473,1.0,Animal_Land_Pattern_Small,3.0,,,,,,,,,,,
encoding,value,1,16106811,16112826,16110688.0,16112378.0,1691.0,1691.0,1906.6,764.0999999999999,1920.0,1460.0,Animal_Land_Pattern_Small,21.494608249999143,27.509250958999473,1.0,Animal_Land_Pattern_Small,3.0,,,,,,,,,,,
encoding,value,1,16106811,16112826,16112413.0,16113202.0,790.0,413.0,1921.8,686.0999999999999,1920.0,1460.0,Animal_Land_Pattern_Small,21.494608249999143,27.509250958999473,1.0,Animal_Land_Pattern_Small,3.0,,,,,,,,,,,
encoding,attention,1,16112826,16115844,16113216.0,16113348.0,133.0,133.0,1957.6,689.3,1920.0,1460.0,Animal_Land_Pattern_Small,27.509399791999385,30.52732033400025,1.0,Animal_Land_Pattern_Small,3.0,3.0,1.0,1.3566834169996582,,,,,,,,
encoding,attention,1,16112826,16115844,16113371.0,16113416.0,46.0,46.0,1880.7,760.0,1920.0,1460.0,Animal_Land_Pattern_Small,27.509399791999385,30.52732033400025,1.0,Animal_Land_Pattern_Small,3.0,3.0,1.0,1.3566834169996582,,,,,,,,
encoding,attention,1,16112826,16115844,16113658.0,16113714.0,57.0,57.0,1855.2,826.9000000000001,1920.0,1460.0,Animal_Land_Pattern_Small,27.509399791999385,30.52732033400025,1.0,Animal_Land_Pattern_Small,3.0,3.0,1.0,1.3566834169996582,,,,,,,,
encoding,attention,1,16112826,16115844,16113734.0,16114646.0,913.0,913.0,1880.6,708.3,1920.0,1460.0,Animal_Land_Pattern_Small,27.509399791999385,30.52732033400025,1.0,Animal_Land_Pattern_Small,3.0,3.0,1.0,1.3566834169996582,,,,,,,,
encoding,attention,1,16112826,16115844,16114673.0,16114984.0,312.0,312.0,1894.8,814.0999999999999,1920.0,1460.0,Animal_Land_Pattern_Small,27.509399791999385,30.52732033400025,1.0,Animal_Land_Pattern_Small,3.0,3.0,1.0,1.3566834169996582,,,,,,,,
encoding,attention,1,16112826,16115844,16115007.0,16115250.0,244.0,244.0,1909.2,723.7,1920.0,1460.0,Animal_Land_Pattern_Small,27.509399791999385,30.52732033400025,1.0,Animal_Land_Pattern_Small,3.0,3.0,1.0,1.3566834169996582,,,,,,,,
encoding,attention,1,16112826,16115844,16115273.0,16115484.0,212.0,212.0,1873.6,631.4000000000001,1920.0,1460.0,Animal_Land_Pattern_Small,27.509399791999385,30.52732033400025,1.0,Animal_Land_Pattern_Small,3.0,3.0,1.0,1.3566834169996582,,,,,,,,
encoding,attention,1,16112826,16115844,16115519.0,16115777.0,259.0,259.0,1898.2,772.5,1920.0,1460.0,Animal_Land_Pattern_Small,27.509399791999385,30.52732033400025,1.0,Animal_Land_Pattern_Small,3.0,3.0,1.0,1.3566834169996582,,,,,,,,
encoding,fixation,2,16115844,16116600,16115980.0,16116113.0,134.0,134.0,1890.8,772.0999999999999,1920.0,1460.0,Animal_Land_Pattern_Small,30.52752049999981,31.28282641700025,1.0,Animal_Sea_Solid_Large,-2.0,,,,,,,,,,,
encoding,fixation,2,16115844,16116600,16116169.0,16116533.0,365.0,365.0,1919.1,1153.8,1920.0,700.0,Animal_Land_Pattern_Large,30.52752049999981,31.28282641700025,1.0,Animal_Sea_Solid_Large,-2.0,,,,,,,,,,,
encoding,image,2,16116600,16117612,16116736.0,16116850.0,115.0,115.0,1904.6,1186.8,1920.0,700.0,Animal_Land_Pattern_Large,31.282972917000738,32.294670916999166,1.0,Animal_Sea_Solid_Large,-2.0,,,,,,,,,,,
encoding,image,2,16116600,16117612,16116882.0,16117819.0,938.0,730.0,2241.1,1312.6,2249.0,891.0,Animal_Sea_Solid_Large,31.282972917000738,32.294670916999166,1.0,Animal_Sea_Solid_Large,-2.0,,,,,,,,,,,
encoding,value,2,16117612,16123625,16117842.0,16118107.0,266.0,266.0,2233.4,1200.1,2249.0,891.0,Animal_Sea_Solid_Large,32.2947938340003,38.30719924999903,1.0,Animal_Sea_Solid_Large,-2.0,,,,,,,,,,,
encoding,value,2,16117612,16123625,16118130.0,16118245.0,116.0,116.0,2241.2,1297.8,2249.0,891.0,Animal_Sea_Solid_Large,32.2947938340003,38.30719924999903,1.0,Animal_Sea_Solid_Large,-2.0,,,,,,,,,,,
encoding,value,2,16117612,16123625,16118433.0,16118755.0,323.0,323.0,2221.7,1274.3,2249.0,891.0,Animal_Sea_Solid_Large,32.2947938340003,38.30719924999903,1.0,Animal_Sea_Solid_Large,-2.0,,,,,,,,,,,
encoding,value,2,16117612,16123625,16118772.0,16119275.0,504.0,504.0,2231.2,1201.1,2249.0,891.0,Animal_Sea_Solid_Large,32.2947938340003,38.30719924999903,1.0,Animal_Sea_Solid_Large,-2.0,,,,,,,,,,,
encoding,value,2,16117612,16123625,16119481.0,16119710.0,230.0,230.0,2201.9,1300.5,2249.0,891.0,Animal_Sea_Solid_Large,32.2947938340003,38.30719924999903,1.0,Animal_Sea_Solid_Large,-2.0,,,,,,,,,,,
encoding,value,2,16117612,16123625,16119727.0,16119933.0,207.0,207.0,2224.7,1333.3,2249.0,891.0,Animal_Sea_Solid_Large,32.2947938340003,38.30719924999903,1.0,Animal_Sea_Solid_Large,-2.0,,,,,,,,,,,
encoding,value,2,16117612,16123625,16119950.0,16120856.0,907.0,907.0,2209.1,1271.9,2249.0,891.0,Animal_Sea_Solid_Large,32.2947938340003,38.30719924999903,1.0,Animal_Sea_Solid_Large,-2.0,,,,,,,,,,,
encoding,value,2,16117612,16123625,16121036.0,16121172.0,137.0,137.0,2174.9,1293.8,2249.0,891.0,Animal_Sea_Solid_Large,32.2947938340003,38.30719924999903,1.0,Animal_Sea_Solid_Large,-2.0,,,,,,,,,,,
encoding,value,2,16117612,16123625,16121189.0,16121474.0,286.0,286.0,2204.6,1265.9,2249.0,891.0,Animal_Sea_Solid_Large,32.2947938340003,38.30719924999903,1.0,Animal_Sea_Solid_Large,-2.0,,,,,,,,,,,
encoding,value,2,16117612,16123625,16121489.0,16121787.0,299.0,299.0,2263.3,1271.3,2249.0,891.0,Animal_Sea_Solid_Large,32.2947938340003,38.30719924999903,1.0,Animal_Sea_Solid_Large,-2.0,,,,,,,,,,,
encoding,value,2,16117612,16123625,16121807.0,16122072.0,266.0,266.0,2207.1,1264.3,2249.0,891.0,Animal_Sea_Solid_Large,32.2947938340003,38.30719924999903,1.0,Animal_Sea_Solid_Large,-2.0,,,,,,,,,,,
encoding,value,2,16117612,16123625,16122080.0,16122594.0,515.0,515.0,2225.2,1300.2,2249.0,891.0,Animal_Sea_Solid_Large,32.2947938340003,38.30719924999903,1.0,Animal_Sea_Solid_Large,-2.0,,,,,,,,,,,
encoding,value,2,16117612,16123625,16122602.0,16122770.0,169.0,169.0,2233.1,1328.7,2249.0,891.0,Animal_Sea_Solid_Large,32.2947938340003,38.30719924999903,1.0,Animal_Sea_Solid_Large,-2.0,,,,,,,,,,,
encoding,value,2,16117612,16123625,16122938.0,16123845.0,908.0,687.0,2201.5,1272.0,2249.0,891.0,Animal_Sea_Solid_Large,32.2947938340003,38.30719924999903,1.0,Animal_Sea_Solid_Large,-2.0,,,,,,,,,,,
encoding,attention,2,16123625,16126643,16123856.0,16124186.0,331.0,331.0,2175.4,1219.5,2249.0,891.0,Animal_Sea_Solid_Large,38.30732374999934,41.325181374999374,1.0,Animal_Sea_Solid_Large,-2.0,-2.0,1.0,0.9167850829999225,,,,,,,,
encoding,attention,2,16123625,16126643,16124371.0,16124534.0,164.0,164.0,2205.1,1277.6,2249.0,891.0,Animal_Sea_Solid_Large,38.30732374999934,41.325181374999374,1.0,Animal_Sea_Solid_Large,-2.0,-2.0,1.0,0.9167850829999225,,,,,,,,
encoding,attention,2,16123625,16126643,16124559.0,16124940.0,382.0,382.0,2224.4,1319.9,2249.0,891.0,Animal_Sea_Solid_Large,38.30732374999934,41.325181374999374,1.0,Animal_Sea_Solid_Large,-2.0,-2.0,1.0,0.9167850829999225,,,,,,,,
encoding,attention,2,16123625,16126643,16124947.0,16125182.0,236.0,236.0,2235.8,1331.5,2249.0,891.0,Animal_Sea_Solid_Large,38.30732374999934,41.325181374999374,1.0,Animal_Sea_Solid_Large,-2.0,-2.0,1.0,0.9167850829999225,,,,,,,,
encoding,attention,2,16123625,16126643,16125231.0,16125567.0,337.0,337.0,1884.0,956.2,1920.0,1460.0,Animal_Land_Pattern_Small,38.30732374999934,41.325181374999374,1.0,Animal_Sea_Solid_Large,-2.0,-2.0,1.0,0.9167850829999225,,,,,,,,
encoding,attention,2,16123625,16126643,16125745.0,16125868.0,124.0,124.0,2151.2,1270.2,2249.0,891.0,Animal_Sea_Solid_Large,38.30732374999934,41.325181374999374,1.0,Animal_Sea_Solid_Large,-2.0,-2.0,1.0,0.9167850829999225,,,,,,,,
encoding,attention,2,16123625,16126643,16125881.0,16126042.0,162.0,162.0,2177.2,1200.0,2249.0,891.0,Animal_Sea_Solid_Large,38.30732374999934,41.325181374999374,1.0,Animal_Sea_Solid_Large,-2.0,-2.0,1.0,0.9167850829999225,,,,,,,,
encoding,attention,2,16123625,16126643,16126068.0,16126459.0,392.0,392.0,2215.4,1322.1,2249.0,891.0,Animal_Sea_Solid_Large,38.30732374999934,41.325181374999374,1.0,Animal_Sea_Solid_Large,-2.0,-2.0,1.0,0.9167850829999225,,,,,,,,
encoding,fixation,3,16126643,16127401,16126931.0,16127045.0,115.0,115.0,1886.5,1156.5,1920.0,700.0,Animal_Land_Pattern_Large,41.32536149999942,42.08338479200029,1.0,Object_Land_Pattern_Small,-9.0,,,,,,,,,,,
encoding,fixation,3,16126643,16127401,16127247.0,16127628.0,382.0,154.0,1876.0,1147.2,1591.0,891.0,Object_Sea_Solid_Large,41.32536149999942,42.08338479200029,1.0,Object_Land_Pattern_Small,-9.0,,,,,,,,,,,
encoding,image,3,16127401,16128413,16127679.0,16127977.0,299.0,299.0,2186.3,963.0999999999999,2249.0,1269.0,Object_Land_Pattern_Small,42.083503500000006,43.09553854200021,1.0,Object_Land_Pattern_Small,-9.0,,,,,,,,,,,
encoding,image,3,16127401,16128413,16128216.0,16128603.0,388.0,197.0,2179.5,943.8,2249.0,1269.0,Object_Land_Pattern_Small,42.083503500000006,43.09553854200021,1.0,Object_Land_Pattern_Small,-9.0,,,,,,,,,,,
encoding,value,3,16128413,16134427,16128618.0,16129097.0,480.0,480.0,2198.3,856.7,2249.0,1269.0,Object_Land_Pattern_Small,43.09565679200023,49.10864170899913,1.0,Object_Land_Pattern_Small,-9.0,,,,,,,,,,,
encoding,value,3,16128413,16134427,16129120.0,16129588.0,469.0,469.0,2063.7,1018.4000000000001,2249.0,1269.0,Object_Land_Pattern_Small,43.09565679200023,49.10864170899913,1.0,Object_Land_Pattern_Small,-9.0,,,,,,,,,,,
encoding,value,3,16128413,16134427,16129816.0,16130116.0,301.0,301.0,2189.4,982.4000000000001,2249.0,1269.0,Object_Land_Pattern_Small,43.09565679200023,49.10864170899913,1.0,Object_Land_Pattern_Small,-9.0,,,,,,,,,,,
encoding,value,3,16128413,16134427,16130127.0,16130454.0,328.0,328.0,2207.7,860.0999999999999,2249.0,1269.0,Object_Land_Pattern_Small,43.09565679200023,49.10864170899913,1.0,Object_Land_Pattern_Small,-9.0,,,,,,,,,,,
encoding,value,3,16128413,16134427,16130479.0,16131596.0,1118.0,1118.0,2219.4,955.5,2249.0,1269.0,Object_Land_Pattern_Small,43.09565679200023,49.10864170899913,1.0,Object_Land_Pattern_Small,-9.0,,,,,,,,,,,
encoding,value,3,16128413,16134427,16131822.0,16131965.0,144.0,144.0,2219.6,983.9000000000001,2249.0,1269.0,Object_Land_Pattern_Small,43.09565679200023,49.10864170899913,1.0,Object_Land_Pattern_Small,-9.0,,,,,,,,,,,
encoding,value,3,16128413,16134427,16131991.0,16132407.0,417.0,417.0,2221.4,970.9000000000001,2249.0,1269.0,Object_Land_Pattern_Small,43.09565679200023,49.10864170899913,1.0,Object_Land_Pattern_Small,-9.0,,,,,,,,,,,
encoding,value,3,16128413,16134427,16132429.0,16132931.0,503.0,503.0,2211.7,817.2,2249.0,1269.0,Object_Land_Pattern_Small,43.09565679200023,49.10864170899913,1.0,Object_Land_Pattern_Small,-9.0,,,,,,,,,,,
encoding,value,3,16128413,16134427,16132958.0,16133560.0,603.0,603.0,2203.5,975.5999999999999,2249.0,1269.0,Object_Land_Pattern_Small,43.09565679200023,49.10864170899913,1.0,Object_Land_Pattern_Small,-9.0,,,,,,,,,,,
encoding,value,3,16128413,16134427,16133577.0,16133839.0,263.0,263.0,2204.1,1069.9,2249.0,1269.0,Object_Land_Pattern_Small,43.09565679200023,49.10864170899913,1.0,Object_Land_Pattern_Small,-9.0,,,,,,,,,,,
encoding,value,3,16128413,16134427,16133879.0,16134080.0,202.0,202.0,2202.0,857.5,2249.0,1269.0,Object_Land_Pattern_Small,43.09565679200023,49.10864170899913,1.0,Object_Land_Pattern_Small,-9.0,,,,,,,,,,,
encoding,value,3,16128413,16134427,16134304.0,16134634.0,331.0,123.0,2225.7,1009.8,2249.0,1269.0,Object_Land_Pattern_Small,43.09565679200023,49.10864170899913,1.0,Object_Land_Pattern_Small,-9.0,,,,,,,,,,,
encoding,attention,3,16134427,16137447,16134658.0,16135917.0,1260.0,1260.0,2158.5,850.0,2249.0,1269.0,Object_Land_Pattern_Small,49.10877641700063,52.12948529200003,1.0,Object_Land_Pattern_Small,-9.0,-9.0,1.0,1.136556790999748,,,,,,,,
encoding,attention,3,16134427,16137447,16135943.0,16136197.0,255.0,255.0,2187.1,973.5,2249.0,1269.0,Object_Land_Pattern_Small,49.10877641700063,52.12948529200003,1.0,Object_Land_Pattern_Small,-9.0,-9.0,1.0,1.136556790999748,,,,,,,,
encoding,attention,3,16134427,16137447,16136417.0,16136663.0,247.0,247.0,2165.8,1030.8,2249.0,1269.0,Object_Land_Pattern_Small,49.10877641700063,52.12948529200003,1.0,Object_Land_Pattern_Small,-9.0,-9.0,1.0,1.136556790999748,,,,,,,,
encoding,attention,3,16134427,16137447,16136682.0,16137065.0,384.0,384.0,2139.5,885.9000000000001,2249.0,1269.0,Object_Land_Pattern_Small,49.10877641700063,52.12948529200003,1.0,Object_Land_Pattern_Small,-9.0,-9.0,1.0,1.136556790999748,,,,,,,,
encoding,fixation,4,16137448,16138453,16137788.0,16138151.0,364.0,364.0,1881.4,1150.0,1920.0,700.0,Animal_Land_Pattern_Large,52.12964416700015,53.13479083399943,1.0,Animal_Land_Pattern_Large,4.0,,,,,,,,,,,
encoding,fixation,4,16137448,16138453,16138170.0,16138343.0,174.0,174.0,1989.4,1219.2,1920.0,700.0,Animal_Land_Pattern_Large,52.12964416700015,53.13479083399943,1.0,Animal_Land_Pattern_Large,4.0,,,,,,,,,,,
encoding,image,4,16138453,16139468,16138540.0,16138687.0,148.0,148.0,1872.0,1197.2,1920.0,700.0,Animal_Land_Pattern_Large,53.134916999999405,54.15024900000026,1.0,Animal_Land_Pattern_Large,4.0,,,,,,,,,,,
encoding,image,4,16138453,16139468,16138733.0,16139156.0,424.0,424.0,1877.6,1423.8,1920.0,700.0,Animal_Land_Pattern_Large,53.134916999999405,54.15024900000026,1.0,Animal_Land_Pattern_Large,4.0,,,,,,,,,,,
encoding,image,4,16138453,16139468,16139172.0,16139536.0,365.0,296.0,1861.7,1469.3,1920.0,700.0,Animal_Land_Pattern_Large,53.134916999999405,54.15024900000026,1.0,Animal_Land_Pattern_Large,4.0,,,,,,,,,,,
encoding,value,4,16139469,16145480,16139543.0,16139751.0,209.0,209.0,1883.1,1473.9,1920.0,700.0,Animal_Land_Pattern_Large,54.15036904199951,60.1616439999998,1.0,Animal_Land_Pattern_Large,4.0,,,,,,,,,,,
encoding,value,4,16139469,16145480,16139771.0,16139938.0,168.0,168.0,1898.2,1388.8,1920.0,700.0,Animal_Land_Pattern_Large,54.15036904199951,60.1616439999998,1.0,Animal_Land_Pattern_Large,4.0,,,,,,,,,,,
encoding,value,4,16139469,16145480,16140080.0,16140513.0,434.0,434.0,1878.8,1478.4,1920.0,700.0,Animal_Land_Pattern_Large,54.15036904199951,60.1616439999998,1.0,Animal_Land_Pattern_Large,4.0,,,,,,,,,,,
encoding,value,4,16139469,16145480,16140534.0,16141075.0,542.0,542.0,1907.7,1370.8,1920.0,700.0,Animal_Land_Pattern_Large,54.15036904199951,60.1616439999998,1.0,Animal_Land_Pattern_Large,4.0,,,,,,,,,,,
encoding,value,4,16139469,16145480,16141238.0,16141598.0,361.0,361.0,1900.3,1479.0,1920.0,700.0,Animal_Land_Pattern_Large,54.15036904199951,60.1616439999998,1.0,Animal_Land_Pattern_Large,4.0,,,,,,,,,,,
encoding,value,4,16139469,16145480,16141613.0,16142927.0,1315.0,1315.0,1903.3,1387.8,1920.0,700.0,Animal_Land_Pattern_Large,54.15036904199951,60.1616439999998,1.0,Animal_Land_Pattern_Large,4.0,,,,,,,,,,,
encoding,value,4,16139469,16145480,16143122.0,16144639.0,1518.0,1518.0,1916.8,1380.2,1920.0,700.0,Animal_Land_Pattern_Large,54.15036904199951,60.1616439999998,1.0,Animal_Land_Pattern_Large,4.0,,,,,,,,,,,
encoding,value,4,16139469,16145480,16144675.0,16144902.0,228.0,228.0,1877.4,1494.3,1920.0,700.0,Animal_Land_Pattern_Large,54.15036904199951,60.1616439999998,1.0,Animal_Land_Pattern_Large,4.0,,,,,,,,,,,
encoding,value,4,16139469,16145480,16145069.0,16145750.0,682.0,411.0,1866.1,1460.8,1920.0,700.0,Animal_Land_Pattern_Large,54.15036904199951,60.1616439999998,1.0,Animal_Land_Pattern_Large,4.0,,,,,,,,,,,
encoding,attention,4,16145480,16148497,16145766.0,16145914.0,149.0,149.0,1904.8,1383.7,1920.0,700.0,Animal_Land_Pattern_Large,60.1617643339996,63.178316749999794,1.0,Animal_Land_Pattern_Large,4.0,4.0,1.0,1.0551755000014964,,,,,,,,
encoding,attention,4,16145480,16148497,16145923.0,16146078.0,156.0,156.0,1945.7,1373.8,1920.0,700.0,Animal_Land_Pattern_Large,60.1617643339996,63.178316749999794,1.0,Animal_Land_Pattern_Large,4.0,4.0,1.0,1.0551755000014964,,,,,,,,
encoding,attention,4,16145480,16148497,16146253.0,16146897.0,645.0,645.0,1935.3,1420.4,1920.0,700.0,Animal_Land_Pattern_Large,60.1617643339996,63.178316749999794,1.0,Animal_Land_Pattern_Large,4.0,4.0,1.0,1.0551755000014964,,,,,,,,
encoding,attention,4,16145480,16148497,16146913.0,16147181.0,269.0,269.0,1882.5,1455.6,1920.0,700.0,Animal_Land_Pattern_Large,60.1617643339996,63.178316749999794,1.0,Animal_Land_Pattern_Large,4.0,4.0,1.0,1.0551755000014964,,,,,,,,
encoding,attention,4,16145480,16148497,16147348.0,16147699.0,352.0,352.0,1859.6,1463.9,1920.0,700.0,Animal_Land_Pattern_Large,60.1617643339996,63.178316749999794,1.0,Animal_Land_Pattern_Large,4.0,4.0,1.0,1.0551755000014964,,,,,,,,
encoding,attention,4,16145480,16148497,16147721.0,16148484.0,764.0,764.0,1976.3,1368.0,1920.0,700.0,Animal_Land_Pattern_Large,60.1617643339996,63.178316749999794,1.0,Animal_Land_Pattern_Large,4.0,4.0,1.0,1.0551755000014964,,,,,,,,
encoding,fixation,5,16148497,16149752,16148675.0,16149332.0,658.0,658.0,1932.6,1402.2,1920.0,700.0,Animal_Land_Pattern_Large,63.178473542000575,64.43376591699962,1.0,Object_Sea_Solid_Large,-3.0,,,,,,,,,,,
encoding,fixation,5,16148497,16149752,16149385.0,16149612.0,228.0,228.0,2043.0,1234.2,2249.0,891.0,Animal_Sea_Solid_Large,63.178473542000575,64.43376591699962,1.0,Object_Sea_Solid_Large,-3.0,,,,,,,,,,,
encoding,fixation,5,16148497,16149752,16149646.0,16149958.0,313.0,106.0,1902.3,1130.3,1920.0,1080.0,fixation,63.178473542000575,64.43376591699962,1.0,Object_Sea_Solid_Large,-3.0,,,,,,,,,,,
encoding,image,5,16149752,16150764,16150003.0,16150268.0,266.0,266.0,1580.9,1297.0,1591.0,891.0,Object_Sea_Solid_Large,64.43387787500069,65.44495395900049,1.0,Object_Sea_Solid_Large,-3.0,,,,,,,,,,,
encoding,image,5,16149752,16150764,16150277.0,16150471.0,195.0,195.0,1545.2,1278.6,1591.0,891.0,Object_Sea_Solid_Large,64.43387787500069,65.44495395900049,1.0,Object_Sea_Solid_Large,-3.0,,,,,,,,,,,
encoding,image,5,16149752,16150764,16150658.0,16150967.0,310.0,106.0,1551.4,1320.2,1591.0,891.0,Object_Sea_Solid_Large,64.43387787500069,65.44495395900049,1.0,Object_Sea_Solid_Large,-3.0,,,,,,,,,,,
encoding,value,5,16150764,16156775,16150986.0,16151405.0,420.0,420.0,1590.0,1220.3,1591.0,891.0,Object_Sea_Solid_Large,65.44506899999942,71.45672179199937,1.0,Object_Sea_Solid_Large,-3.0,,,,,,,,,,,
encoding,value,5,16150764,16156775,16151607.0,16152176.0,570.0,570.0,1567.4,1279.7,1591.0,891.0,Object_Sea_Solid_Large,65.44506899999942,71.45672179199937,1.0,Object_Sea_Solid_Large,-3.0,,,,,,,,,,,
encoding,value,5,16150764,16156775,16152185.0,16152676.0,492.0,492.0,1581.7,1303.4,1591.0,891.0,Object_Sea_Solid_Large,65.44506899999942,71.45672179199937,1.0,Object_Sea_Solid_Large,-3.0,,,,,,,,,,,
encoding,value,5,16150764,16156775,16152867.0,16154438.0,1572.0,1572.0,1579.7,1284.2,1591.0,891.0,Object_Sea_Solid_Large,65.44506899999942,71.45672179199937,1.0,Object_Sea_Solid_Large,-3.0,,,,,,,,,,,
encoding,value,5,16150764,16156775,16154620.0,16154857.0,238.0,238.0,1579.7,1290.6,1591.0,891.0,Object_Sea_Solid_Large,65.44506899999942,71.45672179199937,1.0,Object_Sea_Solid_Large,-3.0,,,,,,,,,,,
encoding,value,5,16150764,16156775,16154867.0,16155750.0,884.0,884.0,1568.9,1244.7,1591.0,891.0,Object_Sea_Solid_Large,65.44506899999942,71.45672179199937,1.0,Object_Sea_Solid_Large,-3.0,,,,,,,,,,,
encoding,value,5,16150764,16156775,16155764.0,16155937.0,174.0,174.0,1575.0,1197.0,1591.0,891.0,Object_Sea_Solid_Large,65.44506899999942,71.45672179199937,1.0,Object_Sea_Solid_Large,-3.0,,,,,,,,,,,
encoding,value,5,16150764,16156775,16156133.0,16157044.0,912.0,642.0,1579.1,1215.0,1591.0,891.0,Object_Sea_Solid_Large,65.44506899999942,71.45672179199937,1.0,Object_Sea_Solid_Large,-3.0,,,,,,,,,,,
encoding,attention,5,16156776,16159845,16157052.0,16157211.0,160.0,160.0,1550.7,1195.2,1591.0,891.0,Object_Sea_Solid_Large,71.45683383399955,74.5263175,1.0,Object_Sea_Solid_Large,-3.0,-3.0,1.0,0.667118291999941,,,,,,,,
encoding,attention,5,16156776,16159845,16157230.0,16157571.0,342.0,342.0,1626.8,1204.2,1591.0,891.0,Object_Sea_Solid_Large,71.45683383399955,74.5263175,1.0,Object_Sea_Solid_Large,-3.0,-3.0,1.0,0.667118291999941,,,,,,,,
encoding,attention,5,16156776,16159845,16157590.0,16158126.0,537.0,537.0,1609.0,1285.6,1591.0,891.0,Object_Sea_Solid_Large,71.45683383399955,74.5263175,1.0,Object_Sea_Solid_Large,-3.0,-3.0,1.0,0.667118291999941,,,,,,,,
encoding,attention,5,16156776,16159845,16158308.0,16159221.0,914.0,914.0,1632.4,1215.2,1591.0,891.0,Object_Sea_Solid_Large,71.45683383399955,74.5263175,1.0,Object_Sea_Solid_Large,-3.0,-3.0,1.0,0.667118291999941,,,,,,,,
encoding,attention,5,16156776,16159845,16159421.0,16159506.0,86.0,86.0,1683.2,1231.4,1591.0,891.0,Object_Sea_Solid_Large,71.45683383399955,74.5263175,1.0,Object_Sea_Solid_Large,-3.0,-3.0,1.0,0.667118291999941,,,,,,,,
encoding,fixation,6,16159845,16161352,16160140.0,16160515.0,376.0,376.0,1908.6,1146.1,1920.0,1080.0,fixation,74.52656445899993,76.03313250000065,1.0,Object_Sea_Solid_Small,7.0,,,,,,,,,,,
encoding,fixation,6,16159845,16161352,16160759.0,16160962.0,204.0,204.0,1779.2,1257.4,1591.0,891.0,Object_Sea_Solid_Large,74.52656445899993,76.03313250000065,1.0,Object_Sea_Solid_Small,7.0,,,,,,,,,,,
encoding,fixation,6,16159845,16161352,16160979.0,16161308.0,330.0,330.0,1835.7,1136.7,1591.0,891.0,Object_Sea_Solid_Large,74.52656445899993,76.03313250000065,1.0,Object_Sea_Solid_Small,7.0,,,,,,,,,,,
encoding,image,6,16161352,16162364,16161576.0,16161645.0,70.0,70.0,1865.0,1200.8,1920.0,700.0,Animal_Land_Pattern_Large,76.03331991699997,77.04473074999987,1.0,Object_Sea_Solid_Small,7.0,,,,,,,,,,,
encoding,image,6,16161352,16162364,16161701.0,16161849.0,149.0,149.0,1580.2,972.0999999999999,1591.0,1269.0,Object_Sea_Solid_Small,76.03331991699997,77.04473074999987,1.0,Object_Sea_Solid_Small,7.0,,,,,,,,,,,
encoding,image,6,16161352,16162364,16161857.0,16162378.0,522.0,507.0,1549.3,931.2,1591.0,1269.0,Object_Sea_Solid_Small,76.03331991699997,77.04473074999987,1.0,Object_Sea_Solid_Small,7.0,,,,,,,,,,,
encoding,value,6,16162364,16168374,16162664.0,16162738.0,75.0,75.0,1581.4,1046.9,1591.0,1269.0,Object_Sea_Solid_Small,77.04485358400052,83.055161667,1.0,Object_Sea_Solid_Small,7.0,,,,,,,,,,,
encoding,value,6,16162364,16168374,16162777.0,16163012.0,236.0,236.0,1560.7,888.0,1591.0,1269.0,Object_Sea_Solid_Small,77.04485358400052,83.055161667,1.0,Object_Sea_Solid_Small,7.0,,,,,,,,,,,
encoding,value,6,16162364,16168374,16163036.0,16163212.0,177.0,177.0,1573.9,957.9000000000001,1591.0,1269.0,Object_Sea_Solid_Small,77.04485358400052,83.055161667,1.0,Object_Sea_Solid_Small,7.0,,,,,,,,,,,
encoding,value,6,16162364,16168374,16163461.0,16164383.0,923.0,923.0,1567.4,976.0,1591.0,1269.0,Object_Sea_Solid_Small,77.04485358400052,83.055161667,1.0,Object_Sea_Solid_Small,7.0,,,,,,,,,,,
encoding,value,6,16162364,16168374,16164629.0,16164860.0,232.0,232.0,1551.6,1008.2,1591.0,1269.0,Object_Sea_Solid_Small,77.04485358400052,83.055161667,1.0,Object_Sea_Solid_Small,7.0,,,,,,,,,,,
encoding,value,6,16162364,16168374,16164886.0,16165158.0,273.0,273.0,1573.9,848.5,1591.0,1269.0,Object_Sea_Solid_Small,77.04485358400052,83.055161667,1.0,Object_Sea_Solid_Small,7.0,,,,,,,,,,,
encoding,value,6,16162364,16168374,16165183.0,16165808.0,626.0,626.0,1581.2,949.4000000000001,1591.0,1269.0,Object_Sea_Solid_Small,77.04485358400052,83.055161667,1.0,Object_Sea_Solid_Small,7.0,,,,,,,,,,,
encoding,value,6,16162364,16168374,16166086.0,16166579.0,494.0,494.0,1570.2,871.4000000000001,1591.0,1269.0,Object_Sea_Solid_Small,77.04485358400052,83.055161667,1.0,Object_Sea_Solid_Small,7.0,,,,,,,,,,,
encoding,value,6,16162364,16168374,16166604.0,16167023.0,420.0,420.0,1601.5,935.7,1591.0,1269.0,Object_Sea_Solid_Small,77.04485358400052,83.055161667,1.0,Object_Sea_Solid_Small,7.0,,,,,,,,,,,
encoding,value,6,16162364,16168374,16167046.0,16167362.0,317.0,317.0,1579.5,829.7,1591.0,1269.0,Object_Sea_Solid_Small,77.04485358400052,83.055161667,1.0,Object_Sea_Solid_Small,7.0,,,,,,,,,,,
encoding,value,6,16162364,16168374,16167384.0,16168137.0,754.0,754.0,1575.0,969.0999999999999,1591.0,1269.0,Object_Sea_Solid_Small,77.04485358400052,83.055161667,1.0,Object_Sea_Solid_Small,7.0,,,,,,,,,,,
encoding,attention,6,16168375,16171393,16168405.0,16168610.0,206.0,206.0,1568.8,964.0,1591.0,1269.0,Object_Sea_Solid_Small,83.0552755839999,86.07302916700064,1.0,Object_Sea_Solid_Small,7.0,7.0,1.0,1.1683920830000716,,,,,,,,
encoding,attention,6,16168375,16171393,16168624.0,16168817.0,194.0,194.0,1554.5,859.0,1591.0,1269.0,Object_Sea_Solid_Small,83.0552755839999,86.07302916700064,1.0,Object_Sea_Solid_Small,7.0,7.0,1.0,1.1683920830000716,,,,,,,,
encoding,attention,6,16168375,16171393,16168827.0,16169836.0,1010.0,1010.0,1521.5,809.0,1591.0,1269.0,Object_Sea_Solid_Small,83.0552755839999,86.07302916700064,1.0,Object_Sea_Solid_Small,7.0,7.0,1.0,1.1683920830000716,,,,,,,,
encoding,attention,6,16168375,16171393,16169876.0,16170262.0,387.0,387.0,1566.7,976.4000000000001,1591.0,1269.0,Object_Sea_Solid_Small,83.0552755839999,86.07302916700064,1.0,Object_Sea_Solid_Small,7.0,7.0,1.0,1.1683920830000716,,,,,,,,
encoding,attention,6,16168375,16171393,16170515.0,16170921.0,407.0,407.0,1565.4,957.7,1591.0,1269.0,Object_Sea_Solid_Small,83.0552755839999,86.07302916700064,1.0,Object_Sea_Solid_Small,7.0,7.0,1.0,1.1683920830000716,,,,,,,,
encoding,attention,6,16168375,16171393,16170942.0,16171170.0,229.0,229.0,1533.4,882.0,1591.0,1269.0,Object_Sea_Solid_Small,83.0552755839999,86.07302916700064,1.0,Object_Sea_Solid_Small,7.0,7.0,1.0,1.1683920830000716,,,,,,,,
encoding,fixation,7,16743997,16745254,16744050.0,16744244.0,195.0,195.0,1794.5,1193.7,1591.0,891.0,Animal_Sea_Pattern_Small,15.441911665999214,16.698586250000517,2.0,Object_Land_Solid_Large,6.0,,,,,,,,,,,
encoding,fixation,7,16743997,16745254,16744266.0,16744517.0,252.0,252.0,1898.1,1130.8,1920.0,1080.0,fixation,15.441911665999214,16.698586250000517,2.0,Object_Land_Solid_Large,6.0,,,,,,,,,,,
encoding,fixation,7,16743997,16745254,16744536.0,16745120.0,585.0,585.0,1906.1,1225.3,1920.0,700.0,Object_Sea_Pattern_Large,15.441911665999214,16.698586250000517,2.0,Object_Land_Solid_Large,6.0,,,,,,,,,,,
encoding,fixation,7,16743997,16745254,16745138.0,16745418.0,281.0,116.0,1855.1,1315.1,1920.0,700.0,Object_Sea_Pattern_Large,15.441911665999214,16.698586250000517,2.0,Object_Land_Solid_Large,6.0,,,,,,,,,,,
encoding,image,7,16745254,16746264,16745470.0,16745878.0,409.0,409.0,1562.9,974.4000000000001,1591.0,1269.0,Object_Land_Solid_Large,16.698709915999643,17.70930425000006,2.0,Object_Land_Solid_Large,6.0,,,,,,,,,,,
encoding,image,7,16745254,16746264,16745886.0,16746441.0,556.0,378.0,1620.4,946.0,1591.0,1269.0,Object_Land_Solid_Large,16.698709915999643,17.70930425000006,2.0,Object_Land_Solid_Large,6.0,,,,,,,,,,,
encoding,value,7,16746264,16752277,16746459.0,16746771.0,313.0,313.0,1603.4,862.3,1591.0,1269.0,Object_Land_Solid_Large,17.70944899999995,23.721454291000555,2.0,Object_Land_Solid_Large,6.0,,,,,,,,,,,
encoding,value,7,16746264,16752277,16746958.0,16747103.0,146.0,146.0,1591.6,965.7,1591.0,1269.0,Object_Land_Solid_Large,17.70944899999995,23.721454291000555,2.0,Object_Land_Solid_Large,6.0,,,,,,,,,,,
encoding,value,7,16746264,16752277,16747132.0,16747465.0,334.0,334.0,1610.6,942.5999999999999,1591.0,1269.0,Object_Land_Solid_Large,17.70944899999995,23.721454291000555,2.0,Object_Land_Solid_Large,6.0,,,,,,,,,,,
encoding,value,7,16746264,16752277,16747498.0,16747712.0,215.0,215.0,1606.3,826.3,1591.0,1269.0,Object_Land_Solid_Large,17.70944899999995,23.721454291000555,2.0,Object_Land_Solid_Large,6.0,,,,,,,,,,,
encoding,value,7,16746264,16752277,16747991.0,16748653.0,663.0,663.0,1597.0,866.5,1591.0,1269.0,Object_Land_Solid_Large,17.70944899999995,23.721454291000555,2.0,Object_Land_Solid_Large,6.0,,,,,,,,,,,
encoding,value,7,16746264,16752277,16748670.0,16749849.0,1180.0,1180.0,1591.8,929.0,1591.0,1269.0,Object_Land_Solid_Large,17.70944899999995,23.721454291000555,2.0,Object_Land_Solid_Large,6.0,,,,,,,,,,,
encoding,value,7,16746264,16752277,16749869.0,16750306.0,438.0,438.0,1604.7,839.2,1591.0,1269.0,Object_Land_Solid_Large,17.70944899999995,23.721454291000555,2.0,Object_Land_Solid_Large,6.0,,,,,,,,,,,
encoding,value,7,16746264,16752277,16750538.0,16750774.0,237.0,237.0,1615.3,942.5,1591.0,1269.0,Object_Land_Solid_Large,17.70944899999995,23.721454291000555,2.0,Object_Land_Solid_Large,6.0,,,,,,,,,,,
encoding,value,7,16746264,16752277,16750794.0,16751127.0,334.0,334.0,1600.1,958.0999999999999,1591.0,1269.0,Object_Land_Solid_Large,17.70944899999995,23.721454291000555,2.0,Object_Land_Solid_Large,6.0,,,,,,,,,,,
encoding,value,7,16746264,16752277,16751137.0,16751410.0,274.0,274.0,1632.5,892.2,1591.0,1269.0,Object_Land_Solid_Large,17.70944899999995,23.721454291000555,2.0,Object_Land_Solid_Large,6.0,,,,,,,,,,,
encoding,value,7,16746264,16752277,16751427.0,16751809.0,383.0,383.0,1617.2,816.8,1591.0,1269.0,Object_Land_Solid_Large,17.70944899999995,23.721454291000555,2.0,Object_Land_Solid_Large,6.0,,,,,,,,,,,
encoding,value,7,16746264,16752277,16751833.0,16752185.0,353.0,353.0,1614.5,949.0999999999999,1591.0,1269.0,Object_Land_Solid_Large,17.70944899999995,23.721454291000555,2.0,Object_Land_Solid_Large,6.0,,,,,,,,,,,
encoding,value,7,16746264,16752277,16752199.0,16752493.0,295.0,78.0,1589.9,868.0999999999999,1591.0,1269.0,Object_Land_Solid_Large,17.70944899999995,23.721454291000555,2.0,Object_Land_Solid_Large,6.0,,,,,,,,,,,
encoding,attention,7,16752277,16755294,16752506.0,16752672.0,167.0,167.0,1573.3,815.8,1591.0,1269.0,Object_Land_Solid_Large,23.72158004099947,26.73898679100057,2.0,Object_Land_Solid_Large,6.0,6.0,1.0,1.196397292000256,,,,,,,,
encoding,attention,7,16752277,16755294,16752684.0,16752834.0,151.0,151.0,1632.8,830.0,1591.0,1269.0,Object_Land_Solid_Large,23.72158004099947,26.73898679100057,2.0,Object_Land_Solid_Large,6.0,6.0,1.0,1.196397292000256,,,,,,,,
encoding,attention,7,16752277,16755294,16752855.0,16753332.0,478.0,478.0,1549.7,817.9000000000001,1591.0,1269.0,Object_Land_Solid_Large,23.72158004099947,26.73898679100057,2.0,Object_Land_Solid_Large,6.0,6.0,1.0,1.196397292000256,,,,,,,,
encoding,attention,7,16752277,16755294,16753352.0,16753798.0,447.0,447.0,1569.5,913.9000000000001,1591.0,1269.0,Object_Land_Solid_Large,23.72158004099947,26.73898679100057,2.0,Object_Land_Solid_Large,6.0,6.0,1.0,1.196397292000256,,,,,,,,
encoding,fixation,8,16755295,16755800,16755351.0,16755526.0,176.0,176.0,1587.5,926.8,1591.0,1269.0,Object_Land_Solid_Large,26.739139125000293,27.244649082998876,2.0,Animal_Sea_Pattern_Small,8.0,,,,,,,,,,,
encoding,fixation,8,16755295,16755800,16755569.0,16755733.0,165.0,165.0,1920.3,1131.7,1920.0,1080.0,fixation,26.739139125000293,27.244649082998876,2.0,Animal_Sea_Pattern_Small,8.0,,,,,,,,,,,
encoding,fixation,8,16755295,16755800,16755740.0,16755967.0,228.0,60.0,1896.8,1108.0,1920.0,1080.0,fixation,26.739139125000293,27.244649082998876,2.0,Animal_Sea_Pattern_Small,8.0,,,,,,,,,,,
encoding,image,8,16755800,16756812,16756009.0,16756997.0,989.0,803.0,1599.2,1254.1,1591.0,891.0,Animal_Sea_Pattern_Small,27.24475849999908,28.256307040999673,2.0,Animal_Sea_Pattern_Small,8.0,,,,,,,,,,,
encoding,value,8,16756812,16762824,16757013.0,16757328.0,316.0,316.0,1590.3,1159.1,1591.0,891.0,Animal_Sea_Pattern_Small,28.256445125000027,34.268353375000515,2.0,Animal_Sea_Pattern_Small,8.0,,,,,,,,,,,
encoding,value,8,16756812,16762824,16757351.0,16757806.0,456.0,456.0,1597.0,1270.7,1591.0,891.0,Animal_Sea_Pattern_Small,28.256445125000027,34.268353375000515,2.0,Animal_Sea_Pattern_Small,8.0,,,,,,,,,,,
encoding,value,8,16756812,16762824,16757814.0,16758069.0,256.0,256.0,1566.3,1246.8,1591.0,891.0,Animal_Sea_Pattern_Small,28.256445125000027,34.268353375000515,2.0,Animal_Sea_Pattern_Small,8.0,,,,,,,,,,,
encoding,value,8,16756812,16762824,16758094.0,16758303.0,210.0,210.0,1603.9,1170.4,1591.0,891.0,Animal_Sea_Pattern_Small,28.256445125000027,34.268353375000515,2.0,Animal_Sea_Pattern_Small,8.0,,,,,,,,,,,
encoding,value,8,16756812,16762824,16758321.0,16758600.0,280.0,280.0,1610.6,1265.1,1591.0,891.0,Animal_Sea_Pattern_Small,28.256445125000027,34.268353375000515,2.0,Animal_Sea_Pattern_Small,8.0,,,,,,,,,,,
encoding,value,8,16756812,16762824,16758617.0,16758789.0,173.0,173.0,1602.7,1182.5,1591.0,891.0,Animal_Sea_Pattern_Small,28.256445125000027,34.268353375000515,2.0,Animal_Sea_Pattern_Small,8.0,,,,,,,,,,,
encoding,value,8,16756812,16762824,16758809.0,16759106.0,298.0,298.0,1611.0,1265.4,1591.0,891.0,Animal_Sea_Pattern_Small,28.256445125000027,34.268353375000515,2.0,Animal_Sea_Pattern_Small,8.0,,,,,,,,,,,
encoding,value,8,16756812,16762824,16759300.0,16759632.0,333.0,333.0,1592.6,1264.6,1591.0,891.0,Animal_Sea_Pattern_Small,28.256445125000027,34.268353375000515,2.0,Animal_Sea_Pattern_Small,8.0,,,,,,,,,,,
encoding,value,8,16756812,16762824,16759641.0,16759901.0,261.0,261.0,1626.3,1241.2,1591.0,891.0,Animal_Sea_Pattern_Small,28.256445125000027,34.268353375000515,2.0,Animal_Sea_Pattern_Small,8.0,,,,,,,,,,,
encoding,value,8,16756812,16762824,16759911.0,16760178.0,268.0,268.0,1611.6,1271.6,1591.0,891.0,Animal_Sea_Pattern_Small,28.256445125000027,34.268353375000515,2.0,Animal_Sea_Pattern_Small,8.0,,,,,,,,,,,
encoding,value,8,16756812,16762824,16760197.0,16760707.0,511.0,511.0,1605.3,1181.5,1591.0,891.0,Animal_Sea_Pattern_Small,28.256445125000027,34.268353375000515,2.0,Animal_Sea_Pattern_Small,8.0,,,,,,,,,,,
encoding,value,8,16756812,16762824,16760888.0,16761723.0,836.0,836.0,1602.7,1187.0,1591.0,891.0,Animal_Sea_Pattern_Small,28.256445125000027,34.268353375000515,2.0,Animal_Sea_Pattern_Small,8.0,,,,,,,,,,,
encoding,value,8,16756812,16762824,16761758.0,16762080.0,323.0,323.0,1619.6,1265.3,1591.0,891.0,Animal_Sea_Pattern_Small,28.256445125000027,34.268353375000515,2.0,Animal_Sea_Pattern_Small,8.0,,,,,,,,,,,
encoding,value,8,16756812,16762824,16762087.0,16762475.0,389.0,389.0,1594.5,1258.0,1591.0,891.0,Animal_Sea_Pattern_Small,28.256445125000027,34.268353375000515,2.0,Animal_Sea_Pattern_Small,8.0,,,,,,,,,,,
encoding,value,8,16756812,16762824,16762484.0,16763302.0,819.0,340.0,1631.9,1259.7,1591.0,891.0,Animal_Sea_Pattern_Small,28.256445125000027,34.268353375000515,2.0,Animal_Sea_Pattern_Small,8.0,,,,,,,,,,,
encoding,attention,8,16762824,16765842,16763318.0,16763886.0,569.0,569.0,1630.4,1187.0,1591.0,891.0,Animal_Sea_Pattern_Small,34.26857474999997,37.286510874999294,2.0,Animal_Sea_Pattern_Small,8.0,8.0,1.0,2.1114965830001893,,,,,,,,
encoding,attention,8,16762824,16765842,16763904.0,16764232.0,329.0,329.0,1566.3,1186.0,1591.0,891.0,Animal_Sea_Pattern_Small,34.26857474999997,37.286510874999294,2.0,Animal_Sea_Pattern_Small,8.0,8.0,1.0,2.1114965830001893,,,,,,,,
encoding,attention,8,16762824,16765842,16764410.0,16764567.0,158.0,158.0,1632.2,1228.7,1591.0,891.0,Animal_Sea_Pattern_Small,34.26857474999997,37.286510874999294,2.0,Animal_Sea_Pattern_Small,8.0,8.0,1.0,2.1114965830001893,,,,,,,,
encoding,attention,8,16762824,16765842,16764574.0,16765496.0,923.0,923.0,1662.4,1179.7,1591.0,891.0,Animal_Sea_Pattern_Small,34.26857474999997,37.286510874999294,2.0,Animal_Sea_Pattern_Small,8.0,8.0,1.0,2.1114965830001893,,,,,,,,
encoding,fixation,9,16765842,16766348,16765887.0,16766139.0,253.0,253.0,1585.6,1163.3,1591.0,891.0,Animal_Sea_Pattern_Small,37.286674416000096,37.79190670800017,2.0,Object_Sea_Pattern_Large,-4.0,,,,,,,,,,,
encoding,fixation,9,16765842,16766348,16766166.0,16766352.0,187.0,182.0,1879.9,1138.8,1591.0,891.0,Animal_Sea_Pattern_Small,37.286674416000096,37.79190670800017,2.0,Object_Sea_Pattern_Large,-4.0,,,,,,,,,,,
encoding,image,9,16766348,16767359,16766535.0,16766638.0,104.0,104.0,1575.8,1148.8,1591.0,891.0,Animal_Sea_Pattern_Small,37.79202116600027,38.80310666600053,2.0,Object_Sea_Pattern_Large,-4.0,,,,,,,,,,,
encoding,image,9,16766348,16767359,16766687.0,16766817.0,131.0,131.0,1855.4,1433.6,1920.0,700.0,Object_Sea_Pattern_Large,37.79202116600027,38.80310666600053,2.0,Object_Sea_Pattern_Large,-4.0,,,,,,,,,,,
encoding,image,9,16766348,16767359,16766834.0,16767292.0,459.0,459.0,1916.5,1392.6,1920.0,700.0,Object_Sea_Pattern_Large,37.79202116600027,38.80310666600053,2.0,Object_Sea_Pattern_Large,-4.0,,,,,,,,,,,
encoding,image,9,16766348,16767359,16767303.0,16767527.0,225.0,56.0,1933.5,1426.7,1920.0,700.0,Object_Sea_Pattern_Large,37.79202116600027,38.80310666600053,2.0,Object_Sea_Pattern_Large,-4.0,,,,,,,,,,,
encoding,value,9,16767359,16773371,16767546.0,16767790.0,245.0,245.0,1910.5,1344.1,1920.0,700.0,Object_Sea_Pattern_Large,38.80321537499913,44.815186750000066,2.0,Object_Sea_Pattern_Large,-4.0,,,,,,,,,,,
encoding,value,9,16767359,16773371,16767811.0,16768159.0,349.0,349.0,1928.2,1432.2,1920.0,700.0,Object_Sea_Pattern_Large,38.80321537499913,44.815186750000066,2.0,Object_Sea_Pattern_Large,-4.0,,,,,,,,,,,
encoding,value,9,16767359,16773371,16768173.0,16768366.0,194.0,194.0,1923.3,1369.3,1920.0,700.0,Object_Sea_Pattern_Large,38.80321537499913,44.815186750000066,2.0,Object_Sea_Pattern_Large,-4.0,,,,,,,,,,,
encoding,value,9,16767359,16773371,16768383.0,16768820.0,438.0,438.0,1921.5,1434.8,1920.0,700.0,Object_Sea_Pattern_Large,38.80321537499913,44.815186750000066,2.0,Object_Sea_Pattern_Large,-4.0,,,,,,,,,,,
encoding,value,9,16767359,16773371,16768838.0,16769303.0,466.0,466.0,1924.1,1367.5,1920.0,700.0,Object_Sea_Pattern_Large,38.80321537499913,44.815186750000066,2.0,Object_Sea_Pattern_Large,-4.0,,,,,,,,,,,
encoding,value,9,16767359,16773371,16769322.0,16769675.0,354.0,354.0,1931.7,1436.9,1920.0,700.0,Object_Sea_Pattern_Large,38.80321537499913,44.815186750000066,2.0,Object_Sea_Pattern_Large,-4.0,,,,,,,,,,,
encoding,value,9,16767359,16773371,16769684.0,16770053.0,370.0,370.0,1933.9,1478.2,1920.0,700.0,Object_Sea_Pattern_Large,38.80321537499913,44.815186750000066,2.0,Object_Sea_Pattern_Large,-4.0,,,,,,,,,,,
encoding,value,9,16767359,16773371,16770068.0,16770289.0,222.0,222.0,1915.2,1416.9,1920.0,700.0,Object_Sea_Pattern_Large,38.80321537499913,44.815186750000066,2.0,Object_Sea_Pattern_Large,-4.0,,,,,,,,,,,
encoding,value,9,16767359,16773371,16770302.0,16770556.0,255.0,255.0,1936.4,1362.4,1920.0,700.0,Object_Sea_Pattern_Large,38.80321537499913,44.815186750000066,2.0,Object_Sea_Pattern_Large,-4.0,,,,,,,,,,,
encoding,value,9,16767359,16773371,16770708.0,16770824.0,117.0,117.0,1920.5,1433.1,1920.0,700.0,Object_Sea_Pattern_Large,38.80321537499913,44.815186750000066,2.0,Object_Sea_Pattern_Large,-4.0,,,,,,,,,,,
encoding,value,9,16767359,16773371,16770831.0,16771564.0,734.0,734.0,1908.4,1364.4,1920.0,700.0,Object_Sea_Pattern_Large,38.80321537499913,44.815186750000066,2.0,Object_Sea_Pattern_Large,-4.0,,,,,,,,,,,
encoding,value,9,16767359,16773371,16771584.0,16771938.0,355.0,355.0,1914.6,1452.9,1920.0,700.0,Object_Sea_Pattern_Large,38.80321537499913,44.815186750000066,2.0,Object_Sea_Pattern_Large,-4.0,,,,,,,,,,,
encoding,value,9,16767359,16773371,16771952.0,16772936.0,985.0,985.0,1916.8,1385.2,1920.0,700.0,Object_Sea_Pattern_Large,38.80321537499913,44.815186750000066,2.0,Object_Sea_Pattern_Large,-4.0,,,,,,,,,,,
encoding,value,9,16767359,16773371,16772954.0,16773149.0,196.0,196.0,1917.7,1437.2,1920.0,700.0,Object_Sea_Pattern_Large,38.80321537499913,44.815186750000066,2.0,Object_Sea_Pattern_Large,-4.0,,,,,,,,,,,
encoding,value,9,16767359,16773371,16773167.0,16773891.0,725.0,204.0,1938.3,1376.5,1920.0,700.0,Object_Sea_Pattern_Large,38.80321537499913,44.815186750000066,2.0,Object_Sea_Pattern_Large,-4.0,,,,,,,,,,,
encoding,attention,9,16773372,16776390,16773914.0,16774052.0,139.0,139.0,1936.5,1450.7,1920.0,700.0,Object_Sea_Pattern_Large,44.81535724999958,47.83329591599977,2.0,Object_Sea_Pattern_Large,-4.0,-4.0,1.0,1.869281791998219,,,,,,,,
encoding,attention,9,16773372,16776390,16774617.0,16774694.0,78.0,78.0,1940.6,1334.7,1920.0,700.0,Object_Sea_Pattern_Large,44.81535724999958,47.83329591599977,2.0,Object_Sea_Pattern_Large,-4.0,-4.0,1.0,1.869281791998219,,,,,,,,
encoding,attention,9,16773372,16776390,16774701.0,16774756.0,56.0,56.0,1930.5,1299.0,1920.0,700.0,Object_Sea_Pattern_Large,44.81535724999958,47.83329591599977,2.0,Object_Sea_Pattern_Large,-4.0,-4.0,1.0,1.869281791998219,,,,,,,,
encoding,attention,9,16773372,16776390,16774777.0,16775550.0,774.0,774.0,1981.8,1370.6,1920.0,700.0,Object_Sea_Pattern_Large,44.81535724999958,47.83329591599977,2.0,Object_Sea_Pattern_Large,-4.0,-4.0,1.0,1.869281791998219,,,,,,,,
encoding,attention,9,16773372,16776390,16775733.0,16776333.0,601.0,601.0,1921.2,1437.3,1920.0,700.0,Object_Sea_Pattern_Large,44.81535724999958,47.83329591599977,2.0,Object_Sea_Pattern_Large,-4.0,-4.0,1.0,1.869281791998219,,,,,,,,
encoding,fixation,10,16776390,16777395,16776662.0,16777033.0,372.0,372.0,1901.9,1129.5,1920.0,1080.0,fixation,47.83350729099948,48.838739499999065,2.0,Object_Sea_Pattern_Small,-1.0,,,,,,,,,,,
encoding,fixation,10,16776390,16777395,16777217.0,16777659.0,443.0,178.0,1898.8,1124.8,1920.0,1080.0,fixation,47.83350729099948,48.838739499999065,2.0,Object_Sea_Pattern_Small,-1.0,,,,,,,,,,,
encoding,image,10,16777395,16778406,16777705.0,16778657.0,953.0,701.0,1910.6,737.9000000000001,1920.0,1460.0,Object_Sea_Pattern_Small,48.83887233299902,49.84990133300016,2.0,Object_Sea_Pattern_Small,-1.0,,,,,,,,,,,
encoding,value,10,16778407,16784418,16778681.0,16778877.0,197.0,197.0,1930.6,592.5999999999999,1920.0,1460.0,Object_Sea_Pattern_Small,49.85001883299992,55.861589000000095,2.0,Object_Sea_Pattern_Small,-1.0,,,,,,,,,,,
encoding,value,10,16778407,16784418,16778901.0,16779428.0,528.0,528.0,1918.1,722.7,1920.0,1460.0,Object_Sea_Pattern_Small,49.85001883299992,55.861589000000095,2.0,Object_Sea_Pattern_Small,-1.0,,,,,,,,,,,
encoding,value,10,16778407,16784418,16779678.0,16780234.0,557.0,557.0,1901.3,717.8,1920.0,1460.0,Object_Sea_Pattern_Small,49.85001883299992,55.861589000000095,2.0,Object_Sea_Pattern_Small,-1.0,,,,,,,,,,,
encoding,value,10,16778407,16784418,16780273.0,16781443.0,1171.0,1171.0,1918.2,751.3,1920.0,1460.0,Object_Sea_Pattern_Small,49.85001883299992,55.861589000000095,2.0,Object_Sea_Pattern_Small,-1.0,,,,,,,,,,,
encoding,value,10,16778407,16784418,16781451.0,16781887.0,437.0,437.0,1874.0,743.2,1920.0,1460.0,Object_Sea_Pattern_Small,49.85001883299992,55.861589000000095,2.0,Object_Sea_Pattern_Small,-1.0,,,,,,,,,,,
encoding,value,10,16778407,16784418,16781896.0,16782428.0,533.0,533.0,1909.1,767.3,1920.0,1460.0,Object_Sea_Pattern_Small,49.85001883299992,55.861589000000095,2.0,Object_Sea_Pattern_Small,-1.0,,,,,,,,,,,
encoding,value,10,16778407,16784418,16782698.0,16783170.0,473.0,473.0,1903.6,729.0,1920.0,1460.0,Object_Sea_Pattern_Small,49.85001883299992,55.861589000000095,2.0,Object_Sea_Pattern_Small,-1.0,,,,,,,,,,,
encoding,value,10,16778407,16784418,16783213.0,16783628.0,416.0,416.0,1889.7,1210.7,1920.0,700.0,Object_Sea_Pattern_Large,49.85001883299992,55.861589000000095,2.0,Object_Sea_Pattern_Small,-1.0,,,,,,,,,,,
encoding,value,10,16778407,16784418,16783644.0,16784006.0,363.0,363.0,1908.5,1127.0,1920.0,1080.0,fixation,49.85001883299992,55.861589000000095,2.0,Object_Sea_Pattern_Small,-1.0,,,,,,,,,,,
encoding,value,10,16778407,16784418,16784028.0,16784215.0,188.0,188.0,1736.6,1236.2,1591.0,891.0,Animal_Sea_Pattern_Small,49.85001883299992,55.861589000000095,2.0,Object_Sea_Pattern_Small,-1.0,,,,,,,,,,,
encoding,value,10,16778407,16784418,16784234.0,16784495.0,262.0,184.0,1897.1,1295.9,1920.0,700.0,Object_Sea_Pattern_Large,49.85001883299992,55.861589000000095,2.0,Object_Sea_Pattern_Small,-1.0,,,,,,,,,,,
encoding,attention,10,16784418,16787436,16784511.0,16784711.0,201.0,201.0,1861.3,1375.6,1920.0,700.0,Object_Sea_Pattern_Large,55.86173445799977,58.87943199999973,2.0,Object_Sea_Pattern_Small,-1.0,-1.0,1.0,1.3045042080011626,,,,,,,,
encoding,attention,10,16784418,16787436,16784779.0,16785008.0,230.0,230.0,1874.2,725.7,1920.0,1460.0,Object_Sea_Pattern_Small,55.86173445799977,58.87943199999973,2.0,Object_Sea_Pattern_Small,-1.0,-1.0,1.0,1.3045042080011626,,,,,,,,
encoding,attention,10,16784418,16787436,16785033.0,16785379.0,347.0,347.0,1882.7,595.2,1920.0,1460.0,Object_Sea_Pattern_Small,55.86173445799977,58.87943199999973,2.0,Object_Sea_Pattern_Small,-1.0,-1.0,1.0,1.3045042080011626,,,,,,,,
encoding,attention,10,16784418,16787436,16785396.0,16785708.0,313.0,313.0,1959.9,600.8,1920.0,1460.0,Object_Sea_Pattern_Small,55.86173445799977,58.87943199999973,2.0,Object_Sea_Pattern_Small,-1.0,-1.0,1.0,1.3045042080011626,,,,,,,,
encoding,attention,10,16784418,16787436,16785729.0,16786080.0,352.0,352.0,1918.6,741.0,1920.0,1460.0,Object_Sea_Pattern_Small,55.86173445799977,58.87943199999973,2.0,Object_Sea_Pattern_Small,-1.0,-1.0,1.0,1.3045042080011626,,,,,,,,
encoding,attention,10,16784418,16787436,16786124.0,16786671.0,548.0,548.0,1902.0,1262.7,1920.0,700.0,Object_Sea_Pattern_Large,55.86173445799977,58.87943199999973,2.0,Object_Sea_Pattern_Small,-1.0,-1.0,1.0,1.3045042080011626,,,,,,,,
encoding,attention,10,16784418,16787436,16786718.0,16787161.0,444.0,444.0,1923.7,707.7,1920.0,1460.0,Object_Sea_Pattern_Small,55.86173445799977,58.87943199999973,2.0,Object_Sea_Pattern_Small,-1.0,-1.0,1.0,1.3045042080011626,,,,,,,,
encoding,fixation,11,16787436,16788442,16787500.0,16787626.0,127.0,127.0,1895.0,773.5,1920.0,1460.0,Object_Sea_Pattern_Small,58.879621333000614,59.88473024999985,2.0,Animal_Land_Solid_Large,5.0,,,,,,,,,,,
encoding,fixation,11,16787436,16788442,16787668.0,16787955.0,288.0,288.0,1912.7,1085.0,1920.0,1080.0,fixation,58.879621333000614,59.88473024999985,2.0,Animal_Land_Solid_Large,5.0,,,,,,,,,,,
encoding,fixation,11,16787436,16788442,16787964.0,16788495.0,532.0,478.0,1939.0,1120.2,1920.0,1080.0,fixation,58.879621333000614,59.88473024999985,2.0,Animal_Land_Solid_Large,5.0,,,,,,,,,,,
encoding,image,11,16788442,16789454,16788509.0,16788627.0,119.0,119.0,2035.6,1124.6,2249.0,891.0,Animal_Land_Solid_Small,59.88485354099976,60.89690429099937,2.0,Animal_Land_Solid_Large,5.0,,,,,,,,,,,
encoding,image,11,16788442,16789454,16788673.0,16788834.0,162.0,162.0,2235.0,924.5999999999999,2249.0,1269.0,Animal_Land_Solid_Large,59.88485354099976,60.89690429099937,2.0,Animal_Land_Solid_Large,5.0,,,,,,,,,,,
encoding,image,11,16788442,16789454,16788845.0,16789433.0,589.0,589.0,2266.7,938.3,2249.0,1269.0,Animal_Land_Solid_Large,59.88485354099976,60.89690429099937,2.0,Animal_Land_Solid_Large,5.0,,,,,,,,,,,
encoding,image,11,16788442,16789454,16789450.0,16789681.0,232.0,4.0,2230.5,825.8,2249.0,1269.0,Animal_Land_Solid_Large,59.88485354099976,60.89690429099937,2.0,Animal_Land_Solid_Large,5.0,,,,,,,,,,,
encoding,value,11,16789454,16795466,16789691.0,16789909.0,219.0,219.0,2251.6,805.5,2249.0,1269.0,Animal_Land_Solid_Large,60.89702733299964,66.90906141599953,2.0,Animal_Land_Solid_Large,5.0,,,,,,,,,,,
encoding,value,11,16789454,16795466,16789934.0,16790448.0,515.0,515.0,2246.0,949.0999999999999,2249.0,1269.0,Animal_Land_Solid_Large,60.89702733299964,66.90906141599953,2.0,Animal_Land_Solid_Large,5.0,,,,,,,,,,,
encoding,value,11,16789454,16795466,16790469.0,16790721.0,253.0,253.0,2189.1,888.5,2249.0,1269.0,Animal_Land_Solid_Large,60.89702733299964,66.90906141599953,2.0,Animal_Land_Solid_Large,5.0,,,,,,,,,,,
encoding,value,11,16789454,16795466,16790748.0,16790947.0,200.0,200.0,1821.7,905.0999999999999,1920.0,1460.0,Object_Sea_Pattern_Small,60.89702733299964,66.90906141599953,2.0,Animal_Land_Solid_Large,5.0,,,,,,,,,,,
encoding,value,11,16789454,16795466,16790987.0,16791180.0,194.0,194.0,2195.6,934.0999999999999,2249.0,1269.0,Animal_Land_Solid_Large,60.89702733299964,66.90906141599953,2.0,Animal_Land_Solid_Large,5.0,,,,,,,,,,,
encoding,value,11,16789454,16795466,16791196.0,16791484.0,289.0,289.0,2243.3,965.7,2249.0,1269.0,Animal_Land_Solid_Large,60.89702733299964,66.90906141599953,2.0,Animal_Land_Solid_Large,5.0,,,,,,,,,,,
encoding,value,11,16789454,16795466,16791505.0,16791721.0,217.0,217.0,2219.1,837.4000000000001,2249.0,1269.0,Animal_Land_Solid_Large,60.89702733299964,66.90906141599953,2.0,Animal_Land_Solid_Large,5.0,,,,,,,,,,,
encoding,value,11,16789454,16795466,16791746.0,16792428.0,683.0,683.0,2244.2,940.7,2249.0,1269.0,Animal_Land_Solid_Large,60.89702733299964,66.90906141599953,2.0,Animal_Land_Solid_Large,5.0,,,,,,,,,,,
encoding,value,11,16789454,16795466,16792440.0,16793508.0,1069.0,1069.0,2213.1,887.8,2249.0,1269.0,Animal_Land_Solid_Large,60.89702733299964,66.90906141599953,2.0,Animal_Land_Solid_Large,5.0,,,,,,,,,,,
encoding,value,11,16789454,16795466,16793525.0,16794127.0,603.0,603.0,2239.0,969.0999999999999,2249.0,1269.0,Animal_Land_Solid_Large,60.89702733299964,66.90906141599953,2.0,Animal_Land_Solid_Large,5.0,,,,,,,,,,,
encoding,value,11,16789454,16795466,16794145.0,16794975.0,831.0,831.0,2212.2,886.2,2249.0,1269.0,Animal_Land_Solid_Large,60.89702733299964,66.90906141599953,2.0,Animal_Land_Solid_Large,5.0,,,,,,,,,,,
encoding,value,11,16789454,16795466,16794990.0,16795201.0,212.0,212.0,2236.3,931.3,2249.0,1269.0,Animal_Land_Solid_Large,60.89702733299964,66.90906141599953,2.0,Animal_Land_Solid_Large,5.0,,,,,,,,,,,
encoding,value,11,16789454,16795466,16795220.0,16795744.0,525.0,246.0,2194.8,885.9000000000001,2249.0,1269.0,Animal_Land_Solid_Large,60.89702733299964,66.90906141599953,2.0,Animal_Land_Solid_Large,5.0,,,,,,,,,,,
encoding,attention,11,16795466,16798487,16795759.0,16796222.0,464.0,464.0,2195.4,818.5999999999999,2249.0,1269.0,Animal_Land_Solid_Large,66.90924112500034,69.92983716600065,2.0,Animal_Land_Solid_Large,5.0,5.0,1.0,0.9924788339994848,,,,,,,,
encoding,attention,11,16795466,16798487,16796244.0,16796771.0,528.0,528.0,2254.3,949.5999999999999,2249.0,1269.0,Animal_Land_Solid_Large,66.90924112500034,69.92983716600065,2.0,Animal_Land_Solid_Large,5.0,5.0,1.0,0.9924788339994848,,,,,,,,
encoding,attention,11,16795466,16798487,16796981.0,16797246.0,266.0,266.0,2231.6,939.0999999999999,2249.0,1269.0,Animal_Land_Solid_Large,66.90924112500034,69.92983716600065,2.0,Animal_Land_Solid_Large,5.0,5.0,1.0,0.9924788339994848,,,,,,,,
encoding,attention,11,16795466,16798487,16797281.0,16797558.0,278.0,278.0,1793.8,1037.3,1591.0,1269.0,Object_Land_Solid_Large,66.90924112500034,69.92983716600065,2.0,Animal_Land_Solid_Large,5.0,5.0,1.0,0.9924788339994848,,,,,,,,
encoding,attention,11,16795466,16798487,16797583.0,16797728.0,146.0,146.0,1582.3,1045.6,1591.0,1269.0,Object_Land_Solid_Large,66.90924112500034,69.92983716600065,2.0,Animal_Land_Solid_Large,5.0,5.0,1.0,0.9924788339994848,,,,,,,,
encoding,attention,11,16795466,16798487,16797788.0,16797973.0,186.0,186.0,2184.3,885.5,2249.0,1269.0,Animal_Land_Solid_Large,66.90924112500034,69.92983716600065,2.0,Animal_Land_Solid_Large,5.0,5.0,1.0,0.9924788339994848,,,,,,,,
encoding,attention,11,16795466,16798487,16797987.0,16798285.0,299.0,299.0,2230.9,862.0,2249.0,1269.0,Animal_Land_Solid_Large,66.90924112500034,69.92983716600065,2.0,Animal_Land_Solid_Large,5.0,5.0,1.0,0.9924788339994848,,,,,,,,
encoding,fixation,12,16798487,16799996,16798514.0,16798664.0,151.0,151.0,2237.4,968.9000000000001,2249.0,1269.0,Animal_Land_Solid_Large,69.9300632909999,71.43856441599928,2.0,Animal_Land_Solid_Small,-8.0,,,,,,,,,,,
encoding,fixation,12,16798487,16799996,16798709.0,16799009.0,301.0,301.0,1894.1,1111.3,1920.0,1080.0,fixation,69.9300632909999,71.43856441599928,2.0,Animal_Land_Solid_Small,-8.0,,,,,,,,,,,
encoding,fixation,12,16798487,16799996,16799026.0,16799448.0,423.0,423.0,1938.8,1096.7,1920.0,1080.0,fixation,69.9300632909999,71.43856441599928,2.0,Animal_Land_Solid_Small,-8.0,,,,,,,,,,,
encoding,fixation,12,16798487,16799996,16799682.0,16799866.0,185.0,185.0,1654.0,1045.9,1591.0,1269.0,Object_Land_Solid_Large,69.9300632909999,71.43856441599928,2.0,Animal_Land_Solid_Small,-8.0,,,,,,,,,,,
encoding,fixation,12,16798487,16799996,16799904.0,16800198.0,295.0,92.0,1591.2,836.0,1591.0,1269.0,Object_Land_Solid_Large,69.9300632909999,71.43856441599928,2.0,Animal_Land_Solid_Small,-8.0,,,,,,,,,,,
encoding,image,12,16799996,16801007,16800244.0,16800389.0,146.0,146.0,2089.8,1192.2,2249.0,891.0,Animal_Land_Solid_Small,71.43867391599997,72.44949420800003,2.0,Animal_Land_Solid_Small,-8.0,,,,,,,,,,,
encoding,image,12,16799996,16801007,16800413.0,16800667.0,255.0,255.0,2250.4,1268.2,2249.0,891.0,Animal_Land_Solid_Small,71.43867391599997,72.44949420800003,2.0,Animal_Land_Solid_Small,-8.0,,,,,,,,,,,
encoding,image,12,16799996,16801007,16800711.0,16800917.0,207.0,207.0,1726.6,1187.5,1591.0,891.0,Animal_Sea_Pattern_Small,71.43867391599997,72.44949420800003,2.0,Animal_Land_Solid_Small,-8.0,,,,,,,,,,,
encoding,image,12,16799996,16801007,16800941.0,16801201.0,261.0,66.0,1522.7,1230.2,1591.0,891.0,Animal_Sea_Pattern_Small,71.43867391599997,72.44949420800003,2.0,Animal_Land_Solid_Small,-8.0,,,,,,,,,,,
encoding,value,12,16801007,16807019,16801257.0,16801389.0,133.0,133.0,2202.6,1200.9,2249.0,891.0,Animal_Land_Solid_Small,72.44960733299922,78.46070654100004,2.0,Animal_Land_Solid_Small,-8.0,,,,,,,,,,,
encoding,value,12,16801007,16807019,16801409.0,16801853.0,445.0,445.0,2252.7,1178.7,2249.0,891.0,Animal_Land_Solid_Small,72.44960733299922,78.46070654100004,2.0,Animal_Land_Solid_Small,-8.0,,,,,,,,,,,
encoding,value,12,16801007,16807019,16801878.0,16802090.0,213.0,213.0,2282.5,1283.1,2249.0,891.0,Animal_Land_Solid_Small,72.44960733299922,78.46070654100004,2.0,Animal_Land_Solid_Small,-8.0,,,,,,,,,,,
encoding,value,12,16801007,16807019,16802111.0,16802334.0,224.0,224.0,2237.2,1173.4,2249.0,891.0,Animal_Land_Solid_Small,72.44960733299922,78.46070654100004,2.0,Animal_Land_Solid_Small,-8.0,,,,,,,,,,,
encoding,value,12,16801007,16807019,16802358.0,16802665.0,308.0,308.0,2256.1,1280.7,2249.0,891.0,Animal_Land_Solid_Small,72.44960733299922,78.46070654100004,2.0,Animal_Land_Solid_Small,-8.0,,,,,,,,,,,
encoding,value,12,16801007,16807019,16802677.0,16803047.0,371.0,371.0,2237.8,1238.6,2249.0,891.0,Animal_Land_Solid_Small,72.44960733299922,78.46070654100004,2.0,Animal_Land_Solid_Small,-8.0,,,,,,,,,,,
encoding,value,12,16801007,16807019,16803065.0,16803505.0,441.0,441.0,2283.0,1299.3,2249.0,891.0,Animal_Land_Solid_Small,72.44960733299922,78.46070654100004,2.0,Animal_Land_Solid_Small,-8.0,,,,,,,,,,,
encoding,value,12,16801007,16807019,16803523.0,16804373.0,851.0,851.0,2244.3,1253.8,2249.0,891.0,Animal_Land_Solid_Small,72.44960733299922,78.46070654100004,2.0,Animal_Land_Solid_Small,-8.0,,,,,,,,,,,
encoding,value,12,16801007,16807019,16804385.0,16804733.0,349.0,349.0,2288.1,1284.6,2249.0,891.0,Animal_Land_Solid_Small,72.44960733299922,78.46070654100004,2.0,Animal_Land_Solid_Small,-8.0,,,,,,,,,,,
encoding,value,12,16801007,16807019,16804754.0,16805408.0,655.0,655.0,2220.4,1177.7,2249.0,891.0,Animal_Land_Solid_Small,72.44960733299922,78.46070654100004,2.0,Animal_Land_Solid_Small,-8.0,,,,,,,,,,,
encoding,value,12,16801007,16807019,16805435.0,16806684.0,1250.0,1250.0,2274.0,1301.2,2249.0,891.0,Animal_Land_Solid_Small,72.44960733299922,78.46070654100004,2.0,Animal_Land_Solid_Small,-8.0,,,,,,,,,,,
encoding,value,12,16801007,16807019,16806710.0,16807337.0,628.0,309.0,2237.3,1205.7,2249.0,891.0,Animal_Land_Solid_Small,72.44960733299922,78.46070654100004,2.0,Animal_Land_Solid_Small,-8.0,,,,,,,,,,,
encoding,attention,12,16807019,16810036,16807354.0,16808498.0,1145.0,1145.0,2201.8,1179.5,2249.0,891.0,Animal_Land_Solid_Small,78.46082354099963,81.47830704099943,2.0,Animal_Land_Solid_Small,-8.0,-8.0,1.0,2.0479657079995377,,,,,,,,
encoding,attention,12,16807019,16810036,16808522.0,16808739.0,218.0,218.0,2252.5,1314.5,2249.0,891.0,Animal_Land_Solid_Small,78.46082354099963,81.47830704099943,2.0,Animal_Land_Solid_Small,-8.0,-8.0,1.0,2.0479657079995377,,,,,,,,
encoding,attention,12,16807019,16810036,16808761.0,16809412.0,652.0,652.0,2179.8,1206.2,2249.0,891.0,Animal_Land_Solid_Small,78.46082354099963,81.47830704099943,2.0,Animal_Land_Solid_Small,-8.0,-8.0,1.0,2.0479657079995377,,,,,,,,
encoding,attention,12,16807019,16810036,16809449.0,16809676.0,228.0,228.0,2242.5,1284.0,2249.0,891.0,Animal_Land_Solid_Small,78.46082354099963,81.47830704099943,2.0,Animal_Land_Solid_Small,-8.0,-8.0,1.0,2.0479657079995377,,,,,,,,
encoding,attention,12,16807019,16810036,16809826.0,16809994.0,169.0,169.0,2241.8,1290.0,2249.0,891.0,Animal_Land_Solid_Small,78.46082354099963,81.47830704099943,2.0,Animal_Land_Solid_Small,-8.0,-8.0,1.0,2.0479657079995377,,,,,,,,
encoding,fixation,13,17366688,17367445,17366965.0,17367157.0,193.0,193.0,1885.2,1141.1,1920.0,700.0,Object_Land_Pattern_Large,23.248985500000344,24.005225917000644,3.0,Object_Land_Solid_Large,5.0,,,,,,,,,,,
encoding,fixation,13,17366688,17367445,17367299.0,17367567.0,269.0,146.0,1871.8,1240.4,1920.0,700.0,Object_Land_Pattern_Large,23.248985500000344,24.005225917000644,3.0,Object_Land_Solid_Large,5.0,,,,,,,,,,,
encoding,image,13,17367445,17368455,17367590.0,17367669.0,80.0,80.0,1883.2,1127.0,1920.0,1080.0,fixation,24.005357333000575,25.01615370800027,3.0,Object_Land_Solid_Large,5.0,,,,,,,,,,,
encoding,image,13,17367445,17368455,17367718.0,17368205.0,488.0,488.0,1574.6,923.5999999999999,1591.0,1269.0,Object_Land_Solid_Large,24.005357333000575,25.01615370800027,3.0,Object_Land_Solid_Large,5.0,,,,,,,,,,,
encoding,image,13,17367445,17368455,17368403.0,17368645.0,243.0,52.0,1581.3,943.0999999999999,1591.0,1269.0,Object_Land_Solid_Large,24.005357333000575,25.01615370800027,3.0,Object_Land_Solid_Large,5.0,,,,,,,,,,,
encoding,value,13,17368456,17374471,17368663.0,17369087.0,425.0,425.0,1594.5,805.5,1591.0,1269.0,Object_Land_Solid_Large,25.016277708000416,31.03080958300052,3.0,Object_Land_Solid_Large,5.0,,,,,,,,,,,
encoding,value,13,17368456,17374471,17369112.0,17369354.0,243.0,243.0,1591.6,888.9000000000001,1591.0,1269.0,Object_Land_Solid_Large,25.016277708000416,31.03080958300052,3.0,Object_Land_Solid_Large,5.0,,,,,,,,,,,
encoding,value,13,17368456,17374471,17369572.0,17369623.0,52.0,52.0,1579.0,952.4000000000001,1591.0,1269.0,Object_Land_Solid_Large,25.016277708000416,31.03080958300052,3.0,Object_Land_Solid_Large,5.0,,,,,,,,,,,
encoding,value,13,17368456,17374471,17369631.0,17369745.0,115.0,115.0,1574.0,918.3,1591.0,1269.0,Object_Land_Solid_Large,25.016277708000416,31.03080958300052,3.0,Object_Land_Solid_Large,5.0,,,,,,,,,,,
encoding,value,13,17368456,17374471,17369770.0,17370225.0,456.0,456.0,1565.3,936.7,1591.0,1269.0,Object_Land_Solid_Large,25.016277708000416,31.03080958300052,3.0,Object_Land_Solid_Large,5.0,,,,,,,,,,,
encoding,value,13,17368456,17374471,17370248.0,17370771.0,524.0,524.0,1575.1,816.8,1591.0,1269.0,Object_Land_Solid_Large,25.016277708000416,31.03080958300052,3.0,Object_Land_Solid_Large,5.0,,,,,,,,,,,
encoding,value,13,17368456,17374471,17371005.0,17371469.0,465.0,465.0,1584.2,959.5,1591.0,1269.0,Object_Land_Solid_Large,25.016277708000416,31.03080958300052,3.0,Object_Land_Solid_Large,5.0,,,,,,,,,,,
encoding,value,13,17368456,17374471,17371477.0,17373470.0,1994.0,1994.0,1567.5,939.0,1591.0,1269.0,Object_Land_Solid_Large,25.016277708000416,31.03080958300052,3.0,Object_Land_Solid_Large,5.0,,,,,,,,,,,
encoding,value,13,17368456,17374471,17373675.0,17374068.0,394.0,394.0,1580.2,968.0,1591.0,1269.0,Object_Land_Solid_Large,25.016277708000416,31.03080958300052,3.0,Object_Land_Solid_Large,5.0,,,,,,,,,,,
encoding,value,13,17368456,17374471,17374084.0,17374682.0,599.0,387.0,1604.6,812.9000000000001,1591.0,1269.0,Object_Land_Solid_Large,25.016277708000416,31.03080958300052,3.0,Object_Land_Solid_Large,5.0,,,,,,,,,,,
encoding,attention,13,17374471,17377488,17374694.0,17374847.0,154.0,154.0,1543.9,797.7,1591.0,1269.0,Object_Land_Solid_Large,31.030971707999925,34.04784666699925,3.0,Object_Land_Solid_Large,5.0,5.0,1.0,0.8865369579998514,,,,,,,,
encoding,attention,13,17374471,17377488,17374858.0,17375181.0,324.0,324.0,1612.4,828.4000000000001,1591.0,1269.0,Object_Land_Solid_Large,31.030971707999925,34.04784666699925,3.0,Object_Land_Solid_Large,5.0,5.0,1.0,0.8865369579998514,,,,,,,,
encoding,attention,13,17374471,17377488,17375430.0,17375691.0,262.0,262.0,1605.0,982.2,1591.0,1269.0,Object_Land_Solid_Large,31.030971707999925,34.04784666699925,3.0,Object_Land_Solid_Large,5.0,5.0,1.0,0.8865369579998514,,,,,,,,
encoding,attention,13,17374471,17377488,17375704.0,17376072.0,369.0,369.0,1623.3,858.5,1591.0,1269.0,Object_Land_Solid_Large,31.030971707999925,34.04784666699925,3.0,Object_Land_Solid_Large,5.0,5.0,1.0,0.8865369579998514,,,,,,,,
encoding,attention,13,17374471,17377488,17376092.0,17376367.0,276.0,276.0,1578.7,922.5999999999999,1591.0,1269.0,Object_Land_Solid_Large,31.030971707999925,34.04784666699925,3.0,Object_Land_Solid_Large,5.0,5.0,1.0,0.8865369579998514,,,,,,,,
encoding,attention,13,17374471,17377488,17376395.0,17376636.0,242.0,242.0,1625.3,828.4000000000001,1591.0,1269.0,Object_Land_Solid_Large,31.030971707999925,34.04784666699925,3.0,Object_Land_Solid_Large,5.0,5.0,1.0,0.8865369579998514,,,,,,,,
encoding,attention,13,17374471,17377488,17376661.0,17376943.0,283.0,283.0,1568.6,935.5999999999999,1591.0,1269.0,Object_Land_Solid_Large,31.030971707999925,34.04784666699925,3.0,Object_Land_Solid_Large,5.0,5.0,1.0,0.8865369579998514,,,,,,,,
encoding,attention,13,17374471,17377488,17376951.0,17377152.0,202.0,202.0,1534.8,921.5,1591.0,1269.0,Object_Land_Solid_Large,31.030971707999925,34.04784666699925,3.0,Object_Land_Solid_Large,5.0,5.0,1.0,0.8865369579998514,,,,,,,,
encoding,fixation,14,17377488,17378243,17377721.0,17378236.0,516.0,516.0,1892.4,1096.0,1920.0,1080.0,fixation,34.04800866699952,34.80326083299951,3.0,Animal_Sea_Pattern_Small,9.0,,,,,,,,,,,
encoding,image,14,17378243,17379255,17378274.0,17378457.0,184.0,184.0,1589.5,1017.0999999999999,1591.0,1269.0,Object_Land_Solid_Large,34.80339008299961,35.81534204200034,3.0,Animal_Sea_Pattern_Small,9.0,,,,,,,,,,,
encoding,image,14,17378243,17379255,17378500.0,17379376.0,877.0,755.0,1589.2,1267.6,1591.0,891.0,Animal_Sea_Pattern_Small,34.80339008299961,35.81534204200034,3.0,Animal_Sea_Pattern_Small,9.0,,,,,,,,,,,
encoding,value,14,17379255,17385268,17379433.0,17379567.0,135.0,135.0,1592.1,1187.3,1591.0,891.0,Animal_Sea_Pattern_Small,35.81553712499954,41.82732808299989,3.0,Animal_Sea_Pattern_Small,9.0,,,,,,,,,,,
encoding,value,14,17379255,17385268,17379802.0,17379998.0,197.0,197.0,1579.2,1246.4,1591.0,891.0,Animal_Sea_Pattern_Small,35.81553712499954,41.82732808299989,3.0,Animal_Sea_Pattern_Small,9.0,,,,,,,,,,,
encoding,value,14,17379255,17385268,17380016.0,17380398.0,383.0,383.0,1599.3,1286.8,1591.0,891.0,Animal_Sea_Pattern_Small,35.81553712499954,41.82732808299989,3.0,Animal_Sea_Pattern_Small,9.0,,,,,,,,,,,
encoding,value,14,17379255,17385268,17380421.0,17381128.0,708.0,708.0,1582.0,1178.0,1591.0,891.0,Animal_Sea_Pattern_Small,35.81553712499954,41.82732808299989,3.0,Animal_Sea_Pattern_Small,9.0,,,,,,,,,,,
encoding,value,14,17379255,17385268,17381315.0,17381528.0,214.0,214.0,1577.8,1236.0,1591.0,891.0,Animal_Sea_Pattern_Small,35.81553712499954,41.82732808299989,3.0,Animal_Sea_Pattern_Small,9.0,,,,,,,,,,,
encoding,value,14,17379255,17385268,17381551.0,17381950.0,400.0,400.0,1590.5,1278.0,1591.0,891.0,Animal_Sea_Pattern_Small,35.81553712499954,41.82732808299989,3.0,Animal_Sea_Pattern_Small,9.0,,,,,,,,,,,
encoding,value,14,17379255,17385268,17381971.0,17383520.0,1550.0,1550.0,1586.4,1174.3,1591.0,891.0,Animal_Sea_Pattern_Small,35.81553712499954,41.82732808299989,3.0,Animal_Sea_Pattern_Small,9.0,,,,,,,,,,,
encoding,value,14,17379255,17385268,17383710.0,17384066.0,357.0,357.0,1599.0,1221.0,1591.0,891.0,Animal_Sea_Pattern_Small,35.81553712499954,41.82732808299989,3.0,Animal_Sea_Pattern_Small,9.0,,,,,,,,,,,
encoding,value,14,17379255,17385268,17384079.0,17384852.0,774.0,774.0,1593.6,1226.8,1591.0,891.0,Animal_Sea_Pattern_Small,35.81553712499954,41.82732808299989,3.0,Animal_Sea_Pattern_Small,9.0,,,,,,,,,,,
encoding,value,14,17379255,17385268,17385031.0,17385213.0,183.0,183.0,1577.0,1266.8,1591.0,891.0,Animal_Sea_Pattern_Small,35.81553712499954,41.82732808299989,3.0,Animal_Sea_Pattern_Small,9.0,,,,,,,,,,,
encoding,value,14,17379255,17385268,17385224.0,17385500.0,277.0,44.0,1612.6,1272.0,1591.0,891.0,Animal_Sea_Pattern_Small,35.81553712499954,41.82732808299989,3.0,Animal_Sea_Pattern_Small,9.0,,,,,,,,,,,
encoding,attention,14,17385268,17388286,17385522.0,17385682.0,161.0,161.0,1573.0,1178.3,1591.0,891.0,Animal_Sea_Pattern_Small,41.82745183299994,44.84546520799995,3.0,Animal_Sea_Pattern_Small,9.0,9.0,1.0,1.4481863330001945,,,,,,,,
encoding,attention,14,17385268,17388286,17385692.0,17385918.0,227.0,227.0,1623.7,1170.4,1591.0,891.0,Animal_Sea_Pattern_Small,41.82745183299994,44.84546520799995,3.0,Animal_Sea_Pattern_Small,9.0,9.0,1.0,1.4481863330001945,,,,,,,,
encoding,attention,14,17385268,17388286,17386117.0,17386362.0,246.0,246.0,1618.9,1199.3,1591.0,891.0,Animal_Sea_Pattern_Small,41.82745183299994,44.84546520799995,3.0,Animal_Sea_Pattern_Small,9.0,9.0,1.0,1.4481863330001945,,,,,,,,
encoding,attention,14,17385268,17388286,17386383.0,17387011.0,629.0,629.0,1595.2,1271.2,1591.0,891.0,Animal_Sea_Pattern_Small,41.82745183299994,44.84546520799995,3.0,Animal_Sea_Pattern_Small,9.0,9.0,1.0,1.4481863330001945,,,,,,,,
encoding,attention,14,17385268,17388286,17387021.0,17387302.0,282.0,282.0,1553.3,1256.6,1591.0,891.0,Animal_Sea_Pattern_Small,41.82745183299994,44.84546520799995,3.0,Animal_Sea_Pattern_Small,9.0,9.0,1.0,1.4481863330001945,,,,,,,,
encoding,attention,14,17385268,17388286,17387488.0,17387668.0,181.0,181.0,1567.6,1261.1,1591.0,891.0,Animal_Sea_Pattern_Small,41.82745183299994,44.84546520799995,3.0,Animal_Sea_Pattern_Small,9.0,9.0,1.0,1.4481863330001945,,,,,,,,
encoding,attention,14,17385268,17388286,17387680.0,17387992.0,313.0,313.0,1586.2,1265.0,1591.0,891.0,Animal_Sea_Pattern_Small,41.82745183299994,44.84546520799995,3.0,Animal_Sea_Pattern_Small,9.0,9.0,1.0,1.4481863330001945,,,,,,,,
encoding,attention,14,17385268,17388286,17388013.0,17388283.0,271.0,271.0,1620.4,1169.6,1591.0,891.0,Animal_Sea_Pattern_Small,41.82745183299994,44.84546520799995,3.0,Animal_Sea_Pattern_Small,9.0,9.0,1.0,1.4481863330001945,,,,,,,,
encoding,fixation,15,17388286,17389541,17388569.0,17388952.0,384.0,384.0,1574.7,931.5,1591.0,1269.0,Object_Land_Solid_Large,44.845639749999464,46.100704500000575,3.0,Object_Land_Solid_Small,-9.0,,,,,,,,,,,
encoding,fixation,15,17388286,17389541,17388976.0,17389208.0,233.0,233.0,1804.8,991.5,1591.0,1269.0,Object_Land_Solid_Large,44.845639749999464,46.100704500000575,3.0,Object_Land_Solid_Small,-9.0,,,,,,,,,,,
encoding,fixation,15,17388286,17389541,17389241.0,17389386.0,146.0,146.0,1569.5,845.4000000000001,1591.0,1269.0,Object_Land_Solid_Large,44.845639749999464,46.100704500000575,3.0,Object_Land_Solid_Small,-9.0,,,,,,,,,,,
encoding,image,15,17389541,17390554,17389632.0,17389935.0,304.0,304.0,1655.6,1039.6,1591.0,1269.0,Object_Land_Solid_Large,46.10082183300074,47.113885291999395,3.0,Object_Land_Solid_Small,-9.0,,,,,,,,,,,
encoding,image,15,17389541,17390554,17389970.0,17390309.0,340.0,340.0,1608.9,1216.3,1591.0,891.0,Animal_Sea_Pattern_Small,46.10082183300074,47.113885291999395,3.0,Object_Land_Solid_Small,-9.0,,,,,,,,,,,
encoding,image,15,17389541,17390554,17390353.0,17390532.0,180.0,180.0,2174.4,1262.1,2249.0,891.0,Object_Land_Solid_Small,46.10082183300074,47.113885291999395,3.0,Object_Land_Solid_Small,-9.0,,,,,,,,,,,
encoding,image,15,17389541,17390554,17390542.0,17390767.0,226.0,12.0,2222.1,1261.9,2249.0,891.0,Object_Land_Solid_Small,46.10082183300074,47.113885291999395,3.0,Object_Land_Solid_Small,-9.0,,,,,,,,,,,
encoding,value,15,17390554,17396566,17390787.0,17391043.0,257.0,257.0,2255.7,1161.3,2249.0,891.0,Object_Land_Solid_Small,47.11405787500007,53.12566949999928,3.0,Object_Land_Solid_Small,-9.0,,,,,,,,,,,
encoding,value,15,17390554,17396566,17391228.0,17391393.0,166.0,166.0,2219.9,1229.8,2249.0,891.0,Object_Land_Solid_Small,47.11405787500007,53.12566949999928,3.0,Object_Land_Solid_Small,-9.0,,,,,,,,,,,
encoding,value,15,17390554,17396566,17391448.0,17391673.0,226.0,226.0,1645.7,1221.8,1591.0,891.0,Animal_Sea_Pattern_Small,47.11405787500007,53.12566949999928,3.0,Object_Land_Solid_Small,-9.0,,,,,,,,,,,
encoding,value,15,17390554,17396566,17391712.0,17391890.0,179.0,179.0,1492.2,1203.5,1591.0,891.0,Animal_Sea_Pattern_Small,47.11405787500007,53.12566949999928,3.0,Object_Land_Solid_Small,-9.0,,,,,,,,,,,
encoding,value,15,17390554,17396566,17391949.0,17392170.0,222.0,222.0,2131.8,1257.5,2249.0,891.0,Object_Land_Solid_Small,47.11405787500007,53.12566949999928,3.0,Object_Land_Solid_Small,-9.0,,,,,,,,,,,
encoding,value,15,17390554,17396566,17392192.0,17392377.0,186.0,186.0,2253.3,1274.9,2249.0,891.0,Object_Land_Solid_Small,47.11405787500007,53.12566949999928,3.0,Object_Land_Solid_Small,-9.0,,,,,,,,,,,
encoding,value,15,17390554,17396566,17392570.0,17393188.0,619.0,619.0,2224.7,1274.1,2249.0,891.0,Object_Land_Solid_Small,47.11405787500007,53.12566949999928,3.0,Object_Land_Solid_Small,-9.0,,,,,,,,,,,
encoding,value,15,17390554,17396566,17393203.0,17393499.0,297.0,297.0,2235.1,1193.4,2249.0,891.0,Object_Land_Solid_Small,47.11405787500007,53.12566949999928,3.0,Object_Land_Solid_Small,-9.0,,,,,,,,,,,
encoding,value,15,17390554,17396566,17393520.0,17394163.0,644.0,644.0,2239.9,1285.3,2249.0,891.0,Object_Land_Solid_Small,47.11405787500007,53.12566949999928,3.0,Object_Land_Solid_Small,-9.0,,,,,,,,,,,
encoding,value,15,17390554,17396566,17394174.0,17394446.0,273.0,273.0,2207.7,1227.2,2249.0,891.0,Object_Land_Solid_Small,47.11405787500007,53.12566949999928,3.0,Object_Land_Solid_Small,-9.0,,,,,,,,,,,
encoding,value,15,17390554,17396566,17394457.0,17395145.0,689.0,689.0,2231.7,1260.6,2249.0,891.0,Object_Land_Solid_Small,47.11405787500007,53.12566949999928,3.0,Object_Land_Solid_Small,-9.0,,,,,,,,,,,
encoding,value,15,17390554,17396566,17395167.0,17395309.0,143.0,143.0,2222.6,1149.2,2249.0,891.0,Object_Land_Solid_Small,47.11405787500007,53.12566949999928,3.0,Object_Land_Solid_Small,-9.0,,,,,,,,,,,
encoding,value,15,17390554,17396566,17395317.0,17395480.0,164.0,164.0,2229.4,1181.7,2249.0,891.0,Object_Land_Solid_Small,47.11405787500007,53.12566949999928,3.0,Object_Land_Solid_Small,-9.0,,,,,,,,,,,
encoding,value,15,17390554,17396566,17395665.0,17396547.0,883.0,883.0,2235.8,1196.1,2249.0,891.0,Object_Land_Solid_Small,47.11405787500007,53.12566949999928,3.0,Object_Land_Solid_Small,-9.0,,,,,,,,,,,
encoding,attention,15,17396567,17399583,17396745.0,17396914.0,170.0,170.0,2229.3,1257.4,2249.0,891.0,Object_Land_Solid_Small,53.12579279199963,56.142608250000194,3.0,Object_Land_Solid_Small,-9.0,-9.0,1.0,1.661872833999951,,,,,,,,
encoding,attention,15,17396567,17399583,17396923.0,17397195.0,273.0,273.0,2187.5,1203.7,2249.0,891.0,Object_Land_Solid_Small,53.12579279199963,56.142608250000194,3.0,Object_Land_Solid_Small,-9.0,-9.0,1.0,1.661872833999951,,,,,,,,
encoding,attention,15,17396567,17399583,17397216.0,17397564.0,349.0,349.0,2223.0,1272.2,2249.0,891.0,Object_Land_Solid_Small,53.12579279199963,56.142608250000194,3.0,Object_Land_Solid_Small,-9.0,-9.0,1.0,1.661872833999951,,,,,,,,
encoding,attention,15,17396567,17399583,17397773.0,17398943.0,1171.0,1171.0,2220.6,1275.7,2249.0,891.0,Object_Land_Solid_Small,53.12579279199963,56.142608250000194,3.0,Object_Land_Solid_Small,-9.0,-9.0,1.0,1.661872833999951,,,,,,,,
encoding,attention,15,17396567,17399583,17398964.0,17399126.0,163.0,163.0,2165.6,1157.2,2249.0,891.0,Object_Land_Solid_Small,53.12579279199963,56.142608250000194,3.0,Object_Land_Solid_Small,-9.0,-9.0,1.0,1.661872833999951,,,,,,,,
encoding,attention,15,17396567,17399583,17399138.0,17399403.0,266.0,266.0,2194.1,1190.4,2249.0,891.0,Object_Land_Solid_Small,53.12579279199963,56.142608250000194,3.0,Object_Land_Solid_Small,-9.0,-9.0,1.0,1.661872833999951,,,,,,,,
encoding,fixation,16,17399583,17400090,,,,,,,,,none,56.142782667000574,56.64891024999997,3.0,Object_Land_Pattern_Large,1.0,,,,,,,,,,,
encoding,image,16,17400090,17401102,17400115.0,17400273.0,159.0,159.0,1891.3,1183.4,1920.0,700.0,Object_Land_Pattern_Large,56.649029833000895,57.66070349999973,3.0,Object_Land_Pattern_Large,1.0,,,,,,,,,,,
encoding,image,16,17400090,17401102,17400320.0,17400597.0,278.0,278.0,1890.1,1429.6,1920.0,700.0,Object_Land_Pattern_Large,56.649029833000895,57.66070349999973,3.0,Object_Land_Pattern_Large,1.0,,,,,,,,,,,
encoding,image,16,17400090,17401102,17400605.0,17401352.0,748.0,497.0,1917.4,1427.3,1920.0,700.0,Object_Land_Pattern_Large,56.649029833000895,57.66070349999973,3.0,Object_Land_Pattern_Large,1.0,,,,,,,,,,,
encoding,value,16,17401102,17407115,17401372.0,17401628.0,257.0,257.0,1914.5,1351.6,1920.0,700.0,Object_Land_Pattern_Large,57.66082445800021,63.673666832999515,3.0,Object_Land_Pattern_Large,1.0,,,,,,,,,,,
encoding,value,16,17401102,17407115,17401803.0,17402201.0,399.0,399.0,1907.3,1372.7,1920.0,700.0,Object_Land_Pattern_Large,57.66082445800021,63.673666832999515,3.0,Object_Land_Pattern_Large,1.0,,,,,,,,,,,
encoding,value,16,17401102,17407115,17402220.0,17403018.0,799.0,799.0,1904.7,1422.5,1920.0,700.0,Object_Land_Pattern_Large,57.66082445800021,63.673666832999515,3.0,Object_Land_Pattern_Large,1.0,,,,,,,,,,,
encoding,value,16,17401102,17407115,17403181.0,17403525.0,345.0,345.0,1896.9,1444.7,1920.0,700.0,Object_Land_Pattern_Large,57.66082445800021,63.673666832999515,3.0,Object_Land_Pattern_Large,1.0,,,,,,,,,,,
encoding,value,16,17401102,17407115,17403542.0,17403816.0,275.0,275.0,1895.6,1365.7,1920.0,700.0,Object_Land_Pattern_Large,57.66082445800021,63.673666832999515,3.0,Object_Land_Pattern_Large,1.0,,,,,,,,,,,
encoding,value,16,17401102,17407115,17403827.0,17404358.0,532.0,532.0,1902.3,1333.2,1920.0,700.0,Object_Land_Pattern_Large,57.66082445800021,63.673666832999515,3.0,Object_Land_Pattern_Large,1.0,,,,,,,,,,,
encoding,value,16,17401102,17407115,17404525.0,17404712.0,188.0,188.0,1919.7,1390.5,1920.0,700.0,Object_Land_Pattern_Large,57.66082445800021,63.673666832999515,3.0,Object_Land_Pattern_Large,1.0,,,,,,,,,,,
encoding,value,16,17401102,17407115,17404733.0,17405197.0,465.0,465.0,1924.1,1439.5,1920.0,700.0,Object_Land_Pattern_Large,57.66082445800021,63.673666832999515,3.0,Object_Land_Pattern_Large,1.0,,,,,,,,,,,
encoding,value,16,17401102,17407115,17405215.0,17405490.0,276.0,276.0,1908.1,1339.3,1920.0,700.0,Object_Land_Pattern_Large,57.66082445800021,63.673666832999515,3.0,Object_Land_Pattern_Large,1.0,,,,,,,,,,,
encoding,value,16,17401102,17407115,17405663.0,17406337.0,675.0,675.0,1913.6,1371.3,1920.0,700.0,Object_Land_Pattern_Large,57.66082445800021,63.673666832999515,3.0,Object_Land_Pattern_Large,1.0,,,,,,,,,,,
encoding,value,16,17401102,17407115,17406355.0,17406720.0,366.0,366.0,1908.0,1444.1,1920.0,700.0,Object_Land_Pattern_Large,57.66082445800021,63.673666832999515,3.0,Object_Land_Pattern_Large,1.0,,,,,,,,,,,
encoding,value,16,17401102,17407115,17406903.0,17407325.0,423.0,212.0,1904.7,1384.9,1920.0,700.0,Object_Land_Pattern_Large,57.66082445800021,63.673666832999515,3.0,Object_Land_Pattern_Large,1.0,,,,,,,,,,,
encoding,attention,16,17407115,17410133,17407332.0,17407513.0,182.0,182.0,1882.5,1347.5,1920.0,700.0,Object_Land_Pattern_Large,63.67379012499987,66.69186137500037,3.0,Object_Land_Pattern_Large,1.0,1.0,1.0,0.8099801670014131,,,,,,,,
encoding,attention,16,17407115,17410133,17407527.0,17408222.0,696.0,696.0,1943.8,1351.2,1920.0,700.0,Object_Land_Pattern_Large,63.67379012499987,66.69186137500037,3.0,Object_Land_Pattern_Large,1.0,1.0,1.0,0.8099801670014131,,,,,,,,
encoding,attention,16,17407115,17410133,17408401.0,17409656.0,1256.0,1256.0,1925.7,1417.3,1920.0,700.0,Object_Land_Pattern_Large,63.67379012499987,66.69186137500037,3.0,Object_Land_Pattern_Large,1.0,1.0,1.0,0.8099801670014131,,,,,,,,
encoding,attention,16,17407115,17410133,17409664.0,17409956.0,293.0,293.0,1889.3,1417.9,1920.0,700.0,Object_Land_Pattern_Large,63.67379012499987,66.69186137500037,3.0,Object_Land_Pattern_Large,1.0,1.0,1.0,0.8099801670014131,,,,,,,,
encoding,fixation,17,17410133,17410640,17410286.0,17410422.0,137.0,137.0,1889.6,1480.4,1920.0,700.0,Object_Land_Pattern_Large,66.69206833300086,67.1986114579995,3.0,Animal_Sea_Pattern_Large,-9.0,,,,,,,,,,,
encoding,fixation,17,17410133,17410640,17410485.0,17410616.0,132.0,132.0,1875.7,1075.6,1920.0,1080.0,fixation,66.69206833300086,67.1986114579995,3.0,Animal_Sea_Pattern_Large,-9.0,,,,,,,,,,,
encoding,fixation,17,17410133,17410640,17410628.0,17410862.0,235.0,12.0,1887.9,1105.4,1920.0,1080.0,fixation,66.69206833300086,67.1986114579995,3.0,Animal_Sea_Pattern_Large,-9.0,,,,,,,,,,,
encoding,image,17,17410640,17411651,17410913.0,17411234.0,322.0,322.0,1891.6,678.4000000000001,1920.0,1460.0,Animal_Sea_Pattern_Large,67.19875866700022,68.20953416699922,3.0,Animal_Sea_Pattern_Large,-9.0,,,,,,,,,,,
encoding,image,17,17410640,17411651,17411498.0,17411856.0,359.0,153.0,1868.3,784.9000000000001,1920.0,1460.0,Animal_Sea_Pattern_Large,67.19875866700022,68.20953416699922,3.0,Animal_Sea_Pattern_Large,-9.0,,,,,,,,,,,
encoding,value,17,17411651,17417662,17411893.0,17412381.0,489.0,489.0,1909.1,631.8,1920.0,1460.0,Animal_Sea_Pattern_Large,68.20964470800027,74.22033358299996,3.0,Animal_Sea_Pattern_Large,-9.0,,,,,,,,,,,
encoding,value,17,17411651,17417662,17412418.0,17412734.0,317.0,317.0,1882.9,782.4000000000001,1920.0,1460.0,Animal_Sea_Pattern_Large,68.20964470800027,74.22033358299996,3.0,Animal_Sea_Pattern_Large,-9.0,,,,,,,,,,,
encoding,value,17,17411651,17417662,17413013.0,17413261.0,249.0,249.0,1865.9,839.5999999999999,1920.0,1460.0,Animal_Sea_Pattern_Large,68.20964470800027,74.22033358299996,3.0,Animal_Sea_Pattern_Large,-9.0,,,,,,,,,,,
encoding,value,17,17411651,17417662,17413322.0,17413491.0,170.0,170.0,1984.3,1186.5,2249.0,891.0,Object_Land_Solid_Small,68.20964470800027,74.22033358299996,3.0,Animal_Sea_Pattern_Large,-9.0,,,,,,,,,,,
encoding,value,17,17411651,17417662,17413515.0,17413985.0,471.0,471.0,2228.9,1264.6,2249.0,891.0,Object_Land_Solid_Small,68.20964470800027,74.22033358299996,3.0,Animal_Sea_Pattern_Large,-9.0,,,,,,,,,,,
encoding,value,17,17411651,17417662,17414011.0,17414263.0,253.0,253.0,2003.5,1197.4,2249.0,891.0,Object_Land_Solid_Small,68.20964470800027,74.22033358299996,3.0,Animal_Sea_Pattern_Large,-9.0,,,,,,,,,,,
encoding,value,17,17411651,17417662,17414285.0,17414509.0,225.0,225.0,1883.9,1123.8,1920.0,1080.0,fixation,68.20964470800027,74.22033358299996,3.0,Animal_Sea_Pattern_Large,-9.0,,,,,,,,,,,
encoding,value,17,17411651,17417662,17414806.0,17414928.0,123.0,123.0,1871.3,830.5,1920.0,1460.0,Animal_Sea_Pattern_Large,68.20964470800027,74.22033358299996,3.0,Animal_Sea_Pattern_Large,-9.0,,,,,,,,,,,
encoding,value,17,17411651,17417662,17414943.0,17416004.0,1062.0,1062.0,1869.7,726.5999999999999,1920.0,1460.0,Animal_Sea_Pattern_Large,68.20964470800027,74.22033358299996,3.0,Animal_Sea_Pattern_Large,-9.0,,,,,,,,,,,
encoding,value,17,17411651,17417662,17416020.0,17416238.0,219.0,219.0,1876.1,713.0,1920.0,1460.0,Animal_Sea_Pattern_Large,68.20964470800027,74.22033358299996,3.0,Animal_Sea_Pattern_Large,-9.0,,,,,,,,,,,
encoding,value,17,17411651,17417662,17416501.0,17416861.0,361.0,361.0,1861.8,797.8,1920.0,1460.0,Animal_Sea_Pattern_Large,68.20964470800027,74.22033358299996,3.0,Animal_Sea_Pattern_Large,-9.0,,,,,,,,,,,
encoding,value,17,17411651,17417662,17416875.0,17417160.0,286.0,286.0,1880.1,705.5,1920.0,1460.0,Animal_Sea_Pattern_Large,68.20964470800027,74.22033358299996,3.0,Animal_Sea_Pattern_Large,-9.0,,,,,,,,,,,
encoding,value,17,17411651,17417662,17417209.0,17417398.0,190.0,190.0,1885.8,1125.3,1920.0,1080.0,fixation,68.20964470800027,74.22033358299996,3.0,Animal_Sea_Pattern_Large,-9.0,,,,,,,,,,,
encoding,value,17,17411651,17417662,17417430.0,17418136.0,707.0,232.0,1874.5,724.3,1920.0,1460.0,Animal_Sea_Pattern_Large,68.20964470800027,74.22033358299996,3.0,Animal_Sea_Pattern_Large,-9.0,,,,,,,,,,,
encoding,attention,17,17417662,17420678,17418171.0,17418306.0,136.0,136.0,1918.9,616.3,1920.0,1460.0,Animal_Sea_Pattern_Large,74.22044475000075,77.23656629200013,3.0,Animal_Sea_Pattern_Large,-9.0,-9.0,1.0,1.4974907920004623,,,,,,,,
encoding,attention,17,17417662,17420678,17418319.0,17418473.0,155.0,155.0,1877.5,596.7,1920.0,1460.0,Animal_Sea_Pattern_Large,74.22044475000075,77.23656629200013,3.0,Animal_Sea_Pattern_Large,-9.0,-9.0,1.0,1.4974907920004623,,,,,,,,
encoding,attention,17,17417662,17420678,17418719.0,17419255.0,537.0,537.0,1875.0,663.7,1920.0,1460.0,Animal_Sea_Pattern_Large,74.22044475000075,77.23656629200013,3.0,Animal_Sea_Pattern_Large,-9.0,-9.0,1.0,1.4974907920004623,,,,,,,,
encoding,attention,17,17417662,17420678,17419282.0,17419943.0,662.0,662.0,1861.8,738.3,1920.0,1460.0,Animal_Sea_Pattern_Large,74.22044475000075,77.23656629200013,3.0,Animal_Sea_Pattern_Large,-9.0,-9.0,1.0,1.4974907920004623,,,,,,,,
encoding,attention,17,17417662,17420678,17419960.0,17420370.0,411.0,411.0,1845.9,776.5,1920.0,1460.0,Animal_Sea_Pattern_Large,74.22044475000075,77.23656629200013,3.0,Animal_Sea_Pattern_Large,-9.0,-9.0,1.0,1.4974907920004623,,,,,,,,
encoding,fixation,18,17420678,17421435,17420925.0,17421627.0,703.0,510.0,1903.6,1096.8,1920.0,1080.0,fixation,77.23674912500064,77.99286383300023,3.0,Animal_Sea_Solid_Small,-2.0,,,,,,,,,,,
encoding,image,18,17421435,17422446,17421665.0,17421910.0,246.0,246.0,2254.0,888.4000000000001,2249.0,1269.0,Animal_Sea_Solid_Small,77.99298191699927,79.00371237500076,3.0,Animal_Sea_Solid_Small,-2.0,,,,,,,,,,,
encoding,image,18,17421435,17422446,17421940.0,17422670.0,731.0,506.0,1935.3,1084.6,1920.0,1080.0,fixation,77.99298191699927,79.00371237500076,3.0,Animal_Sea_Solid_Small,-2.0,,,,,,,,,,,
encoding,value,18,17422446,17428458,17422709.0,17422964.0,256.0,256.0,2248.1,829.5,2249.0,1269.0,Animal_Sea_Solid_Small,79.00382737499967,85.01592275000075,3.0,Animal_Sea_Solid_Small,-2.0,,,,,,,,,,,
encoding,value,18,17422446,17428458,17422982.0,17423153.0,172.0,172.0,2253.5,910.0999999999999,2249.0,1269.0,Animal_Sea_Solid_Small,79.00382737499967,85.01592275000075,3.0,Animal_Sea_Solid_Small,-2.0,,,,,,,,,,,
encoding,value,18,17422446,17428458,17423362.0,17423607.0,246.0,246.0,2239.7,932.5,2249.0,1269.0,Animal_Sea_Solid_Small,79.00382737499967,85.01592275000075,3.0,Animal_Sea_Solid_Small,-2.0,,,,,,,,,,,
encoding,value,18,17422446,17428458,17423619.0,17423897.0,279.0,279.0,2242.7,930.5999999999999,2249.0,1269.0,Animal_Sea_Solid_Small,79.00382737499967,85.01592275000075,3.0,Animal_Sea_Solid_Small,-2.0,,,,,,,,,,,
encoding,value,18,17422446,17428458,17423908.0,17424286.0,379.0,379.0,2207.0,893.7,2249.0,1269.0,Animal_Sea_Solid_Small,79.00382737499967,85.01592275000075,3.0,Animal_Sea_Solid_Small,-2.0,,,,,,,,,,,
encoding,value,18,17422446,17428458,17424294.0,17424515.0,222.0,222.0,2241.4,888.5,2249.0,1269.0,Animal_Sea_Solid_Small,79.00382737499967,85.01592275000075,3.0,Animal_Sea_Solid_Small,-2.0,,,,,,,,,,,
encoding,value,18,17422446,17428458,17424525.0,17424812.0,288.0,288.0,2194.0,892.5999999999999,2249.0,1269.0,Animal_Sea_Solid_Small,79.00382737499967,85.01592275000075,3.0,Animal_Sea_Solid_Small,-2.0,,,,,,,,,,,
encoding,value,18,17422446,17428458,17424828.0,17425121.0,294.0,294.0,2216.9,943.9000000000001,2249.0,1269.0,Animal_Sea_Solid_Small,79.00382737499967,85.01592275000075,3.0,Animal_Sea_Solid_Small,-2.0,,,,,,,,,,,
encoding,value,18,17422446,17428458,17425134.0,17425570.0,437.0,437.0,2232.3,891.7,2249.0,1269.0,Animal_Sea_Solid_Small,79.00382737499967,85.01592275000075,3.0,Animal_Sea_Solid_Small,-2.0,,,,,,,,,,,
encoding,value,18,17422446,17428458,17425590.0,17425925.0,336.0,336.0,2211.6,935.8,2249.0,1269.0,Animal_Sea_Solid_Small,79.00382737499967,85.01592275000075,3.0,Animal_Sea_Solid_Small,-2.0,,,,,,,,,,,
encoding,value,18,17422446,17428458,17426163.0,17426310.0,148.0,148.0,2210.9,922.5999999999999,2249.0,1269.0,Animal_Sea_Solid_Small,79.00382737499967,85.01592275000075,3.0,Animal_Sea_Solid_Small,-2.0,,,,,,,,,,,
encoding,value,18,17422446,17428458,17426326.0,17426595.0,270.0,270.0,2232.6,950.2,2249.0,1269.0,Animal_Sea_Solid_Small,79.00382737499967,85.01592275000075,3.0,Animal_Sea_Solid_Small,-2.0,,,,,,,,,,,
encoding,value,18,17422446,17428458,17426637.0,17426771.0,135.0,135.0,1950.8,1099.9,1920.0,1080.0,fixation,79.00382737499967,85.01592275000075,3.0,Animal_Sea_Solid_Small,-2.0,,,,,,,,,,,
encoding,value,18,17422446,17428458,17426828.0,17427222.0,395.0,395.0,2232.4,810.8,2249.0,1269.0,Animal_Sea_Solid_Small,79.00382737499967,85.01592275000075,3.0,Animal_Sea_Solid_Small,-2.0,,,,,,,,,,,
encoding,value,18,17422446,17428458,17427243.0,17427577.0,335.0,335.0,2203.1,929.4000000000001,2249.0,1269.0,Animal_Sea_Solid_Small,79.00382737499967,85.01592275000075,3.0,Animal_Sea_Solid_Small,-2.0,,,,,,,,,,,
encoding,value,18,17422446,17428458,17427592.0,17428726.0,1135.0,866.0,2220.4,852.2,2249.0,1269.0,Animal_Sea_Solid_Small,79.00382737499967,85.01592275000075,3.0,Animal_Sea_Solid_Small,-2.0,,,,,,,,,,,
encoding,attention,18,17428458,17431476,17428740.0,17428893.0,154.0,154.0,2262.8,841.0999999999999,2249.0,1269.0,Animal_Sea_Solid_Small,85.01606354199976,88.03374475000055,3.0,Animal_Sea_Solid_Small,-2.0,-2.0,1.0,2.3185677920009766,,,,,,,,
encoding,attention,18,17428458,17431476,17428916.0,17429055.0,140.0,140.0,2178.7,838.0,2249.0,1269.0,Animal_Sea_Solid_Small,85.01606354199976,88.03374475000055,3.0,Animal_Sea_Solid_Small,-2.0,-2.0,1.0,2.3185677920009766,,,,,,,,
encoding,attention,18,17428458,17431476,17429283.0,17429371.0,89.0,89.0,1715.2,989.5999999999999,1591.0,1269.0,Object_Land_Solid_Large,85.01606354199976,88.03374475000055,3.0,Animal_Sea_Solid_Small,-2.0,-2.0,1.0,2.3185677920009766,,,,,,,,
encoding,attention,18,17428458,17431476,17429404.0,17429562.0,159.0,159.0,2124.4,877.4000000000001,2249.0,1269.0,Animal_Sea_Solid_Small,85.01606354199976,88.03374475000055,3.0,Animal_Sea_Solid_Small,-2.0,-2.0,1.0,2.3185677920009766,,,,,,,,
encoding,fixation,19,17840500,17841757,17840745.0,17840945.0,201.0,201.0,1887.4,1164.6,1920.0,700.0,Animal_Land_Pattern_Large,10.2481090830006,11.50441441700059,4.0,Object_Sea_Solid_Large,-6.0,,,,,,,,,,,
encoding,fixation,19,17840500,17841757,17840954.0,17841223.0,270.0,270.0,1873.5,1195.8,1920.0,700.0,Animal_Land_Pattern_Large,10.2481090830006,11.50441441700059,4.0,Object_Sea_Solid_Large,-6.0,,,,,,,,,,,
encoding,fixation,19,17840500,17841757,17841240.0,17841481.0,242.0,242.0,1818.1,1270.3,1920.0,700.0,Animal_Land_Pattern_Large,10.2481090830006,11.50441441700059,4.0,Object_Sea_Solid_Large,-6.0,,,,,,,,,,,
encoding,fixation,19,17840500,17841757,17841526.0,17841891.0,366.0,231.0,1873.8,1064.5,1920.0,1080.0,fixation,10.2481090830006,11.50441441700059,4.0,Object_Sea_Solid_Large,-6.0,,,,,,,,,,,
encoding,image,19,17841757,17842769,17841933.0,17842061.0,129.0,129.0,1620.5,1245.4,1591.0,891.0,Object_Sea_Solid_Large,11.504615375000869,12.517075792000467,4.0,Object_Sea_Solid_Large,-6.0,,,,,,,,,,,
encoding,image,19,17841757,17842769,17842080.0,17842948.0,869.0,689.0,1576.6,1246.0,1591.0,891.0,Object_Sea_Solid_Large,11.504615375000869,12.517075792000467,4.0,Object_Sea_Solid_Large,-6.0,,,,,,,,,,,
encoding,value,19,17842769,17848783,17842957.0,17843164.0,208.0,208.0,1592.6,1193.9,1591.0,891.0,Object_Sea_Solid_Large,12.517184875001476,18.531072000001583,4.0,Object_Sea_Solid_Large,-6.0,,,,,,,,,,,
encoding,value,19,17842769,17848783,17843347.0,17843518.0,172.0,172.0,1577.7,1253.8,1591.0,891.0,Object_Sea_Solid_Large,12.517184875001476,18.531072000001583,4.0,Object_Sea_Solid_Large,-6.0,,,,,,,,,,,
encoding,value,19,17842769,17848783,17843533.0,17844714.0,1182.0,1182.0,1579.2,1286.6,1591.0,891.0,Object_Sea_Solid_Large,12.517184875001476,18.531072000001583,4.0,Object_Sea_Solid_Large,-6.0,,,,,,,,,,,
encoding,value,19,17842769,17848783,17844874.0,17845315.0,442.0,442.0,1579.0,1279.7,1591.0,891.0,Object_Sea_Solid_Large,12.517184875001476,18.531072000001583,4.0,Object_Sea_Solid_Large,-6.0,,,,,,,,,,,
encoding,value,19,17842769,17848783,17845328.0,17845841.0,514.0,514.0,1576.7,1220.8,1591.0,891.0,Object_Sea_Solid_Large,12.517184875001476,18.531072000001583,4.0,Object_Sea_Solid_Large,-6.0,,,,,,,,,,,
encoding,value,19,17842769,17848783,17845862.0,17846453.0,592.0,592.0,1577.9,1296.3,1591.0,891.0,Object_Sea_Solid_Large,12.517184875001476,18.531072000001583,4.0,Object_Sea_Solid_Large,-6.0,,,,,,,,,,,
encoding,value,19,17842769,17848783,17846469.0,17847305.0,837.0,837.0,1597.1,1224.9,1591.0,891.0,Object_Sea_Solid_Large,12.517184875001476,18.531072000001583,4.0,Object_Sea_Solid_Large,-6.0,,,,,,,,,,,
encoding,value,19,17842769,17848783,17847317.0,17847928.0,612.0,612.0,1574.0,1286.2,1591.0,891.0,Object_Sea_Solid_Large,12.517184875001476,18.531072000001583,4.0,Object_Sea_Solid_Large,-6.0,,,,,,,,,,,
encoding,value,19,17842769,17848783,17847943.0,17848456.0,514.0,514.0,1585.1,1234.2,1591.0,891.0,Object_Sea_Solid_Large,12.517184875001476,18.531072000001583,4.0,Object_Sea_Solid_Large,-6.0,,,,,,,,,,,
encoding,value,19,17842769,17848783,17848466.0,17849113.0,648.0,317.0,1589.6,1276.8,1591.0,891.0,Object_Sea_Solid_Large,12.517184875001476,18.531072000001583,4.0,Object_Sea_Solid_Large,-6.0,,,,,,,,,,,
encoding,attention,19,17848783,17851802,17849125.0,17849666.0,542.0,542.0,1528.9,1233.8,1591.0,891.0,Object_Sea_Solid_Large,18.53120733300057,21.54942070800098,4.0,Object_Sea_Solid_Large,-6.0,-6.0,1.0,1.6167747920007969,,,,,,,,
encoding,attention,19,17848783,17851802,17849844.0,17850147.0,304.0,304.0,1548.9,1254.8,1591.0,891.0,Object_Sea_Solid_Large,18.53120733300057,21.54942070800098,4.0,Object_Sea_Solid_Large,-6.0,-6.0,1.0,1.6167747920007969,,,,,,,,
encoding,attention,19,17848783,17851802,17850164.0,17850431.0,268.0,268.0,1579.0,1312.4,1591.0,891.0,Object_Sea_Solid_Large,18.53120733300057,21.54942070800098,4.0,Object_Sea_Solid_Large,-6.0,-6.0,1.0,1.6167747920007969,,,,,,,,
encoding,attention,19,17848783,17851802,17850451.0,17850930.0,480.0,480.0,1548.6,1223.9,1591.0,891.0,Object_Sea_Solid_Large,18.53120733300057,21.54942070800098,4.0,Object_Sea_Solid_Large,-6.0,-6.0,1.0,1.6167747920007969,,,,,,,,
encoding,attention,19,17848783,17851802,17850940.0,17851220.0,281.0,281.0,1582.7,1249.3,1591.0,891.0,Object_Sea_Solid_Large,18.53120733300057,21.54942070800098,4.0,Object_Sea_Solid_Large,-6.0,-6.0,1.0,1.6167747920007969,,,,,,,,
encoding,attention,19,17848783,17851802,17851228.0,17851534.0,307.0,307.0,1588.9,1274.6,1591.0,891.0,Object_Sea_Solid_Large,18.53120733300057,21.54942070800098,4.0,Object_Sea_Solid_Large,-6.0,-6.0,1.0,1.6167747920007969,,,,,,,,
encoding,fixation,20,17851802,17853309,17852123.0,17852266.0,144.0,144.0,1864.8,1172.6,1591.0,891.0,Object_Sea_Solid_Large,21.54959966700153,23.056607917000292,4.0,Object_Sea_Solid_Small,-1.0,,,,,,,,,,,
encoding,fixation,20,17851802,17853309,17852436.0,17852722.0,287.0,287.0,1682.0,1232.3,1591.0,891.0,Object_Sea_Solid_Large,21.54959966700153,23.056607917000292,4.0,Object_Sea_Solid_Small,-1.0,,,,,,,,,,,
encoding,fixation,20,17851802,17853309,17852737.0,17852903.0,167.0,167.0,1795.2,1217.5,1591.0,891.0,Object_Sea_Solid_Large,21.54959966700153,23.056607917000292,4.0,Object_Sea_Solid_Small,-1.0,,,,,,,,,,,
encoding,fixation,20,17851802,17853309,17852933.0,17853152.0,220.0,220.0,1511.1,1170.2,1591.0,891.0,Object_Sea_Solid_Large,21.54959966700153,23.056607917000292,4.0,Object_Sea_Solid_Small,-1.0,,,,,,,,,,,
encoding,fixation,20,17851802,17853309,17853179.0,17853373.0,195.0,130.0,1810.1,1174.9,1591.0,891.0,Object_Sea_Solid_Large,21.54959966700153,23.056607917000292,4.0,Object_Sea_Solid_Small,-1.0,,,,,,,,,,,
encoding,image,20,17853309,17854320,17853406.0,17853536.0,131.0,131.0,1496.4,1172.1,1591.0,891.0,Object_Sea_Solid_Large,23.05672341700119,24.0670417500005,4.0,Object_Sea_Solid_Small,-1.0,,,,,,,,,,,
encoding,image,20,17853309,17854320,17853580.0,17853740.0,161.0,161.0,1558.2,923.0999999999999,1591.0,1269.0,Object_Sea_Solid_Small,23.05672341700119,24.0670417500005,4.0,Object_Sea_Solid_Small,-1.0,,,,,,,,,,,
encoding,image,20,17853309,17854320,17853749.0,17854617.0,869.0,571.0,1561.1,931.4000000000001,1591.0,1269.0,Object_Sea_Solid_Small,23.05672341700119,24.0670417500005,4.0,Object_Sea_Solid_Small,-1.0,,,,,,,,,,,
encoding,value,20,17854320,17860331,17854638.0,17854846.0,209.0,209.0,1564.3,825.0,1591.0,1269.0,Object_Sea_Solid_Small,24.067158333000407,30.078117167000528,4.0,Object_Sea_Solid_Small,-1.0,,,,,,,,,,,
encoding,value,20,17854320,17860331,17855066.0,17855688.0,623.0,623.0,1555.9,952.5999999999999,1591.0,1269.0,Object_Sea_Solid_Small,24.067158333000407,30.078117167000528,4.0,Object_Sea_Solid_Small,-1.0,,,,,,,,,,,
encoding,value,20,17854320,17860331,17855701.0,17856108.0,408.0,408.0,1547.0,1009.5999999999999,1591.0,1269.0,Object_Sea_Solid_Small,24.067158333000407,30.078117167000528,4.0,Object_Sea_Solid_Small,-1.0,,,,,,,,,,,
encoding,value,20,17854320,17860331,17856137.0,17856670.0,534.0,534.0,1563.5,846.5999999999999,1591.0,1269.0,Object_Sea_Solid_Small,24.067158333000407,30.078117167000528,4.0,Object_Sea_Solid_Small,-1.0,,,,,,,,,,,
encoding,value,20,17854320,17860331,17856882.0,17857101.0,220.0,220.0,1546.5,1021.5,1591.0,1269.0,Object_Sea_Solid_Small,24.067158333000407,30.078117167000528,4.0,Object_Sea_Solid_Small,-1.0,,,,,,,,,,,
encoding,value,20,17854320,17860331,17857126.0,17857465.0,340.0,340.0,1570.1,838.8,1591.0,1269.0,Object_Sea_Solid_Small,24.067158333000407,30.078117167000528,4.0,Object_Sea_Solid_Small,-1.0,,,,,,,,,,,
encoding,value,20,17854320,17860331,17857475.0,17859263.0,1789.0,1789.0,1567.2,861.3,1591.0,1269.0,Object_Sea_Solid_Small,24.067158333000407,30.078117167000528,4.0,Object_Sea_Solid_Small,-1.0,,,,,,,,,,,
encoding,value,20,17854320,17860331,17859307.0,17859728.0,422.0,422.0,1559.8,1169.2,1591.0,891.0,Object_Sea_Solid_Large,24.067158333000407,30.078117167000528,4.0,Object_Sea_Solid_Small,-1.0,,,,,,,,,,,
encoding,value,20,17854320,17860331,17859759.0,17860088.0,330.0,330.0,1563.3,1019.2,1591.0,1269.0,Object_Sea_Solid_Small,24.067158333000407,30.078117167000528,4.0,Object_Sea_Solid_Small,-1.0,,,,,,,,,,,
encoding,value,20,17854320,17860331,17860100.0,17860366.0,267.0,231.0,1574.7,945.5,1591.0,1269.0,Object_Sea_Solid_Small,24.067158333000407,30.078117167000528,4.0,Object_Sea_Solid_Small,-1.0,,,,,,,,,,,
encoding,attention,20,17860331,17863348,17860375.0,17860620.0,246.0,246.0,1593.5,967.7,1591.0,1269.0,Object_Sea_Solid_Small,30.078237708001325,33.09540904200003,4.0,Object_Sea_Solid_Small,-1.0,-1.0,1.0,2.2387487920004787,,,,,,,,
encoding,attention,20,17860331,17863348,17860643.0,17860787.0,145.0,145.0,1559.9,840.8,1591.0,1269.0,Object_Sea_Solid_Small,30.078237708001325,33.09540904200003,4.0,Object_Sea_Solid_Small,-1.0,-1.0,1.0,2.2387487920004787,,,,,,,,
encoding,attention,20,17860331,17863348,17860796.0,17861263.0,468.0,468.0,1514.9,824.5999999999999,1591.0,1269.0,Object_Sea_Solid_Small,30.078237708001325,33.09540904200003,4.0,Object_Sea_Solid_Small,-1.0,-1.0,1.0,2.2387487920004787,,,,,,,,
encoding,attention,20,17860331,17863348,17861486.0,17861935.0,450.0,450.0,1514.6,884.5,1591.0,1269.0,Object_Sea_Solid_Small,30.078237708001325,33.09540904200003,4.0,Object_Sea_Solid_Small,-1.0,-1.0,1.0,2.2387487920004787,,,,,,,,
encoding,attention,20,17860331,17863348,17862208.0,17862998.0,791.0,791.0,1520.6,845.3,1591.0,1269.0,Object_Sea_Solid_Small,30.078237708001325,33.09540904200003,4.0,Object_Sea_Solid_Small,-1.0,-1.0,1.0,2.2387487920004787,,,,,,,,
encoding,attention,20,17860331,17863348,17863038.0,17863323.0,286.0,286.0,1582.9,961.3,1591.0,1269.0,Object_Sea_Solid_Small,30.078237708001325,33.09540904200003,4.0,Object_Sea_Solid_Small,-1.0,-1.0,1.0,2.2387487920004787,,,,,,,,
encoding,fixation,21,17863349,17864104,17863596.0,17863739.0,144.0,144.0,1760.4,1177.3,1591.0,891.0,Object_Sea_Solid_Large,33.095645750001495,33.850891208001485,4.0,Animal_Sea_Solid_Large,8.0,,,,,,,,,,,
encoding,fixation,21,17863349,17864104,17863768.0,17863953.0,186.0,186.0,1476.3,1177.9,1591.0,891.0,Object_Sea_Solid_Large,33.095645750001495,33.850891208001485,4.0,Animal_Sea_Solid_Large,8.0,,,,,,,,,,,
encoding,fixation,21,17863349,17864104,17863991.0,17864316.0,326.0,113.0,1900.5,1157.2,1920.0,700.0,Animal_Land_Pattern_Large,33.095645750001495,33.850891208001485,4.0,Animal_Sea_Solid_Large,8.0,,,,,,,,,,,
encoding,image,21,17864104,17865115,17864344.0,17864525.0,182.0,182.0,2205.9,1272.1,2249.0,891.0,Animal_Sea_Solid_Large,33.8510112920012,34.86191920800047,4.0,Animal_Sea_Solid_Large,8.0,,,,,,,,,,,
encoding,image,21,17864104,17865115,17864536.0,17865048.0,513.0,513.0,2239.6,1302.4,2249.0,891.0,Animal_Sea_Solid_Large,33.8510112920012,34.86191920800047,4.0,Animal_Sea_Solid_Large,8.0,,,,,,,,,,,
encoding,image,21,17864104,17865115,17865066.0,17865283.0,218.0,49.0,2142.0,1256.1,2249.0,891.0,Animal_Sea_Solid_Large,33.8510112920012,34.86191920800047,4.0,Animal_Sea_Solid_Large,8.0,,,,,,,,,,,
encoding,value,21,17865115,17871128,17865305.0,17865871.0,567.0,567.0,2242.1,1212.9,2249.0,891.0,Animal_Sea_Solid_Large,34.86204520800129,40.87436937500024,4.0,Animal_Sea_Solid_Large,8.0,,,,,,,,,,,
encoding,value,21,17865115,17871128,17865907.0,17866368.0,462.0,462.0,2238.5,1324.2,2249.0,891.0,Animal_Sea_Solid_Large,34.86204520800129,40.87436937500024,4.0,Animal_Sea_Solid_Large,8.0,,,,,,,,,,,
encoding,value,21,17865115,17871128,17866388.0,17866778.0,391.0,391.0,2224.2,1205.5,2249.0,891.0,Animal_Sea_Solid_Large,34.86204520800129,40.87436937500024,4.0,Animal_Sea_Solid_Large,8.0,,,,,,,,,,,
encoding,value,21,17865115,17871128,17866796.0,17867295.0,500.0,500.0,2215.8,1272.4,2249.0,891.0,Animal_Sea_Solid_Large,34.86204520800129,40.87436937500024,4.0,Animal_Sea_Solid_Large,8.0,,,,,,,,,,,
encoding,value,21,17865115,17871128,17867305.0,17867737.0,433.0,433.0,2227.1,1241.4,2249.0,891.0,Animal_Sea_Solid_Large,34.86204520800129,40.87436937500024,4.0,Animal_Sea_Solid_Large,8.0,,,,,,,,,,,
encoding,value,21,17865115,17871128,17867897.0,17868385.0,489.0,489.0,2207.6,1250.2,2249.0,891.0,Animal_Sea_Solid_Large,34.86204520800129,40.87436937500024,4.0,Animal_Sea_Solid_Large,8.0,,,,,,,,,,,
encoding,value,21,17865115,17871128,17868406.0,17868652.0,247.0,247.0,2236.3,1314.8,2249.0,891.0,Animal_Sea_Solid_Large,34.86204520800129,40.87436937500024,4.0,Animal_Sea_Solid_Large,8.0,,,,,,,,,,,
encoding,value,21,17865115,17871128,17868695.0,17868945.0,251.0,251.0,1705.1,1195.8,1591.0,891.0,Object_Sea_Solid_Large,34.86204520800129,40.87436937500024,4.0,Animal_Sea_Solid_Large,8.0,,,,,,,,,,,
encoding,value,21,17865115,17871128,17869097.0,17869501.0,405.0,405.0,1484.7,1180.8,1591.0,891.0,Object_Sea_Solid_Large,34.86204520800129,40.87436937500024,4.0,Animal_Sea_Solid_Large,8.0,,,,,,,,,,,
encoding,value,21,17865115,17871128,17869521.0,17869684.0,164.0,164.0,1658.2,1206.4,1591.0,891.0,Object_Sea_Solid_Large,34.86204520800129,40.87436937500024,4.0,Animal_Sea_Solid_Large,8.0,,,,,,,,,,,
encoding,value,21,17865115,17871128,17869711.0,17870022.0,312.0,312.0,1451.2,1178.9,1591.0,891.0,Object_Sea_Solid_Large,34.86204520800129,40.87436937500024,4.0,Animal_Sea_Solid_Large,8.0,,,,,,,,,,,
encoding,value,21,17865115,17871128,17870042.0,17870287.0,246.0,246.0,1591.8,1215.6,1591.0,891.0,Object_Sea_Solid_Large,34.86204520800129,40.87436937500024,4.0,Animal_Sea_Solid_Large,8.0,,,,,,,,,,,
