subject_id,game,trial_number,option,choice,correct,rt,image,reward,relevance,fixation_duration,fixation_count
101,1,1,Animal,2.0,1.0,12.338066875003278,Animal_Sea_Pattern_Small,-7.0,1,1168.0,1
101,1,1,Animal,2.0,1.0,12.338066875003278,Animal_Sea_Pattern_Large,1.0,1,71.0,2
101,1,1,Animal,2.0,1.0,12.338066875003278,Animal_Sea_Pattern_Small,-7.0,1,86.0,3
101,1,1,Animal,2.0,1.0,12.338066875003278,Animal_Sea_Pattern_Large,1.0,1,73.0,4
101,1,4,Object,1.0,1.0,23.057488374994136,Animal_Sea_Pattern_Large,1.0,0,140.0,1
101,1,4,Object,1.0,1.0,23.057488374994136,Object_Land_Solid_Small,-5.0,1,157.0,2
101,1,4,Object,1.0,1.0,23.057488374994136,Animal_Sea_Pattern_Large,1.0,0,871.0,3
101,1,5,Pattern,2.0,1.0,8.188803375000134,Animal_Sea_Pattern_Large,1.0,1,116.0,1
101,1,5,Pattern,2.0,1.0,8.188803375000134,Animal_Sea_Pattern_Small,-7.0,1,79.0,2
101,1,5,Pattern,2.0,1.0,8.188803375000134,Animal_Sea_Pattern_Large,1.0,1,42.0,3
101,1,5,Pattern,2.0,1.0,8.188803375000134,Animal_Sea_Pattern_Small,-7.0,1,578.0,4
101,1,5,Pattern,2.0,1.0,8.188803375000134,Animal_Sea_Pattern_Large,1.0,1,293.0,5
101,1,5,Pattern,2.0,1.0,8.188803375000134,Animal_Sea_Pattern_Small,-7.0,1,31.0,6
101,1,5,Pattern,2.0,1.0,8.188803375000134,Object_Sea_Solid_Small,7.0,0,279.0,7
101,1,6,Solid,1.0,1.0,5.252752249944024,Animal_Sea_Pattern_Small,-7.0,0,1491.0,1
101,1,6,Solid,1.0,1.0,5.252752249944024,Animal_Sea_Pattern_Large,1.0,0,955.0,2
101,1,6,Solid,1.0,1.0,5.252752249944024,Animal_Sea_Pattern_Small,-7.0,0,155.0,3
101,1,7,Sea,1.0,1.0,1.8111851669382304,Animal_Sea_Pattern_Large,1.0,1,265.0,1
101,1,8,Small,2.0,1.0,2.301793250022456,Animal_Sea_Pattern_Large,1.0,0,465.0,1
101,2,9,Land,2.0,1.0,19.747027875040654,Animal_Land_Solid_Large,1.0,1,365.0,1
101,2,9,Land,2.0,1.0,19.747027875040654,Animal_Land_Pattern_Small,1.0,1,288.0,2
101,2,9,Land,2.0,1.0,19.747027875040654,Animal_Land_Solid_Large,1.0,1,392.0,3
101,2,9,Land,2.0,1.0,19.747027875040654,Animal_Land_Pattern_Small,1.0,1,536.0,4
101,2,9,Land,2.0,1.0,19.747027875040654,Object_Land_Solid_Small,-9.0,1,1290.0,5
101,2,9,Land,2.0,1.0,19.747027875040654,Animal_Sea_Solid_Large,-9.0,0,351.0,6
101,2,9,Land,2.0,1.0,19.747027875040654,Animal_Land_Solid_Large,1.0,1,368.0,7
101,2,9,Land,2.0,1.0,19.747027875040654,Object_Sea_Pattern_Small,-7.0,0,1770.0,8
101,2,10,Large,2.0,0.0,10.80698737502098,Object_Land_Solid_Small,-9.0,0,183.0,1
101,2,10,Large,2.0,0.0,10.80698737502098,Animal_Sea_Solid_Large,-9.0,1,21.0,2
101,2,10,Large,2.0,0.0,10.80698737502098,Animal_Land_Pattern_Small,1.0,0,249.0,3
101,2,10,Large,2.0,0.0,10.80698737502098,Animal_Sea_Solid_Large,-9.0,1,251.0,4
101,2,10,Large,2.0,0.0,10.80698737502098,Object_Sea_Pattern_Small,-7.0,0,1588.0,5
101,2,10,Large,2.0,0.0,10.80698737502098,Animal_Land_Pattern_Small,1.0,0,273.0,6
101,2,10,Large,2.0,0.0,10.80698737502098,Object_Sea_Pattern_Small,-7.0,0,914.0,7
101,2,10,Large,2.0,0.0,10.80698737502098,Animal_Land_Solid_Large,1.0,1,788.0,8
101,2,11,Animal,1.0,0.0,21.413059125072323,Animal_Land_Solid_Large,1.0,1,611.0,1
101,2,11,Animal,1.0,0.0,21.413059125072323,Animal_Sea_Solid_Large,-9.0,1,219.0,2
101,2,11,Animal,1.0,0.0,21.413059125072323,Animal_Land_Pattern_Small,1.0,1,776.0,3
101,2,11,Animal,1.0,0.0,21.413059125072323,Animal_Land_Solid_Large,1.0,1,183.0,4
101,2,11,Animal,1.0,0.0,21.413059125072323,Object_Land_Solid_Small,-9.0,0,394.0,5
101,2,11,Animal,1.0,0.0,21.413059125072323,Object_Sea_Pattern_Small,-7.0,0,176.0,6
101,2,11,Animal,1.0,0.0,21.413059125072323,Animal_Land_Solid_Large,1.0,1,309.0,7
101,2,11,Animal,1.0,0.0,21.413059125072323,Object_Sea_Pattern_Small,-7.0,0,293.0,8
101,2,11,Animal,1.0,0.0,21.413059125072323,Object_Land_Solid_Small,-9.0,0,1211.0,9
101,2,11,Animal,1.0,0.0,21.413059125072323,Animal_Sea_Solid_Large,-9.0,1,245.0,10
101,2,11,Animal,1.0,0.0,21.413059125072323,Object_Sea_Pattern_Small,-7.0,0,496.0,11
101,2,11,Animal,1.0,0.0,21.413059125072323,Animal_Sea_Solid_Large,-9.0,1,442.0,12
101,2,11,Animal,1.0,0.0,21.413059125072323,Object_Sea_Pattern_Large,9.0,0,1450.0,13
101,2,11,Animal,1.0,0.0,21.413059125072323,Object_Land_Solid_Small,-9.0,0,251.0,14
101,2,11,Animal,1.0,0.0,21.413059125072323,Object_Sea_Pattern_Large,9.0,0,191.0,15
101,2,11,Animal,1.0,0.0,21.413059125072323,Object_Land_Solid_Small,-9.0,0,402.0,16
101,2,11,Animal,1.0,0.0,21.413059125072323,Object_Sea_Pattern_Small,-7.0,0,107.0,17
101,2,13,Small,2.0,1.0,8.690614124992862,Object_Land_Solid_Small,-9.0,1,98.0,1
101,2,13,Small,2.0,1.0,8.690614124992862,Object_Sea_Pattern_Small,-7.0,1,49.0,2
101,2,13,Small,2.0,1.0,8.690614124992862,Object_Land_Solid_Small,-9.0,1,1050.0,3
101,2,13,Small,2.0,1.0,8.690614124992862,Animal_Land_Solid_Large,1.0,0,29.0,4
101,2,13,Small,2.0,1.0,8.690614124992862,Object_Sea_Pattern_Small,-7.0,1,547.0,5
101,2,13,Small,2.0,1.0,8.690614124992862,Animal_Sea_Solid_Large,-9.0,0,388.0,6
101,2,13,Small,2.0,1.0,8.690614124992862,Animal_Land_Solid_Large,1.0,0,247.0,7
101,2,14,Object,2.0,1.0,6.621130750048906,Object_Sea_Pattern_Small,-7.0,1,1061.0,1
101,2,14,Object,2.0,1.0,6.621130750048906,Animal_Land_Solid_Large,1.0,0,269.0,2
101,2,14,Object,2.0,1.0,6.621130750048906,Object_Sea_Pattern_Small,-7.0,1,759.0,3
101,2,14,Object,2.0,1.0,6.621130750048906,Animal_Land_Solid_Large,1.0,0,58.0,4
101,2,14,Object,2.0,1.0,6.621130750048906,Animal_Sea_Solid_Large,-9.0,0,300.0,5
101,2,14,Object,2.0,1.0,6.621130750048906,Animal_Land_Solid_Large,1.0,0,371.0,6
101,2,15,Solid,2.0,1.0,7.580716666998342,Animal_Land_Solid_Large,1.0,1,632.0,1
101,2,15,Solid,2.0,1.0,7.580716666998342,Animal_Sea_Solid_Large,-9.0,1,186.0,2
101,2,15,Solid,2.0,1.0,7.580716666998342,Object_Sea_Pattern_Small,-7.0,0,458.0,3
101,2,15,Solid,2.0,1.0,7.580716666998342,Animal_Land_Solid_Large,1.0,1,272.0,4
101,2,15,Solid,2.0,1.0,7.580716666998342,Object_Sea_Pattern_Small,-7.0,0,411.0,5
101,2,15,Solid,2.0,1.0,7.580716666998342,Animal_Land_Solid_Large,1.0,1,326.0,6
101,2,15,Solid,2.0,1.0,7.580716666998342,Object_Sea_Pattern_Small,-7.0,0,344.0,7
101,2,15,Solid,2.0,1.0,7.580716666998342,Animal_Sea_Solid_Large,-9.0,1,292.0,8
101,2,15,Solid,2.0,1.0,7.580716666998342,Animal_Land_Solid_Large,1.0,1,428.0,9
101,2,15,Solid,2.0,1.0,7.580716666998342,Object_Sea_Pattern_Small,-7.0,0,151.0,10
101,2,16,Pattern,1.0,1.0,4.666229874943383,Object_Land_Solid_Small,-9.0,0,230.0,1
101,2,16,Pattern,1.0,1.0,4.666229874943383,Object_Sea_Pattern_Large,9.0,1,96.0,2
101,2,16,Pattern,1.0,1.0,4.666229874943383,Animal_Land_Solid_Large,1.0,0,22.0,3
101,2,16,Pattern,1.0,1.0,4.666229874943383,Animal_Sea_Solid_Large,-9.0,0,159.0,4
101,2,16,Pattern,1.0,1.0,4.666229874943383,Animal_Land_Solid_Large,1.0,0,532.0,5
101,2,16,Pattern,1.0,1.0,4.666229874943383,Animal_Land_Pattern_Small,1.0,1,461.0,6
101,2,16,Pattern,1.0,1.0,4.666229874943383,Object_Land_Solid_Small,-9.0,0,38.0,7
101,3,17,Land,1.0,1.0,33.20751295797527,Object_Land_Pattern_Large,2.0,1,1165.0,1
101,3,17,Land,1.0,1.0,33.20751295797527,Animal_Sea_Solid_Small,8.0,0,259.0,2
101,3,17,Land,1.0,1.0,33.20751295797527,Object_Land_Pattern_Large,2.0,1,1166.0,3
101,3,17,Land,1.0,1.0,33.20751295797527,Animal_Sea_Solid_Small,8.0,0,537.0,4
101,3,17,Land,1.0,1.0,33.20751295797527,Object_Land_Pattern_Large,2.0,1,513.0,5
101,3,17,Land,1.0,1.0,33.20751295797527,Animal_Sea_Pattern_Large,-2.0,0,279.0,6
101,3,17,Land,1.0,1.0,33.20751295797527,Object_Land_Pattern_Large,2.0,1,215.0,7
101,3,17,Land,1.0,1.0,33.20751295797527,Animal_Sea_Pattern_Large,-2.0,0,182.0,8
101,3,17,Land,1.0,1.0,33.20751295797527,Object_Land_Pattern_Large,2.0,1,896.0,9
101,3,17,Land,1.0,1.0,33.20751295797527,Animal_Sea_Pattern_Large,-2.0,0,1887.0,10
101,3,17,Land,1.0,1.0,33.20751295797527,Object_Land_Pattern_Large,2.0,1,620.0,11
101,3,17,Land,1.0,1.0,33.20751295797527,Object_Sea_Solid_Large,-2.0,0,114.0,12
101,3,17,Land,1.0,1.0,33.20751295797527,Animal_Sea_Pattern_Large,-2.0,0,22.0,13
101,3,17,Land,1.0,1.0,33.20751295797527,Object_Land_Pattern_Large,2.0,1,3700.0,14
101,3,17,Land,1.0,1.0,33.20751295797527,Object_Land_Pattern_Small,2.0,1,1212.0,15
101,3,17,Land,1.0,1.0,33.20751295797527,Animal_Land_Solid_Small,-2.0,1,266.0,16
101,3,17,Land,1.0,1.0,33.20751295797527,Animal_Sea_Pattern_Large,-2.0,0,767.0,17
101,3,17,Land,1.0,1.0,33.20751295797527,Animal_Land_Solid_Small,-2.0,1,938.0,18
101,3,17,Land,1.0,1.0,33.20751295797527,Object_Land_Pattern_Small,2.0,1,395.0,19
101,3,17,Land,1.0,1.0,33.20751295797527,Animal_Land_Solid_Small,-2.0,1,1493.0,20
101,3,19,Large,2.0,1.0,7.376978749991395,Object_Land_Pattern_Large,2.0,1,404.0,1
101,3,19,Large,2.0,1.0,7.376978749991395,Animal_Sea_Pattern_Large,-2.0,1,1302.0,2
101,3,19,Large,2.0,1.0,7.376978749991395,Animal_Land_Solid_Small,-2.0,0,1690.0,3
101,3,19,Large,2.0,1.0,7.376978749991395,Object_Land_Pattern_Small,2.0,0,199.0,4
101,3,19,Large,2.0,1.0,7.376978749991395,Object_Sea_Solid_Large,-2.0,1,214.0,5
101,3,19,Large,2.0,1.0,7.376978749991395,Object_Land_Pattern_Large,2.0,1,728.0,6
101,3,19,Large,2.0,1.0,7.376978749991395,Animal_Sea_Solid_Small,8.0,0,190.0,7
101,3,20,Object,1.0,1.0,6.0246376659488305,Object_Land_Pattern_Large,2.0,1,1173.0,1
101,3,20,Object,1.0,1.0,6.0246376659488305,Animal_Sea_Solid_Small,8.0,0,165.0,2
101,3,20,Object,1.0,1.0,6.0246376659488305,Object_Land_Pattern_Small,2.0,1,446.0,3
101,3,20,Object,1.0,1.0,6.0246376659488305,Animal_Sea_Pattern_Large,-2.0,0,736.0,4
101,3,20,Object,1.0,1.0,6.0246376659488305,Object_Sea_Solid_Large,-2.0,1,229.0,5
101,3,20,Object,1.0,1.0,6.0246376659488305,Animal_Land_Solid_Small,-2.0,0,303.0,6
101,3,20,Object,1.0,1.0,6.0246376659488305,Animal_Sea_Pattern_Large,-2.0,0,818.0,7
101,3,20,Object,1.0,1.0,6.0246376659488305,Animal_Land_Solid_Small,-2.0,0,585.0,8
101,3,21,Small,1.0,1.0,2.1925120829837397,Animal_Sea_Solid_Small,8.0,1,854.0,1
101,3,21,Small,1.0,1.0,2.1925120829837397,Animal_Land_Solid_Small,-2.0,1,345.0,2
101,3,21,Small,1.0,1.0,2.1925120829837397,Object_Sea_Solid_Large,-2.0,0,273.0,3
101,3,22,Animal,1.0,1.0,1.0523985410109162,Animal_Sea_Solid_Small,8.0,1,856.0,1
101,3,23,Pattern,1.0,1.0,10.507461083005182,Object_Land_Pattern_Large,2.0,1,1356.0,1
101,3,23,Pattern,1.0,1.0,10.507461083005182,Animal_Sea_Pattern_Large,-2.0,1,250.0,2
101,3,23,Pattern,1.0,1.0,10.507461083005182,Object_Sea_Solid_Large,-2.0,0,1552.0,3
101,3,23,Pattern,1.0,1.0,10.507461083005182,Object_Land_Pattern_Small,2.0,1,208.0,4
101,3,23,Pattern,1.0,1.0,10.507461083005182,Object_Land_Pattern_Large,2.0,1,25.0,5
101,3,23,Pattern,1.0,1.0,10.507461083005182,Animal_Sea_Solid_Small,8.0,0,37.0,6
101,3,23,Pattern,1.0,1.0,10.507461083005182,Animal_Land_Solid_Small,-2.0,0,454.0,7
101,3,23,Pattern,1.0,1.0,10.507461083005182,Animal_Sea_Pattern_Large,-2.0,1,626.0,8
101,3,23,Pattern,1.0,1.0,10.507461083005182,Animal_Sea_Solid_Small,8.0,0,188.0,9
101,3,24,Sea,1.0,1.0,2.96003983297851,Animal_Sea_Solid_Small,8.0,1,649.0,1
101,3,24,Sea,1.0,1.0,2.96003983297851,Object_Land_Pattern_Large,2.0,0,342.0,2
101,3,24,Sea,1.0,1.0,2.96003983297851,Animal_Sea_Pattern_Large,-2.0,1,597.0,3
101,3,24,Sea,1.0,1.0,2.96003983297851,Object_Sea_Solid_Large,-2.0,1,266.0,4
101,3,24,Sea,1.0,1.0,2.96003983297851,Animal_Land_Solid_Small,-2.0,0,257.0,5
101,4,25,Land,1.0,0.0,15.08604804193601,Animal_Sea_Pattern_Large,-7.0,0,277.0,1
101,4,25,Land,1.0,0.0,15.08604804193601,Object_Sea_Solid_Small,7.0,0,2192.0,2
101,4,25,Land,1.0,0.0,15.08604804193601,Animal_Land_Pattern_Large,7.0,1,2182.0,3
101,4,25,Land,1.0,0.0,15.08604804193601,Object_Sea_Solid_Small,7.0,0,262.0,4
101,4,25,Land,1.0,0.0,15.08604804193601,Object_Land_Solid_Small,-9.0,1,2425.0,5
101,4,25,Land,1.0,0.0,15.08604804193601,Animal_Land_Pattern_Large,7.0,1,372.0,6
101,4,25,Land,1.0,0.0,15.08604804193601,Object_Land_Solid_Small,-9.0,1,323.0,7
101,4,25,Land,1.0,0.0,15.08604804193601,Object_Land_Solid_Large,1.0,1,414.0,8
101,4,25,Land,1.0,0.0,15.08604804193601,Animal_Sea_Pattern_Large,-7.0,0,400.0,9
101,4,25,Land,1.0,0.0,15.08604804193601,Object_Sea_Solid_Small,7.0,0,37.0,10
101,4,26,Object,1.0,0.0,13.194192833034322,Object_Land_Solid_Small,-9.0,1,1099.0,1
101,4,26,Object,1.0,0.0,13.194192833034322,Animal_Sea_Pattern_Small,4.0,0,297.0,2
101,4,26,Object,1.0,0.0,13.194192833034322,Object_Land_Solid_Large,1.0,1,316.0,3
101,4,26,Object,1.0,0.0,13.194192833034322,Object_Sea_Solid_Small,7.0,1,1052.0,4
101,4,26,Object,1.0,0.0,13.194192833034322,Animal_Sea_Pattern_Large,-7.0,0,1152.0,5
101,4,26,Object,1.0,0.0,13.194192833034322,Object_Land_Solid_Large,1.0,1,448.0,6
101,4,26,Object,1.0,0.0,13.194192833034322,Object_Sea_Solid_Small,7.0,1,54.0,7
101,4,26,Object,1.0,0.0,13.194192833034322,Object_Land_Solid_Large,1.0,1,163.0,8
101,4,26,Object,1.0,0.0,13.194192833034322,Animal_Sea_Pattern_Small,4.0,0,339.0,9
101,4,26,Object,1.0,0.0,13.194192833034322,Animal_Sea_Pattern_Large,-7.0,0,674.0,10
101,4,26,Object,1.0,0.0,13.194192833034322,Animal_Sea_Pattern_Small,4.0,0,21.0,11
101,4,26,Object,1.0,0.0,13.194192833034322,Animal_Sea_Pattern_Large,-7.0,0,1049.0,12
101,4,26,Object,1.0,0.0,13.194192833034322,Animal_Sea_Pattern_Small,4.0,0,30.0,13
101,4,26,Object,1.0,0.0,13.194192833034322,Object_Land_Solid_Large,1.0,1,380.0,14
101,4,26,Object,1.0,0.0,13.194192833034322,Animal_Sea_Pattern_Large,-7.0,0,359.0,15
101,4,27,Animal,1.0,1.0,6.755183957982808,Animal_Sea_Pattern_Large,-7.0,1,136.0,1
101,4,27,Animal,1.0,1.0,6.755183957982808,Animal_Sea_Pattern_Small,4.0,1,213.0,2
101,4,27,Animal,1.0,1.0,6.755183957982808,Animal_Sea_Pattern_Large,-7.0,1,1071.0,3
101,4,27,Animal,1.0,1.0,6.755183957982808,Object_Land_Solid_Small,-9.0,0,104.0,4
101,4,27,Animal,1.0,1.0,6.755183957982808,Animal_Sea_Pattern_Small,4.0,1,755.0,5
101,4,27,Animal,1.0,1.0,6.755183957982808,Object_Land_Solid_Large,1.0,0,352.0,6
101,4,27,Animal,1.0,1.0,6.755183957982808,Object_Sea_Solid_Small,7.0,0,259.0,7
101,4,28,Small,1.0,1.0,11.721790582989344,Object_Land_Solid_Small,-9.0,1,702.0,1
101,4,28,Small,1.0,1.0,11.721790582989344,Animal_Sea_Pattern_Large,-7.0,0,134.0,2
101,4,28,Small,1.0,1.0,11.721790582989344,Animal_Sea_Pattern_Small,4.0,1,791.0,3
101,4,28,Small,1.0,1.0,11.721790582989344,Object_Land_Solid_Large,1.0,0,538.0,4
101,4,28,Small,1.0,1.0,11.721790582989344,Object_Sea_Solid_Small,7.0,1,551.0,5
101,4,28,Small,1.0,1.0,11.721790582989344,Animal_Sea_Pattern_Small,4.0,1,481.0,6
101,4,28,Small,1.0,1.0,11.721790582989344,Animal_Sea_Pattern_Large,-7.0,0,471.0,7
101,4,29,Solid,2.0,1.0,15.720312208984978,Animal_Sea_Pattern_Small,4.0,0,229.0,1
101,4,29,Solid,2.0,1.0,15.720312208984978,Animal_Sea_Pattern_Large,-7.0,0,1187.0,2
101,4,29,Solid,2.0,1.0,15.720312208984978,Animal_Sea_Pattern_Small,4.0,0,447.0,3
101,4,29,Solid,2.0,1.0,15.720312208984978,Animal_Sea_Pattern_Large,-7.0,0,125.0,4
101,4,29,Solid,2.0,1.0,15.720312208984978,Object_Land_Solid_Small,-9.0,1,386.0,5
101,4,29,Solid,2.0,1.0,15.720312208984978,Animal_Sea_Pattern_Large,-7.0,0,258.0,6
101,4,29,Solid,2.0,1.0,15.720312208984978,Animal_Sea_Pattern_Small,4.0,0,435.0,7
101,4,29,Solid,2.0,1.0,15.720312208984978,Object_Sea_Solid_Small,7.0,1,470.0,8
101,4,29,Solid,2.0,1.0,15.720312208984978,Animal_Land_Pattern_Large,7.0,0,270.0,9
101,4,29,Solid,2.0,1.0,15.720312208984978,Object_Sea_Solid_Small,7.0,1,123.0,10
101,4,29,Solid,2.0,1.0,15.720312208984978,Object_Land_Solid_Large,1.0,1,721.0,11
101,4,29,Solid,2.0,1.0,15.720312208984978,Animal_Sea_Pattern_Large,-7.0,0,909.0,12
101,4,29,Solid,2.0,1.0,15.720312208984978,Object_Land_Solid_Large,1.0,1,366.0,13
101,4,29,Solid,2.0,1.0,15.720312208984978,Animal_Sea_Pattern_Small,4.0,0,501.0,14
101,4,30,Large,1.0,1.0,8.06427795800846,Animal_Sea_Pattern_Large,-7.0,1,1022.0,1
101,4,30,Large,1.0,1.0,8.06427795800846,Animal_Land_Pattern_Large,7.0,1,333.0,2
101,4,30,Large,1.0,1.0,8.06427795800846,Object_Land_Solid_Small,-9.0,0,65.0,3
101,4,30,Large,1.0,1.0,8.06427795800846,Animal_Land_Pattern_Large,7.0,1,321.0,4
101,4,30,Large,1.0,1.0,8.06427795800846,Object_Land_Solid_Large,1.0,1,586.0,5
101,4,30,Large,1.0,1.0,8.06427795800846,Object_Sea_Solid_Small,7.0,0,212.0,6
101,4,30,Large,1.0,1.0,8.06427795800846,Animal_Sea_Pattern_Small,4.0,0,308.0,7
101,4,30,Large,1.0,1.0,8.06427795800846,Animal_Sea_Pattern_Large,-7.0,1,287.0,8
101,4,30,Large,1.0,1.0,8.06427795800846,Animal_Land_Pattern_Large,7.0,1,235.0,9
101,4,30,Large,1.0,1.0,8.06427795800846,Object_Sea_Solid_Small,7.0,0,417.0,10
101,4,30,Large,1.0,1.0,8.06427795800846,Animal_Sea_Pattern_Large,-7.0,1,453.0,11
101,4,31,Sea,1.0,1.0,6.194624542025849,Animal_Land_Pattern_Large,7.0,0,203.0,1
101,4,31,Sea,1.0,1.0,6.194624542025849,Animal_Sea_Pattern_Small,4.0,1,919.0,2
101,4,31,Sea,1.0,1.0,6.194624542025849,Object_Sea_Solid_Small,7.0,1,1014.0,3
101,4,31,Sea,1.0,1.0,6.194624542025849,Object_Land_Solid_Large,1.0,0,20.0,4
101,4,31,Sea,1.0,1.0,6.194624542025849,Object_Sea_Solid_Small,7.0,1,306.0,5
101,4,31,Sea,1.0,1.0,6.194624542025849,Animal_Sea_Pattern_Small,4.0,1,380.0,6
101,4,31,Sea,1.0,1.0,6.194624542025849,Object_Land_Solid_Large,1.0,0,246.0,7
101,4,31,Sea,1.0,1.0,6.194624542025849,Animal_Sea_Pattern_Large,-7.0,1,746.0,8
101,4,31,Sea,1.0,1.0,6.194624542025849,Object_Land_Solid_Large,1.0,0,252.0,9
101,4,32,Pattern,1.0,1.0,4.627517707995139,Object_Land_Solid_Small,-9.0,0,570.0,1
101,4,32,Pattern,1.0,1.0,4.627517707995139,Animal_Sea_Pattern_Small,4.0,1,526.0,2
101,4,32,Pattern,1.0,1.0,4.627517707995139,Object_Sea_Solid_Small,7.0,0,223.0,3
101,4,32,Pattern,1.0,1.0,4.627517707995139,Animal_Land_Pattern_Large,7.0,1,235.0,4
101,4,32,Pattern,1.0,1.0,4.627517707995139,Object_Sea_Solid_Small,7.0,0,314.0,5
101,4,32,Pattern,1.0,1.0,4.627517707995139,Animal_Sea_Pattern_Small,4.0,1,876.0,6
101,5,33,Object,1.0,1.0,19.036868416937068,Animal_Land_Solid_Large,9.0,0,801.0,1
101,5,33,Object,1.0,1.0,19.036868416937068,Object_Sea_Pattern_Small,9.0,1,976.0,2
101,5,33,Object,1.0,1.0,19.036868416937068,Object_Land_Solid_Small,-5.0,1,51.0,3
101,5,33,Object,1.0,1.0,19.036868416937068,Object_Sea_Pattern_Large,-3.0,1,653.0,4
101,5,33,Object,1.0,1.0,19.036868416937068,Animal_Land_Solid_Large,9.0,0,295.0,5
101,5,33,Object,1.0,1.0,19.036868416937068,Object_Land_Solid_Small,-5.0,1,1017.0,6
101,5,33,Object,1.0,1.0,19.036868416937068,Animal_Land_Solid_Large,9.0,0,566.0,7
101,5,33,Object,1.0,1.0,19.036868416937068,Animal_Sea_Solid_Large,-5.0,0,444.0,8
101,5,33,Object,1.0,1.0,19.036868416937068,Animal_Land_Solid_Large,9.0,0,90.0,9
101,5,33,Object,1.0,1.0,19.036868416937068,Animal_Land_Pattern_Small,-7.0,0,133.0,10
101,5,33,Object,1.0,1.0,19.036868416937068,Object_Sea_Pattern_Large,-3.0,1,270.0,11
101,5,33,Object,1.0,1.0,19.036868416937068,Object_Land_Solid_Small,-5.0,1,253.0,12
101,5,33,Object,1.0,1.0,19.036868416937068,Object_Sea_Pattern_Large,-3.0,1,79.0,13
101,5,33,Object,1.0,1.0,19.036868416937068,Animal_Land_Solid_Large,9.0,0,880.0,14
101,5,33,Object,1.0,1.0,19.036868416937068,Object_Sea_Pattern_Small,9.0,1,434.0,15
101,5,33,Object,1.0,1.0,19.036868416937068,Animal_Land_Solid_Large,9.0,0,217.0,16
101,5,33,Object,1.0,1.0,19.036868416937068,Animal_Sea_Solid_Large,-5.0,0,495.0,17
101,5,33,Object,1.0,1.0,19.036868416937068,Animal_Land_Solid_Large,9.0,0,253.0,18
101,5,33,Object,1.0,1.0,19.036868416937068,Object_Sea_Pattern_Small,9.0,1,267.0,19
101,5,34,Sea,1.0,1.0,8.802479250007309,Animal_Sea_Solid_Large,-5.0,1,1369.0,1
101,5,34,Sea,1.0,1.0,8.802479250007309,Object_Land_Solid_Small,-5.0,0,239.0,2
101,5,34,Sea,1.0,1.0,8.802479250007309,Object_Sea_Pattern_Large,-3.0,1,231.0,3
101,5,34,Sea,1.0,1.0,8.802479250007309,Animal_Land_Solid_Large,9.0,0,198.0,4
101,5,34,Sea,1.0,1.0,8.802479250007309,Object_Sea_Pattern_Small,9.0,1,1390.0,5
101,5,34,Sea,1.0,1.0,8.802479250007309,Animal_Land_Solid_Large,9.0,0,96.0,6
101,5,34,Sea,1.0,1.0,8.802479250007309,Animal_Sea_Solid_Large,-5.0,1,191.0,7
101,5,34,Sea,1.0,1.0,8.802479250007309,Animal_Land_Pattern_Small,-7.0,0,306.0,8
101,5,34,Sea,1.0,1.0,8.802479250007309,Object_Land_Solid_Small,-5.0,0,600.0,9
101,5,34,Sea,1.0,1.0,8.802479250007309,Animal_Land_Solid_Large,9.0,0,206.0,10
101,5,35,Large,1.0,1.0,11.9978993749246,Animal_Land_Solid_Large,9.0,1,863.0,1
101,5,35,Large,1.0,1.0,11.9978993749246,Animal_Sea_Solid_Large,-5.0,1,32.0,2
101,5,35,Large,1.0,1.0,11.9978993749246,Object_Sea_Pattern_Small,9.0,0,134.0,3
101,5,35,Large,1.0,1.0,11.9978993749246,Object_Sea_Pattern_Large,-3.0,1,296.0,4
101,5,35,Large,1.0,1.0,11.9978993749246,Object_Land_Solid_Small,-5.0,0,199.0,5
101,5,35,Large,1.0,1.0,11.9978993749246,Animal_Sea_Solid_Large,-5.0,1,65.0,6
101,5,35,Large,1.0,1.0,11.9978993749246,Animal_Land_Pattern_Small,-7.0,0,192.0,7
101,5,35,Large,1.0,1.0,11.9978993749246,Animal_Sea_Solid_Large,-5.0,1,32.0,8
101,5,35,Large,1.0,1.0,11.9978993749246,Animal_Land_Pattern_Small,-7.0,0,530.0,9
101,5,35,Large,1.0,1.0,11.9978993749246,Animal_Sea_Solid_Large,-5.0,1,582.0,10
101,5,35,Large,1.0,1.0,11.9978993749246,Animal_Land_Pattern_Small,-7.0,0,1434.0,11
101,5,35,Large,1.0,1.0,11.9978993749246,Object_Sea_Pattern_Small,9.0,0,967.0,12
101,5,36,Pattern,1.0,0.0,7.186649541021325,Object_Sea_Pattern_Large,-3.0,1,255.0,1
101,5,36,Pattern,1.0,0.0,7.186649541021325,Animal_Sea_Solid_Large,-5.0,0,53.0,2
101,5,36,Pattern,1.0,0.0,7.186649541021325,Animal_Land_Pattern_Small,-7.0,1,156.0,3
101,5,36,Pattern,1.0,0.0,7.186649541021325,Object_Sea_Pattern_Small,9.0,1,552.0,4
101,5,36,Pattern,1.0,0.0,7.186649541021325,Animal_Sea_Solid_Large,-5.0,0,29.0,5
101,5,36,Pattern,1.0,0.0,7.186649541021325,Animal_Land_Pattern_Small,-7.0,1,108.0,6
101,5,36,Pattern,1.0,0.0,7.186649541021325,Object_Sea_Pattern_Small,9.0,1,222.0,7
101,5,36,Pattern,1.0,0.0,7.186649541021325,Animal_Land_Solid_Large,9.0,0,1253.0,8
101,6,41,Land,1.0,1.0,34.82091787504032,Object_Land_Pattern_Large,7.0,1,582.0,1
101,6,41,Land,1.0,1.0,34.82091787504032,Animal_Sea_Pattern_Large,-4.0,0,335.0,2
101,6,41,Land,1.0,1.0,34.82091787504032,Animal_Land_Solid_Small,-2.0,1,746.0,3
101,6,41,Land,1.0,1.0,34.82091787504032,Object_Land_Pattern_Small,-4.0,1,176.0,4
101,6,41,Land,1.0,1.0,34.82091787504032,Object_Sea_Solid_Large,-4.0,0,64.0,5
101,6,41,Land,1.0,1.0,34.82091787504032,Animal_Sea_Solid_Small,7.0,0,34.0,6
101,6,41,Land,1.0,1.0,34.82091787504032,Animal_Land_Solid_Small,-2.0,1,105.0,7
101,6,41,Land,1.0,1.0,34.82091787504032,Object_Sea_Solid_Large,-4.0,0,649.0,8
101,6,41,Land,1.0,1.0,34.82091787504032,Animal_Sea_Pattern_Large,-4.0,0,1064.0,9
101,6,41,Land,1.0,1.0,34.82091787504032,Object_Land_Pattern_Large,7.0,1,826.0,10
101,6,41,Land,1.0,1.0,34.82091787504032,Animal_Sea_Solid_Small,7.0,0,423.0,11
101,6,41,Land,1.0,1.0,34.82091787504032,Object_Land_Pattern_Large,7.0,1,133.0,12
101,6,41,Land,1.0,1.0,34.82091787504032,Animal_Sea_Solid_Small,7.0,0,717.0,13
101,6,41,Land,1.0,1.0,34.82091787504032,Object_Land_Pattern_Large,7.0,1,424.0,14
101,6,41,Land,1.0,1.0,34.82091787504032,Animal_Sea_Pattern_Large,-4.0,0,180.0,15
101,6,41,Land,1.0,1.0,34.82091787504032,Object_Land_Pattern_Large,7.0,1,232.0,16
101,6,41,Land,1.0,1.0,34.82091787504032,Animal_Sea_Pattern_Large,-4.0,0,800.0,17
101,6,41,Land,1.0,1.0,34.82091787504032,Animal_Sea_Solid_Small,7.0,0,357.0,18
101,6,41,Land,1.0,1.0,34.82091787504032,Object_Land_Pattern_Large,7.0,1,264.0,19
101,6,41,Land,1.0,1.0,34.82091787504032,Animal_Sea_Solid_Small,7.0,0,621.0,20
101,6,41,Land,1.0,1.0,34.82091787504032,Animal_Sea_Pattern_Large,-4.0,0,27.0,21
101,6,41,Land,1.0,1.0,34.82091787504032,Object_Sea_Solid_Large,-4.0,0,42.0,22
101,6,41,Land,1.0,1.0,34.82091787504032,Animal_Land_Solid_Small,-2.0,1,202.0,23
101,6,41,Land,1.0,1.0,34.82091787504032,Object_Sea_Solid_Large,-4.0,0,90.0,24
101,6,41,Land,1.0,1.0,34.82091787504032,Animal_Sea_Pattern_Large,-4.0,0,26.0,25
101,6,41,Land,1.0,1.0,34.82091787504032,Object_Sea_Solid_Large,-4.0,0,919.0,26
101,6,41,Land,1.0,1.0,34.82091787504032,Animal_Land_Solid_Small,-2.0,1,811.0,27
101,6,41,Land,1.0,1.0,34.82091787504032,Animal_Sea_Pattern_Large,-4.0,0,431.0,28
101,6,41,Land,1.0,1.0,34.82091787504032,Object_Sea_Solid_Large,-4.0,0,993.0,29
101,6,41,Land,1.0,1.0,34.82091787504032,Object_Land_Pattern_Small,-4.0,1,160.0,30
101,6,41,Land,1.0,1.0,34.82091787504032,Object_Sea_Solid_Large,-4.0,0,333.0,31
101,6,41,Land,1.0,1.0,34.82091787504032,Animal_Sea_Pattern_Large,-4.0,0,325.0,32
101,6,41,Land,1.0,1.0,34.82091787504032,Object_Sea_Solid_Large,-4.0,0,246.0,33
101,6,41,Land,1.0,1.0,34.82091787504032,Animal_Sea_Pattern_Large,-4.0,0,383.0,34
101,6,42,Animal,1.0,1.0,9.28916908300016,Animal_Sea_Solid_Small,7.0,1,1154.0,1
101,6,42,Animal,1.0,1.0,9.28916908300016,Animal_Land_Solid_Small,-2.0,1,687.0,2
101,6,42,Animal,1.0,1.0,9.28916908300016,Object_Land_Pattern_Small,-4.0,0,347.0,3
101,6,42,Animal,1.0,1.0,9.28916908300016,Animal_Sea_Pattern_Large,-4.0,1,554.0,4
101,6,42,Animal,1.0,1.0,9.28916908300016,Object_Land_Pattern_Small,-4.0,0,340.0,5
101,6,42,Animal,1.0,1.0,9.28916908300016,Object_Sea_Solid_Large,-4.0,0,319.0,6
101,6,42,Animal,1.0,1.0,9.28916908300016,Object_Land_Pattern_Small,-4.0,0,95.0,7
101,6,42,Animal,1.0,1.0,9.28916908300016,Object_Sea_Solid_Large,-4.0,0,94.0,8
101,6,42,Animal,1.0,1.0,9.28916908300016,Animal_Sea_Solid_Small,7.0,1,234.0,9
101,6,43,Large,2.0,1.0,9.135290417005308,Object_Land_Pattern_Large,7.0,1,825.0,1
101,6,43,Large,2.0,1.0,9.135290417005308,Animal_Sea_Pattern_Large,-4.0,1,1168.0,2
101,6,43,Large,2.0,1.0,9.135290417005308,Object_Land_Pattern_Large,7.0,1,153.0,3
101,6,43,Large,2.0,1.0,9.135290417005308,Object_Sea_Solid_Large,-4.0,1,307.0,4
101,6,43,Large,2.0,1.0,9.135290417005308,Animal_Sea_Pattern_Large,-4.0,1,841.0,5
101,6,43,Large,2.0,1.0,9.135290417005308,Object_Sea_Solid_Large,-4.0,1,30.0,6
101,6,43,Large,2.0,1.0,9.135290417005308,Object_Land_Pattern_Small,-4.0,0,372.0,7
101,6,44,Solid,1.0,1.0,15.752294708043337,Object_Land_Pattern_Large,7.0,0,1163.0,1
101,6,44,Solid,1.0,1.0,15.752294708043337,Animal_Sea_Solid_Small,7.0,1,1157.0,2
101,6,44,Solid,1.0,1.0,15.752294708043337,Animal_Land_Solid_Small,-2.0,1,828.0,3
101,6,44,Solid,1.0,1.0,15.752294708043337,Object_Land_Pattern_Small,-4.0,0,572.0,4
101,6,44,Solid,1.0,1.0,15.752294708043337,Object_Sea_Solid_Large,-4.0,1,956.0,5
101,6,44,Solid,1.0,1.0,15.752294708043337,Animal_Sea_Pattern_Large,-4.0,0,1042.0,6
101,6,44,Solid,1.0,1.0,15.752294708043337,Animal_Sea_Solid_Small,7.0,1,479.0,7
101,6,44,Solid,1.0,1.0,15.752294708043337,Object_Land_Pattern_Large,7.0,0,408.0,8
101,6,44,Solid,1.0,1.0,15.752294708043337,Animal_Sea_Pattern_Large,-4.0,0,1831.0,9
101,6,44,Solid,1.0,1.0,15.752294708043337,Animal_Sea_Solid_Small,7.0,1,247.0,10
101,6,44,Solid,1.0,1.0,15.752294708043337,Animal_Sea_Pattern_Large,-4.0,0,116.0,11
101,6,45,Small,2.0,0.0,22.01103254093323,Object_Land_Pattern_Large,7.0,0,184.0,1
101,6,45,Small,2.0,0.0,22.01103254093323,Animal_Land_Solid_Small,-2.0,1,1010.0,2
101,6,45,Small,2.0,0.0,22.01103254093323,Animal_Sea_Pattern_Large,-4.0,0,611.0,3
101,6,45,Small,2.0,0.0,22.01103254093323,Object_Land_Pattern_Large,7.0,0,788.0,4
101,6,45,Small,2.0,0.0,22.01103254093323,Animal_Sea_Pattern_Large,-4.0,0,2733.0,5
101,6,45,Small,2.0,0.0,22.01103254093323,Object_Land_Pattern_Large,7.0,0,269.0,6
101,6,45,Small,2.0,0.0,22.01103254093323,Animal_Sea_Pattern_Large,-4.0,0,470.0,7
101,6,45,Small,2.0,0.0,22.01103254093323,Object_Land_Pattern_Small,-4.0,1,307.0,8
101,6,45,Small,2.0,0.0,22.01103254093323,Object_Sea_Solid_Large,-4.0,0,196.0,9
101,6,45,Small,2.0,0.0,22.01103254093323,Animal_Sea_Pattern_Large,-4.0,0,54.0,10
101,6,46,Sea,1.0,0.0,6.700038500013761,Animal_Sea_Solid_Small,7.0,1,755.0,1
101,6,46,Sea,1.0,0.0,6.700038500013761,Object_Land_Pattern_Large,7.0,0,459.0,2
101,6,46,Sea,1.0,0.0,6.700038500013761,Animal_Sea_Solid_Small,7.0,1,283.0,3
101,6,46,Sea,1.0,0.0,6.700038500013761,Object_Land_Pattern_Large,7.0,0,288.0,4
101,6,46,Sea,1.0,0.0,6.700038500013761,Animal_Sea_Pattern_Large,-4.0,1,131.0,5
101,6,46,Sea,1.0,0.0,6.700038500013761,Object_Sea_Solid_Large,-4.0,1,1175.0,6
101,6,46,Sea,1.0,0.0,6.700038500013761,Animal_Sea_Solid_Small,7.0,1,21.0,7
101,6,46,Sea,1.0,0.0,6.700038500013761,Animal_Land_Solid_Small,-2.0,0,513.0,8
101,6,46,Sea,1.0,0.0,6.700038500013761,Object_Land_Pattern_Large,7.0,0,288.0,9
101,6,47,Object,1.0,0.0,7.431222124956548,Animal_Land_Solid_Small,-2.0,0,422.0,1
101,6,47,Object,1.0,0.0,7.431222124956548,Object_Land_Pattern_Small,-4.0,1,281.0,2
101,6,47,Object,1.0,0.0,7.431222124956548,Object_Sea_Solid_Large,-4.0,1,1127.0,3
101,6,47,Object,1.0,0.0,7.431222124956548,Object_Land_Pattern_Large,7.0,1,593.0,4
101,6,47,Object,1.0,0.0,7.431222124956548,Animal_Sea_Pattern_Large,-4.0,0,1051.0,5
101,6,47,Object,1.0,0.0,7.431222124956548,Animal_Sea_Solid_Small,7.0,0,531.0,6
101,6,47,Object,1.0,0.0,7.431222124956548,Animal_Sea_Pattern_Large,-4.0,0,427.0,7
101,6,47,Object,1.0,0.0,7.431222124956548,Object_Land_Pattern_Large,7.0,1,224.0,8
101,6,48,Pattern,1.0,0.0,5.113205374917015,Object_Land_Pattern_Large,7.0,1,2291.0,1
101,6,48,Pattern,1.0,0.0,5.113205374917015,Animal_Sea_Pattern_Large,-4.0,1,217.0,2
101,7,49,Solid,2.0,1.0,12.365650417050349,Animal_Sea_Pattern_Small,-5.0,0,1850.0,1
101,7,49,Solid,2.0,1.0,12.365650417050349,Object_Land_Solid_Large,-9.0,1,836.0,2
101,7,49,Solid,2.0,1.0,12.365650417050349,Animal_Sea_Pattern_Small,-5.0,0,1050.0,3
101,7,49,Solid,2.0,1.0,12.365650417050349,Object_Land_Solid_Large,-9.0,1,902.0,4
101,7,49,Solid,2.0,1.0,12.365650417050349,Animal_Sea_Pattern_Small,-5.0,0,492.0,5
101,7,49,Solid,2.0,1.0,12.365650417050349,Object_Land_Solid_Large,-9.0,1,782.0,6
101,7,49,Solid,2.0,1.0,12.365650417050349,Object_Sea_Pattern_Small,2.0,0,57.0,7
101,7,50,Small,2.0,1.0,10.72541779105086,Animal_Land_Solid_Small,1.0,1,839.0,1
101,7,50,Small,2.0,1.0,10.72541779105086,Object_Sea_Solid_Large,2.0,0,1572.0,2
101,7,50,Small,2.0,1.0,10.72541779105086,Object_Sea_Pattern_Small,2.0,1,2847.0,3
101,7,50,Small,2.0,1.0,10.72541779105086,Animal_Sea_Pattern_Small,-5.0,1,716.0,4
101,7,51,Pattern,2.0,1.0,9.400387874920852,Animal_Sea_Pattern_Small,-5.0,1,1142.0,1
101,7,51,Pattern,2.0,1.0,9.400387874920852,Object_Land_Solid_Large,-9.0,0,810.0,2
101,7,51,Pattern,2.0,1.0,9.400387874920852,Animal_Land_Pattern_Large,1.0,1,474.0,3
101,7,51,Pattern,2.0,1.0,9.400387874920852,Object_Sea_Solid_Large,2.0,0,470.0,4
101,7,51,Pattern,2.0,1.0,9.400387874920852,Animal_Land_Pattern_Large,1.0,1,145.0,5
101,7,51,Pattern,2.0,1.0,9.400387874920852,Object_Sea_Solid_Large,2.0,0,649.0,6
101,7,51,Pattern,2.0,1.0,9.400387874920852,Animal_Sea_Pattern_Small,-5.0,1,202.0,7
101,7,51,Pattern,2.0,1.0,9.400387874920852,Object_Sea_Pattern_Small,2.0,1,974.0,8
101,7,51,Pattern,2.0,1.0,9.400387874920852,Object_Sea_Solid_Large,2.0,0,838.0,9
101,7,51,Pattern,2.0,1.0,9.400387874920852,Object_Sea_Pattern_Small,2.0,1,818.0,10
101,7,52,Land,2.0,1.0,6.281259207986295,Animal_Sea_Pattern_Small,-5.0,0,1647.0,1
101,7,52,Land,2.0,1.0,6.281259207986295,Object_Land_Solid_Large,-9.0,1,566.0,2
101,7,52,Land,2.0,1.0,6.281259207986295,Object_Sea_Pattern_Small,2.0,0,807.0,3
101,7,52,Land,2.0,1.0,6.281259207986295,Object_Land_Solid_Large,-9.0,1,110.0,4
101,7,53,Large,2.0,1.0,6.40163429104723,Animal_Sea_Pattern_Small,-5.0,0,334.0,1
101,7,53,Large,2.0,1.0,6.40163429104723,Object_Sea_Pattern_Small,2.0,0,137.0,2
101,7,53,Large,2.0,1.0,6.40163429104723,Object_Land_Solid_Large,-9.0,1,519.0,3
101,7,53,Large,2.0,1.0,6.40163429104723,Animal_Sea_Pattern_Small,-5.0,0,21.0,4
101,7,53,Large,2.0,1.0,6.40163429104723,Object_Land_Solid_Large,-9.0,1,410.0,5
101,7,53,Large,2.0,1.0,6.40163429104723,Animal_Sea_Pattern_Small,-5.0,0,985.0,6
101,7,53,Large,2.0,1.0,6.40163429104723,Object_Sea_Solid_Large,2.0,1,435.0,7
101,7,54,Sea,2.0,1.0,7.092488958965987,Animal_Sea_Pattern_Small,-5.0,1,1263.0,1
101,7,54,Sea,2.0,1.0,7.092488958965987,Object_Sea_Pattern_Small,2.0,1,949.0,2
101,7,54,Sea,2.0,1.0,7.092488958965987,Animal_Land_Solid_Small,1.0,0,216.0,3
101,7,54,Sea,2.0,1.0,7.092488958965987,Animal_Land_Pattern_Large,1.0,0,599.0,4
101,7,54,Sea,2.0,1.0,7.092488958965987,Object_Sea_Pattern_Small,2.0,1,236.0,5
101,7,54,Sea,2.0,1.0,7.092488958965987,Animal_Sea_Pattern_Small,-5.0,1,425.0,6
101,7,55,Animal,2.0,1.0,8.314516582991928,Animal_Sea_Pattern_Small,-5.0,1,727.0,1
101,7,55,Animal,2.0,1.0,8.314516582991928,Object_Sea_Pattern_Small,2.0,0,1156.0,2
101,7,55,Animal,2.0,1.0,8.314516582991928,Animal_Sea_Pattern_Small,-5.0,1,719.0,3
101,7,55,Animal,2.0,1.0,8.314516582991928,Object_Land_Solid_Large,-9.0,0,217.0,4
101,7,55,Animal,2.0,1.0,8.314516582991928,Animal_Land_Pattern_Large,1.0,1,289.0,5
101,7,55,Animal,2.0,1.0,8.314516582991928,Animal_Land_Solid_Small,1.0,1,692.0,6
101,7,55,Animal,2.0,1.0,8.314516582991928,Object_Sea_Solid_Large,2.0,0,280.0,7
101,7,55,Animal,2.0,1.0,8.314516582991928,Animal_Sea_Pattern_Small,-5.0,1,133.0,8
101,7,56,Object,2.0,1.0,2.457128416048363,Object_Land_Solid_Large,-9.0,1,416.0,1
101,7,56,Object,2.0,1.0,2.457128416048363,Object_Sea_Pattern_Small,2.0,1,235.0,2
101,7,56,Object,2.0,1.0,2.457128416048363,Object_Land_Solid_Large,-9.0,1,398.0,3
103,1,1,Sea,2.0,1.0,14.062734958017243,Animal_Sea_Solid_Large,2.0,1,565.0,1
103,1,1,Sea,2.0,1.0,14.062734958017243,Animal_Sea_Pattern_Large,5.0,1,21.0,2
103,1,1,Sea,2.0,1.0,14.062734958017243,Animal_Sea_Solid_Large,2.0,1,526.0,3
103,1,1,Sea,2.0,1.0,14.062734958017243,Animal_Sea_Pattern_Large,5.0,1,1453.0,4
103,1,1,Sea,2.0,1.0,14.062734958017243,Animal_Sea_Solid_Large,2.0,1,823.0,5
103,1,1,Sea,2.0,1.0,14.062734958017243,Animal_Sea_Pattern_Large,5.0,1,592.0,6
103,1,1,Sea,2.0,1.0,14.062734958017243,Animal_Sea_Solid_Large,2.0,1,1915.0,7
103,1,1,Sea,2.0,1.0,14.062734958017243,Object_Land_Solid_Small,-2.0,0,453.0,8
103,1,1,Sea,2.0,1.0,14.062734958017243,Animal_Sea_Pattern_Large,5.0,1,285.0,9
103,1,1,Sea,2.0,1.0,14.062734958017243,Object_Sea_Pattern_Small,-8.0,1,457.0,10
103,1,1,Sea,2.0,1.0,14.062734958017243,Animal_Sea_Pattern_Large,5.0,1,830.0,11
103,1,1,Sea,2.0,1.0,14.062734958017243,Animal_Sea_Solid_Large,2.0,1,348.0,12
103,1,1,Sea,2.0,1.0,14.062734958017243,Object_Land_Solid_Small,-2.0,0,482.0,13
103,1,2,Large,1.0,1.0,24.833274999982677,Animal_Sea_Solid_Large,2.0,1,555.0,1
103,1,2,Large,1.0,1.0,24.833274999982677,Animal_Sea_Pattern_Large,5.0,1,938.0,2
103,1,2,Large,1.0,1.0,24.833274999982677,Animal_Sea_Solid_Large,2.0,1,242.0,3
103,1,2,Large,1.0,1.0,24.833274999982677,Animal_Sea_Pattern_Large,5.0,1,214.0,4
103,1,2,Large,1.0,1.0,24.833274999982677,Animal_Sea_Solid_Large,2.0,1,383.0,5
103,1,2,Large,1.0,1.0,24.833274999982677,Object_Land_Pattern_Small,8.0,0,499.0,6
103,1,2,Large,1.0,1.0,24.833274999982677,Animal_Sea_Solid_Large,2.0,1,21.0,7
103,1,2,Large,1.0,1.0,24.833274999982677,Object_Land_Pattern_Small,8.0,0,550.0,8
103,1,2,Large,1.0,1.0,24.833274999982677,Animal_Land_Solid_Large,-1.0,1,219.0,9
103,1,2,Large,1.0,1.0,24.833274999982677,Animal_Sea_Solid_Large,2.0,1,394.0,10
103,1,2,Large,1.0,1.0,24.833274999982677,Object_Sea_Pattern_Small,-8.0,0,1253.0,11
103,1,2,Large,1.0,1.0,24.833274999982677,Animal_Sea_Pattern_Large,5.0,1,261.0,12
103,1,2,Large,1.0,1.0,24.833274999982677,Animal_Sea_Solid_Large,2.0,1,531.0,13
103,1,2,Large,1.0,1.0,24.833274999982677,Animal_Sea_Pattern_Large,5.0,1,317.0,14
103,1,2,Large,1.0,1.0,24.833274999982677,Animal_Sea_Solid_Large,2.0,1,3442.0,15
103,1,2,Large,1.0,1.0,24.833274999982677,Animal_Sea_Pattern_Large,5.0,1,1459.0,16
103,1,2,Large,1.0,1.0,24.833274999982677,Object_Land_Solid_Small,-2.0,0,322.0,17
103,1,2,Large,1.0,1.0,24.833274999982677,Animal_Sea_Pattern_Large,5.0,1,1061.0,18
103,1,2,Large,1.0,1.0,24.833274999982677,Object_Land_Solid_Small,-2.0,0,165.0,19
103,1,3,Land,2.0,0.0,12.0465518750716,Animal_Sea_Solid_Large,2.0,0,256.0,1
103,1,3,Land,2.0,0.0,12.0465518750716,Animal_Sea_Pattern_Large,5.0,0,90.0,2
103,1,3,Land,2.0,0.0,12.0465518750716,Object_Land_Pattern_Small,8.0,1,552.0,3
103,1,3,Land,2.0,0.0,12.0465518750716,Object_Land_Solid_Small,-2.0,1,420.0,4
103,1,3,Land,2.0,0.0,12.0465518750716,Object_Sea_Pattern_Small,-8.0,0,435.0,5
103,1,3,Land,2.0,0.0,12.0465518750716,Object_Land_Solid_Small,-2.0,1,1588.0,6
103,1,3,Land,2.0,0.0,12.0465518750716,Animal_Sea_Pattern_Large,5.0,0,24.0,7
103,1,3,Land,2.0,0.0,12.0465518750716,Object_Land_Solid_Small,-2.0,1,1616.0,8
103,1,4,Object,1.0,0.0,10.608763040974736,Animal_Sea_Solid_Large,2.0,0,1256.0,1
103,1,4,Object,1.0,0.0,10.608763040974736,Object_Land_Pattern_Small,8.0,1,168.0,2
103,1,4,Object,1.0,0.0,10.608763040974736,Animal_Sea_Solid_Large,2.0,0,512.0,3
103,1,4,Object,1.0,0.0,10.608763040974736,Animal_Sea_Pattern_Large,5.0,0,2419.0,4
103,1,4,Object,1.0,0.0,10.608763040974736,Object_Land_Solid_Small,-2.0,1,1061.0,5
103,1,4,Object,1.0,0.0,10.608763040974736,Animal_Sea_Pattern_Large,5.0,0,981.0,6
103,1,5,Solid,2.0,1.0,10.133375832927412,Animal_Sea_Solid_Large,2.0,1,1890.0,1
103,1,5,Solid,2.0,1.0,10.133375832927412,Object_Land_Pattern_Small,8.0,0,2182.0,2
103,1,5,Solid,2.0,1.0,10.133375832927412,Animal_Sea_Solid_Large,2.0,1,22.0,3
103,1,5,Solid,2.0,1.0,10.133375832927412,Object_Land_Pattern_Small,8.0,0,172.0,4
103,1,5,Solid,2.0,1.0,10.133375832927412,Animal_Sea_Pattern_Large,5.0,0,842.0,5
103,1,5,Solid,2.0,1.0,10.133375832927412,Animal_Sea_Solid_Large,2.0,1,483.0,6
103,1,5,Solid,2.0,1.0,10.133375832927412,Object_Land_Pattern_Small,8.0,0,185.0,7
103,1,6,Small,1.0,0.0,5.040337499929592,Object_Land_Pattern_Small,8.0,1,212.0,1
103,1,6,Small,1.0,0.0,5.040337499929592,Animal_Sea_Solid_Large,2.0,0,1068.0,2
103,1,6,Small,1.0,0.0,5.040337499929592,Animal_Sea_Pattern_Large,5.0,0,439.0,3
103,1,6,Small,1.0,0.0,5.040337499929592,Animal_Sea_Solid_Large,2.0,0,221.0,4
103,1,6,Small,1.0,0.0,5.040337499929592,Animal_Sea_Pattern_Large,5.0,0,26.0,5
103,1,6,Small,1.0,0.0,5.040337499929592,Animal_Sea_Solid_Large,2.0,0,654.0,6
103,1,6,Small,1.0,0.0,5.040337499929592,Animal_Sea_Pattern_Large,5.0,0,786.0,7
103,1,7,Pattern,1.0,1.0,8.420043624937534,Animal_Sea_Solid_Large,2.0,0,473.0,1
103,1,7,Pattern,1.0,1.0,8.420043624937534,Animal_Sea_Pattern_Large,5.0,1,479.0,2
103,1,7,Pattern,1.0,1.0,8.420043624937534,Animal_Sea_Solid_Large,2.0,0,227.0,3
103,1,7,Pattern,1.0,1.0,8.420043624937534,Object_Land_Pattern_Small,8.0,1,1130.0,4
103,1,7,Pattern,1.0,1.0,8.420043624937534,Animal_Sea_Solid_Large,2.0,0,312.0,5
103,1,7,Pattern,1.0,1.0,8.420043624937534,Object_Land_Pattern_Small,8.0,1,170.0,6
103,1,7,Pattern,1.0,1.0,8.420043624937534,Animal_Sea_Solid_Large,2.0,0,396.0,7
103,1,7,Pattern,1.0,1.0,8.420043624937534,Animal_Sea_Pattern_Large,5.0,1,768.0,8
103,1,7,Pattern,1.0,1.0,8.420043624937534,Animal_Sea_Solid_Large,2.0,0,1493.0,9
103,1,8,Animal,1.0,1.0,6.173746875021607,Animal_Sea_Pattern_Large,5.0,1,2337.0,1
103,1,8,Animal,1.0,1.0,6.173746875021607,Animal_Land_Solid_Large,-1.0,1,366.0,2
103,1,8,Animal,1.0,1.0,6.173746875021607,Animal_Sea_Pattern_Large,5.0,1,809.0,3
103,1,8,Animal,1.0,1.0,6.173746875021607,Animal_Land_Solid_Large,-1.0,1,260.0,4
103,1,8,Animal,1.0,1.0,6.173746875021607,Animal_Sea_Pattern_Large,5.0,1,300.0,5
103,2,9,Animal,1.0,1.0,15.300518541014752,Object_Land_Pattern_Large,-6.0,0,265.0,1
103,2,9,Animal,1.0,1.0,15.300518541014752,Animal_Land_Pattern_Large,7.0,1,292.0,2
103,2,9,Animal,1.0,1.0,15.300518541014752,Object_Land_Pattern_Large,-6.0,0,2149.0,3
103,2,9,Animal,1.0,1.0,15.300518541014752,Animal_Land_Pattern_Large,7.0,1,705.0,4
103,2,9,Animal,1.0,1.0,15.300518541014752,Object_Land_Pattern_Large,-6.0,0,343.0,5
103,2,9,Animal,1.0,1.0,15.300518541014752,Animal_Sea_Solid_Small,1.0,1,430.0,6
103,2,9,Animal,1.0,1.0,15.300518541014752,Object_Land_Pattern_Large,-6.0,0,306.0,7
103,2,9,Animal,1.0,1.0,15.300518541014752,Animal_Sea_Solid_Small,1.0,1,536.0,8
103,2,9,Animal,1.0,1.0,15.300518541014752,Animal_Land_Pattern_Large,7.0,1,835.0,9
103,2,9,Animal,1.0,1.0,15.300518541014752,Animal_Sea_Solid_Small,1.0,1,406.0,10
103,2,9,Animal,1.0,1.0,15.300518541014752,Animal_Sea_Pattern_Small,-6.0,1,152.0,11
103,2,9,Animal,1.0,1.0,15.300518541014752,Object_Land_Solid_Large,-7.0,0,216.0,12
103,2,9,Animal,1.0,1.0,15.300518541014752,Object_Sea_Solid_Small,3.0,0,215.0,13
103,2,9,Animal,1.0,1.0,15.300518541014752,Object_Land_Solid_Large,-7.0,0,1533.0,14
103,2,9,Animal,1.0,1.0,15.300518541014752,Object_Sea_Solid_Small,3.0,0,290.0,15
103,2,9,Animal,1.0,1.0,15.300518541014752,Object_Land_Pattern_Large,-6.0,0,470.0,16
103,2,9,Animal,1.0,1.0,15.300518541014752,Animal_Sea_Pattern_Small,-6.0,1,963.0,17
103,2,10,Pattern,2.0,1.0,10.054789750021882,Object_Land_Pattern_Large,-6.0,1,238.0,1
103,2,10,Pattern,2.0,1.0,10.054789750021882,Animal_Sea_Solid_Small,1.0,0,269.0,2
103,2,10,Pattern,2.0,1.0,10.054789750021882,Object_Sea_Solid_Small,3.0,0,31.0,3
103,2,10,Pattern,2.0,1.0,10.054789750021882,Object_Land_Pattern_Large,-6.0,1,539.0,4
103,2,10,Pattern,2.0,1.0,10.054789750021882,Animal_Sea_Solid_Small,1.0,0,896.0,5
103,2,10,Pattern,2.0,1.0,10.054789750021882,Object_Land_Pattern_Large,-6.0,1,204.0,6
103,2,10,Pattern,2.0,1.0,10.054789750021882,Animal_Land_Pattern_Large,7.0,1,263.0,7
103,2,10,Pattern,2.0,1.0,10.054789750021882,Object_Land_Pattern_Large,-6.0,1,547.0,8
103,2,10,Pattern,2.0,1.0,10.054789750021882,Animal_Land_Pattern_Large,7.0,1,1685.0,9
103,2,10,Pattern,2.0,1.0,10.054789750021882,Object_Land_Pattern_Large,-6.0,1,1233.0,10
103,2,11,Sea,1.0,0.0,22.120465916930694,Object_Land_Pattern_Large,-6.0,0,1244.0,1
103,2,11,Sea,1.0,0.0,22.120465916930694,Animal_Land_Pattern_Large,7.0,0,1331.0,2
103,2,11,Sea,1.0,0.0,22.120465916930694,Object_Land_Pattern_Large,-6.0,0,300.0,3
103,2,11,Sea,1.0,0.0,22.120465916930694,Animal_Land_Pattern_Large,7.0,0,1609.0,4
103,2,11,Sea,1.0,0.0,22.120465916930694,Animal_Sea_Solid_Small,1.0,1,247.0,5
103,2,11,Sea,1.0,0.0,22.120465916930694,Object_Land_Pattern_Large,-6.0,0,234.0,6
103,2,11,Sea,1.0,0.0,22.120465916930694,Animal_Land_Pattern_Large,7.0,0,230.0,7
103,2,11,Sea,1.0,0.0,22.120465916930694,Object_Land_Pattern_Large,-6.0,0,1012.0,8
103,2,11,Sea,1.0,0.0,22.120465916930694,Animal_Land_Pattern_Large,7.0,0,625.0,9
103,2,11,Sea,1.0,0.0,22.120465916930694,Animal_Sea_Pattern_Small,-6.0,1,122.0,10
103,2,11,Sea,1.0,0.0,22.120465916930694,Object_Land_Solid_Large,-7.0,0,145.0,11
103,2,11,Sea,1.0,0.0,22.120465916930694,Animal_Sea_Pattern_Small,-6.0,1,353.0,12
103,2,11,Sea,1.0,0.0,22.120465916930694,Object_Sea_Solid_Small,3.0,1,178.0,13
103,2,11,Sea,1.0,0.0,22.120465916930694,Animal_Sea_Pattern_Small,-6.0,1,869.0,14
103,2,11,Sea,1.0,0.0,22.120465916930694,Animal_Land_Pattern_Large,7.0,0,617.0,15
103,2,11,Sea,1.0,0.0,22.120465916930694,Animal_Sea_Solid_Small,1.0,1,489.0,16
103,2,11,Sea,1.0,0.0,22.120465916930694,Animal_Land_Pattern_Large,7.0,0,59.0,17
103,2,11,Sea,1.0,0.0,22.120465916930694,Object_Land_Pattern_Large,-6.0,0,1104.0,18
103,2,11,Sea,1.0,0.0,22.120465916930694,Animal_Land_Pattern_Large,7.0,0,23.0,19
103,2,11,Sea,1.0,0.0,22.120465916930694,Animal_Sea_Pattern_Small,-6.0,1,948.0,20
103,2,11,Sea,1.0,0.0,22.120465916930694,Animal_Sea_Solid_Small,1.0,1,878.0,21
103,2,11,Sea,1.0,0.0,22.120465916930694,Animal_Land_Pattern_Large,7.0,0,1691.0,22
103,2,12,Small,2.0,1.0,10.743996166042052,Object_Land_Pattern_Large,-6.0,0,342.0,1
103,2,12,Small,2.0,1.0,10.743996166042052,Animal_Sea_Solid_Small,1.0,1,394.0,2
103,2,12,Small,2.0,1.0,10.743996166042052,Object_Land_Pattern_Large,-6.0,0,270.0,3
103,2,12,Small,2.0,1.0,10.743996166042052,Animal_Sea_Solid_Small,1.0,1,383.0,4
103,2,12,Small,2.0,1.0,10.743996166042052,Object_Land_Pattern_Large,-6.0,0,58.0,5
103,2,12,Small,2.0,1.0,10.743996166042052,Animal_Sea_Solid_Small,1.0,1,472.0,6
103,2,12,Small,2.0,1.0,10.743996166042052,Object_Land_Pattern_Large,-6.0,0,204.0,7
103,2,12,Small,2.0,1.0,10.743996166042052,Animal_Sea_Solid_Small,1.0,1,301.0,8
103,2,12,Small,2.0,1.0,10.743996166042052,Object_Land_Pattern_Large,-6.0,0,779.0,9
103,2,12,Small,2.0,1.0,10.743996166042052,Object_Land_Solid_Large,-7.0,0,28.0,10
103,2,12,Small,2.0,1.0,10.743996166042052,Object_Land_Pattern_Large,-6.0,0,245.0,11
103,2,12,Small,2.0,1.0,10.743996166042052,Animal_Land_Pattern_Large,7.0,0,547.0,12
103,2,12,Small,2.0,1.0,10.743996166042052,Animal_Sea_Pattern_Small,-6.0,1,121.0,13
103,2,12,Small,2.0,1.0,10.743996166042052,Animal_Land_Pattern_Large,7.0,0,645.0,14
103,2,12,Small,2.0,1.0,10.743996166042052,Animal_Sea_Pattern_Small,-6.0,1,202.0,15
103,2,12,Small,2.0,1.0,10.743996166042052,Animal_Sea_Solid_Small,1.0,1,423.0,16
103,2,12,Small,2.0,1.0,10.743996166042052,Animal_Sea_Pattern_Small,-6.0,1,1053.0,17
103,2,13,Solid,1.0,0.0,19.61226841597818,Animal_Land_Pattern_Large,7.0,0,38.0,1
103,2,13,Solid,1.0,0.0,19.61226841597818,Object_Land_Pattern_Large,-6.0,0,119.0,2
103,2,13,Solid,1.0,0.0,19.61226841597818,Animal_Land_Pattern_Large,7.0,0,340.0,3
103,2,13,Solid,1.0,0.0,19.61226841597818,Animal_Sea_Pattern_Small,-6.0,0,239.0,4
103,2,13,Solid,1.0,0.0,19.61226841597818,Object_Land_Pattern_Large,-6.0,0,625.0,5
103,2,13,Solid,1.0,0.0,19.61226841597818,Animal_Sea_Pattern_Small,-6.0,0,151.0,6
103,2,13,Solid,1.0,0.0,19.61226841597818,Animal_Land_Pattern_Large,7.0,0,1784.0,7
103,2,13,Solid,1.0,0.0,19.61226841597818,Animal_Sea_Solid_Small,1.0,1,164.0,8
103,2,13,Solid,1.0,0.0,19.61226841597818,Object_Land_Pattern_Large,-6.0,0,227.0,9
103,2,13,Solid,1.0,0.0,19.61226841597818,Animal_Land_Pattern_Large,7.0,0,303.0,10
103,2,13,Solid,1.0,0.0,19.61226841597818,Object_Land_Pattern_Large,-6.0,0,805.0,11
103,2,13,Solid,1.0,0.0,19.61226841597818,Animal_Sea_Solid_Small,1.0,1,430.0,12
103,2,13,Solid,1.0,0.0,19.61226841597818,Object_Land_Pattern_Large,-6.0,0,42.0,13
103,2,13,Solid,1.0,0.0,19.61226841597818,Animal_Sea_Solid_Small,1.0,1,447.0,14
103,2,13,Solid,1.0,0.0,19.61226841597818,Object_Land_Pattern_Large,-6.0,0,3683.0,15
103,2,13,Solid,1.0,0.0,19.61226841597818,Animal_Sea_Solid_Small,1.0,1,494.0,16
103,2,13,Solid,1.0,0.0,19.61226841597818,Object_Sea_Solid_Small,3.0,1,43.0,17
103,2,13,Solid,1.0,0.0,19.61226841597818,Animal_Sea_Solid_Small,1.0,1,50.0,18
103,2,14,Land,2.0,1.0,5.646499624941498,Object_Land_Pattern_Large,-6.0,1,975.0,1
103,2,14,Land,2.0,1.0,5.646499624941498,Animal_Land_Pattern_Large,7.0,1,1519.0,2
103,2,15,Object,2.0,1.0,10.375634209020063,Object_Land_Pattern_Large,-6.0,1,1644.0,1
103,2,15,Object,2.0,1.0,10.375634209020063,Animal_Sea_Solid_Small,1.0,0,402.0,2
103,2,15,Object,2.0,1.0,10.375634209020063,Object_Land_Pattern_Large,-6.0,1,479.0,3
103,2,15,Object,2.0,1.0,10.375634209020063,Animal_Sea_Solid_Small,1.0,0,1210.0,4
103,2,15,Object,2.0,1.0,10.375634209020063,Animal_Land_Pattern_Large,7.0,0,135.0,5
103,2,15,Object,2.0,1.0,10.375634209020063,Animal_Sea_Pattern_Small,-6.0,0,43.0,6
103,2,15,Object,2.0,1.0,10.375634209020063,Animal_Land_Pattern_Large,7.0,0,512.0,7
103,2,15,Object,2.0,1.0,10.375634209020063,Animal_Sea_Pattern_Small,-6.0,0,417.0,8
103,2,15,Object,2.0,1.0,10.375634209020063,Animal_Land_Pattern_Large,7.0,0,216.0,9
103,2,15,Object,2.0,1.0,10.375634209020063,Object_Land_Pattern_Large,-6.0,1,211.0,10
103,2,15,Object,2.0,1.0,10.375634209020063,Animal_Sea_Pattern_Small,-6.0,0,183.0,11
103,2,15,Object,2.0,1.0,10.375634209020063,Animal_Sea_Solid_Small,1.0,0,214.0,12
103,2,15,Object,2.0,1.0,10.375634209020063,Object_Land_Pattern_Large,-6.0,1,131.0,13
103,2,16,Large,1.0,0.0,15.868244708050042,Object_Land_Pattern_Large,-6.0,1,223.0,1
103,2,16,Large,1.0,0.0,15.868244708050042,Animal_Land_Pattern_Large,7.0,1,3350.0,2
103,2,16,Large,1.0,0.0,15.868244708050042,Object_Land_Pattern_Large,-6.0,1,256.0,3
103,2,16,Large,1.0,0.0,15.868244708050042,Animal_Land_Pattern_Large,7.0,1,531.0,4
103,2,16,Large,1.0,0.0,15.868244708050042,Animal_Sea_Pattern_Small,-6.0,0,174.0,5
103,2,16,Large,1.0,0.0,15.868244708050042,Object_Land_Solid_Large,-7.0,1,690.0,6
103,2,16,Large,1.0,0.0,15.868244708050042,Animal_Sea_Pattern_Small,-6.0,0,63.0,7
103,2,16,Large,1.0,0.0,15.868244708050042,Object_Land_Solid_Large,-7.0,1,304.0,8
103,2,16,Large,1.0,0.0,15.868244708050042,Animal_Sea_Pattern_Small,-6.0,0,3097.0,9
103,2,16,Large,1.0,0.0,15.868244708050042,Object_Land_Pattern_Large,-6.0,1,428.0,10
103,2,16,Large,1.0,0.0,15.868244708050042,Object_Sea_Solid_Small,3.0,0,635.0,11
103,2,16,Large,1.0,0.0,15.868244708050042,Animal_Sea_Solid_Small,1.0,0,566.0,12
103,2,16,Large,1.0,0.0,15.868244708050042,Object_Land_Pattern_Large,-6.0,1,329.0,13
103,2,16,Large,1.0,0.0,15.868244708050042,Animal_Land_Pattern_Large,7.0,1,87.0,14
103,2,16,Large,1.0,0.0,15.868244708050042,Object_Land_Pattern_Large,-6.0,1,844.0,15
103,3,17,Animal,1.0,1.0,8.834407874965109,Object_Sea_Solid_Large,-1.0,0,587.0,1
103,3,17,Animal,1.0,1.0,8.834407874965109,Animal_Sea_Pattern_Large,8.0,1,1970.0,2
103,3,17,Animal,1.0,1.0,8.834407874965109,Animal_Land_Pattern_Small,5.0,1,888.0,3
103,3,17,Animal,1.0,1.0,8.834407874965109,Object_Sea_Solid_Large,-1.0,0,211.0,4
103,3,17,Animal,1.0,1.0,8.834407874965109,Animal_Land_Solid_Small,-9.0,1,67.0,5
103,3,17,Animal,1.0,1.0,8.834407874965109,Object_Sea_Solid_Large,-1.0,0,459.0,6
103,3,17,Animal,1.0,1.0,8.834407874965109,Animal_Sea_Pattern_Large,8.0,1,1124.0,7
103,3,18,Sea,1.0,1.0,29.658429875038564,Animal_Sea_Pattern_Large,8.0,1,536.0,1
103,3,18,Sea,1.0,1.0,29.658429875038564,Object_Sea_Solid_Large,-1.0,1,652.0,2
103,3,18,Sea,1.0,1.0,29.658429875038564,Animal_Sea_Pattern_Large,8.0,1,27.0,3
103,3,18,Sea,1.0,1.0,29.658429875038564,Object_Sea_Solid_Large,-1.0,1,357.0,4
103,3,18,Sea,1.0,1.0,29.658429875038564,Animal_Land_Pattern_Small,5.0,0,514.0,5
103,3,18,Sea,1.0,1.0,29.658429875038564,Object_Sea_Solid_Large,-1.0,1,680.0,6
103,3,18,Sea,1.0,1.0,29.658429875038564,Animal_Land_Pattern_Small,5.0,0,451.0,7
103,3,18,Sea,1.0,1.0,29.658429875038564,Object_Sea_Solid_Large,-1.0,1,285.0,8
103,3,18,Sea,1.0,1.0,29.658429875038564,Animal_Sea_Pattern_Large,8.0,1,386.0,9
103,3,18,Sea,1.0,1.0,29.658429875038564,Object_Sea_Solid_Large,-1.0,1,1531.0,10
103,3,18,Sea,1.0,1.0,29.658429875038564,Animal_Land_Pattern_Small,5.0,0,775.0,11
103,3,18,Sea,1.0,1.0,29.658429875038564,Object_Sea_Solid_Large,-1.0,1,277.0,12
103,3,18,Sea,1.0,1.0,29.658429875038564,Animal_Sea_Pattern_Large,8.0,1,429.0,13
103,3,18,Sea,1.0,1.0,29.658429875038564,Object_Sea_Solid_Large,-1.0,1,466.0,14
103,3,18,Sea,1.0,1.0,29.658429875038564,Animal_Land_Pattern_Small,5.0,0,1328.0,15
103,3,18,Sea,1.0,1.0,29.658429875038564,Object_Sea_Solid_Large,-1.0,1,342.0,16
103,3,18,Sea,1.0,1.0,29.658429875038564,Animal_Sea_Pattern_Large,8.0,1,143.0,17
103,3,18,Sea,1.0,1.0,29.658429875038564,Object_Sea_Solid_Large,-1.0,1,1749.0,18
103,3,18,Sea,1.0,1.0,29.658429875038564,Animal_Land_Pattern_Small,5.0,0,695.0,19
103,3,18,Sea,1.0,1.0,29.658429875038564,Object_Sea_Solid_Large,-1.0,1,891.0,20
103,3,18,Sea,1.0,1.0,29.658429875038564,Animal_Land_Pattern_Small,5.0,0,1246.0,21
103,3,18,Sea,1.0,1.0,29.658429875038564,Animal_Sea_Pattern_Large,8.0,1,488.0,22
103,3,18,Sea,1.0,1.0,29.658429875038564,Object_Land_Solid_Small,9.0,0,806.0,23
103,3,19,Small,2.0,0.0,10.497171583003365,Object_Sea_Solid_Large,-1.0,0,954.0,1
103,3,19,Small,2.0,0.0,10.497171583003365,Animal_Land_Pattern_Small,5.0,1,320.0,2
103,3,19,Small,2.0,0.0,10.497171583003365,Object_Sea_Solid_Large,-1.0,0,687.0,3
103,3,19,Small,2.0,0.0,10.497171583003365,Animal_Sea_Pattern_Large,8.0,0,469.0,4
103,3,19,Small,2.0,0.0,10.497171583003365,Object_Sea_Solid_Large,-1.0,0,551.0,5
103,3,19,Small,2.0,0.0,10.497171583003365,Animal_Sea_Pattern_Large,8.0,0,331.0,6
103,3,19,Small,2.0,0.0,10.497171583003365,Object_Sea_Solid_Large,-1.0,0,325.0,7
103,3,19,Small,2.0,0.0,10.497171583003365,Animal_Sea_Pattern_Large,8.0,0,106.0,8
103,3,19,Small,2.0,0.0,10.497171583003365,Animal_Land_Pattern_Small,5.0,1,181.0,9
103,3,19,Small,2.0,0.0,10.497171583003365,Animal_Land_Solid_Small,-9.0,1,194.0,10
103,3,19,Small,2.0,0.0,10.497171583003365,Object_Sea_Solid_Large,-1.0,0,781.0,11
103,3,19,Small,2.0,0.0,10.497171583003365,Animal_Land_Solid_Small,-9.0,1,221.0,12
103,3,19,Small,2.0,0.0,10.497171583003365,Animal_Sea_Pattern_Large,8.0,0,511.0,13
103,3,20,Pattern,1.0,1.0,9.244526749942452,Object_Land_Solid_Small,9.0,0,171.0,1
103,3,20,Pattern,1.0,1.0,9.244526749942452,Animal_Sea_Pattern_Large,8.0,1,2240.0,2
103,3,20,Pattern,1.0,1.0,9.244526749942452,Animal_Land_Solid_Small,-9.0,0,277.0,3
103,3,20,Pattern,1.0,1.0,9.244526749942452,Object_Land_Solid_Small,9.0,0,185.0,4
103,3,20,Pattern,1.0,1.0,9.244526749942452,Animal_Sea_Pattern_Large,8.0,1,1383.0,5
103,3,20,Pattern,1.0,1.0,9.244526749942452,Object_Sea_Solid_Large,-1.0,0,633.0,6
103,3,20,Pattern,1.0,1.0,9.244526749942452,Animal_Sea_Pattern_Large,8.0,1,26.0,7
103,3,20,Pattern,1.0,1.0,9.244526749942452,Animal_Land_Pattern_Small,5.0,1,418.0,8
103,3,20,Pattern,1.0,1.0,9.244526749942452,Object_Sea_Solid_Large,-1.0,0,408.0,9
103,3,21,Solid,2.0,1.0,2.633825666969642,Animal_Sea_Pattern_Large,8.0,0,1688.0,1
103,3,22,Object,1.0,1.0,4.2468404999235645,Object_Sea_Solid_Large,-1.0,1,1254.0,1
103,3,22,Object,1.0,1.0,4.2468404999235645,Animal_Land_Pattern_Small,5.0,0,559.0,2
103,3,23,Land,1.0,1.0,14.673821666045114,Object_Sea_Solid_Large,-1.0,0,77.0,1
103,3,23,Land,1.0,1.0,14.673821666045114,Animal_Sea_Pattern_Large,8.0,0,1127.0,2
103,3,23,Land,1.0,1.0,14.673821666045114,Object_Sea_Solid_Large,-1.0,0,1181.0,3
103,3,23,Land,1.0,1.0,14.673821666045114,Animal_Sea_Pattern_Large,8.0,0,839.0,4
103,3,23,Land,1.0,1.0,14.673821666045114,Animal_Land_Pattern_Small,5.0,1,460.0,5
103,3,23,Land,1.0,1.0,14.673821666045114,Object_Sea_Pattern_Large,-2.0,0,38.0,6
103,3,23,Land,1.0,1.0,14.673821666045114,Animal_Land_Pattern_Small,5.0,1,1677.0,7
103,3,23,Land,1.0,1.0,14.673821666045114,Object_Sea_Solid_Large,-1.0,0,2283.0,8
103,3,23,Land,1.0,1.0,14.673821666045114,Animal_Land_Solid_Small,-9.0,1,33.0,9
103,3,23,Land,1.0,1.0,14.673821666045114,Object_Sea_Solid_Large,-1.0,0,464.0,10
103,3,23,Land,1.0,1.0,14.673821666045114,Animal_Land_Pattern_Small,5.0,1,629.0,11
103,3,23,Land,1.0,1.0,14.673821666045114,Object_Sea_Solid_Large,-1.0,0,475.0,12
103,3,24,Large,1.0,1.0,21.41356308304239,Animal_Sea_Pattern_Large,8.0,1,1218.0,1
103,3,24,Large,1.0,1.0,21.41356308304239,Object_Sea_Solid_Large,-1.0,1,4075.0,2
103,3,24,Large,1.0,1.0,21.41356308304239,Animal_Land_Pattern_Small,5.0,0,158.0,3
103,3,24,Large,1.0,1.0,21.41356308304239,Object_Sea_Solid_Large,-1.0,1,203.0,4
103,3,24,Large,1.0,1.0,21.41356308304239,Animal_Land_Pattern_Small,5.0,0,302.0,5
103,3,24,Large,1.0,1.0,21.41356308304239,Object_Sea_Solid_Large,-1.0,1,399.0,6
103,3,24,Large,1.0,1.0,21.41356308304239,Animal_Sea_Pattern_Large,8.0,1,605.0,7
103,3,24,Large,1.0,1.0,21.41356308304239,Object_Sea_Solid_Large,-1.0,1,992.0,8
103,3,24,Large,1.0,1.0,21.41356308304239,Animal_Land_Pattern_Small,5.0,0,397.0,9
103,3,24,Large,1.0,1.0,21.41356308304239,Object_Sea_Solid_Large,-1.0,1,1303.0,10
103,3,24,Large,1.0,1.0,21.41356308304239,Animal_Land_Pattern_Small,5.0,0,470.0,11
103,3,24,Large,1.0,1.0,21.41356308304239,Object_Sea_Solid_Large,-1.0,1,32.0,12
103,3,24,Large,1.0,1.0,21.41356308304239,Animal_Land_Pattern_Small,5.0,0,710.0,13
103,3,24,Large,1.0,1.0,21.41356308304239,Animal_Land_Solid_Small,-9.0,0,107.0,14
103,3,24,Large,1.0,1.0,21.41356308304239,Animal_Sea_Pattern_Large,8.0,1,85.0,15
103,3,24,Large,1.0,1.0,21.41356308304239,Object_Sea_Solid_Large,-1.0,1,796.0,16
103,4,25,Pattern,1.0,0.0,15.61622433399316,Animal_Sea_Pattern_Large,3.0,1,99.0,1
103,4,25,Pattern,1.0,0.0,15.61622433399316,Animal_Sea_Solid_Large,-7.0,0,474.0,2
103,4,25,Pattern,1.0,0.0,15.61622433399316,Object_Sea_Pattern_Small,3.0,1,401.0,3
103,4,25,Pattern,1.0,0.0,15.61622433399316,Animal_Sea_Pattern_Large,3.0,1,720.0,4
103,4,25,Pattern,1.0,0.0,15.61622433399316,Animal_Land_Solid_Large,7.0,0,206.0,5
103,4,25,Pattern,1.0,0.0,15.61622433399316,Object_Land_Pattern_Small,-9.0,1,351.0,6
103,4,25,Pattern,1.0,0.0,15.61622433399316,Animal_Sea_Solid_Large,-7.0,0,1190.0,7
103,4,25,Pattern,1.0,0.0,15.61622433399316,Object_Land_Pattern_Small,-9.0,1,613.0,8
103,4,25,Pattern,1.0,0.0,15.61622433399316,Animal_Sea_Solid_Large,-7.0,0,965.0,9
103,4,25,Pattern,1.0,0.0,15.61622433399316,Animal_Sea_Pattern_Large,3.0,1,419.0,10
103,4,25,Pattern,1.0,0.0,15.61622433399316,Animal_Land_Solid_Large,7.0,0,49.0,11
103,4,25,Pattern,1.0,0.0,15.61622433399316,Object_Land_Pattern_Small,-9.0,1,613.0,12
103,4,25,Pattern,1.0,0.0,15.61622433399316,Animal_Sea_Solid_Large,-7.0,0,979.0,13
103,4,25,Pattern,1.0,0.0,15.61622433399316,Object_Land_Solid_Small,3.0,0,272.0,14
103,4,26,Land,2.0,0.0,14.085815540980548,Animal_Sea_Solid_Large,-7.0,0,1360.0,1
103,4,26,Land,2.0,0.0,14.085815540980548,Animal_Sea_Pattern_Large,3.0,0,873.0,2
103,4,26,Land,2.0,0.0,14.085815540980548,Object_Sea_Pattern_Small,3.0,0,147.0,3
103,4,26,Land,2.0,0.0,14.085815540980548,Animal_Sea_Solid_Large,-7.0,0,371.0,4
103,4,26,Land,2.0,0.0,14.085815540980548,Object_Land_Solid_Small,3.0,1,723.0,5
103,4,26,Land,2.0,0.0,14.085815540980548,Object_Sea_Pattern_Small,3.0,0,41.0,6
103,4,26,Land,2.0,0.0,14.085815540980548,Object_Land_Solid_Small,3.0,1,474.0,7
103,4,26,Land,2.0,0.0,14.085815540980548,Object_Sea_Pattern_Small,3.0,0,49.0,8
103,4,26,Land,2.0,0.0,14.085815540980548,Object_Land_Solid_Small,3.0,1,1416.0,9
103,4,26,Land,2.0,0.0,14.085815540980548,Object_Sea_Pattern_Small,3.0,0,120.0,10
103,4,26,Land,2.0,0.0,14.085815540980548,Animal_Sea_Pattern_Large,3.0,0,40.0,11
103,4,27,Large,1.0,1.0,11.486993000027724,Animal_Sea_Solid_Large,-7.0,1,441.0,1
103,4,27,Large,1.0,1.0,11.486993000027724,Animal_Sea_Pattern_Large,3.0,1,928.0,2
103,4,27,Large,1.0,1.0,11.486993000027724,Animal_Sea_Solid_Large,-7.0,1,337.0,3
103,4,27,Large,1.0,1.0,11.486993000027724,Animal_Sea_Pattern_Large,3.0,1,508.0,4
103,4,27,Large,1.0,1.0,11.486993000027724,Animal_Sea_Solid_Large,-7.0,1,790.0,5
103,4,27,Large,1.0,1.0,11.486993000027724,Object_Land_Pattern_Small,-9.0,0,162.0,6
103,4,27,Large,1.0,1.0,11.486993000027724,Animal_Sea_Pattern_Large,3.0,1,221.0,7
103,4,27,Large,1.0,1.0,11.486993000027724,Animal_Sea_Solid_Large,-7.0,1,1305.0,8
103,4,27,Large,1.0,1.0,11.486993000027724,Animal_Sea_Pattern_Large,3.0,1,225.0,9
103,4,27,Large,1.0,1.0,11.486993000027724,Animal_Sea_Solid_Large,-7.0,1,150.0,10
103,4,27,Large,1.0,1.0,11.486993000027724,Object_Land_Pattern_Small,-9.0,0,1230.0,11
103,4,28,Solid,2.0,0.0,14.811134500079788,Animal_Sea_Solid_Large,-7.0,1,1191.0,1
103,4,28,Solid,2.0,0.0,14.811134500079788,Animal_Sea_Pattern_Large,3.0,0,672.0,2
103,4,28,Solid,2.0,0.0,14.811134500079788,Animal_Sea_Solid_Large,-7.0,1,1302.0,3
103,4,28,Solid,2.0,0.0,14.811134500079788,Object_Land_Pattern_Small,-9.0,0,23.0,4
103,4,28,Solid,2.0,0.0,14.811134500079788,Animal_Sea_Pattern_Large,3.0,0,630.0,5
103,4,28,Solid,2.0,0.0,14.811134500079788,Animal_Sea_Solid_Large,-7.0,1,37.0,6
103,4,28,Solid,2.0,0.0,14.811134500079788,Animal_Sea_Pattern_Large,3.0,0,196.0,7
103,4,28,Solid,2.0,0.0,14.811134500079788,Animal_Sea_Solid_Large,-7.0,1,749.0,8
103,4,28,Solid,2.0,0.0,14.811134500079788,Object_Land_Pattern_Small,-9.0,0,515.0,9
103,4,28,Solid,2.0,0.0,14.811134500079788,Animal_Sea_Solid_Large,-7.0,1,1128.0,10
103,4,28,Solid,2.0,0.0,14.811134500079788,Object_Land_Pattern_Small,-9.0,0,2149.0,11
103,4,29,Animal,1.0,1.0,24.573432959034108,Animal_Sea_Pattern_Large,3.0,1,158.0,1
103,4,29,Animal,1.0,1.0,24.573432959034108,Animal_Sea_Solid_Large,-7.0,1,391.0,2
103,4,29,Animal,1.0,1.0,24.573432959034108,Animal_Sea_Pattern_Large,3.0,1,1240.0,3
103,4,29,Animal,1.0,1.0,24.573432959034108,Animal_Sea_Solid_Large,-7.0,1,397.0,4
103,4,29,Animal,1.0,1.0,24.573432959034108,Object_Land_Pattern_Small,-9.0,0,731.0,5
103,4,29,Animal,1.0,1.0,24.573432959034108,Animal_Sea_Pattern_Large,3.0,1,193.0,6
103,4,29,Animal,1.0,1.0,24.573432959034108,Animal_Land_Solid_Large,7.0,1,333.0,7
103,4,29,Animal,1.0,1.0,24.573432959034108,Object_Sea_Pattern_Small,3.0,0,302.0,8
103,4,29,Animal,1.0,1.0,24.573432959034108,Animal_Sea_Pattern_Large,3.0,1,485.0,9
103,4,29,Animal,1.0,1.0,24.573432959034108,Object_Land_Pattern_Small,-9.0,0,747.0,10
103,4,29,Animal,1.0,1.0,24.573432959034108,Animal_Sea_Solid_Large,-7.0,1,860.0,11
103,4,29,Animal,1.0,1.0,24.573432959034108,Object_Land_Pattern_Small,-9.0,0,277.0,12
103,4,29,Animal,1.0,1.0,24.573432959034108,Animal_Sea_Pattern_Large,3.0,1,204.0,13
103,4,29,Animal,1.0,1.0,24.573432959034108,Animal_Sea_Solid_Large,-7.0,1,600.0,14
103,4,29,Animal,1.0,1.0,24.573432959034108,Animal_Sea_Pattern_Large,3.0,1,224.0,15
103,4,29,Animal,1.0,1.0,24.573432959034108,Animal_Sea_Solid_Large,-7.0,1,220.0,16
103,4,29,Animal,1.0,1.0,24.573432959034108,Animal_Sea_Pattern_Large,3.0,1,1214.0,17
103,4,29,Animal,1.0,1.0,24.573432959034108,Animal_Sea_Solid_Large,-7.0,1,564.0,18
103,4,29,Animal,1.0,1.0,24.573432959034108,Animal_Sea_Pattern_Large,3.0,1,166.0,19
103,4,29,Animal,1.0,1.0,24.573432959034108,Object_Land_Pattern_Small,-9.0,0,287.0,20
103,4,29,Animal,1.0,1.0,24.573432959034108,Animal_Sea_Solid_Large,-7.0,1,480.0,21
103,4,29,Animal,1.0,1.0,24.573432959034108,Object_Land_Pattern_Small,-9.0,0,537.0,22
103,4,29,Animal,1.0,1.0,24.573432959034108,Animal_Sea_Solid_Large,-7.0,1,1037.0,23
103,4,30,Sea,2.0,1.0,7.447224667062983,Object_Land_Pattern_Small,-9.0,0,74.0,1
103,4,30,Sea,2.0,1.0,7.447224667062983,Animal_Sea_Solid_Large,-7.0,1,293.0,2
103,4,30,Sea,2.0,1.0,7.447224667062983,Animal_Sea_Pattern_Large,3.0,1,3111.0,3
103,4,31,Small,2.0,1.0,6.951357625075616,Animal_Sea_Pattern_Large,3.0,0,419.0,1
103,4,31,Small,2.0,1.0,6.951357625075616,Animal_Sea_Solid_Large,-7.0,0,24.0,2
103,4,31,Small,2.0,1.0,6.951357625075616,Object_Land_Solid_Small,3.0,1,597.0,3
103,4,31,Small,2.0,1.0,6.951357625075616,Animal_Sea_Pattern_Large,3.0,0,387.0,4
103,4,31,Small,2.0,1.0,6.951357625075616,Object_Land_Pattern_Small,-9.0,1,774.0,5
103,4,32,Object,1.0,0.0,18.69697479205206,Object_Land_Pattern_Small,-9.0,1,682.0,1
103,4,32,Object,1.0,0.0,18.69697479205206,Animal_Sea_Solid_Large,-7.0,0,291.0,2
103,4,32,Object,1.0,0.0,18.69697479205206,Animal_Land_Solid_Large,7.0,0,920.0,3
103,4,32,Object,1.0,0.0,18.69697479205206,Object_Land_Pattern_Small,-9.0,1,471.0,4
103,4,32,Object,1.0,0.0,18.69697479205206,Animal_Sea_Solid_Large,-7.0,0,74.0,5
103,4,32,Object,1.0,0.0,18.69697479205206,Animal_Sea_Pattern_Large,3.0,0,91.0,6
103,4,32,Object,1.0,0.0,18.69697479205206,Object_Land_Pattern_Small,-9.0,1,746.0,7
103,4,32,Object,1.0,0.0,18.69697479205206,Animal_Sea_Solid_Large,-7.0,0,263.0,8
103,4,32,Object,1.0,0.0,18.69697479205206,Object_Land_Pattern_Small,-9.0,1,79.0,9
103,4,32,Object,1.0,0.0,18.69697479205206,Animal_Sea_Pattern_Large,3.0,0,838.0,10
103,4,32,Object,1.0,0.0,18.69697479205206,Object_Land_Solid_Small,3.0,1,289.0,11
103,4,32,Object,1.0,0.0,18.69697479205206,Animal_Sea_Pattern_Large,3.0,0,271.0,12
103,4,32,Object,1.0,0.0,18.69697479205206,Animal_Sea_Solid_Large,-7.0,0,27.0,13
103,4,32,Object,1.0,0.0,18.69697479205206,Animal_Sea_Pattern_Large,3.0,0,1106.0,14
103,4,32,Object,1.0,0.0,18.69697479205206,Animal_Sea_Solid_Large,-7.0,0,27.0,15
103,4,32,Object,1.0,0.0,18.69697479205206,Animal_Sea_Pattern_Large,3.0,0,1794.0,16
103,4,32,Object,1.0,0.0,18.69697479205206,Animal_Sea_Solid_Large,-7.0,0,31.0,17
103,4,32,Object,1.0,0.0,18.69697479205206,Animal_Sea_Pattern_Large,3.0,0,300.0,18
103,4,32,Object,1.0,0.0,18.69697479205206,Animal_Sea_Solid_Large,-7.0,0,129.0,19
103,4,32,Object,1.0,0.0,18.69697479205206,Object_Land_Solid_Small,3.0,1,202.0,20
103,5,33,Solid,1.0,0.0,37.46965962497052,Animal_Land_Pattern_Large,-4.0,0,174.0,1
103,5,33,Solid,1.0,0.0,37.46965962497052,Object_Land_Pattern_Large,-1.0,0,637.0,2
103,5,33,Solid,1.0,0.0,37.46965962497052,Animal_Sea_Solid_Small,-5.0,1,246.0,3
103,5,33,Solid,1.0,0.0,37.46965962497052,Object_Sea_Solid_Small,-5.0,1,373.0,4
103,5,33,Solid,1.0,0.0,37.46965962497052,Animal_Sea_Pattern_Small,6.0,0,285.0,5
103,5,33,Solid,1.0,0.0,37.46965962497052,Animal_Land_Pattern_Large,-4.0,0,296.0,6
103,5,33,Solid,1.0,0.0,37.46965962497052,Object_Sea_Solid_Small,-5.0,1,186.0,7
103,5,33,Solid,1.0,0.0,37.46965962497052,Animal_Sea_Pattern_Small,6.0,0,285.0,8
103,5,33,Solid,1.0,0.0,37.46965962497052,Object_Sea_Solid_Small,-5.0,1,301.0,9
103,5,33,Solid,1.0,0.0,37.46965962497052,Animal_Sea_Solid_Small,-5.0,1,26.0,10
103,5,33,Solid,1.0,0.0,37.46965962497052,Object_Sea_Solid_Small,-5.0,1,499.0,11
103,5,33,Solid,1.0,0.0,37.46965962497052,Animal_Sea_Solid_Small,-5.0,1,407.0,12
103,5,33,Solid,1.0,0.0,37.46965962497052,Object_Land_Pattern_Large,-1.0,0,420.0,13
103,5,33,Solid,1.0,0.0,37.46965962497052,Animal_Land_Pattern_Large,-4.0,0,170.0,14
103,5,33,Solid,1.0,0.0,37.46965962497052,Animal_Sea_Solid_Small,-5.0,1,781.0,15
103,5,33,Solid,1.0,0.0,37.46965962497052,Animal_Land_Pattern_Large,-4.0,0,1240.0,16
103,5,33,Solid,1.0,0.0,37.46965962497052,Object_Land_Pattern_Large,-1.0,0,183.0,17
103,5,33,Solid,1.0,0.0,37.46965962497052,Animal_Land_Pattern_Large,-4.0,0,352.0,18
103,5,33,Solid,1.0,0.0,37.46965962497052,Object_Sea_Solid_Small,-5.0,1,49.0,19
103,5,33,Solid,1.0,0.0,37.46965962497052,Object_Land_Pattern_Large,-1.0,0,307.0,20
103,5,33,Solid,1.0,0.0,37.46965962497052,Animal_Land_Pattern_Large,-4.0,0,280.0,21
103,5,33,Solid,1.0,0.0,37.46965962497052,Animal_Sea_Solid_Small,-5.0,1,688.0,22
103,5,33,Solid,1.0,0.0,37.46965962497052,Object_Land_Pattern_Large,-1.0,0,369.0,23
103,5,33,Solid,1.0,0.0,37.46965962497052,Animal_Sea_Solid_Small,-5.0,1,709.0,24
103,5,33,Solid,1.0,0.0,37.46965962497052,Object_Sea_Solid_Small,-5.0,1,179.0,25
103,5,33,Solid,1.0,0.0,37.46965962497052,Animal_Sea_Solid_Small,-5.0,1,1192.0,26
103,5,33,Solid,1.0,0.0,37.46965962497052,Object_Land_Pattern_Large,-1.0,0,45.0,27
103,5,33,Solid,1.0,0.0,37.46965962497052,Animal_Sea_Solid_Small,-5.0,1,422.0,28
103,5,33,Solid,1.0,0.0,37.46965962497052,Object_Land_Pattern_Large,-1.0,0,432.0,29
103,5,33,Solid,1.0,0.0,37.46965962497052,Animal_Sea_Solid_Small,-5.0,1,764.0,30
103,5,33,Solid,1.0,0.0,37.46965962497052,Object_Land_Pattern_Large,-1.0,0,1545.0,31
103,5,33,Solid,1.0,0.0,37.46965962497052,Animal_Sea_Solid_Small,-5.0,1,441.0,32
103,5,33,Solid,1.0,0.0,37.46965962497052,Object_Sea_Solid_Small,-5.0,1,335.0,33
103,5,33,Solid,1.0,0.0,37.46965962497052,Animal_Sea_Solid_Small,-5.0,1,520.0,34
103,5,33,Solid,1.0,0.0,37.46965962497052,Object_Land_Solid_Large,7.0,1,369.0,35
103,5,33,Solid,1.0,0.0,37.46965962497052,Animal_Sea_Pattern_Small,6.0,0,296.0,36
103,5,33,Solid,1.0,0.0,37.46965962497052,Animal_Sea_Solid_Small,-5.0,1,329.0,37
103,5,33,Solid,1.0,0.0,37.46965962497052,Object_Land_Pattern_Large,-1.0,0,199.0,38
103,5,33,Solid,1.0,0.0,37.46965962497052,Animal_Sea_Solid_Small,-5.0,1,1308.0,39
103,5,34,Small,2.0,1.0,16.790348042035475,Animal_Sea_Solid_Small,-5.0,1,339.0,1
103,5,34,Small,2.0,1.0,16.790348042035475,Object_Land_Pattern_Large,-1.0,0,200.0,2
103,5,34,Small,2.0,1.0,16.790348042035475,Animal_Sea_Solid_Small,-5.0,1,2188.0,3
103,5,34,Small,2.0,1.0,16.790348042035475,Animal_Land_Pattern_Large,-4.0,0,2092.0,4
103,5,34,Small,2.0,1.0,16.790348042035475,Object_Land_Pattern_Large,-1.0,0,741.0,5
103,5,34,Small,2.0,1.0,16.790348042035475,Object_Land_Solid_Large,7.0,0,163.0,6
103,5,34,Small,2.0,1.0,16.790348042035475,Animal_Sea_Solid_Small,-5.0,1,483.0,7
103,5,34,Small,2.0,1.0,16.790348042035475,Animal_Sea_Pattern_Small,6.0,1,268.0,8
103,5,34,Small,2.0,1.0,16.790348042035475,Animal_Sea_Solid_Small,-5.0,1,885.0,9
103,5,34,Small,2.0,1.0,16.790348042035475,Animal_Sea_Pattern_Small,6.0,1,292.0,10
103,5,35,Pattern,2.0,0.0,18.815463667036965,Animal_Land_Pattern_Large,-4.0,1,804.0,1
103,5,35,Pattern,2.0,0.0,18.815463667036965,Object_Land_Pattern_Large,-1.0,1,183.0,2
103,5,35,Pattern,2.0,0.0,18.815463667036965,Animal_Land_Pattern_Large,-4.0,1,38.0,3
103,5,35,Pattern,2.0,0.0,18.815463667036965,Object_Land_Pattern_Large,-1.0,1,3458.0,4
103,5,35,Pattern,2.0,0.0,18.815463667036965,Animal_Sea_Solid_Small,-5.0,0,761.0,5
103,5,35,Pattern,2.0,0.0,18.815463667036965,Object_Sea_Solid_Small,-5.0,0,60.0,6
103,5,35,Pattern,2.0,0.0,18.815463667036965,Animal_Sea_Solid_Small,-5.0,0,1255.0,7
103,5,35,Pattern,2.0,0.0,18.815463667036965,Object_Land_Pattern_Large,-1.0,1,894.0,8
103,5,35,Pattern,2.0,0.0,18.815463667036965,Animal_Land_Pattern_Large,-4.0,1,900.0,9
103,5,35,Pattern,2.0,0.0,18.815463667036965,Object_Land_Pattern_Large,-1.0,1,716.0,10
103,5,35,Pattern,2.0,0.0,18.815463667036965,Animal_Land_Pattern_Large,-4.0,1,1045.0,11
103,5,35,Pattern,2.0,0.0,18.815463667036965,Object_Land_Pattern_Large,-1.0,1,549.0,12
103,5,35,Pattern,2.0,0.0,18.815463667036965,Animal_Land_Pattern_Large,-4.0,1,1393.0,13
103,5,36,Animal,2.0,1.0,25.198714207974263,Animal_Land_Pattern_Large,-4.0,1,913.0,1
103,5,36,Animal,2.0,1.0,25.198714207974263,Animal_Sea_Solid_Small,-5.0,1,531.0,2
103,5,36,Animal,2.0,1.0,25.198714207974263,Object_Land_Pattern_Large,-1.0,0,93.0,3
103,5,36,Animal,2.0,1.0,25.198714207974263,Animal_Land_Pattern_Large,-4.0,1,328.0,4
103,5,36,Animal,2.0,1.0,25.198714207974263,Object_Land_Pattern_Large,-1.0,0,589.0,5
103,5,36,Animal,2.0,1.0,25.198714207974263,Animal_Sea_Solid_Small,-5.0,1,866.0,6
103,5,36,Animal,2.0,1.0,25.198714207974263,Object_Sea_Solid_Small,-5.0,0,257.0,7
103,5,36,Animal,2.0,1.0,25.198714207974263,Animal_Land_Pattern_Large,-4.0,1,138.0,8
103,5,36,Animal,2.0,1.0,25.198714207974263,Object_Land_Pattern_Large,-1.0,0,691.0,9
103,5,36,Animal,2.0,1.0,25.198714207974263,Animal_Land_Pattern_Large,-4.0,1,205.0,10
103,5,36,Animal,2.0,1.0,25.198714207974263,Animal_Sea_Solid_Small,-5.0,1,376.0,11
103,5,36,Animal,2.0,1.0,25.198714207974263,Object_Land_Pattern_Large,-1.0,0,1533.0,12
103,5,36,Animal,2.0,1.0,25.198714207974263,Animal_Land_Pattern_Large,-4.0,1,125.0,13
103,5,36,Animal,2.0,1.0,25.198714207974263,Object_Land_Pattern_Large,-1.0,0,428.0,14
103,5,36,Animal,2.0,1.0,25.198714207974263,Animal_Land_Pattern_Large,-4.0,1,4520.0,15
103,5,36,Animal,2.0,1.0,25.198714207974263,Object_Land_Pattern_Large,-1.0,0,1405.0,16
103,5,36,Animal,2.0,1.0,25.198714207974263,Animal_Land_Pattern_Large,-4.0,1,486.0,17
103,5,37,Large,2.0,0.0,16.49158237501979,Object_Land_Pattern_Large,-1.0,1,4394.0,1
103,5,37,Large,2.0,0.0,16.49158237501979,Object_Sea_Solid_Small,-5.0,0,369.0,2
103,5,37,Large,2.0,0.0,16.49158237501979,Animal_Sea_Solid_Small,-5.0,0,657.0,3
103,5,37,Large,2.0,0.0,16.49158237501979,Object_Sea_Solid_Small,-5.0,0,322.0,4
103,5,37,Large,2.0,0.0,16.49158237501979,Animal_Land_Pattern_Large,-4.0,1,477.0,5
103,5,37,Large,2.0,0.0,16.49158237501979,Object_Sea_Solid_Small,-5.0,0,31.0,6
103,5,37,Large,2.0,0.0,16.49158237501979,Animal_Sea_Solid_Small,-5.0,0,41.0,7
103,5,37,Large,2.0,0.0,16.49158237501979,Animal_Land_Pattern_Large,-4.0,1,300.0,8
103,5,37,Large,2.0,0.0,16.49158237501979,Animal_Sea_Solid_Small,-5.0,0,545.0,9
103,5,37,Large,2.0,0.0,16.49158237501979,Animal_Land_Pattern_Large,-4.0,1,1191.0,10
103,5,37,Large,2.0,0.0,16.49158237501979,Object_Land_Pattern_Large,-1.0,1,906.0,11
103,5,38,Sea,2.0,1.0,8.83203249995131,Animal_Land_Pattern_Large,-4.0,0,1039.0,1
103,5,38,Sea,2.0,1.0,8.83203249995131,Object_Land_Pattern_Large,-1.0,0,783.0,2
103,5,38,Sea,2.0,1.0,8.83203249995131,Animal_Sea_Solid_Small,-5.0,1,298.0,3
103,5,38,Sea,2.0,1.0,8.83203249995131,Object_Land_Pattern_Large,-1.0,0,77.0,4
103,5,38,Sea,2.0,1.0,8.83203249995131,Animal_Land_Pattern_Large,-4.0,0,1751.0,5
103,5,38,Sea,2.0,1.0,8.83203249995131,Object_Land_Pattern_Large,-1.0,0,21.0,6
103,5,38,Sea,2.0,1.0,8.83203249995131,Animal_Land_Pattern_Large,-4.0,0,373.0,7
103,5,38,Sea,2.0,1.0,8.83203249995131,Animal_Sea_Solid_Small,-5.0,1,649.0,8
103,6,41,Pattern,2.0,1.0,67.30460041598417,Object_Sea_Solid_Large,-2.0,0,586.0,1
103,6,41,Pattern,2.0,1.0,67.30460041598417,Animal_Land_Pattern_Small,-3.0,1,379.0,2
103,6,41,Pattern,2.0,1.0,67.30460041598417,Object_Sea_Pattern_Large,4.0,1,186.0,3
103,6,41,Pattern,2.0,1.0,67.30460041598417,Object_Land_Solid_Small,-1.0,0,168.0,4
103,6,41,Pattern,2.0,1.0,67.30460041598417,Animal_Sea_Pattern_Large,-4.0,1,46.0,5
103,6,41,Pattern,2.0,1.0,67.30460041598417,Object_Sea_Solid_Large,-2.0,0,83.0,6
103,6,41,Pattern,2.0,1.0,67.30460041598417,Animal_Sea_Pattern_Large,-4.0,1,350.0,7
103,6,41,Pattern,2.0,1.0,67.30460041598417,Object_Land_Solid_Small,-1.0,0,579.0,8
103,6,41,Pattern,2.0,1.0,67.30460041598417,Object_Sea_Solid_Large,-2.0,0,332.0,9
103,6,41,Pattern,2.0,1.0,67.30460041598417,Animal_Sea_Pattern_Large,-4.0,1,1766.0,10
103,6,41,Pattern,2.0,1.0,67.30460041598417,Object_Sea_Solid_Large,-2.0,0,1135.0,11
103,6,41,Pattern,2.0,1.0,67.30460041598417,Animal_Sea_Pattern_Large,-4.0,1,587.0,12
103,6,41,Pattern,2.0,1.0,67.30460041598417,Object_Sea_Pattern_Large,4.0,1,65.0,13
103,6,41,Pattern,2.0,1.0,67.30460041598417,Animal_Land_Pattern_Small,-3.0,1,1188.0,14
103,6,41,Pattern,2.0,1.0,67.30460041598417,Object_Sea_Pattern_Large,4.0,1,1315.0,15
103,6,41,Pattern,2.0,1.0,67.30460041598417,Animal_Land_Pattern_Small,-3.0,1,1665.0,16
103,6,41,Pattern,2.0,1.0,67.30460041598417,Object_Sea_Solid_Large,-2.0,0,1644.0,17
103,6,41,Pattern,2.0,1.0,67.30460041598417,Animal_Land_Pattern_Small,-3.0,1,449.0,18
103,6,41,Pattern,2.0,1.0,67.30460041598417,Object_Sea_Pattern_Large,4.0,1,62.0,19
103,6,41,Pattern,2.0,1.0,67.30460041598417,Animal_Sea_Pattern_Large,-4.0,1,558.0,20
103,6,41,Pattern,2.0,1.0,67.30460041598417,Object_Sea_Solid_Large,-2.0,0,556.0,21
103,6,41,Pattern,2.0,1.0,67.30460041598417,Animal_Sea_Pattern_Large,-4.0,1,330.0,22
103,6,41,Pattern,2.0,1.0,67.30460041598417,Object_Sea_Solid_Large,-2.0,0,275.0,23
103,6,41,Pattern,2.0,1.0,67.30460041598417,Animal_Sea_Pattern_Large,-4.0,1,1091.0,24
103,6,41,Pattern,2.0,1.0,67.30460041598417,Object_Sea_Solid_Large,-2.0,0,930.0,25
103,6,41,Pattern,2.0,1.0,67.30460041598417,Animal_Sea_Pattern_Large,-4.0,1,136.0,26
103,6,41,Pattern,2.0,1.0,67.30460041598417,Object_Sea_Solid_Large,-2.0,0,567.0,27
103,6,41,Pattern,2.0,1.0,67.30460041598417,Animal_Sea_Pattern_Large,-4.0,1,1731.0,28
103,6,41,Pattern,2.0,1.0,67.30460041598417,Object_Sea_Solid_Large,-2.0,0,1968.0,29
103,6,41,Pattern,2.0,1.0,67.30460041598417,Animal_Land_Pattern_Small,-3.0,1,350.0,30
103,6,41,Pattern,2.0,1.0,67.30460041598417,Object_Sea_Solid_Large,-2.0,0,237.0,31
103,6,41,Pattern,2.0,1.0,67.30460041598417,Animal_Land_Pattern_Small,-3.0,1,192.0,32
103,6,41,Pattern,2.0,1.0,67.30460041598417,Object_Sea_Solid_Large,-2.0,0,161.0,33
103,6,41,Pattern,2.0,1.0,67.30460041598417,Animal_Land_Pattern_Small,-3.0,1,579.0,34
103,6,41,Pattern,2.0,1.0,67.30460041598417,Object_Sea_Solid_Large,-2.0,0,36.0,35
103,6,41,Pattern,2.0,1.0,67.30460041598417,Animal_Land_Pattern_Small,-3.0,1,814.0,36
103,6,41,Pattern,2.0,1.0,67.30460041598417,Object_Sea_Solid_Large,-2.0,0,247.0,37
103,6,41,Pattern,2.0,1.0,67.30460041598417,Animal_Land_Pattern_Small,-3.0,1,141.0,38
103,6,41,Pattern,2.0,1.0,67.30460041598417,Object_Sea_Pattern_Large,4.0,1,485.0,39
103,6,41,Pattern,2.0,1.0,67.30460041598417,Animal_Sea_Pattern_Large,-4.0,1,278.0,40
103,6,41,Pattern,2.0,1.0,67.30460041598417,Object_Sea_Solid_Large,-2.0,0,727.0,41
103,6,41,Pattern,2.0,1.0,67.30460041598417,Animal_Land_Pattern_Small,-3.0,1,685.0,42
103,6,41,Pattern,2.0,1.0,67.30460041598417,Object_Sea_Solid_Large,-2.0,0,890.0,43
103,6,41,Pattern,2.0,1.0,67.30460041598417,Animal_Sea_Pattern_Large,-4.0,1,152.0,44
103,6,41,Pattern,2.0,1.0,67.30460041598417,Animal_Land_Pattern_Small,-3.0,1,319.0,45
103,6,41,Pattern,2.0,1.0,67.30460041598417,Animal_Land_Solid_Small,5.0,0,159.0,46
103,6,41,Pattern,2.0,1.0,67.30460041598417,Object_Sea_Pattern_Large,4.0,1,99.0,47
103,6,41,Pattern,2.0,1.0,67.30460041598417,Object_Sea_Solid_Large,-2.0,0,410.0,48
103,6,41,Pattern,2.0,1.0,67.30460041598417,Animal_Land_Pattern_Small,-3.0,1,219.0,49
103,6,41,Pattern,2.0,1.0,67.30460041598417,Animal_Land_Solid_Small,5.0,0,615.0,50
103,6,41,Pattern,2.0,1.0,67.30460041598417,Object_Sea_Pattern_Large,4.0,1,390.0,51
103,6,41,Pattern,2.0,1.0,67.30460041598417,Object_Land_Solid_Small,-1.0,0,400.0,52
103,6,41,Pattern,2.0,1.0,67.30460041598417,Object_Sea_Solid_Large,-2.0,0,1821.0,53
103,6,41,Pattern,2.0,1.0,67.30460041598417,Animal_Land_Pattern_Small,-3.0,1,1316.0,54
103,6,41,Pattern,2.0,1.0,67.30460041598417,Object_Sea_Pattern_Large,4.0,1,1246.0,55
103,6,41,Pattern,2.0,1.0,67.30460041598417,Animal_Sea_Pattern_Large,-4.0,1,1044.0,56
103,6,42,Large,2.0,1.0,17.598854375071824,Object_Sea_Solid_Large,-2.0,1,610.0,1
103,6,42,Large,2.0,1.0,17.598854375071824,Object_Sea_Pattern_Large,4.0,1,295.0,2
103,6,42,Large,2.0,1.0,17.598854375071824,Object_Sea_Solid_Large,-2.0,1,373.0,3
103,6,42,Large,2.0,1.0,17.598854375071824,Animal_Sea_Pattern_Large,-4.0,1,801.0,4
103,6,42,Large,2.0,1.0,17.598854375071824,Object_Land_Solid_Small,-1.0,0,42.0,5
103,6,42,Large,2.0,1.0,17.598854375071824,Object_Sea_Solid_Large,-2.0,1,93.0,6
103,6,42,Large,2.0,1.0,17.598854375071824,Animal_Land_Pattern_Small,-3.0,0,124.0,7
103,6,42,Large,2.0,1.0,17.598854375071824,Object_Sea_Pattern_Large,4.0,1,762.0,8
103,6,42,Large,2.0,1.0,17.598854375071824,Animal_Land_Pattern_Small,-3.0,0,407.0,9
103,6,42,Large,2.0,1.0,17.598854375071824,Animal_Sea_Pattern_Large,-4.0,1,1667.0,10
103,6,42,Large,2.0,1.0,17.598854375071824,Animal_Land_Pattern_Small,-3.0,0,322.0,11
103,6,42,Large,2.0,1.0,17.598854375071824,Object_Sea_Solid_Large,-2.0,1,515.0,12
103,6,42,Large,2.0,1.0,17.598854375071824,Animal_Sea_Pattern_Large,-4.0,1,179.0,13
103,6,42,Large,2.0,1.0,17.598854375071824,Object_Sea_Solid_Large,-2.0,1,389.0,14
103,6,42,Large,2.0,1.0,17.598854375071824,Animal_Sea_Pattern_Large,-4.0,1,339.0,15
103,6,42,Large,2.0,1.0,17.598854375071824,Object_Sea_Solid_Large,-2.0,1,1821.0,16
103,6,42,Large,2.0,1.0,17.598854375071824,Object_Land_Solid_Small,-1.0,0,279.0,17
103,6,43,Small,1.0,1.0,17.13334058399778,Object_Sea_Solid_Large,-2.0,0,395.0,1
103,6,43,Small,1.0,1.0,17.13334058399778,Animal_Sea_Pattern_Large,-4.0,0,252.0,2
103,6,43,Small,1.0,1.0,17.13334058399778,Animal_Land_Pattern_Small,-3.0,1,254.0,3
103,6,43,Small,1.0,1.0,17.13334058399778,Object_Sea_Solid_Large,-2.0,0,177.0,4
103,6,43,Small,1.0,1.0,17.13334058399778,Object_Land_Solid_Small,-1.0,1,157.0,5
103,6,43,Small,1.0,1.0,17.13334058399778,Animal_Sea_Pattern_Large,-4.0,0,345.0,6
103,6,43,Small,1.0,1.0,17.13334058399778,Object_Sea_Solid_Large,-2.0,0,1013.0,7
103,6,43,Small,1.0,1.0,17.13334058399778,Animal_Land_Pattern_Small,-3.0,1,207.0,8
103,6,43,Small,1.0,1.0,17.13334058399778,Object_Sea_Solid_Large,-2.0,0,35.0,9
103,6,43,Small,1.0,1.0,17.13334058399778,Animal_Land_Pattern_Small,-3.0,1,502.0,10
103,6,43,Small,1.0,1.0,17.13334058399778,Object_Sea_Solid_Large,-2.0,0,292.0,11
103,6,43,Small,1.0,1.0,17.13334058399778,Animal_Land_Pattern_Small,-3.0,1,1733.0,12
103,6,43,Small,1.0,1.0,17.13334058399778,Object_Sea_Solid_Large,-2.0,0,328.0,13
103,6,43,Small,1.0,1.0,17.13334058399778,Animal_Land_Pattern_Small,-3.0,1,405.0,14
103,6,43,Small,1.0,1.0,17.13334058399778,Object_Sea_Solid_Large,-2.0,0,158.0,15
103,6,43,Small,1.0,1.0,17.13334058399778,Animal_Land_Pattern_Small,-3.0,1,2840.0,16
103,6,43,Small,1.0,1.0,17.13334058399778,Object_Sea_Solid_Large,-2.0,0,545.0,17
103,6,43,Small,1.0,1.0,17.13334058399778,Animal_Land_Pattern_Small,-3.0,1,115.0,18
103,6,43,Small,1.0,1.0,17.13334058399778,Object_Sea_Solid_Large,-2.0,0,187.0,19
103,6,43,Small,1.0,1.0,17.13334058399778,Animal_Sea_Pattern_Large,-4.0,0,813.0,20
103,6,44,Land,1.0,1.0,28.71283787500579,Object_Sea_Solid_Large,-2.0,0,1079.0,1
103,6,44,Land,1.0,1.0,28.71283787500579,Animal_Sea_Pattern_Large,-4.0,0,365.0,2
103,6,44,Land,1.0,1.0,28.71283787500579,Object_Sea_Solid_Large,-2.0,0,176.0,3
103,6,44,Land,1.0,1.0,28.71283787500579,Object_Sea_Pattern_Large,4.0,0,63.0,4
103,6,44,Land,1.0,1.0,28.71283787500579,Animal_Land_Pattern_Small,-3.0,1,775.0,5
103,6,44,Land,1.0,1.0,28.71283787500579,Object_Sea_Solid_Large,-2.0,0,584.0,6
103,6,44,Land,1.0,1.0,28.71283787500579,Animal_Sea_Pattern_Large,-4.0,0,1058.0,7
103,6,44,Land,1.0,1.0,28.71283787500579,Animal_Land_Pattern_Small,-3.0,1,345.0,8
103,6,44,Land,1.0,1.0,28.71283787500579,Object_Sea_Pattern_Large,4.0,0,588.0,9
103,6,44,Land,1.0,1.0,28.71283787500579,Animal_Sea_Pattern_Large,-4.0,0,89.0,10
103,6,44,Land,1.0,1.0,28.71283787500579,Object_Sea_Solid_Large,-2.0,0,301.0,11
103,6,44,Land,1.0,1.0,28.71283787500579,Animal_Land_Pattern_Small,-3.0,1,1273.0,12
103,6,44,Land,1.0,1.0,28.71283787500579,Object_Sea_Solid_Large,-2.0,0,647.0,13
103,6,44,Land,1.0,1.0,28.71283787500579,Animal_Land_Pattern_Small,-3.0,1,282.0,14
103,6,44,Land,1.0,1.0,28.71283787500579,Object_Sea_Solid_Large,-2.0,0,830.0,15
103,6,44,Land,1.0,1.0,28.71283787500579,Animal_Land_Pattern_Small,-3.0,1,740.0,16
103,6,44,Land,1.0,1.0,28.71283787500579,Object_Sea_Solid_Large,-2.0,0,263.0,17
103,6,44,Land,1.0,1.0,28.71283787500579,Animal_Land_Pattern_Small,-3.0,1,296.0,18
103,6,44,Land,1.0,1.0,28.71283787500579,Object_Sea_Solid_Large,-2.0,0,929.0,19
103,6,44,Land,1.0,1.0,28.71283787500579,Animal_Sea_Pattern_Large,-4.0,0,486.0,20
103,6,44,Land,1.0,1.0,28.71283787500579,Object_Sea_Solid_Large,-2.0,0,157.0,21
103,6,44,Land,1.0,1.0,28.71283787500579,Animal_Land_Pattern_Small,-3.0,1,852.0,22
103,6,44,Land,1.0,1.0,28.71283787500579,Object_Sea_Solid_Large,-2.0,0,1024.0,23
103,6,44,Land,1.0,1.0,28.71283787500579,Animal_Sea_Pattern_Large,-4.0,0,811.0,24
103,6,44,Land,1.0,1.0,28.71283787500579,Animal_Land_Pattern_Small,-3.0,1,228.0,25
103,6,44,Land,1.0,1.0,28.71283787500579,Object_Sea_Solid_Large,-2.0,0,34.0,26
103,6,44,Land,1.0,1.0,28.71283787500579,Animal_Land_Pattern_Small,-3.0,1,414.0,27
103,6,44,Land,1.0,1.0,28.71283787500579,Object_Sea_Solid_Large,-2.0,0,762.0,28
103,6,44,Land,1.0,1.0,28.71283787500579,Animal_Sea_Pattern_Large,-4.0,0,607.0,29
103,6,44,Land,1.0,1.0,28.71283787500579,Object_Sea_Solid_Large,-2.0,0,479.0,30
103,6,44,Land,1.0,1.0,28.71283787500579,Animal_Sea_Pattern_Large,-4.0,0,219.0,31
103,6,45,Animal,2.0,1.0,17.063075124984607,Object_Sea_Solid_Large,-2.0,0,204.0,1
103,6,45,Animal,2.0,1.0,17.063075124984607,Animal_Sea_Pattern_Large,-4.0,1,63.0,2
103,6,45,Animal,2.0,1.0,17.063075124984607,Object_Sea_Solid_Large,-2.0,0,263.0,3
103,6,45,Animal,2.0,1.0,17.063075124984607,Animal_Sea_Pattern_Large,-4.0,1,1013.0,4
103,6,45,Animal,2.0,1.0,17.063075124984607,Object_Sea_Solid_Large,-2.0,0,306.0,5
103,6,45,Animal,2.0,1.0,17.063075124984607,Animal_Sea_Pattern_Large,-4.0,1,73.0,6
103,6,45,Animal,2.0,1.0,17.063075124984607,Animal_Land_Pattern_Small,-3.0,1,319.0,7
103,6,45,Animal,2.0,1.0,17.063075124984607,Object_Sea_Pattern_Large,4.0,0,333.0,8
103,6,45,Animal,2.0,1.0,17.063075124984607,Animal_Land_Pattern_Small,-3.0,1,196.0,9
103,6,45,Animal,2.0,1.0,17.063075124984607,Animal_Sea_Pattern_Large,-4.0,1,145.0,10
103,6,45,Animal,2.0,1.0,17.063075124984607,Animal_Land_Pattern_Small,-3.0,1,47.0,11
103,6,45,Animal,2.0,1.0,17.063075124984607,Object_Sea_Solid_Large,-2.0,0,479.0,12
103,6,45,Animal,2.0,1.0,17.063075124984607,Animal_Land_Pattern_Small,-3.0,1,20.0,13
103,6,45,Animal,2.0,1.0,17.063075124984607,Object_Sea_Solid_Large,-2.0,0,1622.0,14
103,6,45,Animal,2.0,1.0,17.063075124984607,Animal_Sea_Pattern_Large,-4.0,1,222.0,15
103,6,45,Animal,2.0,1.0,17.063075124984607,Object_Sea_Solid_Large,-2.0,0,339.0,16
103,6,45,Animal,2.0,1.0,17.063075124984607,Animal_Sea_Pattern_Large,-4.0,1,267.0,17
103,6,45,Animal,2.0,1.0,17.063075124984607,Object_Sea_Pattern_Large,4.0,0,272.0,18
103,6,45,Animal,2.0,1.0,17.063075124984607,Animal_Land_Solid_Small,5.0,1,182.0,19
103,6,45,Animal,2.0,1.0,17.063075124984607,Object_Sea_Pattern_Large,4.0,0,258.0,20
103,6,45,Animal,2.0,1.0,17.063075124984607,Animal_Land_Solid_Small,5.0,1,202.0,21
103,6,45,Animal,2.0,1.0,17.063075124984607,Animal_Sea_Pattern_Large,-4.0,1,733.0,22
103,6,45,Animal,2.0,1.0,17.063075124984607,Animal_Land_Pattern_Small,-3.0,1,2026.0,23
103,6,47,Solid,2.0,0.0,9.849985375069082,Animal_Sea_Pattern_Large,-4.0,0,225.0,1
103,6,47,Solid,2.0,0.0,9.849985375069082,Object_Land_Solid_Small,-1.0,1,198.0,2
103,6,47,Solid,2.0,0.0,9.849985375069082,Object_Sea_Solid_Large,-2.0,1,146.0,3
103,6,47,Solid,2.0,0.0,9.849985375069082,Animal_Sea_Pattern_Large,-4.0,0,295.0,4
103,6,47,Solid,2.0,0.0,9.849985375069082,Animal_Land_Pattern_Small,-3.0,0,18.0,5
103,6,47,Solid,2.0,0.0,9.849985375069082,Object_Sea_Solid_Large,-2.0,1,116.0,6
103,6,47,Solid,2.0,0.0,9.849985375069082,Animal_Land_Pattern_Small,-3.0,0,675.0,7
103,6,47,Solid,2.0,0.0,9.849985375069082,Object_Sea_Solid_Large,-2.0,1,2374.0,8
103,6,47,Solid,2.0,0.0,9.849985375069082,Animal_Sea_Pattern_Large,-4.0,0,432.0,9
103,6,47,Solid,2.0,0.0,9.849985375069082,Object_Land_Solid_Small,-1.0,1,41.0,10
103,6,47,Solid,2.0,0.0,9.849985375069082,Animal_Sea_Pattern_Large,-4.0,0,515.0,11
103,6,48,Sea,2.0,1.0,13.821856584050693,Animal_Land_Pattern_Small,-3.0,0,600.0,1
103,6,48,Sea,2.0,1.0,13.821856584050693,Object_Sea_Solid_Large,-2.0,1,777.0,2
103,6,48,Sea,2.0,1.0,13.821856584050693,Animal_Sea_Pattern_Large,-4.0,1,900.0,3
103,6,48,Sea,2.0,1.0,13.821856584050693,Object_Sea_Solid_Large,-2.0,1,722.0,4
103,6,48,Sea,2.0,1.0,13.821856584050693,Animal_Sea_Pattern_Large,-4.0,1,335.0,5
103,6,48,Sea,2.0,1.0,13.821856584050693,Animal_Land_Pattern_Small,-3.0,0,932.0,6
103,6,48,Sea,2.0,1.0,13.821856584050693,Object_Sea_Solid_Large,-2.0,1,361.0,7
103,6,48,Sea,2.0,1.0,13.821856584050693,Animal_Sea_Pattern_Large,-4.0,1,2002.0,8
103,6,48,Sea,2.0,1.0,13.821856584050693,Animal_Land_Pattern_Small,-3.0,0,614.0,9
103,6,48,Sea,2.0,1.0,13.821856584050693,Object_Sea_Solid_Large,-2.0,1,1306.0,10
103,7,49,Animal,2.0,1.0,4.5658652919810265,Animal_Land_Pattern_Large,-4.0,1,257.0,1
103,7,49,Animal,2.0,1.0,4.5658652919810265,Animal_Sea_Solid_Large,1.0,1,460.0,2
103,7,49,Animal,2.0,1.0,4.5658652919810265,Animal_Land_Pattern_Large,-4.0,1,2144.0,3
103,7,50,Land,2.0,1.0,7.117545707966201,Animal_Sea_Solid_Large,1.0,0,191.0,1
103,7,50,Land,2.0,1.0,7.117545707966201,Animal_Land_Pattern_Large,-4.0,1,62.0,2
103,7,50,Land,2.0,1.0,7.117545707966201,Object_Sea_Solid_Small,-5.0,0,157.0,3
103,7,50,Land,2.0,1.0,7.117545707966201,Object_Land_Pattern_Small,1.0,1,821.0,4
103,7,50,Land,2.0,1.0,7.117545707966201,Animal_Sea_Solid_Large,1.0,0,295.0,5
103,7,50,Land,2.0,1.0,7.117545707966201,Object_Land_Pattern_Small,1.0,1,1083.0,6
103,7,50,Land,2.0,1.0,7.117545707966201,Animal_Sea_Solid_Large,1.0,0,633.0,7
103,7,50,Land,2.0,1.0,7.117545707966201,Object_Land_Solid_Large,2.0,1,123.0,8
103,7,50,Land,2.0,1.0,7.117545707966201,Animal_Land_Pattern_Large,-4.0,1,335.0,9
103,7,51,Solid,1.0,0.0,10.529879999929108,Animal_Sea_Solid_Large,1.0,1,421.0,1
103,7,51,Solid,1.0,0.0,10.529879999929108,Animal_Land_Pattern_Large,-4.0,0,149.0,2
103,7,51,Solid,1.0,0.0,10.529879999929108,Animal_Sea_Solid_Large,1.0,1,2235.0,3
103,7,51,Solid,1.0,0.0,10.529879999929108,Object_Land_Pattern_Small,1.0,0,188.0,4
103,7,51,Solid,1.0,0.0,10.529879999929108,Animal_Sea_Solid_Large,1.0,1,425.0,5
103,7,51,Solid,1.0,0.0,10.529879999929108,Object_Land_Pattern_Small,1.0,0,475.0,6
103,7,51,Solid,1.0,0.0,10.529879999929108,Object_Land_Solid_Large,2.0,1,23.0,7
103,7,51,Solid,1.0,0.0,10.529879999929108,Object_Land_Pattern_Small,1.0,0,523.0,8
103,7,51,Solid,1.0,0.0,10.529879999929108,Object_Sea_Solid_Small,-5.0,1,130.0,9
103,7,51,Solid,1.0,0.0,10.529879999929108,Animal_Sea_Solid_Large,1.0,1,200.0,10
103,7,51,Solid,1.0,0.0,10.529879999929108,Object_Land_Solid_Large,2.0,1,24.0,11
103,7,51,Solid,1.0,0.0,10.529879999929108,Animal_Sea_Solid_Large,1.0,1,383.0,12
103,7,51,Solid,1.0,0.0,10.529879999929108,Object_Land_Pattern_Small,1.0,0,443.0,13
103,7,51,Solid,1.0,0.0,10.529879999929108,Animal_Sea_Pattern_Small,2.0,0,305.0,14
103,7,52,Large,2.0,1.0,10.513634916977026,Animal_Sea_Solid_Large,1.0,1,1548.0,1
103,7,52,Large,2.0,1.0,10.513634916977026,Animal_Land_Pattern_Large,-4.0,1,3373.0,2
103,7,52,Large,2.0,1.0,10.513634916977026,Animal_Sea_Solid_Large,1.0,1,660.0,3
103,7,52,Large,2.0,1.0,10.513634916977026,Animal_Land_Pattern_Large,-4.0,1,840.0,4
103,7,53,Sea,1.0,0.0,8.95531187497545,Animal_Sea_Solid_Large,1.0,1,289.0,1
103,7,53,Sea,1.0,0.0,8.95531187497545,Object_Land_Pattern_Small,1.0,0,120.0,2
103,7,53,Sea,1.0,0.0,8.95531187497545,Object_Sea_Solid_Small,-5.0,1,213.0,3
103,7,53,Sea,1.0,0.0,8.95531187497545,Object_Land_Pattern_Small,1.0,0,49.0,4
103,7,53,Sea,1.0,0.0,8.95531187497545,Animal_Sea_Solid_Large,1.0,1,161.0,5
103,7,53,Sea,1.0,0.0,8.95531187497545,Animal_Land_Pattern_Large,-4.0,0,207.0,6
103,7,53,Sea,1.0,0.0,8.95531187497545,Animal_Sea_Solid_Large,1.0,1,462.0,7
103,7,53,Sea,1.0,0.0,8.95531187497545,Animal_Land_Pattern_Large,-4.0,0,954.0,8
103,7,53,Sea,1.0,0.0,8.95531187497545,Object_Land_Solid_Large,2.0,0,87.0,9
103,7,53,Sea,1.0,0.0,8.95531187497545,Object_Land_Pattern_Small,1.0,0,211.0,10
103,7,53,Sea,1.0,0.0,8.95531187497545,Animal_Land_Pattern_Large,-4.0,0,762.0,11
103,7,53,Sea,1.0,0.0,8.95531187497545,Object_Land_Pattern_Small,1.0,0,530.0,12
103,7,53,Sea,1.0,0.0,8.95531187497545,Animal_Sea_Solid_Large,1.0,1,39.0,13
103,7,53,Sea,1.0,0.0,8.95531187497545,Object_Land_Pattern_Small,1.0,0,197.0,14
103,7,53,Sea,1.0,0.0,8.95531187497545,Animal_Sea_Solid_Large,1.0,1,862.0,15
103,7,54,Pattern,2.0,1.0,3.628575499984436,Animal_Land_Pattern_Large,-4.0,1,917.0,1
103,7,54,Pattern,2.0,1.0,3.628575499984436,Animal_Sea_Solid_Large,1.0,0,2080.0,2
103,7,55,Object,2.0,1.0,17.422590582980774,Animal_Sea_Solid_Large,1.0,0,231.0,1
103,7,55,Object,2.0,1.0,17.422590582980774,Animal_Land_Pattern_Large,-4.0,0,211.0,2
103,7,55,Object,2.0,1.0,17.422590582980774,Animal_Sea_Solid_Large,1.0,0,494.0,3
103,7,55,Object,2.0,1.0,17.422590582980774,Object_Land_Pattern_Small,1.0,1,257.0,4
103,7,55,Object,2.0,1.0,17.422590582980774,Animal_Sea_Solid_Large,1.0,0,822.0,5
103,7,55,Object,2.0,1.0,17.422590582980774,Object_Land_Pattern_Small,1.0,1,2676.0,6
103,7,55,Object,2.0,1.0,17.422590582980774,Object_Sea_Solid_Small,-5.0,1,35.0,7
103,7,55,Object,2.0,1.0,17.422590582980774,Object_Land_Pattern_Small,1.0,1,817.0,8
103,7,55,Object,2.0,1.0,17.422590582980774,Animal_Sea_Solid_Large,1.0,0,523.0,9
103,7,55,Object,2.0,1.0,17.422590582980774,Object_Land_Pattern_Small,1.0,1,519.0,10
103,7,55,Object,2.0,1.0,17.422590582980774,Animal_Sea_Solid_Large,1.0,0,373.0,11
103,7,55,Object,2.0,1.0,17.422590582980774,Object_Land_Pattern_Small,1.0,1,1091.0,12
103,7,55,Object,2.0,1.0,17.422590582980774,Animal_Sea_Solid_Large,1.0,0,551.0,13
103,7,55,Object,2.0,1.0,17.422590582980774,Object_Land_Pattern_Small,1.0,1,1071.0,14
103,7,55,Object,2.0,1.0,17.422590582980774,Object_Sea_Solid_Small,-5.0,1,48.0,15
103,7,55,Object,2.0,1.0,17.422590582980774,Object_Land_Pattern_Small,1.0,1,318.0,16
103,7,55,Object,2.0,1.0,17.422590582980774,Object_Sea_Solid_Small,-5.0,1,284.0,17
103,7,55,Object,2.0,1.0,17.422590582980774,Object_Land_Pattern_Small,1.0,1,341.0,18
103,7,55,Object,2.0,1.0,17.422590582980774,Animal_Sea_Solid_Large,1.0,0,573.0,19
103,7,55,Object,2.0,1.0,17.422590582980774,Object_Land_Pattern_Small,1.0,1,248.0,20
103,7,56,Small,2.0,1.0,6.19561662490014,Animal_Land_Pattern_Large,-4.0,0,866.0,1
103,7,56,Small,2.0,1.0,6.19561662490014,Animal_Sea_Pattern_Small,2.0,1,46.0,2
103,7,56,Small,2.0,1.0,6.19561662490014,Animal_Land_Pattern_Large,-4.0,0,169.0,3
103,7,56,Small,2.0,1.0,6.19561662490014,Object_Land_Pattern_Small,1.0,1,280.0,4
103,7,56,Small,2.0,1.0,6.19561662490014,Animal_Land_Pattern_Large,-4.0,0,426.0,5
103,7,56,Small,2.0,1.0,6.19561662490014,Object_Sea_Solid_Small,-5.0,1,46.0,6
103,7,56,Small,2.0,1.0,6.19561662490014,Object_Land_Pattern_Small,1.0,1,215.0,7
103,7,56,Small,2.0,1.0,6.19561662490014,Animal_Land_Pattern_Large,-4.0,0,257.0,8
104,1,5,Object,1.0,1.0,2.618371875025332,Animal_Land_Solid_Large,2.0,0,131.0,1
104,2,9,Animal,2.0,0.0,11.362428708001971,Object_Sea_Pattern_Small,-9.0,0,113.0,1
104,2,9,Animal,2.0,0.0,11.362428708001971,Animal_Land_Pattern_Small,9.0,1,1182.0,2
104,2,9,Animal,2.0,0.0,11.362428708001971,Object_Land_Pattern_Large,7.0,0,349.0,3
104,2,10,Land,1.0,1.0,3.351680124993436,Object_Land_Pattern_Large,7.0,1,191.0,1
104,2,10,Land,1.0,1.0,3.351680124993436,Animal_Land_Pattern_Small,9.0,1,402.0,2
104,2,12,Solid,2.0,1.0,7.782831375021488,Animal_Land_Pattern_Small,9.0,0,1090.0,1
104,2,12,Solid,2.0,1.0,7.782831375021488,Animal_Land_Solid_Large,-9.0,1,140.0,2
104,2,12,Solid,2.0,1.0,7.782831375021488,Animal_Land_Pattern_Small,9.0,0,203.0,3
104,2,12,Solid,2.0,1.0,7.782831375021488,Object_Land_Pattern_Large,7.0,0,121.0,4
104,2,12,Solid,2.0,1.0,7.782831375021488,Animal_Land_Pattern_Small,9.0,0,793.0,5
104,2,12,Solid,2.0,1.0,7.782831375021488,Object_Sea_Pattern_Small,-9.0,0,154.0,6
104,2,12,Solid,2.0,1.0,7.782831375021488,Animal_Land_Pattern_Small,9.0,0,1866.0,7
104,2,12,Solid,2.0,1.0,7.782831375021488,Object_Land_Pattern_Large,7.0,0,122.0,8
104,2,12,Solid,2.0,1.0,7.782831375021488,Animal_Land_Pattern_Small,9.0,0,1176.0,9
104,2,13,Small,1.0,1.0,4.0416492079384625,Animal_Land_Pattern_Small,9.0,1,3079.0,1
104,2,14,Object,1.0,1.0,1.187969999969937,Animal_Land_Pattern_Small,9.0,0,431.0,1
104,2,15,Large,1.0,1.0,1.6605947919888422,Animal_Land_Pattern_Small,9.0,0,768.0,1
104,2,15,Large,1.0,1.0,1.6605947919888422,Animal_Land_Solid_Large,-9.0,1,92.0,2
104,2,16,Pattern,1.0,1.0,3.759918999974616,Animal_Land_Pattern_Small,9.0,1,2454.0,1
104,3,17,Object,1.0,1.0,3.7604143749922514,Object_Land_Solid_Small,7.0,1,158.0,1
104,3,20,Sea,2.0,1.0,4.086700291954912,Animal_Land_Solid_Small,-2.0,0,126.0,1
104,3,20,Sea,2.0,1.0,4.086700291954912,Animal_Sea_Solid_Large,-4.0,1,158.0,2
104,3,21,Large,2.0,1.0,5.473612417001277,Object_Land_Pattern_Small,-7.0,0,124.0,1
104,3,21,Large,2.0,1.0,5.473612417001277,Animal_Land_Solid_Small,-2.0,0,169.0,2
104,3,21,Large,2.0,1.0,5.473612417001277,Animal_Sea_Pattern_Large,1.0,1,153.0,3
104,3,21,Large,2.0,1.0,5.473612417001277,Object_Land_Pattern_Small,-7.0,0,204.0,4
104,3,21,Large,2.0,1.0,5.473612417001277,Object_Land_Solid_Small,7.0,0,253.0,5
104,3,22,Solid,1.0,1.0,1.2939922499936074,Object_Land_Solid_Small,7.0,1,237.0,1
104,4,25,Small,1.0,1.0,1.3051365420687944,Object_Sea_Pattern_Small,9.0,1,151.0,1
104,4,28,Land,1.0,1.0,4.811406249995343,Object_Sea_Pattern_Small,9.0,0,121.0,1
104,4,28,Land,1.0,1.0,4.811406249995343,Animal_Land_Pattern_Large,-2.0,1,172.0,2
104,4,28,Land,1.0,1.0,4.811406249995343,Animal_Sea_Pattern_Small,-3.0,0,396.0,3
104,5,33,Pattern,1.0,0.0,1.0543427090160549,Object_Sea_Pattern_Small,-7.0,1,23.0,1
104,5,34,Animal,1.0,0.0,9.378299625008369,Animal_Land_Solid_Large,-3.0,1,243.0,1
104,5,34,Animal,1.0,0.0,9.378299625008369,Animal_Land_Pattern_Small,8.0,1,550.0,2
104,5,35,Large,2.0,1.0,0.7599747499916703,Object_Land_Pattern_Large,-8.0,1,81.0,1
104,5,37,Small,2.0,1.0,1.0646406250307336,Object_Sea_Pattern_Small,-7.0,1,134.0,1
104,5,37,Small,2.0,1.0,1.0646406250307336,Animal_Sea_Solid_Small,-7.0,1,190.0,2
104,5,38,Land,2.0,1.0,3.4867622080491856,Object_Land_Pattern_Large,-8.0,1,155.0,1
104,5,38,Land,2.0,1.0,3.4867622080491856,Animal_Land_Solid_Large,-3.0,1,109.0,2
104,5,39,Solid,1.0,0.0,2.8579910829430446,Object_Sea_Pattern_Small,-7.0,0,126.0,1
104,6,41,Solid,2.0,1.0,2.7241994170472026,Animal_Sea_Pattern_Large,6.0,0,116.0,1
104,6,41,Solid,2.0,1.0,2.7241994170472026,Animal_Land_Solid_Small,-8.0,1,76.0,2
104,6,42,Small,1.0,0.0,6.599914000020362,Animal_Land_Solid_Small,-8.0,1,292.0,1
104,6,42,Small,1.0,0.0,6.599914000020362,Object_Land_Pattern_Small,3.0,1,205.0,2
104,6,42,Small,1.0,0.0,6.599914000020362,Animal_Sea_Pattern_Large,6.0,0,175.0,3
104,6,43,Object,1.0,0.0,3.878611791995354,Object_Sea_Pattern_Large,-8.0,1,556.0,1
104,6,43,Object,1.0,0.0,3.878611791995354,Object_Land_Solid_Small,3.0,1,202.0,2
104,6,43,Object,1.0,0.0,3.878611791995354,Animal_Land_Solid_Small,-8.0,0,147.0,3
104,6,44,Sea,1.0,0.0,4.069019917049445,Animal_Land_Solid_Small,-8.0,0,245.0,1
104,6,48,Land,2.0,1.0,11.465849000029266,Animal_Sea_Solid_Large,1.0,0,97.0,1
104,6,48,Land,2.0,1.0,11.465849000029266,Object_Land_Pattern_Small,3.0,1,138.0,2
104,6,48,Land,2.0,1.0,11.465849000029266,Animal_Sea_Solid_Large,1.0,0,174.0,3
104,6,48,Land,2.0,1.0,11.465849000029266,Object_Land_Solid_Small,3.0,1,379.0,4
104,6,48,Land,2.0,1.0,11.465849000029266,Animal_Sea_Solid_Large,1.0,0,329.0,5
104,7,49,Object,1.0,1.0,9.729151666979304,Animal_Land_Solid_Small,9.0,0,985.0,1
104,7,49,Object,1.0,1.0,9.729151666979304,Animal_Sea_Solid_Small,-9.0,0,134.0,2
104,7,50,Small,1.0,0.0,2.8362104169791564,Animal_Land_Solid_Small,9.0,1,190.0,1
104,7,50,Small,1.0,0.0,2.8362104169791564,Object_Land_Pattern_Small,-4.0,1,271.0,2
104,7,51,Large,1.0,1.0,1.511956917005591,Object_Sea_Solid_Large,9.0,1,482.0,1
104,7,52,Sea,1.0,1.0,11.2331016670214,Animal_Sea_Solid_Small,-9.0,1,302.0,1
104,7,52,Sea,1.0,1.0,11.2331016670214,Animal_Land_Solid_Small,9.0,0,924.0,2
104,7,52,Sea,1.0,1.0,11.2331016670214,Animal_Sea_Solid_Small,-9.0,1,150.0,3
104,7,52,Sea,1.0,1.0,11.2331016670214,Animal_Land_Solid_Small,9.0,0,593.0,4
104,7,52,Sea,1.0,1.0,11.2331016670214,Object_Land_Pattern_Small,-4.0,0,143.0,5
104,7,52,Sea,1.0,1.0,11.2331016670214,Object_Sea_Solid_Large,9.0,1,214.0,6
104,7,53,Solid,1.0,1.0,6.256807332974859,Animal_Land_Solid_Small,9.0,1,129.0,1
104,7,53,Solid,1.0,1.0,6.256807332974859,Animal_Sea_Solid_Small,-9.0,1,754.0,2
104,7,53,Solid,1.0,1.0,6.256807332974859,Animal_Land_Solid_Small,9.0,1,334.0,3
104,7,53,Solid,1.0,1.0,6.256807332974859,Object_Sea_Solid_Large,9.0,1,214.0,4
104,7,54,Animal,1.0,1.0,6.391611875034869,Object_Sea_Solid_Large,9.0,0,113.0,1
104,7,54,Animal,1.0,1.0,6.391611875034869,Animal_Sea_Solid_Small,-9.0,1,195.0,2
104,7,54,Animal,1.0,1.0,6.391611875034869,Object_Land_Pattern_Small,-4.0,0,137.0,3
104,7,55,Pattern,1.0,1.0,5.509306167019531,Animal_Land_Solid_Small,9.0,0,123.0,1
104,7,55,Pattern,1.0,1.0,5.509306167019531,Object_Land_Pattern_Large,-2.0,1,189.0,2
104,7,56,Land,1.0,1.0,9.435082374955527,Object_Land_Pattern_Small,-4.0,1,122.0,1
104,7,56,Land,1.0,1.0,9.435082374955527,Animal_Land_Solid_Small,9.0,1,109.0,2
104,7,56,Land,1.0,1.0,9.435082374955527,Object_Land_Pattern_Small,-4.0,1,131.0,3
104,7,56,Land,1.0,1.0,9.435082374955527,Animal_Land_Solid_Small,9.0,1,576.0,4
104,7,56,Land,1.0,1.0,9.435082374955527,Animal_Sea_Solid_Small,-9.0,0,1332.0,5
104,7,56,Land,1.0,1.0,9.435082374955527,Object_Sea_Solid_Large,9.0,0,247.0,6
105,1,1,Large,1.0,0.0,6.351288583944552,Object_Land_Solid_Large,-4.0,1,1396.0,1
105,1,1,Large,1.0,0.0,6.351288583944552,Object_Sea_Solid_Small,8.0,0,157.0,2
105,1,1,Large,1.0,0.0,6.351288583944552,Object_Land_Pattern_Large,1.0,1,414.0,3
105,1,1,Large,1.0,0.0,6.351288583944552,Object_Land_Solid_Large,-4.0,1,131.0,4
105,1,1,Large,1.0,0.0,6.351288583944552,Animal_Sea_Pattern_Small,1.0,0,123.0,5
105,1,1,Large,1.0,0.0,6.351288583944552,Object_Land_Solid_Large,-4.0,1,1327.0,6
105,1,2,Object,2.0,0.0,3.798770499997772,Object_Land_Solid_Large,-4.0,1,682.0,1
105,1,3,Sea,1.0,1.0,1.113639457966201,Object_Land_Pattern_Large,1.0,0,153.0,1
105,1,3,Sea,1.0,1.0,1.113639457966201,Object_Sea_Solid_Small,8.0,1,207.0,2
105,1,4,Land,2.0,1.0,4.153576708049513,Object_Sea_Solid_Small,8.0,0,146.0,1
105,1,5,Solid,1.0,0.0,5.310788374976255,Object_Land_Solid_Large,-4.0,1,1947.0,1
105,1,5,Solid,1.0,0.0,5.310788374976255,Object_Land_Pattern_Large,1.0,0,407.0,2
105,1,6,Pattern,1.0,0.0,2.819347291951999,Object_Land_Solid_Large,-4.0,0,217.0,1
105,1,6,Pattern,1.0,0.0,2.819347291951999,Animal_Sea_Pattern_Large,-8.0,1,101.0,2
105,1,6,Pattern,1.0,0.0,2.819347291951999,Object_Sea_Solid_Small,8.0,0,276.0,3
105,1,6,Pattern,1.0,0.0,2.819347291951999,Animal_Sea_Pattern_Large,-8.0,1,233.0,4
105,1,7,Animal,2.0,1.0,2.3712131249485537,Object_Sea_Solid_Small,8.0,0,396.0,1
105,1,7,Animal,2.0,1.0,2.3712131249485537,Animal_Sea_Pattern_Small,1.0,1,153.0,2
105,1,8,Small,1.0,1.0,3.0312586670042947,Object_Land_Pattern_Large,1.0,0,162.0,1
105,2,9,Large,1.0,1.0,4.049898999975994,Animal_Land_Solid_Large,-4.0,1,157.0,1
105,2,9,Large,1.0,1.0,4.049898999975994,Animal_Land_Pattern_Large,4.0,1,380.0,2
105,2,9,Large,1.0,1.0,4.049898999975994,Object_Sea_Solid_Small,-2.0,0,446.0,3
105,2,9,Large,1.0,1.0,4.049898999975994,Object_Land_Pattern_Large,4.0,1,269.0,4
105,2,10,Solid,2.0,0.0,4.394204374984838,Object_Sea_Solid_Small,-2.0,1,144.0,1
105,2,10,Solid,2.0,0.0,4.394204374984838,Animal_Sea_Solid_Small,8.0,1,221.0,2
105,2,10,Solid,2.0,0.0,4.394204374984838,Object_Land_Pattern_Large,4.0,0,126.0,3
105,2,12,Animal,2.0,0.0,3.147713084006682,Animal_Land_Solid_Large,-4.0,1,311.0,1
105,2,12,Animal,2.0,0.0,3.147713084006682,Object_Land_Pattern_Large,4.0,0,215.0,2
105,2,12,Animal,2.0,0.0,3.147713084006682,Object_Sea_Solid_Small,-2.0,0,324.0,3
105,2,12,Animal,2.0,0.0,3.147713084006682,Animal_Land_Solid_Large,-4.0,1,474.0,4
105,2,12,Animal,2.0,0.0,3.147713084006682,Object_Land_Pattern_Large,4.0,0,136.0,5
105,2,13,Small,2.0,0.0,1.215079625020735,Animal_Land_Solid_Large,-4.0,0,363.0,1
105,2,13,Small,2.0,0.0,1.215079625020735,Animal_Land_Pattern_Large,4.0,0,310.0,2
105,2,14,Sea,1.0,1.0,0.7869795829756185,Animal_Land_Pattern_Large,4.0,0,141.0,1
105,2,14,Sea,1.0,1.0,0.7869795829756185,Object_Sea_Solid_Small,-2.0,1,304.0,2
105,2,16,Object,1.0,0.0,0.8065602920250967,Animal_Land_Pattern_Large,4.0,0,194.0,1
105,3,17,Animal,1.0,1.0,1.683105874923058,Object_Land_Pattern_Small,2.0,0,128.0,1
105,3,17,Animal,1.0,1.0,1.683105874923058,Animal_Sea_Pattern_Large,2.0,1,202.0,2
105,3,17,Animal,1.0,1.0,1.683105874923058,Animal_Land_Pattern_Small,-5.0,1,136.0,3
105,3,18,Pattern,2.0,1.0,2.18022595893126,Object_Land_Solid_Small,2.0,0,216.0,1
105,3,18,Pattern,2.0,1.0,2.18022595893126,Object_Land_Pattern_Small,2.0,1,538.0,2
