phase,event,trial_number,eyetracker_onset,eyetracker_offset,fix_start,fix_end,fix_duration_full,fix_duration_bounded,fix_x,fix_y,roi_x,roi_y,roi_content,onset,offset,game,image,outcome,choice,correct,rt,letter,match,response,option,true_value,true_position,recalled_position,Unnamed: 18
encoding,fixation,1,16504595,16505611,16504819.0,16505020.0,202.0,202.0,1929.3,983.7,1920.0,1460.0,Object_Land_Pattern_Large,6.569005082943477,7.584954541991465,1.0,Animal_Land_Solid_Small,4.0,,,,,,,,,,,
encoding,fixation,1,16504595,16505611,16505059.0,16505235.0,177.0,177.0,1800.4,1212.3,1591.0,891.0,Animal_Land_Pattern_Large,6.569005082943477,7.584954541991465,1.0,Animal_Land_Solid_Small,4.0,,,,,,,,,,,
encoding,fixation,1,16504595,16505611,16505264.0,16505396.0,133.0,133.0,1986.7,1272.3,1920.0,700.0,Object_Sea_Pattern_Small,6.569005082943477,7.584954541991465,1.0,Animal_Land_Solid_Small,4.0,,,,,,,,,,,
encoding,image,1,16505611,16506632,16505620.0,16505641.0,22.0,22.0,1916.8,1289.3,1920.0,700.0,Object_Sea_Pattern_Small,7.585071666981094,8.605526375002228,1.0,Animal_Land_Solid_Small,4.0,,,,,,,,,,,
encoding,image,1,16505611,16506632,16505717.0,16505764.0,48.0,48.0,1927.3,1201.8,1920.0,700.0,Object_Sea_Pattern_Small,7.585071666981094,8.605526375002228,1.0,Animal_Land_Solid_Small,4.0,,,,,,,,,,,
encoding,image,1,16505611,16506632,16505806.0,16505953.0,148.0,148.0,2224.1,914.8,2249.0,1269.0,Animal_Land_Solid_Small,7.585071666981094,8.605526375002228,1.0,Animal_Land_Solid_Small,4.0,,,,,,,,,,,
encoding,image,1,16505611,16506632,16505966.0,16506825.0,860.0,666.0,2289.3,885.9000000000001,2249.0,1269.0,Animal_Land_Solid_Small,7.585071666981094,8.605526375002228,1.0,Animal_Land_Solid_Small,4.0,,,,,,,,,,,
encoding,value,1,16506632,16512649,16506836.0,16506955.0,120.0,120.0,2277.3,802.3,2249.0,1269.0,Animal_Land_Solid_Small,8.605644666939043,14.62252362491563,1.0,Animal_Land_Solid_Small,4.0,,,,,,,,,,,
encoding,value,1,16506632,16512649,16507162.0,16507220.0,59.0,59.0,2269.8,911.0,2249.0,1269.0,Animal_Land_Solid_Small,8.605644666939043,14.62252362491563,1.0,Animal_Land_Solid_Small,4.0,,,,,,,,,,,
encoding,value,1,16506632,16512649,16507237.0,16507285.0,49.0,49.0,2279.7,892.0999999999999,2249.0,1269.0,Animal_Land_Solid_Small,8.605644666939043,14.62252362491563,1.0,Animal_Land_Solid_Small,4.0,,,,,,,,,,,
encoding,value,1,16506632,16512649,16507299.0,16507394.0,96.0,96.0,2280.7,874.7,2249.0,1269.0,Animal_Land_Solid_Small,8.605644666939043,14.62252362491563,1.0,Animal_Land_Solid_Small,4.0,,,,,,,,,,,
encoding,value,1,16506632,16512649,16507404.0,16507849.0,446.0,446.0,2268.2,808.3,2249.0,1269.0,Animal_Land_Solid_Small,8.605644666939043,14.62252362491563,1.0,Animal_Land_Solid_Small,4.0,,,,,,,,,,,
encoding,value,1,16506632,16512649,16507868.0,16507921.0,54.0,54.0,2256.0,817.2,2249.0,1269.0,Animal_Land_Solid_Small,8.605644666939043,14.62252362491563,1.0,Animal_Land_Solid_Small,4.0,,,,,,,,,,,
encoding,value,1,16506632,16512649,16508111.0,16508363.0,253.0,253.0,2267.4,892.3,2249.0,1269.0,Animal_Land_Solid_Small,8.605644666939043,14.62252362491563,1.0,Animal_Land_Solid_Small,4.0,,,,,,,,,,,
encoding,value,1,16506632,16512649,16508371.0,16508836.0,466.0,466.0,2319.8,914.3,2249.0,1269.0,Animal_Land_Solid_Small,8.605644666939043,14.62252362491563,1.0,Animal_Land_Solid_Small,4.0,,,,,,,,,,,
encoding,value,1,16506632,16512649,16509068.0,16509304.0,237.0,237.0,2302.2,881.2,2249.0,1269.0,Animal_Land_Solid_Small,8.605644666939043,14.62252362491563,1.0,Animal_Land_Solid_Small,4.0,,,,,,,,,,,
encoding,value,1,16506632,16512649,16509501.0,16509568.0,68.0,68.0,2318.5,896.7,2249.0,1269.0,Animal_Land_Solid_Small,8.605644666939043,14.62252362491563,1.0,Animal_Land_Solid_Small,4.0,,,,,,,,,,,
encoding,value,1,16506632,16512649,16509579.0,16509693.0,115.0,115.0,2313.8,901.8,2249.0,1269.0,Animal_Land_Solid_Small,8.605644666939043,14.62252362491563,1.0,Animal_Land_Solid_Small,4.0,,,,,,,,,,,
encoding,value,1,16506632,16512649,16509709.0,16509737.0,29.0,29.0,2263.6,811.0999999999999,2249.0,1269.0,Animal_Land_Solid_Small,8.605644666939043,14.62252362491563,1.0,Animal_Land_Solid_Small,4.0,,,,,,,,,,,
encoding,value,1,16506632,16512649,16509749.0,16509814.0,66.0,66.0,2268.1,800.0999999999999,2249.0,1269.0,Animal_Land_Solid_Small,8.605644666939043,14.62252362491563,1.0,Animal_Land_Solid_Small,4.0,,,,,,,,,,,
encoding,value,1,16506632,16512649,16509837.0,16510114.0,278.0,278.0,2266.6,815.2,2249.0,1269.0,Animal_Land_Solid_Small,8.605644666939043,14.62252362491563,1.0,Animal_Land_Solid_Small,4.0,,,,,,,,,,,
encoding,value,1,16506632,16512649,16510137.0,16511239.0,1103.0,1103.0,2279.2,824.5,2249.0,1269.0,Animal_Land_Solid_Small,8.605644666939043,14.62252362491563,1.0,Animal_Land_Solid_Small,4.0,,,,,,,,,,,
encoding,value,1,16506632,16512649,16511421.0,16511583.0,163.0,163.0,2188.6,852.2,2249.0,1269.0,Animal_Land_Solid_Small,8.605644666939043,14.62252362491563,1.0,Animal_Land_Solid_Small,4.0,,,,,,,,,,,
encoding,value,1,16506632,16512649,16511593.0,16511634.0,42.0,42.0,2266.3,848.0999999999999,2249.0,1269.0,Animal_Land_Solid_Small,8.605644666939043,14.62252362491563,1.0,Animal_Land_Solid_Small,4.0,,,,,,,,,,,
encoding,value,1,16506632,16512649,16511664.0,16511874.0,211.0,211.0,2254.1,813.9000000000001,2249.0,1269.0,Animal_Land_Solid_Small,8.605644666939043,14.62252362491563,1.0,Animal_Land_Solid_Small,4.0,,,,,,,,,,,
encoding,value,1,16506632,16512649,16511886.0,16512100.0,215.0,215.0,2171.5,821.7,2249.0,1269.0,Animal_Land_Solid_Small,8.605644666939043,14.62252362491563,1.0,Animal_Land_Solid_Small,4.0,,,,,,,,,,,
encoding,value,1,16506632,16512649,16512113.0,16512384.0,272.0,272.0,2244.1,862.7,2249.0,1269.0,Animal_Land_Solid_Small,8.605644666939043,14.62252362491563,1.0,Animal_Land_Solid_Small,4.0,,,,,,,,,,,
encoding,value,1,16506632,16512649,16512498.0,16513254.0,757.0,151.0,2250.2,873.5,2249.0,1269.0,Animal_Land_Solid_Small,8.605644666939043,14.62252362491563,1.0,Animal_Land_Solid_Small,4.0,,,,,,,,,,,
encoding,attention,1,16512649,16515666,16513279.0,16513367.0,89.0,89.0,2301.1,853.8,2249.0,1269.0,Animal_Land_Solid_Small,14.622633249964563,17.639948625001125,1.0,Animal_Land_Solid_Small,4.0,4.0,1.0,1.1180867919465527,,,,,,,,
encoding,attention,1,16512649,16515666,16513390.0,16513422.0,33.0,33.0,2305.1,840.0,2249.0,1269.0,Animal_Land_Solid_Small,14.622633249964563,17.639948625001125,1.0,Animal_Land_Solid_Small,4.0,4.0,1.0,1.1180867919465527,,,,,,,,
encoding,attention,1,16512649,16515666,16513482.0,16513519.0,38.0,38.0,2305.7,835.2,2249.0,1269.0,Animal_Land_Solid_Small,14.622633249964563,17.639948625001125,1.0,Animal_Land_Solid_Small,4.0,4.0,1.0,1.1180867919465527,,,,,,,,
encoding,attention,1,16512649,16515666,16513527.0,16513593.0,67.0,67.0,2300.9,820.2,2249.0,1269.0,Animal_Land_Solid_Small,14.622633249964563,17.639948625001125,1.0,Animal_Land_Solid_Small,4.0,4.0,1.0,1.1180867919465527,,,,,,,,
encoding,attention,1,16512649,16515666,16513638.0,16513882.0,245.0,245.0,2272.5,847.4000000000001,2249.0,1269.0,Animal_Land_Solid_Small,14.622633249964563,17.639948625001125,1.0,Animal_Land_Solid_Small,4.0,4.0,1.0,1.1180867919465527,,,,,,,,
encoding,attention,1,16512649,16515666,16513937.0,16514180.0,244.0,244.0,2275.7,874.8,2249.0,1269.0,Animal_Land_Solid_Small,14.622633249964563,17.639948625001125,1.0,Animal_Land_Solid_Small,4.0,4.0,1.0,1.1180867919465527,,,,,,,,
encoding,attention,1,16512649,16515666,16514432.0,16514814.0,383.0,383.0,2292.9,932.8,2249.0,1269.0,Animal_Land_Solid_Small,14.622633249964563,17.639948625001125,1.0,Animal_Land_Solid_Small,4.0,4.0,1.0,1.1180867919465527,,,,,,,,
encoding,attention,1,16512649,16515666,16514823.0,16515065.0,243.0,243.0,2311.8,881.4000000000001,2249.0,1269.0,Animal_Land_Solid_Small,14.622633249964563,17.639948625001125,1.0,Animal_Land_Solid_Small,4.0,4.0,1.0,1.1180867919465527,,,,,,,,
encoding,attention,1,16512649,16515666,16515085.0,16515508.0,424.0,424.0,2314.0,862.7,2249.0,1269.0,Animal_Land_Solid_Small,14.622633249964563,17.639948625001125,1.0,Animal_Land_Solid_Small,4.0,4.0,1.0,1.1180867919465527,,,,,,,,
encoding,fixation,2,16515667,16516922,16515743.0,16515871.0,129.0,129.0,2277.3,975.2,2249.0,1269.0,Animal_Land_Solid_Small,17.640109332976863,18.895083499955945,1.0,Object_Land_Pattern_Large,-2.0,,,,,,,,,,,
encoding,fixation,2,16515667,16516922,16515929.0,16516042.0,114.0,114.0,1944.0,1025.0,1920.0,1080.0,fixation,17.640109332976863,18.895083499955945,1.0,Object_Land_Pattern_Large,-2.0,,,,,,,,,,,
encoding,fixation,2,16515667,16516922,16516051.0,16516308.0,258.0,258.0,1949.7,991.3,1920.0,1460.0,Object_Land_Pattern_Large,17.640109332976863,18.895083499955945,1.0,Object_Land_Pattern_Large,-2.0,,,,,,,,,,,
encoding,fixation,2,16515667,16516922,16516323.0,16516378.0,56.0,56.0,1946.3,1000.9000000000001,1920.0,1460.0,Object_Land_Pattern_Large,17.640109332976863,18.895083499955945,1.0,Object_Land_Pattern_Large,-2.0,,,,,,,,,,,
encoding,fixation,2,16515667,16516922,16516441.0,16516482.0,42.0,42.0,1943.3,1000.0999999999999,1920.0,1460.0,Object_Land_Pattern_Large,17.640109332976863,18.895083499955945,1.0,Object_Land_Pattern_Large,-2.0,,,,,,,,,,,
encoding,fixation,2,16515667,16516922,16516489.0,16516546.0,58.0,58.0,1940.3,998.9000000000001,1920.0,1460.0,Object_Land_Pattern_Large,17.640109332976863,18.895083499955945,1.0,Object_Land_Pattern_Large,-2.0,,,,,,,,,,,
encoding,fixation,2,16515667,16516922,16516594.0,16516910.0,317.0,317.0,1947.8,1014.2,1920.0,1460.0,Object_Land_Pattern_Large,17.640109332976863,18.895083499955945,1.0,Object_Land_Pattern_Large,-2.0,,,,,,,,,,,
encoding,image,2,16516922,16517934,16516933.0,16516996.0,64.0,64.0,1944.8,1042.8,1920.0,1080.0,fixation,18.895188791910183,19.907240374945104,1.0,Object_Land_Pattern_Large,-2.0,,,,,,,,,,,
encoding,image,2,16516922,16517934,16517097.0,16517124.0,28.0,28.0,1932.0,1047.6,1920.0,1080.0,fixation,18.895188791910183,19.907240374945104,1.0,Object_Land_Pattern_Large,-2.0,,,,,,,,,,,
encoding,image,2,16516922,16517934,16517221.0,16517406.0,186.0,186.0,1922.3,741.2,1920.0,1460.0,Object_Land_Pattern_Large,18.895188791910183,19.907240374945104,1.0,Object_Land_Pattern_Large,-2.0,,,,,,,,,,,
encoding,image,2,16516922,16517934,16517500.0,16517573.0,74.0,74.0,1940.4,721.5,1920.0,1460.0,Object_Land_Pattern_Large,18.895188791910183,19.907240374945104,1.0,Object_Land_Pattern_Large,-2.0,,,,,,,,,,,
encoding,image,2,16516922,16517934,16517582.0,16517740.0,159.0,159.0,1944.8,722.0,1920.0,1460.0,Object_Land_Pattern_Large,18.895188791910183,19.907240374945104,1.0,Object_Land_Pattern_Large,-2.0,,,,,,,,,,,
encoding,image,2,16516922,16517934,16517761.0,16517842.0,82.0,82.0,1921.5,742.3,1920.0,1460.0,Object_Land_Pattern_Large,18.895188791910183,19.907240374945104,1.0,Object_Land_Pattern_Large,-2.0,,,,,,,,,,,
encoding,image,2,16516922,16517934,16517869.0,16517898.0,30.0,30.0,1918.3,738.5,1920.0,1460.0,Object_Land_Pattern_Large,18.895188791910183,19.907240374945104,1.0,Object_Land_Pattern_Large,-2.0,,,,,,,,,,,
encoding,image,2,16516922,16517934,16517919.0,16517951.0,33.0,15.0,1920.1,741.2,1920.0,1460.0,Object_Land_Pattern_Large,18.895188791910183,19.907240374945104,1.0,Object_Land_Pattern_Large,-2.0,,,,,,,,,,,
encoding,value,2,16517934,16523947,16518027.0,16518080.0,54.0,54.0,1913.4,750.3,1920.0,1460.0,Object_Land_Pattern_Large,19.90734883293044,25.920286999898963,1.0,Object_Land_Pattern_Large,-2.0,,,,,,,,,,,
encoding,value,2,16517934,16523947,16518144.0,16518292.0,149.0,149.0,1915.2,732.8,1920.0,1460.0,Object_Land_Pattern_Large,19.90734883293044,25.920286999898963,1.0,Object_Land_Pattern_Large,-2.0,,,,,,,,,,,
encoding,value,2,16517934,16523947,16518312.0,16518395.0,84.0,84.0,1944.1,733.9000000000001,1920.0,1460.0,Object_Land_Pattern_Large,19.90734883293044,25.920286999898963,1.0,Object_Land_Pattern_Large,-2.0,,,,,,,,,,,
encoding,value,2,16517934,16523947,16518444.0,16518519.0,76.0,76.0,1958.8,728.0999999999999,1920.0,1460.0,Object_Land_Pattern_Large,19.90734883293044,25.920286999898963,1.0,Object_Land_Pattern_Large,-2.0,,,,,,,,,,,
encoding,value,2,16517934,16523947,16518756.0,16518843.0,88.0,88.0,1975.1,713.2,1920.0,1460.0,Object_Land_Pattern_Large,19.90734883293044,25.920286999898963,1.0,Object_Land_Pattern_Large,-2.0,,,,,,,,,,,
encoding,value,2,16517934,16523947,16518851.0,16518966.0,116.0,116.0,1924.9,705.5,1920.0,1460.0,Object_Land_Pattern_Large,19.90734883293044,25.920286999898963,1.0,Object_Land_Pattern_Large,-2.0,,,,,,,,,,,
encoding,value,2,16517934,16523947,16518977.0,16519074.0,98.0,98.0,1920.3,700.0,1920.0,1460.0,Object_Land_Pattern_Large,19.90734883293044,25.920286999898963,1.0,Object_Land_Pattern_Large,-2.0,,,,,,,,,,,
encoding,value,2,16517934,16523947,16519106.0,16519519.0,414.0,414.0,1971.2,753.5,1920.0,1460.0,Object_Land_Pattern_Large,19.90734883293044,25.920286999898963,1.0,Object_Land_Pattern_Large,-2.0,,,,,,,,,,,
encoding,value,2,16517934,16523947,16519761.0,16519996.0,236.0,236.0,1951.9,731.3,1920.0,1460.0,Object_Land_Pattern_Large,19.90734883293044,25.920286999898963,1.0,Object_Land_Pattern_Large,-2.0,,,,,,,,,,,
encoding,value,2,16517934,16523947,16520067.0,16520162.0,96.0,96.0,1946.9,728.5999999999999,1920.0,1460.0,Object_Land_Pattern_Large,19.90734883293044,25.920286999898963,1.0,Object_Land_Pattern_Large,-2.0,,,,,,,,,,,
encoding,value,2,16517934,16523947,16520174.0,16520255.0,82.0,82.0,1950.1,737.7,1920.0,1460.0,Object_Land_Pattern_Large,19.90734883293044,25.920286999898963,1.0,Object_Land_Pattern_Large,-2.0,,,,,,,,,,,
encoding,value,2,16517934,16523947,16520286.0,16520324.0,39.0,39.0,1981.3,755.4000000000001,1920.0,1460.0,Object_Land_Pattern_Large,19.90734883293044,25.920286999898963,1.0,Object_Land_Pattern_Large,-2.0,,,,,,,,,,,
encoding,value,2,16517934,16523947,16520353.0,16520557.0,205.0,205.0,1986.1,746.0,1920.0,1460.0,Object_Land_Pattern_Large,19.90734883293044,25.920286999898963,1.0,Object_Land_Pattern_Large,-2.0,,,,,,,,,,,
encoding,value,2,16517934,16523947,16520577.0,16520832.0,256.0,256.0,1979.4,744.0999999999999,1920.0,1460.0,Object_Land_Pattern_Large,19.90734883293044,25.920286999898963,1.0,Object_Land_Pattern_Large,-2.0,,,,,,,,,,,
encoding,value,2,16517934,16523947,16520861.0,16520926.0,66.0,66.0,1980.9,750.0,1920.0,1460.0,Object_Land_Pattern_Large,19.90734883293044,25.920286999898963,1.0,Object_Land_Pattern_Large,-2.0,,,,,,,,,,,
encoding,value,2,16517934,16523947,16520990.0,16521067.0,78.0,78.0,1981.4,759.5999999999999,1920.0,1460.0,Object_Land_Pattern_Large,19.90734883293044,25.920286999898963,1.0,Object_Land_Pattern_Large,-2.0,,,,,,,,,,,
encoding,value,2,16517934,16523947,16521134.0,16521933.0,800.0,800.0,1949.6,731.8,1920.0,1460.0,Object_Land_Pattern_Large,19.90734883293044,25.920286999898963,1.0,Object_Land_Pattern_Large,-2.0,,,,,,,,,,,
encoding,value,2,16517934,16523947,16522366.0,16522417.0,52.0,52.0,1933.6,613.5999999999999,1920.0,1460.0,Object_Land_Pattern_Large,19.90734883293044,25.920286999898963,1.0,Object_Land_Pattern_Large,-2.0,,,,,,,,,,,
encoding,value,2,16517934,16523947,16522523.0,16523116.0,594.0,594.0,1930.2,726.8,1920.0,1460.0,Object_Land_Pattern_Large,19.90734883293044,25.920286999898963,1.0,Object_Land_Pattern_Large,-2.0,,,,,,,,,,,
encoding,value,2,16517934,16523947,16523133.0,16523179.0,47.0,47.0,1956.7,686.0,1920.0,1460.0,Object_Land_Pattern_Large,19.90734883293044,25.920286999898963,1.0,Object_Land_Pattern_Large,-2.0,,,,,,,,,,,
encoding,value,2,16517934,16523947,16523195.0,16523393.0,199.0,199.0,1963.3,690.8,1920.0,1460.0,Object_Land_Pattern_Large,19.90734883293044,25.920286999898963,1.0,Object_Land_Pattern_Large,-2.0,,,,,,,,,,,
encoding,value,2,16517934,16523947,16523444.0,16523892.0,449.0,449.0,1946.9,680.8,1920.0,1460.0,Object_Land_Pattern_Large,19.90734883293044,25.920286999898963,1.0,Object_Land_Pattern_Large,-2.0,,,,,,,,,,,
encoding,value,2,16517934,16523947,16523920.0,16524528.0,609.0,27.0,1946.0,681.4000000000001,1920.0,1460.0,Object_Land_Pattern_Large,19.90734883293044,25.920286999898963,1.0,Object_Land_Pattern_Large,-2.0,,,,,,,,,,,
encoding,attention,2,16523947,16526967,16524534.0,16525247.0,714.0,714.0,1922.0,682.9000000000001,1920.0,1460.0,Object_Land_Pattern_Large,25.92039695789572,28.93971999990754,1.0,Object_Land_Pattern_Large,-2.0,-2.0,1.0,1.0443737920140848,,,,,,,,
encoding,attention,2,16523947,16526967,16525590.0,16526087.0,498.0,498.0,1910.9,711.3,1920.0,1460.0,Object_Land_Pattern_Large,25.92039695789572,28.93971999990754,1.0,Object_Land_Pattern_Large,-2.0,-2.0,1.0,1.0443737920140848,,,,,,,,
encoding,attention,2,16523947,16526967,16526102.0,16526387.0,286.0,286.0,1972.8,728.2,1920.0,1460.0,Object_Land_Pattern_Large,25.92039695789572,28.93971999990754,1.0,Object_Land_Pattern_Large,-2.0,-2.0,1.0,1.0443737920140848,,,,,,,,
encoding,attention,2,16523947,16526967,16526399.0,16526471.0,73.0,73.0,1979.5,729.5,1920.0,1460.0,Object_Land_Pattern_Large,25.92039695789572,28.93971999990754,1.0,Object_Land_Pattern_Large,-2.0,-2.0,1.0,1.0443737920140848,,,,,,,,
encoding,attention,2,16523947,16526967,16526482.0,16526537.0,56.0,56.0,1921.8,719.0999999999999,1920.0,1460.0,Object_Land_Pattern_Large,25.92039695789572,28.93971999990754,1.0,Object_Land_Pattern_Large,-2.0,-2.0,1.0,1.0443737920140848,,,,,,,,
encoding,attention,2,16523947,16526967,16526548.0,16526661.0,114.0,114.0,1923.1,713.8,1920.0,1460.0,Object_Land_Pattern_Large,25.92039695789572,28.93971999990754,1.0,Object_Land_Pattern_Large,-2.0,-2.0,1.0,1.0443737920140848,,,,,,,,
encoding,attention,2,16523947,16526967,16526680.0,16526713.0,34.0,34.0,1923.0,722.7,1920.0,1460.0,Object_Land_Pattern_Large,25.92039695789572,28.93971999990754,1.0,Object_Land_Pattern_Large,-2.0,-2.0,1.0,1.0443737920140848,,,,,,,,
encoding,fixation,3,16526967,16527972,16527257.0,16527752.0,496.0,496.0,1923.3,1037.2,1920.0,1080.0,fixation,28.939863582956605,29.945027791894972,1.0,Animal_Sea_Solid_Large,7.0,,,,,,,,,,,
encoding,fixation,3,16526967,16527972,16527762.0,16527897.0,136.0,136.0,1916.8,1053.4,1920.0,1080.0,fixation,28.939863582956605,29.945027791894972,1.0,Animal_Sea_Solid_Large,7.0,,,,,,,,,,,
encoding,fixation,3,16526967,16527972,16527907.0,16527959.0,53.0,53.0,1914.5,1038.8,1920.0,1080.0,fixation,28.939863582956605,29.945027791894972,1.0,Animal_Sea_Solid_Large,7.0,,,,,,,,,,,
encoding,image,3,16527972,16528984,16527973.0,16528182.0,210.0,210.0,1935.6,1028.2,1920.0,1080.0,fixation,29.94513270794414,30.95674395794049,1.0,Animal_Sea_Solid_Large,7.0,,,,,,,,,,,
encoding,image,3,16527972,16528984,16528214.0,16528870.0,657.0,657.0,2240.5,1221.7,2249.0,891.0,Animal_Sea_Solid_Large,29.94513270794414,30.95674395794049,1.0,Animal_Sea_Solid_Large,7.0,,,,,,,,,,,
encoding,image,3,16527972,16528984,16528887.0,16529170.0,284.0,97.0,2231.9,1214.9,2249.0,891.0,Animal_Sea_Solid_Large,29.94513270794414,30.95674395794049,1.0,Animal_Sea_Solid_Large,7.0,,,,,,,,,,,
encoding,value,3,16528984,16534997,16529192.0,16529282.0,91.0,91.0,2274.9,1119.6,2249.0,891.0,Animal_Sea_Solid_Large,30.95686583290808,36.969216333003715,1.0,Animal_Sea_Solid_Large,7.0,,,,,,,,,,,
encoding,value,3,16528984,16534997,16529301.0,16529352.0,52.0,52.0,2271.7,1122.8,2249.0,891.0,Animal_Sea_Solid_Large,30.95686583290808,36.969216333003715,1.0,Animal_Sea_Solid_Large,7.0,,,,,,,,,,,
encoding,value,3,16528984,16534997,16529667.0,16529689.0,23.0,23.0,2237.6,1219.6,2249.0,891.0,Animal_Sea_Solid_Large,30.95686583290808,36.969216333003715,1.0,Animal_Sea_Solid_Large,7.0,,,,,,,,,,,
encoding,value,3,16528984,16534997,16529719.0,16531615.0,1897.0,1897.0,2271.8,1132.3,2249.0,891.0,Animal_Sea_Solid_Large,30.95686583290808,36.969216333003715,1.0,Animal_Sea_Solid_Large,7.0,,,,,,,,,,,
encoding,value,3,16528984,16534997,16531627.0,16532478.0,852.0,852.0,2274.4,1128.2,2249.0,891.0,Animal_Sea_Solid_Large,30.95686583290808,36.969216333003715,1.0,Animal_Sea_Solid_Large,7.0,,,,,,,,,,,
encoding,value,3,16528984,16534997,16532530.0,16532700.0,171.0,171.0,2256.8,1140.5,2249.0,891.0,Animal_Sea_Solid_Large,30.95686583290808,36.969216333003715,1.0,Animal_Sea_Solid_Large,7.0,,,,,,,,,,,
encoding,value,3,16528984,16534997,16532727.0,16532806.0,80.0,80.0,2230.6,1150.2,2249.0,891.0,Animal_Sea_Solid_Large,30.95686583290808,36.969216333003715,1.0,Animal_Sea_Solid_Large,7.0,,,,,,,,,,,
encoding,value,3,16528984,16534997,16533036.0,16534034.0,999.0,999.0,2261.6,1156.9,2249.0,891.0,Animal_Sea_Solid_Large,30.95686583290808,36.969216333003715,1.0,Animal_Sea_Solid_Large,7.0,,,,,,,,,,,
encoding,value,3,16528984,16534997,16534054.0,16534154.0,101.0,101.0,2241.1,1174.1,2249.0,891.0,Animal_Sea_Solid_Large,30.95686583290808,36.969216333003715,1.0,Animal_Sea_Solid_Large,7.0,,,,,,,,,,,
encoding,value,3,16528984,16534997,16534369.0,16534615.0,247.0,247.0,2282.0,1103.1,2249.0,891.0,Animal_Sea_Solid_Large,30.95686583290808,36.969216333003715,1.0,Animal_Sea_Solid_Large,7.0,,,,,,,,,,,
encoding,value,3,16528984,16534997,16534623.0,16534839.0,217.0,217.0,2281.6,1107.4,2249.0,891.0,Animal_Sea_Solid_Large,30.95686583290808,36.969216333003715,1.0,Animal_Sea_Solid_Large,7.0,,,,,,,,,,,
encoding,attention,3,16534997,16538017,16535026.0,16535115.0,90.0,90.0,2275.6,1220.8,2249.0,891.0,Animal_Sea_Solid_Large,36.969359124894254,39.98920379194897,1.0,Animal_Sea_Solid_Large,7.0,7.0,1.0,0.6337350839748979,,,,,,,,
encoding,attention,3,16534997,16538017,16535167.0,16535336.0,170.0,170.0,2281.3,1190.2,2249.0,891.0,Animal_Sea_Solid_Large,36.969359124894254,39.98920379194897,1.0,Animal_Sea_Solid_Large,7.0,7.0,1.0,0.6337350839748979,,,,,,,,
encoding,attention,3,16534997,16538017,16535434.0,16535468.0,35.0,35.0,2317.2,1162.3,2249.0,891.0,Animal_Sea_Solid_Large,36.969359124894254,39.98920379194897,1.0,Animal_Sea_Solid_Large,7.0,7.0,1.0,0.6337350839748979,,,,,,,,
encoding,attention,3,16534997,16538017,16535485.0,16535552.0,68.0,68.0,2320.3,1147.7,2249.0,891.0,Animal_Sea_Solid_Large,36.969359124894254,39.98920379194897,1.0,Animal_Sea_Solid_Large,7.0,7.0,1.0,0.6337350839748979,,,,,,,,
encoding,attention,3,16534997,16538017,16535716.0,16535814.0,99.0,99.0,2319.1,1157.9,2249.0,891.0,Animal_Sea_Solid_Large,36.969359124894254,39.98920379194897,1.0,Animal_Sea_Solid_Large,7.0,7.0,1.0,0.6337350839748979,,,,,,,,
encoding,attention,3,16534997,16538017,16535863.0,16536070.0,208.0,208.0,2313.9,1173.8,2249.0,891.0,Animal_Sea_Solid_Large,36.969359124894254,39.98920379194897,1.0,Animal_Sea_Solid_Large,7.0,7.0,1.0,0.6337350839748979,,,,,,,,
encoding,attention,3,16534997,16538017,16536108.0,16536232.0,125.0,125.0,2238.1,1213.3,2249.0,891.0,Animal_Sea_Solid_Large,36.969359124894254,39.98920379194897,1.0,Animal_Sea_Solid_Large,7.0,7.0,1.0,0.6337350839748979,,,,,,,,
encoding,attention,3,16534997,16538017,16536324.0,16536384.0,61.0,61.0,2247.4,1211.6,2249.0,891.0,Animal_Sea_Solid_Large,36.969359124894254,39.98920379194897,1.0,Animal_Sea_Solid_Large,7.0,7.0,1.0,0.6337350839748979,,,,,,,,
encoding,attention,3,16534997,16538017,16536401.0,16536436.0,36.0,36.0,2244.9,1215.7,2249.0,891.0,Animal_Sea_Solid_Large,36.969359124894254,39.98920379194897,1.0,Animal_Sea_Solid_Large,7.0,7.0,1.0,0.6337350839748979,,,,,,,,
encoding,attention,3,16534997,16538017,16536685.0,16536713.0,29.0,29.0,2243.8,1199.7,2249.0,891.0,Animal_Sea_Solid_Large,36.969359124894254,39.98920379194897,1.0,Animal_Sea_Solid_Large,7.0,7.0,1.0,0.6337350839748979,,,,,,,,
encoding,attention,3,16534997,16538017,16536819.0,16537066.0,248.0,248.0,2239.3,1218.5,2249.0,891.0,Animal_Sea_Solid_Large,36.969359124894254,39.98920379194897,1.0,Animal_Sea_Solid_Large,7.0,7.0,1.0,0.6337350839748979,,,,,,,,
encoding,attention,3,16534997,16538017,16537175.0,16537195.0,21.0,21.0,1936.4,1113.5,1920.0,1080.0,fixation,36.969359124894254,39.98920379194897,1.0,Animal_Sea_Solid_Large,7.0,7.0,1.0,0.6337350839748979,,,,,,,,
encoding,attention,3,16534997,16538017,16537476.0,16537509.0,34.0,34.0,1936.0,1095.2,1920.0,1080.0,fixation,36.969359124894254,39.98920379194897,1.0,Animal_Sea_Solid_Large,7.0,7.0,1.0,0.6337350839748979,,,,,,,,
encoding,fixation,4,16538017,16538522,16538127.0,16538152.0,26.0,26.0,1944.1,1111.6,1920.0,1080.0,fixation,39.98936041700654,40.49441162496805,1.0,Object_Sea_Solid_Small,-9.0,,,,,,,,,,,
encoding,fixation,4,16538017,16538522,16538248.0,16538275.0,28.0,28.0,1941.8,1099.1,1920.0,1080.0,fixation,39.98936041700654,40.49441162496805,1.0,Object_Sea_Solid_Small,-9.0,,,,,,,,,,,
encoding,image,4,16538522,16539532,,,,,,,,,none,40.494524249923415,41.50465399993118,1.0,Object_Sea_Solid_Small,-9.0,,,,,,,,,,,
encoding,value,4,16539532,16545545,16539725.0,16539768.0,44.0,44.0,1583.3,949.4000000000001,1591.0,1269.0,Object_Sea_Solid_Small,41.504776374902576,47.51696566690225,1.0,Object_Sea_Solid_Small,-9.0,,,,,,,,,,,
encoding,value,4,16539532,16545545,16540108.0,16540147.0,40.0,40.0,1604.9,739.5,1591.0,1269.0,Object_Sea_Solid_Small,41.504776374902576,47.51696566690225,1.0,Object_Sea_Solid_Small,-9.0,,,,,,,,,,,
encoding,value,4,16539532,16545545,16540208.0,16540583.0,376.0,376.0,1611.3,869.8,1591.0,1269.0,Object_Sea_Solid_Small,41.504776374902576,47.51696566690225,1.0,Object_Sea_Solid_Small,-9.0,,,,,,,,,,,
encoding,value,4,16539532,16545545,16540600.0,16540831.0,232.0,232.0,1600.9,858.2,1591.0,1269.0,Object_Sea_Solid_Small,41.504776374902576,47.51696566690225,1.0,Object_Sea_Solid_Small,-9.0,,,,,,,,,,,
encoding,value,4,16539532,16545545,16540849.0,16540969.0,121.0,121.0,1556.1,940.5999999999999,1591.0,1269.0,Object_Sea_Solid_Small,41.504776374902576,47.51696566690225,1.0,Object_Sea_Solid_Small,-9.0,,,,,,,,,,,
encoding,value,4,16539532,16545545,16541009.0,16541046.0,38.0,38.0,1554.2,947.5,1591.0,1269.0,Object_Sea_Solid_Small,41.504776374902576,47.51696566690225,1.0,Object_Sea_Solid_Small,-9.0,,,,,,,,,,,
encoding,value,4,16539532,16545545,16541098.0,16541204.0,107.0,107.0,1599.5,982.4000000000001,1591.0,1269.0,Object_Sea_Solid_Small,41.504776374902576,47.51696566690225,1.0,Object_Sea_Solid_Small,-9.0,,,,,,,,,,,
encoding,value,4,16539532,16545545,16541587.0,16541611.0,25.0,25.0,1691.7,965.4000000000001,1591.0,1269.0,Object_Sea_Solid_Small,41.504776374902576,47.51696566690225,1.0,Object_Sea_Solid_Small,-9.0,,,,,,,,,,,
encoding,value,4,16539532,16545545,16541659.0,16541954.0,296.0,296.0,1626.7,954.5999999999999,1591.0,1269.0,Object_Sea_Solid_Small,41.504776374902576,47.51696566690225,1.0,Object_Sea_Solid_Small,-9.0,,,,,,,,,,,
encoding,value,4,16539532,16545545,16542019.0,16542048.0,30.0,30.0,1565.8,931.4000000000001,1591.0,1269.0,Object_Sea_Solid_Small,41.504776374902576,47.51696566690225,1.0,Object_Sea_Solid_Small,-9.0,,,,,,,,,,,
encoding,value,4,16539532,16545545,16542062.0,16542090.0,29.0,29.0,1566.3,922.4000000000001,1591.0,1269.0,Object_Sea_Solid_Small,41.504776374902576,47.51696566690225,1.0,Object_Sea_Solid_Small,-9.0,,,,,,,,,,,
encoding,value,4,16539532,16545545,16542149.0,16542178.0,30.0,30.0,1560.7,945.2,1591.0,1269.0,Object_Sea_Solid_Small,41.504776374902576,47.51696566690225,1.0,Object_Sea_Solid_Small,-9.0,,,,,,,,,,,
encoding,value,4,16539532,16545545,16542239.0,16542406.0,168.0,168.0,1554.0,954.9000000000001,1591.0,1269.0,Object_Sea_Solid_Small,41.504776374902576,47.51696566690225,1.0,Object_Sea_Solid_Small,-9.0,,,,,,,,,,,
encoding,value,4,16539532,16545545,16542453.0,16542578.0,126.0,126.0,1608.8,927.3,1591.0,1269.0,Object_Sea_Solid_Small,41.504776374902576,47.51696566690225,1.0,Object_Sea_Solid_Small,-9.0,,,,,,,,,,,
encoding,value,4,16539532,16545545,16542701.0,16542736.0,36.0,36.0,1633.2,904.0999999999999,1591.0,1269.0,Object_Sea_Solid_Small,41.504776374902576,47.51696566690225,1.0,Object_Sea_Solid_Small,-9.0,,,,,,,,,,,
encoding,value,4,16539532,16545545,16542776.0,16542841.0,66.0,66.0,1631.0,897.8,1591.0,1269.0,Object_Sea_Solid_Small,41.504776374902576,47.51696566690225,1.0,Object_Sea_Solid_Small,-9.0,,,,,,,,,,,
encoding,value,4,16539532,16545545,16543023.0,16543072.0,50.0,50.0,1636.2,901.2,1591.0,1269.0,Object_Sea_Solid_Small,41.504776374902576,47.51696566690225,1.0,Object_Sea_Solid_Small,-9.0,,,,,,,,,,,
encoding,value,4,16539532,16545545,16543137.0,16543178.0,42.0,42.0,1642.1,904.0,1591.0,1269.0,Object_Sea_Solid_Small,41.504776374902576,47.51696566690225,1.0,Object_Sea_Solid_Small,-9.0,,,,,,,,,,,
encoding,value,4,16539532,16545545,16543193.0,16543230.0,38.0,38.0,1630.5,917.5999999999999,1591.0,1269.0,Object_Sea_Solid_Small,41.504776374902576,47.51696566690225,1.0,Object_Sea_Solid_Small,-9.0,,,,,,,,,,,
encoding,value,4,16539532,16545545,16543542.0,16543599.0,58.0,58.0,1607.2,845.5,1591.0,1269.0,Object_Sea_Solid_Small,41.504776374902576,47.51696566690225,1.0,Object_Sea_Solid_Small,-9.0,,,,,,,,,,,
encoding,value,4,16539532,16545545,16543611.0,16543726.0,116.0,116.0,1605.5,905.0,1591.0,1269.0,Object_Sea_Solid_Small,41.504776374902576,47.51696566690225,1.0,Object_Sea_Solid_Small,-9.0,,,,,,,,,,,
encoding,value,4,16539532,16545545,16544006.0,16544026.0,21.0,21.0,1597.5,945.8,1591.0,1269.0,Object_Sea_Solid_Small,41.504776374902576,47.51696566690225,1.0,Object_Sea_Solid_Small,-9.0,,,,,,,,,,,
encoding,value,4,16539532,16545545,16544350.0,16544382.0,33.0,33.0,1638.5,933.3,1591.0,1269.0,Object_Sea_Solid_Small,41.504776374902576,47.51696566690225,1.0,Object_Sea_Solid_Small,-9.0,,,,,,,,,,,
encoding,value,4,16539532,16545545,16544657.0,16544723.0,67.0,67.0,1636.9,903.8,1591.0,1269.0,Object_Sea_Solid_Small,41.504776374902576,47.51696566690225,1.0,Object_Sea_Solid_Small,-9.0,,,,,,,,,,,
encoding,value,4,16539532,16545545,16544925.0,16544966.0,42.0,42.0,1635.4,903.5,1591.0,1269.0,Object_Sea_Solid_Small,41.504776374902576,47.51696566690225,1.0,Object_Sea_Solid_Small,-9.0,,,,,,,,,,,
encoding,value,4,16539532,16545545,16545022.0,16545051.0,30.0,30.0,2031.8,944.8,2249.0,1269.0,Animal_Land_Solid_Small,41.504776374902576,47.51696566690225,1.0,Object_Sea_Solid_Small,-9.0,,,,,,,,,,,
encoding,value,4,16539532,16545545,16545062.0,16545171.0,110.0,110.0,2034.5,933.9000000000001,2249.0,1269.0,Animal_Land_Solid_Small,41.504776374902576,47.51696566690225,1.0,Object_Sea_Solid_Small,-9.0,,,,,,,,,,,
encoding,value,4,16539532,16545545,16545398.0,16545435.0,38.0,38.0,1572.9,878.0,1591.0,1269.0,Object_Sea_Solid_Small,41.504776374902576,47.51696566690225,1.0,Object_Sea_Solid_Small,-9.0,,,,,,,,,,,
encoding,value,4,16539532,16545545,16545511.0,16545537.0,27.0,27.0,1579.3,937.8,1591.0,1269.0,Object_Sea_Solid_Small,41.504776374902576,47.51696566690225,1.0,Object_Sea_Solid_Small,-9.0,,,,,,,,,,,
encoding,attention,4,16545545,16548563,16545881.0,16545902.0,22.0,22.0,1628.9,817.3,1591.0,1269.0,Object_Sea_Solid_Small,47.51708149991464,50.53550783300307,1.0,Object_Sea_Solid_Small,-9.0,-9.0,1.0,1.2319126250222323,,,,,,,,
encoding,attention,4,16545545,16548563,16546151.0,16546229.0,79.0,79.0,1600.5,862.5,1591.0,1269.0,Object_Sea_Solid_Small,47.51708149991464,50.53550783300307,1.0,Object_Sea_Solid_Small,-9.0,-9.0,1.0,1.2319126250222323,,,,,,,,
encoding,attention,4,16545545,16548563,16546241.0,16546264.0,24.0,24.0,1593.4,873.9000000000001,1591.0,1269.0,Object_Sea_Solid_Small,47.51708149991464,50.53550783300307,1.0,Object_Sea_Solid_Small,-9.0,-9.0,1.0,1.2319126250222323,,,,,,,,
encoding,attention,4,16545545,16548563,16546272.0,16546416.0,145.0,145.0,1591.0,864.9000000000001,1591.0,1269.0,Object_Sea_Solid_Small,47.51708149991464,50.53550783300307,1.0,Object_Sea_Solid_Small,-9.0,-9.0,1.0,1.2319126250222323,,,,,,,,
encoding,attention,4,16545545,16548563,16546482.0,16546602.0,121.0,121.0,1558.6,819.0999999999999,1591.0,1269.0,Object_Sea_Solid_Small,47.51708149991464,50.53550783300307,1.0,Object_Sea_Solid_Small,-9.0,-9.0,1.0,1.2319126250222323,,,,,,,,
encoding,attention,4,16545545,16548563,16546772.0,16546994.0,223.0,223.0,1555.0,836.9000000000001,1591.0,1269.0,Object_Sea_Solid_Small,47.51708149991464,50.53550783300307,1.0,Object_Sea_Solid_Small,-9.0,-9.0,1.0,1.2319126250222323,,,,,,,,
encoding,attention,4,16545545,16548563,16547088.0,16547143.0,56.0,56.0,1573.5,818.2,1591.0,1269.0,Object_Sea_Solid_Small,47.51708149991464,50.53550783300307,1.0,Object_Sea_Solid_Small,-9.0,-9.0,1.0,1.2319126250222323,,,,,,,,
encoding,attention,4,16545545,16548563,16547426.0,16547494.0,69.0,69.0,1601.3,825.0999999999999,1591.0,1269.0,Object_Sea_Solid_Small,47.51708149991464,50.53550783300307,1.0,Object_Sea_Solid_Small,-9.0,-9.0,1.0,1.2319126250222323,,,,,,,,
encoding,attention,4,16545545,16548563,16547501.0,16547586.0,86.0,86.0,1627.1,927.3,1591.0,1269.0,Object_Sea_Solid_Small,47.51708149991464,50.53550783300307,1.0,Object_Sea_Solid_Small,-9.0,-9.0,1.0,1.2319126250222323,,,,,,,,
encoding,attention,4,16545545,16548563,16547662.0,16547763.0,102.0,102.0,1627.4,924.2,1591.0,1269.0,Object_Sea_Solid_Small,47.51708149991464,50.53550783300307,1.0,Object_Sea_Solid_Small,-9.0,-9.0,1.0,1.2319126250222323,,,,,,,,
encoding,attention,4,16545545,16548563,16548101.0,16548170.0,70.0,70.0,1874.5,929.3,1920.0,1460.0,Object_Land_Pattern_Large,47.51708149991464,50.53550783300307,1.0,Object_Sea_Solid_Small,-9.0,-9.0,1.0,1.2319126250222323,,,,,,,,
encoding,attention,4,16545545,16548563,16548324.0,16548349.0,26.0,26.0,1873.9,921.3,1920.0,1460.0,Object_Land_Pattern_Large,47.51708149991464,50.53550783300307,1.0,Object_Sea_Solid_Small,-9.0,-9.0,1.0,1.2319126250222323,,,,,,,,
encoding,attention,4,16545545,16548563,16548457.0,16548519.0,63.0,63.0,1865.8,944.0999999999999,1920.0,1460.0,Object_Land_Pattern_Large,47.51708149991464,50.53550783300307,1.0,Object_Sea_Solid_Small,-9.0,-9.0,1.0,1.2319126250222323,,,,,,,,
encoding,fixation,5,16548564,16549319,16548834.0,16548862.0,29.0,29.0,1922.3,1096.2,1920.0,1080.0,fixation,50.535654624924064,51.29054787498899,1.0,Animal_Land_Pattern_Large,-4.0,,,,,,,,,,,
encoding,fixation,5,16548564,16549319,16549097.0,16549219.0,123.0,123.0,1883.6,1182.0,1920.0,700.0,Object_Sea_Pattern_Small,50.535654624924064,51.29054787498899,1.0,Animal_Land_Pattern_Large,-4.0,,,,,,,,,,,
encoding,fixation,5,16548564,16549319,16549233.0,16549264.0,32.0,32.0,1892.1,1151.5,1920.0,700.0,Object_Sea_Pattern_Small,50.535654624924064,51.29054787498899,1.0,Animal_Land_Pattern_Large,-4.0,,,,,,,,,,,
encoding,fixation,5,16548564,16549319,16549286.0,16549328.0,43.0,33.0,1892.6,1144.0,1920.0,1080.0,fixation,50.535654624924064,51.29054787498899,1.0,Animal_Land_Pattern_Large,-4.0,,,,,,,,,,,
encoding,image,5,16549319,16550330,16549410.0,16549523.0,114.0,114.0,1947.2,1085.2,1920.0,1080.0,fixation,51.29066291695926,52.30168891698122,1.0,Animal_Land_Pattern_Large,-4.0,,,,,,,,,,,
encoding,value,5,16550330,16556342,16550373.0,16550497.0,125.0,125.0,2185.9,1245.5,2249.0,891.0,Animal_Sea_Solid_Large,52.301817082916386,58.31348808296025,1.0,Animal_Land_Pattern_Large,-4.0,,,,,,,,,,,
encoding,value,5,16550330,16556342,16550554.0,16550786.0,233.0,233.0,1577.2,1125.3,1591.0,891.0,Animal_Land_Pattern_Large,52.301817082916386,58.31348808296025,1.0,Animal_Land_Pattern_Large,-4.0,,,,,,,,,,,
encoding,value,5,16550330,16556342,16550796.0,16550884.0,89.0,89.0,1597.3,1116.8,1591.0,891.0,Animal_Land_Pattern_Large,52.301817082916386,58.31348808296025,1.0,Animal_Land_Pattern_Large,-4.0,,,,,,,,,,,
encoding,value,5,16550330,16556342,16550932.0,16551095.0,164.0,164.0,1593.1,1109.3,1591.0,891.0,Animal_Land_Pattern_Large,52.301817082916386,58.31348808296025,1.0,Animal_Land_Pattern_Large,-4.0,,,,,,,,,,,
encoding,value,5,16550330,16556342,16551125.0,16551191.0,67.0,67.0,1590.2,1087.3,1591.0,891.0,Animal_Land_Pattern_Large,52.301817082916386,58.31348808296025,1.0,Animal_Land_Pattern_Large,-4.0,,,,,,,,,,,
encoding,value,5,16550330,16556342,16551461.0,16551513.0,53.0,53.0,1809.3,1165.7,1591.0,891.0,Animal_Land_Pattern_Large,52.301817082916386,58.31348808296025,1.0,Animal_Land_Pattern_Large,-4.0,,,,,,,,,,,
encoding,value,5,16550330,16556342,16551523.0,16551552.0,30.0,30.0,1809.0,1137.8,1591.0,891.0,Animal_Land_Pattern_Large,52.301817082916386,58.31348808296025,1.0,Animal_Land_Pattern_Large,-4.0,,,,,,,,,,,
encoding,value,5,16550330,16556342,16552040.0,16552074.0,35.0,35.0,1584.2,1151.3,1591.0,891.0,Animal_Land_Pattern_Large,52.301817082916386,58.31348808296025,1.0,Animal_Land_Pattern_Large,-4.0,,,,,,,,,,,
encoding,value,5,16550330,16556342,16552187.0,16552214.0,28.0,28.0,1577.9,1178.8,1591.0,891.0,Animal_Land_Pattern_Large,52.301817082916386,58.31348808296025,1.0,Animal_Land_Pattern_Large,-4.0,,,,,,,,,,,
encoding,value,5,16550330,16556342,16552289.0,16552486.0,198.0,198.0,1820.3,1147.7,1591.0,891.0,Animal_Land_Pattern_Large,52.301817082916386,58.31348808296025,1.0,Animal_Land_Pattern_Large,-4.0,,,,,,,,,,,
encoding,value,5,16550330,16556342,16552564.0,16552722.0,159.0,159.0,2070.7,1109.2,2249.0,891.0,Animal_Sea_Solid_Large,52.301817082916386,58.31348808296025,1.0,Animal_Land_Pattern_Large,-4.0,,,,,,,,,,,
encoding,value,5,16550330,16556342,16553053.0,16553075.0,23.0,23.0,1587.8,1175.0,1591.0,891.0,Animal_Land_Pattern_Large,52.301817082916386,58.31348808296025,1.0,Animal_Land_Pattern_Large,-4.0,,,,,,,,,,,
encoding,value,5,16550330,16556342,16553343.0,16553385.0,43.0,43.0,1619.6,1189.3,1591.0,891.0,Animal_Land_Pattern_Large,52.301817082916386,58.31348808296025,1.0,Animal_Land_Pattern_Large,-4.0,,,,,,,,,,,
encoding,value,5,16550330,16556342,16553423.0,16553486.0,64.0,64.0,1628.0,1178.7,1591.0,891.0,Animal_Land_Pattern_Large,52.301817082916386,58.31348808296025,1.0,Animal_Land_Pattern_Large,-4.0,,,,,,,,,,,
encoding,value,5,16550330,16556342,16553778.0,16553802.0,25.0,25.0,1603.0,1135.5,1591.0,891.0,Animal_Land_Pattern_Large,52.301817082916386,58.31348808296025,1.0,Animal_Land_Pattern_Large,-4.0,,,,,,,,,,,
encoding,value,5,16550330,16556342,16553823.0,16553874.0,52.0,52.0,1604.7,1142.7,1591.0,891.0,Animal_Land_Pattern_Large,52.301817082916386,58.31348808296025,1.0,Animal_Land_Pattern_Large,-4.0,,,,,,,,,,,
encoding,value,5,16550330,16556342,16553884.0,16553915.0,32.0,32.0,1628.4,1139.7,1591.0,891.0,Animal_Land_Pattern_Large,52.301817082916386,58.31348808296025,1.0,Animal_Land_Pattern_Large,-4.0,,,,,,,,,,,
encoding,value,5,16550330,16556342,16554002.0,16554055.0,54.0,54.0,1627.2,1139.4,1591.0,891.0,Animal_Land_Pattern_Large,52.301817082916386,58.31348808296025,1.0,Animal_Land_Pattern_Large,-4.0,,,,,,,,,,,
encoding,value,5,16550330,16556342,16554072.0,16554164.0,93.0,93.0,1626.2,1141.8,1591.0,891.0,Animal_Land_Pattern_Large,52.301817082916386,58.31348808296025,1.0,Animal_Land_Pattern_Large,-4.0,,,,,,,,,,,
encoding,value,5,16550330,16556342,16554248.0,16554329.0,82.0,82.0,1622.0,1143.9,1591.0,891.0,Animal_Land_Pattern_Large,52.301817082916386,58.31348808296025,1.0,Animal_Land_Pattern_Large,-4.0,,,,,,,,,,,
encoding,value,5,16550330,16556342,16554593.0,16554651.0,59.0,59.0,1650.9,1219.8,1591.0,891.0,Animal_Land_Pattern_Large,52.301817082916386,58.31348808296025,1.0,Animal_Land_Pattern_Large,-4.0,,,,,,,,,,,
encoding,value,5,16550330,16556342,16554924.0,16554953.0,30.0,30.0,1745.0,987.0,1591.0,1269.0,Object_Sea_Solid_Small,52.301817082916386,58.31348808296025,1.0,Animal_Land_Pattern_Large,-4.0,,,,,,,,,,,
encoding,value,5,16550330,16556342,16555024.0,16555296.0,273.0,273.0,1990.4,795.3,1920.0,1460.0,Object_Land_Pattern_Large,52.301817082916386,58.31348808296025,1.0,Animal_Land_Pattern_Large,-4.0,,,,,,,,,,,
encoding,value,5,16550330,16556342,16555340.0,16555462.0,123.0,123.0,2144.4,818.0,2249.0,1269.0,Animal_Land_Solid_Small,52.301817082916386,58.31348808296025,1.0,Animal_Land_Pattern_Large,-4.0,,,,,,,,,,,
encoding,value,5,16550330,16556342,16555716.0,16555790.0,75.0,75.0,1665.4,1218.0,1591.0,891.0,Animal_Land_Pattern_Large,52.301817082916386,58.31348808296025,1.0,Animal_Land_Pattern_Large,-4.0,,,,,,,,,,,
encoding,value,5,16550330,16556342,16556259.0,16556268.0,10.0,10.0,1783.2,1180.2,1591.0,891.0,Animal_Land_Pattern_Large,52.301817082916386,58.31348808296025,1.0,Animal_Land_Pattern_Large,-4.0,,,,,,,,,,,
encoding,attention,5,16556342,16559360,16556961.0,16556988.0,28.0,28.0,1659.8,1181.4,1591.0,891.0,Animal_Land_Pattern_Large,58.313599874963984,61.331250957911834,1.0,Animal_Land_Pattern_Large,-4.0,-4.0,1.0,0.8574111250927672,,,,,,,,
encoding,attention,5,16556342,16559360,16557155.0,16557268.0,114.0,114.0,1647.2,1180.2,1591.0,891.0,Animal_Land_Pattern_Large,58.313599874963984,61.331250957911834,1.0,Animal_Land_Pattern_Large,-4.0,-4.0,1.0,0.8574111250927672,,,,,,,,
encoding,attention,5,16556342,16559360,16557276.0,16557316.0,41.0,41.0,1646.1,1163.3,1591.0,891.0,Animal_Land_Pattern_Large,58.313599874963984,61.331250957911834,1.0,Animal_Land_Pattern_Large,-4.0,-4.0,1.0,0.8574111250927672,,,,,,,,
encoding,attention,5,16556342,16559360,16557654.0,16557712.0,59.0,59.0,2228.3,1040.2,2249.0,1269.0,Animal_Land_Solid_Small,58.313599874963984,61.331250957911834,1.0,Animal_Land_Pattern_Large,-4.0,-4.0,1.0,0.8574111250927672,,,,,,,,
encoding,attention,5,16556342,16559360,16557768.0,16558002.0,235.0,235.0,2468.9,846.9000000000001,,,none,58.313599874963984,61.331250957911834,1.0,Animal_Land_Pattern_Large,-4.0,-4.0,1.0,0.8574111250927672,,,,,,,,
encoding,attention,5,16556342,16559360,16558026.0,16558204.0,179.0,179.0,2667.3,820.2,,,none,58.313599874963984,61.331250957911834,1.0,Animal_Land_Pattern_Large,-4.0,-4.0,1.0,0.8574111250927672,,,,,,,,
encoding,attention,5,16556342,16559360,16558229.0,16558415.0,187.0,187.0,2941.6,820.3,,,none,58.313599874963984,61.331250957911834,1.0,Animal_Land_Pattern_Large,-4.0,-4.0,1.0,0.8574111250927672,,,,,,,,
encoding,attention,5,16556342,16559360,16558638.0,16558733.0,96.0,96.0,2107.0,1172.3,2249.0,891.0,Animal_Sea_Solid_Large,58.313599874963984,61.331250957911834,1.0,Animal_Land_Pattern_Large,-4.0,-4.0,1.0,0.8574111250927672,,,,,,,,
encoding,attention,5,16556342,16559360,16558749.0,16558799.0,51.0,51.0,2108.1,1119.8,2249.0,891.0,Animal_Sea_Solid_Large,58.313599874963984,61.331250957911834,1.0,Animal_Land_Pattern_Large,-4.0,-4.0,1.0,0.8574111250927672,,,,,,,,
encoding,attention,5,16556342,16559360,16558808.0,16558828.0,21.0,21.0,2107.4,1131.3,2249.0,891.0,Animal_Sea_Solid_Large,58.313599874963984,61.331250957911834,1.0,Animal_Land_Pattern_Large,-4.0,-4.0,1.0,0.8574111250927672,,,,,,,,
encoding,attention,5,16556342,16559360,16558873.0,16559068.0,196.0,196.0,1866.9,1190.3,1920.0,700.0,Object_Sea_Pattern_Small,58.313599874963984,61.331250957911834,1.0,Animal_Land_Pattern_Large,-4.0,-4.0,1.0,0.8574111250927672,,,,,,,,
encoding,fixation,6,16559360,16560865,16559801.0,16559915.0,115.0,115.0,1890.0,771.9000000000001,1920.0,1460.0,Object_Land_Pattern_Large,61.33140841696877,62.83642658300232,1.0,Object_Sea_Pattern_Small,4.0,,,,,,,,,,,
encoding,fixation,6,16559360,16560865,16560343.0,16560630.0,288.0,288.0,2147.5,1223.8,2249.0,891.0,Animal_Sea_Solid_Large,61.33140841696877,62.83642658300232,1.0,Object_Sea_Pattern_Small,4.0,,,,,,,,,,,
encoding,fixation,6,16559360,16560865,16560668.0,16560751.0,84.0,84.0,1840.5,1132.0,1591.0,891.0,Animal_Land_Pattern_Large,61.33140841696877,62.83642658300232,1.0,Object_Sea_Pattern_Small,4.0,,,,,,,,,,,
encoding,fixation,6,16559360,16560865,16560775.0,16560811.0,37.0,37.0,1855.2,1123.9,1591.0,891.0,Animal_Land_Pattern_Large,61.33140841696877,62.83642658300232,1.0,Object_Sea_Pattern_Small,4.0,,,,,,,,,,,
encoding,image,6,16560865,16561876,16560895.0,16561067.0,173.0,173.0,1979.6,1075.6,1920.0,1080.0,fixation,62.83653762494214,63.84755824995227,1.0,Object_Sea_Pattern_Small,4.0,,,,,,,,,,,
encoding,image,6,16560865,16561876,16561127.0,16561287.0,161.0,161.0,1931.0,1365.5,1920.0,700.0,Object_Sea_Pattern_Small,62.83653762494214,63.84755824995227,1.0,Object_Sea_Pattern_Small,4.0,,,,,,,,,,,
encoding,image,6,16560865,16561876,16561325.0,16561464.0,140.0,140.0,1934.9,1421.5,1920.0,700.0,Object_Sea_Pattern_Small,62.83653762494214,63.84755824995227,1.0,Object_Sea_Pattern_Small,4.0,,,,,,,,,,,
encoding,image,6,16560865,16561876,16561471.0,16561578.0,108.0,108.0,1938.4,1427.4,1920.0,700.0,Object_Sea_Pattern_Small,62.83653762494214,63.84755824995227,1.0,Object_Sea_Pattern_Small,4.0,,,,,,,,,,,
encoding,image,6,16560865,16561876,16561614.0,16561854.0,241.0,241.0,1939.4,1413.5,1920.0,700.0,Object_Sea_Pattern_Small,62.83653762494214,63.84755824995227,1.0,Object_Sea_Pattern_Small,4.0,,,,,,,,,,,
encoding,value,6,16561876,16567889,16561877.0,16561942.0,66.0,66.0,1943.9,1411.6,1920.0,700.0,Object_Sea_Pattern_Small,63.84766920795664,69.85975587496068,1.0,Object_Sea_Pattern_Small,4.0,,,,,,,,,,,
encoding,value,6,16561876,16567889,16561956.0,16562014.0,59.0,59.0,1950.9,1398.4,1920.0,700.0,Object_Sea_Pattern_Small,63.84766920795664,69.85975587496068,1.0,Object_Sea_Pattern_Small,4.0,,,,,,,,,,,
encoding,value,6,16561876,16567889,16562032.0,16562111.0,80.0,80.0,1972.4,1417.9,1920.0,700.0,Object_Sea_Pattern_Small,63.84766920795664,69.85975587496068,1.0,Object_Sea_Pattern_Small,4.0,,,,,,,,,,,
encoding,value,6,16561876,16567889,16562167.0,16562197.0,31.0,31.0,1971.0,1422.4,1920.0,700.0,Object_Sea_Pattern_Small,63.84766920795664,69.85975587496068,1.0,Object_Sea_Pattern_Small,4.0,,,,,,,,,,,
encoding,value,6,16561876,16567889,16562281.0,16562389.0,109.0,109.0,1935.4,1315.8,1920.0,700.0,Object_Sea_Pattern_Small,63.84766920795664,69.85975587496068,1.0,Object_Sea_Pattern_Small,4.0,,,,,,,,,,,
encoding,value,6,16561876,16567889,16562672.0,16562707.0,36.0,36.0,1914.0,1368.5,1920.0,700.0,Object_Sea_Pattern_Small,63.84766920795664,69.85975587496068,1.0,Object_Sea_Pattern_Small,4.0,,,,,,,,,,,
encoding,value,6,16561876,16567889,16562821.0,16562900.0,80.0,80.0,1916.3,1360.5,1920.0,700.0,Object_Sea_Pattern_Small,63.84766920795664,69.85975587496068,1.0,Object_Sea_Pattern_Small,4.0,,,,,,,,,,,
encoding,value,6,16561876,16567889,16563145.0,16563229.0,85.0,85.0,2033.8,1240.4,2249.0,891.0,Animal_Sea_Solid_Large,63.84766920795664,69.85975587496068,1.0,Object_Sea_Pattern_Small,4.0,,,,,,,,,,,
encoding,value,6,16561876,16567889,16563333.0,16563520.0,188.0,188.0,1748.6,1114.9,1591.0,891.0,Animal_Land_Pattern_Large,63.84766920795664,69.85975587496068,1.0,Object_Sea_Pattern_Small,4.0,,,,,,,,,,,
encoding,value,6,16561876,16567889,16563526.0,16563584.0,59.0,59.0,1755.2,1118.4,1591.0,891.0,Animal_Land_Pattern_Large,63.84766920795664,69.85975587496068,1.0,Object_Sea_Pattern_Small,4.0,,,,,,,,,,,
encoding,value,6,16561876,16567889,16563632.0,16563661.0,30.0,30.0,1948.1,1240.8,1920.0,700.0,Object_Sea_Pattern_Small,63.84766920795664,69.85975587496068,1.0,Object_Sea_Pattern_Small,4.0,,,,,,,,,,,
encoding,value,6,16561876,16567889,16563671.0,16563921.0,251.0,251.0,1951.1,1252.2,1920.0,700.0,Object_Sea_Pattern_Small,63.84766920795664,69.85975587496068,1.0,Object_Sea_Pattern_Small,4.0,,,,,,,,,,,
encoding,value,6,16561876,16567889,16563930.0,16564088.0,159.0,159.0,1952.5,1322.3,1920.0,700.0,Object_Sea_Pattern_Small,63.84766920795664,69.85975587496068,1.0,Object_Sea_Pattern_Small,4.0,,,,,,,,,,,
encoding,value,6,16561876,16567889,16564122.0,16564181.0,60.0,60.0,1956.8,1332.1,1920.0,700.0,Object_Sea_Pattern_Small,63.84766920795664,69.85975587496068,1.0,Object_Sea_Pattern_Small,4.0,,,,,,,,,,,
encoding,value,6,16561876,16567889,16564200.0,16564589.0,390.0,390.0,1933.3,1333.1,1920.0,700.0,Object_Sea_Pattern_Small,63.84766920795664,69.85975587496068,1.0,Object_Sea_Pattern_Small,4.0,,,,,,,,,,,
encoding,value,6,16561876,16567889,16564935.0,16565036.0,102.0,102.0,1929.8,1316.1,1920.0,700.0,Object_Sea_Pattern_Small,63.84766920795664,69.85975587496068,1.0,Object_Sea_Pattern_Small,4.0,,,,,,,,,,,
encoding,value,6,16561876,16567889,16565114.0,16565149.0,36.0,36.0,1935.6,1297.7,1920.0,700.0,Object_Sea_Pattern_Small,63.84766920795664,69.85975587496068,1.0,Object_Sea_Pattern_Small,4.0,,,,,,,,,,,
encoding,value,6,16561876,16567889,16565231.0,16565357.0,127.0,127.0,2046.7,1266.8,2249.0,891.0,Animal_Sea_Solid_Large,63.84766920795664,69.85975587496068,1.0,Object_Sea_Pattern_Small,4.0,,,,,,,,,,,
encoding,value,6,16561876,16567889,16565766.0,16565865.0,100.0,100.0,2316.6,1193.1,2249.0,891.0,Animal_Sea_Solid_Large,63.84766920795664,69.85975587496068,1.0,Object_Sea_Pattern_Small,4.0,,,,,,,,,,,
encoding,value,6,16561876,16567889,16565873.0,16565917.0,45.0,45.0,2319.9,1210.5,2249.0,891.0,Animal_Sea_Solid_Large,63.84766920795664,69.85975587496068,1.0,Object_Sea_Pattern_Small,4.0,,,,,,,,,,,
encoding,value,6,16561876,16567889,16565956.0,16566128.0,173.0,173.0,2617.5,1117.1,,,none,63.84766920795664,69.85975587496068,1.0,Object_Sea_Pattern_Small,4.0,,,,,,,,,,,
encoding,value,6,16561876,16567889,16566193.0,16566390.0,198.0,198.0,2183.5,1109.7,2249.0,891.0,Animal_Sea_Solid_Large,63.84766920795664,69.85975587496068,1.0,Object_Sea_Pattern_Small,4.0,,,,,,,,,,,
encoding,value,6,16561876,16567889,16566421.0,16566535.0,115.0,115.0,1932.3,1088.3,1920.0,1080.0,fixation,63.84766920795664,69.85975587496068,1.0,Object_Sea_Pattern_Small,4.0,,,,,,,,,,,
encoding,value,6,16561876,16567889,16566565.0,16566949.0,385.0,385.0,1943.1,1119.3,1920.0,1080.0,fixation,63.84766920795664,69.85975587496068,1.0,Object_Sea_Pattern_Small,4.0,,,,,,,,,,,
encoding,value,6,16561876,16567889,16567221.0,16567311.0,91.0,91.0,1947.7,1245.0,1920.0,700.0,Object_Sea_Pattern_Small,63.84766920795664,69.85975587496068,1.0,Object_Sea_Pattern_Small,4.0,,,,,,,,,,,
encoding,value,6,16561876,16567889,16567452.0,16567477.0,26.0,26.0,2035.9,1224.3,2249.0,891.0,Animal_Sea_Solid_Large,63.84766920795664,69.85975587496068,1.0,Object_Sea_Pattern_Small,4.0,,,,,,,,,,,
encoding,value,6,16561876,16567889,16567499.0,16567529.0,31.0,31.0,2036.1,1222.5,2249.0,891.0,Animal_Sea_Solid_Large,63.84766920795664,69.85975587496068,1.0,Object_Sea_Pattern_Small,4.0,,,,,,,,,,,
encoding,value,6,16561876,16567889,16567535.0,16567715.0,181.0,181.0,2032.3,1213.2,2249.0,891.0,Animal_Sea_Solid_Large,63.84766920795664,69.85975587496068,1.0,Object_Sea_Pattern_Small,4.0,,,,,,,,,,,
encoding,value,6,16561876,16567889,16567755.0,16567952.0,198.0,134.0,2268.1,1091.0,2249.0,891.0,Animal_Sea_Solid_Large,63.84766920795664,69.85975587496068,1.0,Object_Sea_Pattern_Small,4.0,,,,,,,,,,,
encoding,attention,6,16567889,16570906,16567996.0,16568094.0,99.0,99.0,2453.1,989.5999999999999,2249.0,1269.0,Animal_Land_Solid_Small,69.85986583295744,72.8772759999847,1.0,Object_Sea_Pattern_Small,4.0,4.0,1.0,1.7534042079932988,,,,,,,,
encoding,attention,6,16567889,16570906,16568178.0,16568391.0,214.0,214.0,1920.0,1328.8,1920.0,700.0,Object_Sea_Pattern_Small,69.85986583295744,72.8772759999847,1.0,Object_Sea_Pattern_Small,4.0,4.0,1.0,1.7534042079932988,,,,,,,,
encoding,attention,6,16567889,16570906,16568401.0,16568594.0,194.0,194.0,1920.4,1327.7,1920.0,700.0,Object_Sea_Pattern_Small,69.85986583295744,72.8772759999847,1.0,Object_Sea_Pattern_Small,4.0,4.0,1.0,1.7534042079932988,,,,,,,,
encoding,attention,6,16567889,16570906,16568604.0,16568694.0,91.0,91.0,1858.4,1308.6,1920.0,700.0,Object_Sea_Pattern_Small,69.85986583295744,72.8772759999847,1.0,Object_Sea_Pattern_Small,4.0,4.0,1.0,1.7534042079932988,,,,,,,,
encoding,attention,6,16567889,16570906,16568712.0,16568742.0,31.0,31.0,1860.3,1305.5,1920.0,700.0,Object_Sea_Pattern_Small,69.85986583295744,72.8772759999847,1.0,Object_Sea_Pattern_Small,4.0,4.0,1.0,1.7534042079932988,,,,,,,,
encoding,attention,6,16567889,16570906,16568759.0,16568792.0,34.0,34.0,1857.8,1305.0,1920.0,700.0,Object_Sea_Pattern_Small,69.85986583295744,72.8772759999847,1.0,Object_Sea_Pattern_Small,4.0,4.0,1.0,1.7534042079932988,,,,,,,,
encoding,attention,6,16567889,16570906,16569244.0,16570001.0,758.0,758.0,1932.9,1335.0,1920.0,700.0,Object_Sea_Pattern_Small,69.85986583295744,72.8772759999847,1.0,Object_Sea_Pattern_Small,4.0,4.0,1.0,1.7534042079932988,,,,,,,,
encoding,attention,6,16567889,16570906,16570283.0,16570330.0,48.0,48.0,2047.7,1285.7,2249.0,891.0,Animal_Sea_Solid_Large,69.85986583295744,72.8772759999847,1.0,Object_Sea_Pattern_Small,4.0,4.0,1.0,1.7534042079932988,,,,,,,,
encoding,attention,6,16567889,16570906,16570403.0,16570658.0,256.0,256.0,1718.3,1024.7,1591.0,1269.0,Object_Sea_Solid_Small,69.85986583295744,72.8772759999847,1.0,Object_Sea_Pattern_Small,4.0,4.0,1.0,1.7534042079932988,,,,,,,,
encoding,attention,6,16567889,16570906,16570798.0,16570822.0,25.0,25.0,1494.2,872.4000000000001,1591.0,1269.0,Object_Sea_Solid_Small,69.85986583295744,72.8772759999847,1.0,Object_Sea_Pattern_Small,4.0,4.0,1.0,1.7534042079932988,,,,,,,,
encoding,fixation,7,16988567,16990072,16988881.0,16988915.0,35.0,35.0,1919.1,1190.8,1920.0,700.0,Animal_Sea_Solid_Small,8.44097633403726,9.946072500082664,2.0,Animal_Sea_Pattern_Large,-1.0,,,,,,,,,,,
encoding,fixation,7,16988567,16990072,16989430.0,16989534.0,105.0,105.0,2067.3,1279.4,2249.0,891.0,Object_Land_Solid_Large,8.44097633403726,9.946072500082664,2.0,Animal_Sea_Pattern_Large,-1.0,,,,,,,,,,,
encoding,image,7,16990072,16991083,16990180.0,16990293.0,114.0,114.0,2005.6,1067.9,2249.0,1269.0,Animal_Sea_Pattern_Large,9.946188125060871,10.957171084010042,2.0,Animal_Sea_Pattern_Large,-1.0,,,,,,,,,,,
encoding,image,7,16990072,16991083,16990327.0,16990537.0,211.0,211.0,2319.3,865.7,2249.0,1269.0,Animal_Sea_Pattern_Large,9.946188125060871,10.957171084010042,2.0,Animal_Sea_Pattern_Large,-1.0,,,,,,,,,,,
encoding,image,7,16990072,16991083,16990546.0,16991321.0,776.0,537.0,2259.1,873.0,2249.0,1269.0,Animal_Sea_Pattern_Large,9.946188125060871,10.957171084010042,2.0,Animal_Sea_Pattern_Large,-1.0,,,,,,,,,,,
encoding,value,7,16991083,16997096,16991335.0,16991436.0,102.0,102.0,2273.3,831.9000000000001,2249.0,1269.0,Animal_Sea_Pattern_Large,10.957285042037256,16.9699814170599,2.0,Animal_Sea_Pattern_Large,-1.0,,,,,,,,,,,
encoding,value,7,16991083,16997096,16991671.0,16991900.0,230.0,230.0,2301.0,983.3,2249.0,1269.0,Animal_Sea_Pattern_Large,10.957285042037256,16.9699814170599,2.0,Animal_Sea_Pattern_Large,-1.0,,,,,,,,,,,
encoding,value,7,16991083,16997096,16992162.0,16992193.0,32.0,32.0,2290.2,914.7,2249.0,1269.0,Animal_Sea_Pattern_Large,10.957285042037256,16.9699814170599,2.0,Animal_Sea_Pattern_Large,-1.0,,,,,,,,,,,
encoding,value,7,16991083,16997096,16992275.0,16992893.0,619.0,619.0,2299.5,880.8,2249.0,1269.0,Animal_Sea_Pattern_Large,10.957285042037256,16.9699814170599,2.0,Animal_Sea_Pattern_Large,-1.0,,,,,,,,,,,
encoding,value,7,16991083,16997096,16993117.0,16993534.0,418.0,418.0,2330.9,916.7,2249.0,1269.0,Animal_Sea_Pattern_Large,10.957285042037256,16.9699814170599,2.0,Animal_Sea_Pattern_Large,-1.0,,,,,,,,,,,
encoding,value,7,16991083,16997096,16993546.0,16993678.0,133.0,133.0,2280.2,914.4000000000001,2249.0,1269.0,Animal_Sea_Pattern_Large,10.957285042037256,16.9699814170599,2.0,Animal_Sea_Pattern_Large,-1.0,,,,,,,,,,,
encoding,value,7,16991083,16997096,16993693.0,16993741.0,49.0,49.0,2275.3,901.8,2249.0,1269.0,Animal_Sea_Pattern_Large,10.957285042037256,16.9699814170599,2.0,Animal_Sea_Pattern_Large,-1.0,,,,,,,,,,,
encoding,value,7,16991083,16997096,16993790.0,16993966.0,177.0,177.0,2268.0,891.5,2249.0,1269.0,Animal_Sea_Pattern_Large,10.957285042037256,16.9699814170599,2.0,Animal_Sea_Pattern_Large,-1.0,,,,,,,,,,,
encoding,value,7,16991083,16997096,16993990.0,16994012.0,23.0,23.0,2263.6,886.5,2249.0,1269.0,Animal_Sea_Pattern_Large,10.957285042037256,16.9699814170599,2.0,Animal_Sea_Pattern_Large,-1.0,,,,,,,,,,,
encoding,value,7,16991083,16997096,16994021.0,16994086.0,66.0,66.0,2315.2,926.4000000000001,2249.0,1269.0,Animal_Sea_Pattern_Large,10.957285042037256,16.9699814170599,2.0,Animal_Sea_Pattern_Large,-1.0,,,,,,,,,,,
encoding,value,7,16991083,16997096,16994151.0,16994570.0,420.0,420.0,2288.9,945.7,2249.0,1269.0,Animal_Sea_Pattern_Large,10.957285042037256,16.9699814170599,2.0,Animal_Sea_Pattern_Large,-1.0,,,,,,,,,,,
encoding,value,7,16991083,16997096,16994661.0,16994844.0,184.0,184.0,2222.2,915.5999999999999,2249.0,1269.0,Animal_Sea_Pattern_Large,10.957285042037256,16.9699814170599,2.0,Animal_Sea_Pattern_Large,-1.0,,,,,,,,,,,
encoding,value,7,16991083,16997096,16995033.0,16995265.0,233.0,233.0,2246.9,925.7,2249.0,1269.0,Animal_Sea_Pattern_Large,10.957285042037256,16.9699814170599,2.0,Animal_Sea_Pattern_Large,-1.0,,,,,,,,,,,
encoding,value,7,16991083,16997096,16995280.0,16995314.0,35.0,35.0,2271.6,846.3,2249.0,1269.0,Animal_Sea_Pattern_Large,10.957285042037256,16.9699814170599,2.0,Animal_Sea_Pattern_Large,-1.0,,,,,,,,,,,
encoding,value,7,16991083,16997096,16995344.0,16995522.0,179.0,179.0,2278.5,838.0999999999999,2249.0,1269.0,Animal_Sea_Pattern_Large,10.957285042037256,16.9699814170599,2.0,Animal_Sea_Pattern_Large,-1.0,,,,,,,,,,,
encoding,value,7,16991083,16997096,16995533.0,16995732.0,200.0,200.0,2280.0,846.2,2249.0,1269.0,Animal_Sea_Pattern_Large,10.957285042037256,16.9699814170599,2.0,Animal_Sea_Pattern_Large,-1.0,,,,,,,,,,,
encoding,value,7,16991083,16997096,16995752.0,16995922.0,171.0,171.0,2270.1,833.5,2249.0,1269.0,Animal_Sea_Pattern_Large,10.957285042037256,16.9699814170599,2.0,Animal_Sea_Pattern_Large,-1.0,,,,,,,,,,,
encoding,value,7,16991083,16997096,16995934.0,16996015.0,82.0,82.0,2264.5,827.5,2249.0,1269.0,Animal_Sea_Pattern_Large,10.957285042037256,16.9699814170599,2.0,Animal_Sea_Pattern_Large,-1.0,,,,,,,,,,,
encoding,value,7,16991083,16997096,16996048.0,16996145.0,98.0,98.0,2268.5,827.4000000000001,2249.0,1269.0,Animal_Sea_Pattern_Large,10.957285042037256,16.9699814170599,2.0,Animal_Sea_Pattern_Large,-1.0,,,,,,,,,,,
encoding,value,7,16991083,16997096,16996156.0,16996413.0,258.0,258.0,2282.5,867.7,2249.0,1269.0,Animal_Sea_Pattern_Large,10.957285042037256,16.9699814170599,2.0,Animal_Sea_Pattern_Large,-1.0,,,,,,,,,,,
encoding,value,7,16991083,16997096,16996675.0,16996886.0,212.0,212.0,2220.3,936.0999999999999,2249.0,1269.0,Animal_Sea_Pattern_Large,10.957285042037256,16.9699814170599,2.0,Animal_Sea_Pattern_Large,-1.0,,,,,,,,,,,
encoding,value,7,16991083,16997096,16996903.0,16996937.0,35.0,35.0,2222.5,898.3,2249.0,1269.0,Animal_Sea_Pattern_Large,10.957285042037256,16.9699814170599,2.0,Animal_Sea_Pattern_Large,-1.0,,,,,,,,,,,
encoding,value,7,16991083,16997096,16996947.0,16997031.0,85.0,85.0,2296.3,901.7,2249.0,1269.0,Animal_Sea_Pattern_Large,10.957285042037256,16.9699814170599,2.0,Animal_Sea_Pattern_Large,-1.0,,,,,,,,,,,
encoding,value,7,16991083,16997096,16997040.0,16997202.0,163.0,56.0,2304.6,877.5999999999999,2249.0,1269.0,Animal_Sea_Pattern_Large,10.957285042037256,16.9699814170599,2.0,Animal_Sea_Pattern_Large,-1.0,,,,,,,,,,,
encoding,attention,7,16997096,17000113,16997294.0,16997363.0,70.0,70.0,2166.0,881.9000000000001,2249.0,1269.0,Animal_Sea_Pattern_Large,16.970101583981887,19.987221125047657,2.0,Animal_Sea_Pattern_Large,-1.0,-1.0,1.0,1.363252375042066,,,,,,,,
encoding,attention,7,16997096,17000113,16997424.0,16998029.0,606.0,606.0,2255.1,828.9000000000001,2249.0,1269.0,Animal_Sea_Pattern_Large,16.970101583981887,19.987221125047657,2.0,Animal_Sea_Pattern_Large,-1.0,-1.0,1.0,1.363252375042066,,,,,,,,
encoding,attention,7,16997096,17000113,16998037.0,16998378.0,342.0,342.0,2213.9,843.5,2249.0,1269.0,Animal_Sea_Pattern_Large,16.970101583981887,19.987221125047657,2.0,Animal_Sea_Pattern_Large,-1.0,-1.0,1.0,1.363252375042066,,,,,,,,
encoding,attention,7,16997096,17000113,16998397.0,16998733.0,337.0,337.0,2212.6,853.0,2249.0,1269.0,Animal_Sea_Pattern_Large,16.970101583981887,19.987221125047657,2.0,Animal_Sea_Pattern_Large,-1.0,-1.0,1.0,1.363252375042066,,,,,,,,
encoding,attention,7,16997096,17000113,16998909.0,16998989.0,81.0,81.0,2247.5,999.7,2249.0,1269.0,Animal_Sea_Pattern_Large,16.970101583981887,19.987221125047657,2.0,Animal_Sea_Pattern_Large,-1.0,-1.0,1.0,1.363252375042066,,,,,,,,
encoding,attention,7,16997096,17000113,16998995.0,16999053.0,59.0,59.0,2241.2,956.2,2249.0,1269.0,Animal_Sea_Pattern_Large,16.970101583981887,19.987221125047657,2.0,Animal_Sea_Pattern_Large,-1.0,-1.0,1.0,1.363252375042066,,,,,,,,
encoding,attention,7,16997096,17000113,16999068.0,16999532.0,465.0,465.0,2235.4,920.0999999999999,2249.0,1269.0,Animal_Sea_Pattern_Large,16.970101583981887,19.987221125047657,2.0,Animal_Sea_Pattern_Large,-1.0,-1.0,1.0,1.363252375042066,,,,,,,,
encoding,attention,7,16997096,17000113,16999745.0,16999840.0,96.0,96.0,2110.7,953.8,2249.0,1269.0,Animal_Sea_Pattern_Large,16.970101583981887,19.987221125047657,2.0,Animal_Sea_Pattern_Large,-1.0,-1.0,1.0,1.363252375042066,,,,,,,,
encoding,fixation,8,17000113,17001368,17000221.0,17000362.0,142.0,142.0,2239.4,944.8,2249.0,1269.0,Animal_Sea_Pattern_Large,19.987363125081178,21.24232929199934,2.0,Object_Sea_Solid_Small,8.0,,,,,,,,,,,
encoding,fixation,8,17000113,17001368,17000468.0,17000529.0,62.0,62.0,1953.4,1085.2,1920.0,1080.0,fixation,19.987363125081178,21.24232929199934,2.0,Object_Sea_Solid_Small,8.0,,,,,,,,,,,
encoding,fixation,8,17000113,17001368,17000779.0,17000818.0,40.0,40.0,1907.5,1079.9,1920.0,1080.0,fixation,19.987363125081178,21.24232929199934,2.0,Object_Sea_Solid_Small,8.0,,,,,,,,,,,
encoding,fixation,8,17000113,17001368,17000840.0,17000893.0,54.0,54.0,1907.5,1047.0,1920.0,1080.0,fixation,19.987363125081178,21.24232929199934,2.0,Object_Sea_Solid_Small,8.0,,,,,,,,,,,
encoding,fixation,8,17000113,17001368,17000922.0,17000954.0,33.0,33.0,1914.6,1012.3,1920.0,1080.0,fixation,19.987363125081178,21.24232929199934,2.0,Object_Sea_Solid_Small,8.0,,,,,,,,,,,
encoding,fixation,8,17000113,17001368,17000963.0,17001612.0,650.0,405.0,1985.9,1009.2,2249.0,1269.0,Animal_Sea_Pattern_Large,19.987363125081178,21.24232929199934,2.0,Object_Sea_Solid_Small,8.0,,,,,,,,,,,
encoding,image,8,17001368,17002378,17001651.0,17001748.0,98.0,98.0,1635.5,835.5,1591.0,1269.0,Object_Sea_Solid_Small,21.24243295902852,22.252045375062153,2.0,Object_Sea_Solid_Small,8.0,,,,,,,,,,,
encoding,image,8,17001368,17002378,17001760.0,17002245.0,486.0,486.0,1637.4,834.8,1591.0,1269.0,Object_Sea_Solid_Small,21.24243295902852,22.252045375062153,2.0,Object_Sea_Solid_Small,8.0,,,,,,,,,,,
encoding,image,8,17001368,17002378,17002255.0,17002370.0,116.0,116.0,1636.3,837.9000000000001,1591.0,1269.0,Object_Sea_Solid_Small,21.24243295902852,22.252045375062153,2.0,Object_Sea_Solid_Small,8.0,,,,,,,,,,,
encoding,value,8,17002378,17008390,17002391.0,17002530.0,140.0,140.0,1633.6,839.5999999999999,1591.0,1269.0,Object_Sea_Solid_Small,22.252164042089134,28.26330650004093,2.0,Object_Sea_Solid_Small,8.0,,,,,,,,,,,
encoding,value,8,17002378,17008390,17002569.0,17002633.0,65.0,65.0,1649.2,790.7,1591.0,1269.0,Object_Sea_Solid_Small,22.252164042089134,28.26330650004093,2.0,Object_Sea_Solid_Small,8.0,,,,,,,,,,,
encoding,value,8,17002378,17008390,17002698.0,17002871.0,174.0,174.0,1650.1,784.4000000000001,1591.0,1269.0,Object_Sea_Solid_Small,22.252164042089134,28.26330650004093,2.0,Object_Sea_Solid_Small,8.0,,,,,,,,,,,
encoding,value,8,17002378,17008390,17003075.0,17003130.0,56.0,56.0,1665.3,862.7,1591.0,1269.0,Object_Sea_Solid_Small,22.252164042089134,28.26330650004093,2.0,Object_Sea_Solid_Small,8.0,,,,,,,,,,,
encoding,value,8,17002378,17008390,17003142.0,17003188.0,47.0,47.0,1662.1,860.7,1591.0,1269.0,Object_Sea_Solid_Small,22.252164042089134,28.26330650004093,2.0,Object_Sea_Solid_Small,8.0,,,,,,,,,,,
encoding,value,8,17002378,17008390,17003461.0,17003517.0,57.0,57.0,1627.6,928.8,1591.0,1269.0,Object_Sea_Solid_Small,22.252164042089134,28.26330650004093,2.0,Object_Sea_Solid_Small,8.0,,,,,,,,,,,
encoding,value,8,17002378,17008390,17003633.0,17003685.0,53.0,53.0,1637.8,918.7,1591.0,1269.0,Object_Sea_Solid_Small,22.252164042089134,28.26330650004093,2.0,Object_Sea_Solid_Small,8.0,,,,,,,,,,,
encoding,value,8,17002378,17008390,17003777.0,17003824.0,48.0,48.0,1638.3,918.8,1591.0,1269.0,Object_Sea_Solid_Small,22.252164042089134,28.26330650004093,2.0,Object_Sea_Solid_Small,8.0,,,,,,,,,,,
encoding,value,8,17002378,17008390,17004106.0,17004240.0,135.0,135.0,1939.4,1006.4000000000001,1920.0,1460.0,Object_Land_Pattern_Small,22.252164042089134,28.26330650004093,2.0,Object_Sea_Solid_Small,8.0,,,,,,,,,,,
encoding,value,8,17002378,17008390,17004319.0,17004370.0,52.0,52.0,1978.0,1049.6,1920.0,1080.0,fixation,22.252164042089134,28.26330650004093,2.0,Object_Sea_Solid_Small,8.0,,,,,,,,,,,
encoding,value,8,17002378,17008390,17004446.0,17004487.0,42.0,42.0,1984.1,1039.8,2249.0,1269.0,Animal_Sea_Pattern_Large,22.252164042089134,28.26330650004093,2.0,Object_Sea_Solid_Small,8.0,,,,,,,,,,,
encoding,value,8,17002378,17008390,17004518.0,17004604.0,87.0,87.0,1984.3,1030.5,2249.0,1269.0,Animal_Sea_Pattern_Large,22.252164042089134,28.26330650004093,2.0,Object_Sea_Solid_Small,8.0,,,,,,,,,,,
encoding,value,8,17002378,17008390,17004689.0,17004719.0,31.0,31.0,1963.1,1062.1,1920.0,1080.0,fixation,22.252164042089134,28.26330650004093,2.0,Object_Sea_Solid_Small,8.0,,,,,,,,,,,
encoding,value,8,17002378,17008390,17004995.0,17005027.0,33.0,33.0,1713.4,906.5,1591.0,1269.0,Object_Sea_Solid_Small,22.252164042089134,28.26330650004093,2.0,Object_Sea_Solid_Small,8.0,,,,,,,,,,,
encoding,value,8,17002378,17008390,17005055.0,17005134.0,80.0,80.0,1717.2,915.7,1591.0,1269.0,Object_Sea_Solid_Small,22.252164042089134,28.26330650004093,2.0,Object_Sea_Solid_Small,8.0,,,,,,,,,,,
encoding,value,8,17002378,17008390,17005596.0,17005732.0,137.0,137.0,1639.9,869.0999999999999,1591.0,1269.0,Object_Sea_Solid_Small,22.252164042089134,28.26330650004093,2.0,Object_Sea_Solid_Small,8.0,,,,,,,,,,,
encoding,value,8,17002378,17008390,17005981.0,17006063.0,83.0,83.0,1638.4,845.7,1591.0,1269.0,Object_Sea_Solid_Small,22.252164042089134,28.26330650004093,2.0,Object_Sea_Solid_Small,8.0,,,,,,,,,,,
encoding,value,8,17002378,17008390,17006166.0,17006191.0,26.0,26.0,1644.9,814.0,1591.0,1269.0,Object_Sea_Solid_Small,22.252164042089134,28.26330650004093,2.0,Object_Sea_Solid_Small,8.0,,,,,,,,,,,
encoding,value,8,17002378,17008390,17006714.0,17006841.0,128.0,128.0,1639.0,814.5,1591.0,1269.0,Object_Sea_Solid_Small,22.252164042089134,28.26330650004093,2.0,Object_Sea_Solid_Small,8.0,,,,,,,,,,,
encoding,value,8,17002378,17008390,17006905.0,17006945.0,41.0,41.0,1673.6,831.0,1591.0,1269.0,Object_Sea_Solid_Small,22.252164042089134,28.26330650004093,2.0,Object_Sea_Solid_Small,8.0,,,,,,,,,,,
encoding,value,8,17002378,17008390,17006980.0,17007075.0,96.0,96.0,1673.4,836.5999999999999,1591.0,1269.0,Object_Sea_Solid_Small,22.252164042089134,28.26330650004093,2.0,Object_Sea_Solid_Small,8.0,,,,,,,,,,,
encoding,value,8,17002378,17008390,17007295.0,17007322.0,28.0,28.0,1634.5,829.8,1591.0,1269.0,Object_Sea_Solid_Small,22.252164042089134,28.26330650004093,2.0,Object_Sea_Solid_Small,8.0,,,,,,,,,,,
encoding,value,8,17002378,17008390,17007359.0,17007410.0,52.0,52.0,1634.3,815.4000000000001,1591.0,1269.0,Object_Sea_Solid_Small,22.252164042089134,28.26330650004093,2.0,Object_Sea_Solid_Small,8.0,,,,,,,,,,,
encoding,value,8,17002378,17008390,17007500.0,17007525.0,26.0,26.0,1633.1,797.2,1591.0,1269.0,Object_Sea_Solid_Small,22.252164042089134,28.26330650004093,2.0,Object_Sea_Solid_Small,8.0,,,,,,,,,,,
encoding,value,8,17002378,17008390,17008184.0,17008281.0,98.0,98.0,1677.7,867.2,1591.0,1269.0,Object_Sea_Solid_Small,22.252164042089134,28.26330650004093,2.0,Object_Sea_Solid_Small,8.0,,,,,,,,,,,
encoding,attention,8,17008390,17011410,17008427.0,17008440.0,14.0,14.0,1630.8,942.4000000000001,1591.0,1269.0,Object_Sea_Solid_Small,28.26342462503817,31.28290295903571,2.0,Object_Sea_Solid_Small,8.0,8.0,1.0,0.883546833996661,,,,,,,,
encoding,attention,8,17008390,17011410,17008595.0,17008604.0,10.0,10.0,1645.2,889.7,1591.0,1269.0,Object_Sea_Solid_Small,28.26342462503817,31.28290295903571,2.0,Object_Sea_Solid_Small,8.0,8.0,1.0,0.883546833996661,,,,,,,,
encoding,attention,8,17008390,17011410,17008921.0,17008995.0,75.0,75.0,1699.0,836.4000000000001,1591.0,1269.0,Object_Sea_Solid_Small,28.26342462503817,31.28290295903571,2.0,Object_Sea_Solid_Small,8.0,8.0,1.0,0.883546833996661,,,,,,,,
encoding,attention,8,17008390,17011410,17009753.0,17009787.0,35.0,35.0,1670.2,841.8,1591.0,1269.0,Object_Sea_Solid_Small,28.26342462503817,31.28290295903571,2.0,Object_Sea_Solid_Small,8.0,8.0,1.0,0.883546833996661,,,,,,,,
encoding,attention,8,17008390,17011410,17009843.0,17009973.0,131.0,131.0,1647.0,880.5,1591.0,1269.0,Object_Sea_Solid_Small,28.26342462503817,31.28290295903571,2.0,Object_Sea_Solid_Small,8.0,8.0,1.0,0.883546833996661,,,,,,,,
encoding,attention,8,17008390,17011410,17010083.0,17010126.0,44.0,44.0,1665.8,829.7,1591.0,1269.0,Object_Sea_Solid_Small,28.26342462503817,31.28290295903571,2.0,Object_Sea_Solid_Small,8.0,8.0,1.0,0.883546833996661,,,,,,,,
encoding,attention,8,17008390,17011410,17010172.0,17010201.0,30.0,30.0,1668.2,811.3,1591.0,1269.0,Object_Sea_Solid_Small,28.26342462503817,31.28290295903571,2.0,Object_Sea_Solid_Small,8.0,8.0,1.0,0.883546833996661,,,,,,,,
encoding,attention,8,17008390,17011410,17011108.0,17011172.0,65.0,65.0,1671.8,829.5999999999999,1591.0,1269.0,Object_Sea_Solid_Small,28.26342462503817,31.28290295903571,2.0,Object_Sea_Solid_Small,8.0,8.0,1.0,0.883546833996661,,,,,,,,
encoding,fixation,9,17011410,17012666,17011463.0,17011979.0,517.0,517.0,2315.3,963.8,2249.0,1269.0,Animal_Sea_Pattern_Large,31.283053959021345,32.53915362502448,2.0,Object_Land_Solid_Large,7.0,,,,,,,,,,,
encoding,fixation,9,17011410,17012666,17012199.0,17012264.0,66.0,66.0,1802.9,1032.3,1591.0,1269.0,Object_Sea_Solid_Small,31.283053959021345,32.53915362502448,2.0,Object_Land_Solid_Large,7.0,,,,,,,,,,,
encoding,fixation,9,17011410,17012666,17012362.0,17012409.0,48.0,48.0,1805.6,1006.3,1591.0,1269.0,Object_Sea_Solid_Small,31.283053959021345,32.53915362502448,2.0,Object_Land_Solid_Large,7.0,,,,,,,,,,,
encoding,fixation,9,17011410,17012666,17012454.0,17012487.0,34.0,34.0,1545.1,958.4000000000001,1591.0,1269.0,Object_Sea_Solid_Small,31.283053959021345,32.53915362502448,2.0,Object_Land_Solid_Large,7.0,,,,,,,,,,,
encoding,image,9,17012666,17013676,17013013.0,17013061.0,49.0,49.0,1565.0,941.3,1591.0,1269.0,Object_Sea_Solid_Small,32.53930008399766,33.54950154200196,2.0,Object_Land_Solid_Large,7.0,,,,,,,,,,,
encoding,image,9,17012666,17013676,17013097.0,17013182.0,86.0,86.0,1506.5,957.5,1591.0,1269.0,Object_Sea_Solid_Small,32.53930008399766,33.54950154200196,2.0,Object_Land_Solid_Large,7.0,,,,,,,,,,,
encoding,image,9,17012666,17013676,17013303.0,17013328.0,26.0,26.0,1503.2,954.8,1591.0,1269.0,Object_Sea_Solid_Small,32.53930008399766,33.54950154200196,2.0,Object_Land_Solid_Large,7.0,,,,,,,,,,,
encoding,image,9,17012666,17013676,17013382.0,17013404.0,23.0,23.0,1501.7,960.0999999999999,1591.0,1269.0,Object_Sea_Solid_Small,32.53930008399766,33.54950154200196,2.0,Object_Land_Solid_Large,7.0,,,,,,,,,,,
encoding,image,9,17012666,17013676,17013568.0,17013690.0,123.0,108.0,2057.5,1148.2,2249.0,891.0,Object_Land_Solid_Large,32.53930008399766,33.54950154200196,2.0,Object_Land_Solid_Large,7.0,,,,,,,,,,,
encoding,value,9,17013676,17019687,17013817.0,17013892.0,76.0,76.0,2274.2,1206.8,2249.0,891.0,Object_Land_Solid_Large,33.54961170908064,39.56039412505925,2.0,Object_Land_Solid_Large,7.0,,,,,,,,,,,
encoding,value,9,17013676,17019687,17013899.0,17013990.0,92.0,92.0,2277.3,1196.8,2249.0,891.0,Object_Land_Solid_Large,33.54961170908064,39.56039412505925,2.0,Object_Land_Solid_Large,7.0,,,,,,,,,,,
encoding,value,9,17013676,17019687,17014002.0,17014039.0,38.0,38.0,2308.6,1202.5,2249.0,891.0,Object_Land_Solid_Large,33.54961170908064,39.56039412505925,2.0,Object_Land_Solid_Large,7.0,,,,,,,,,,,
encoding,value,9,17013676,17019687,17014070.0,17014154.0,85.0,85.0,2315.0,1191.6,2249.0,891.0,Object_Land_Solid_Large,33.54961170908064,39.56039412505925,2.0,Object_Land_Solid_Large,7.0,,,,,,,,,,,
encoding,value,9,17013676,17019687,17014360.0,17014422.0,63.0,63.0,1642.0,1077.6,1591.0,1269.0,Object_Sea_Solid_Small,33.54961170908064,39.56039412505925,2.0,Object_Land_Solid_Large,7.0,,,,,,,,,,,
encoding,value,9,17013676,17019687,17014629.0,17014653.0,25.0,25.0,1651.2,1076.9,1591.0,1269.0,Object_Sea_Solid_Small,33.54961170908064,39.56039412505925,2.0,Object_Land_Solid_Large,7.0,,,,,,,,,,,
encoding,value,9,17013676,17019687,17014838.0,17015021.0,184.0,184.0,2207.5,1165.0,2249.0,891.0,Object_Land_Solid_Large,33.54961170908064,39.56039412505925,2.0,Object_Land_Solid_Large,7.0,,,,,,,,,,,
encoding,value,9,17013676,17019687,17015037.0,17015566.0,530.0,530.0,2319.6,1153.2,2249.0,891.0,Object_Land_Solid_Large,33.54961170908064,39.56039412505925,2.0,Object_Land_Solid_Large,7.0,,,,,,,,,,,
encoding,value,9,17013676,17019687,17015580.0,17015785.0,206.0,206.0,2237.0,1147.2,2249.0,891.0,Object_Land_Solid_Large,33.54961170908064,39.56039412505925,2.0,Object_Land_Solid_Large,7.0,,,,,,,,,,,
encoding,value,9,17013676,17019687,17015801.0,17015924.0,124.0,124.0,2311.5,1138.2,2249.0,891.0,Object_Land_Solid_Large,33.54961170908064,39.56039412505925,2.0,Object_Land_Solid_Large,7.0,,,,,,,,,,,
encoding,value,9,17013676,17019687,17015948.0,17016153.0,206.0,206.0,2291.1,1215.2,2249.0,891.0,Object_Land_Solid_Large,33.54961170908064,39.56039412505925,2.0,Object_Land_Solid_Large,7.0,,,,,,,,,,,
encoding,value,9,17013676,17019687,17016399.0,17016432.0,34.0,34.0,2289.1,1196.4,2249.0,891.0,Object_Land_Solid_Large,33.54961170908064,39.56039412505925,2.0,Object_Land_Solid_Large,7.0,,,,,,,,,,,
encoding,value,9,17013676,17019687,17016838.0,17016868.0,31.0,31.0,2239.3,1265.5,2249.0,891.0,Object_Land_Solid_Large,33.54961170908064,39.56039412505925,2.0,Object_Land_Solid_Large,7.0,,,,,,,,,,,
encoding,value,9,17013676,17019687,17016943.0,17017090.0,148.0,148.0,2240.7,1240.0,2249.0,891.0,Object_Land_Solid_Large,33.54961170908064,39.56039412505925,2.0,Object_Land_Solid_Large,7.0,,,,,,,,,,,
encoding,value,9,17013676,17019687,17017410.0,17017503.0,94.0,94.0,1858.9,1206.7,1920.0,700.0,Animal_Sea_Solid_Small,33.54961170908064,39.56039412505925,2.0,Object_Land_Solid_Large,7.0,,,,,,,,,,,
encoding,value,9,17013676,17019687,17017567.0,17017604.0,38.0,38.0,2230.5,1131.4,2249.0,891.0,Object_Land_Solid_Large,33.54961170908064,39.56039412505925,2.0,Object_Land_Solid_Large,7.0,,,,,,,,,,,
encoding,value,9,17013676,17019687,17017629.0,17017787.0,159.0,159.0,2247.3,1097.8,2249.0,891.0,Object_Land_Solid_Large,33.54961170908064,39.56039412505925,2.0,Object_Land_Solid_Large,7.0,,,,,,,,,,,
encoding,value,9,17013676,17019687,17017799.0,17018124.0,326.0,326.0,2337.2,1116.4,2249.0,891.0,Object_Land_Solid_Large,33.54961170908064,39.56039412505925,2.0,Object_Land_Solid_Large,7.0,,,,,,,,,,,
encoding,value,9,17013676,17019687,17018136.0,17018555.0,420.0,420.0,2243.4,1116.4,2249.0,891.0,Object_Land_Solid_Large,33.54961170908064,39.56039412505925,2.0,Object_Land_Solid_Large,7.0,,,,,,,,,,,
encoding,value,9,17013676,17019687,17018604.0,17018738.0,135.0,135.0,1818.3,1192.7,1591.0,891.0,Animal_Land_Pattern_Large,33.54961170908064,39.56039412505925,2.0,Object_Land_Solid_Large,7.0,,,,,,,,,,,
encoding,value,9,17013676,17019687,17018753.0,17019094.0,342.0,342.0,1821.9,1190.4,1591.0,891.0,Animal_Land_Pattern_Large,33.54961170908064,39.56039412505925,2.0,Object_Land_Solid_Large,7.0,,,,,,,,,,,
encoding,value,9,17013676,17019687,17019316.0,17019576.0,261.0,261.0,2109.6,917.8,2249.0,1269.0,Animal_Sea_Pattern_Large,33.54961170908064,39.56039412505925,2.0,Object_Land_Solid_Large,7.0,,,,,,,,,,,
encoding,value,9,17013676,17019687,17019583.0,17019634.0,52.0,52.0,2116.2,909.0,2249.0,1269.0,Animal_Sea_Pattern_Large,33.54961170908064,39.56039412505925,2.0,Object_Land_Solid_Large,7.0,,,,,,,,,,,
encoding,value,9,17013676,17019687,17019650.0,17019681.0,32.0,32.0,2122.0,910.5,2249.0,1269.0,Animal_Sea_Pattern_Large,33.54961170908064,39.56039412505925,2.0,Object_Land_Solid_Large,7.0,,,,,,,,,,,
encoding,attention,9,17019687,17022706,17019903.0,17020159.0,257.0,257.0,1720.4,894.3,1591.0,1269.0,Object_Sea_Solid_Small,39.56052029202692,42.57861879200209,2.0,Object_Land_Solid_Large,7.0,7.0,1.0,1.804609083919786,,,,,,,,
encoding,attention,9,17019687,17022706,17020181.0,17020217.0,37.0,37.0,1717.5,891.5,1591.0,1269.0,Object_Sea_Solid_Small,39.56052029202692,42.57861879200209,2.0,Object_Land_Solid_Large,7.0,7.0,1.0,1.804609083919786,,,,,,,,
encoding,attention,9,17019687,17022706,17020453.0,17020473.0,21.0,21.0,1482.8,916.4000000000001,1591.0,1269.0,Object_Sea_Solid_Small,39.56052029202692,42.57861879200209,2.0,Object_Land_Solid_Large,7.0,7.0,1.0,1.804609083919786,,,,,,,,
encoding,attention,9,17019687,17022706,17020533.0,17020789.0,257.0,257.0,2222.5,1122.2,2249.0,891.0,Object_Land_Solid_Large,39.56052029202692,42.57861879200209,2.0,Object_Land_Solid_Large,7.0,7.0,1.0,1.804609083919786,,,,,,,,
encoding,attention,9,17019687,17022706,17020829.0,17021080.0,252.0,252.0,2286.8,1144.0,2249.0,891.0,Object_Land_Solid_Large,39.56052029202692,42.57861879200209,2.0,Object_Land_Solid_Large,7.0,7.0,1.0,1.804609083919786,,,,,,,,
encoding,attention,9,17019687,17022706,17021274.0,17021785.0,512.0,512.0,2341.0,1209.0,2249.0,891.0,Object_Land_Solid_Large,39.56052029202692,42.57861879200209,2.0,Object_Land_Solid_Large,7.0,7.0,1.0,1.804609083919786,,,,,,,,
encoding,attention,9,17019687,17022706,17022004.0,17022194.0,191.0,191.0,2017.3,1000.5,2249.0,1269.0,Animal_Sea_Pattern_Large,39.56052029202692,42.57861879200209,2.0,Object_Land_Solid_Large,7.0,7.0,1.0,1.804609083919786,,,,,,,,
encoding,attention,9,17019687,17022706,17022224.0,17022586.0,363.0,363.0,1817.7,965.5999999999999,1591.0,1269.0,Object_Sea_Solid_Small,39.56052029202692,42.57861879200209,2.0,Object_Land_Solid_Large,7.0,7.0,1.0,1.804609083919786,,,,,,,,
encoding,fixation,10,17022706,17023961,17022864.0,17022985.0,122.0,122.0,1989.9,1013.9000000000001,2249.0,1269.0,Animal_Sea_Pattern_Large,42.578775083995424,43.833811916993,2.0,Object_Land_Pattern_Small,-8.0,,,,,,,,,,,
encoding,fixation,10,17022706,17023961,17023239.0,17023338.0,100.0,100.0,1630.1,1057.6,1591.0,1269.0,Object_Sea_Solid_Small,42.578775083995424,43.833811916993,2.0,Object_Land_Pattern_Small,-8.0,,,,,,,,,,,
encoding,image,10,17023961,17024972,17024010.0,17024057.0,48.0,48.0,-66.5,731.4000000000001,,,none,43.83393620909192,44.84532562503591,2.0,Object_Land_Pattern_Small,-8.0,,,,,,,,,,,
encoding,value,10,17024973,17030986,17025588.0,17025771.0,184.0,184.0,1941.7,712.2,1920.0,1460.0,Object_Land_Pattern_Small,44.84550745901652,50.85886758402921,2.0,Object_Land_Pattern_Small,-8.0,,,,,,,,,,,
encoding,value,10,17024973,17030986,17025818.0,17025855.0,38.0,38.0,1952.4,691.9000000000001,1920.0,1460.0,Object_Land_Pattern_Small,44.84550745901652,50.85886758402921,2.0,Object_Land_Pattern_Small,-8.0,,,,,,,,,,,
encoding,value,10,17024973,17030986,17025919.0,17026048.0,130.0,130.0,1990.2,655.7,1920.0,1460.0,Object_Land_Pattern_Small,44.84550745901652,50.85886758402921,2.0,Object_Land_Pattern_Small,-8.0,,,,,,,,,,,
encoding,value,10,17024973,17030986,17026062.0,17026182.0,121.0,121.0,1990.8,663.3,1920.0,1460.0,Object_Land_Pattern_Small,44.84550745901652,50.85886758402921,2.0,Object_Land_Pattern_Small,-8.0,,,,,,,,,,,
encoding,value,10,17024973,17030986,17026676.0,17027154.0,479.0,479.0,1988.0,747.5,1920.0,1460.0,Object_Land_Pattern_Small,44.84550745901652,50.85886758402921,2.0,Object_Land_Pattern_Small,-8.0,,,,,,,,,,,
encoding,value,10,17024973,17030986,17027174.0,17027214.0,41.0,41.0,2004.1,721.9000000000001,1920.0,1460.0,Object_Land_Pattern_Small,44.84550745901652,50.85886758402921,2.0,Object_Land_Pattern_Small,-8.0,,,,,,,,,,,
encoding,value,10,17024973,17030986,17027232.0,17027272.0,41.0,41.0,2002.7,709.5,1920.0,1460.0,Object_Land_Pattern_Small,44.84550745901652,50.85886758402921,2.0,Object_Land_Pattern_Small,-8.0,,,,,,,,,,,
encoding,value,10,17024973,17030986,17027463.0,17027517.0,55.0,55.0,2066.7,1145.6,2249.0,891.0,Object_Land_Solid_Large,44.84550745901652,50.85886758402921,2.0,Object_Land_Pattern_Small,-8.0,,,,,,,,,,,
encoding,value,10,17024973,17030986,17027562.0,17027653.0,92.0,92.0,2060.4,1105.3,2249.0,891.0,Object_Land_Solid_Large,44.84550745901652,50.85886758402921,2.0,Object_Land_Pattern_Small,-8.0,,,,,,,,,,,
encoding,value,10,17024973,17030986,17027733.0,17028033.0,301.0,301.0,2055.7,1067.4,2249.0,1269.0,Animal_Sea_Pattern_Large,44.84550745901652,50.85886758402921,2.0,Object_Land_Pattern_Small,-8.0,,,,,,,,,,,
encoding,value,10,17024973,17030986,17028072.0,17028587.0,516.0,516.0,2273.2,1143.1,2249.0,891.0,Object_Land_Solid_Large,44.84550745901652,50.85886758402921,2.0,Object_Land_Pattern_Small,-8.0,,,,,,,,,,,
encoding,value,10,17024973,17030986,17028599.0,17028627.0,29.0,29.0,2263.3,1123.8,2249.0,891.0,Object_Land_Solid_Large,44.84550745901652,50.85886758402921,2.0,Object_Land_Pattern_Small,-8.0,,,,,,,,,,,
encoding,value,10,17024973,17030986,17028839.0,17028874.0,36.0,36.0,1794.4,1000.5999999999999,1591.0,1269.0,Object_Sea_Solid_Small,44.84550745901652,50.85886758402921,2.0,Object_Land_Pattern_Small,-8.0,,,,,,,,,,,
encoding,value,10,17024973,17030986,17028905.0,17028970.0,66.0,66.0,1796.3,983.2,1591.0,1269.0,Object_Sea_Solid_Small,44.84550745901652,50.85886758402921,2.0,Object_Land_Pattern_Small,-8.0,,,,,,,,,,,
encoding,value,10,17024973,17030986,17028976.0,17029024.0,49.0,49.0,1803.5,957.0999999999999,1591.0,1269.0,Object_Sea_Solid_Small,44.84550745901652,50.85886758402921,2.0,Object_Land_Pattern_Small,-8.0,,,,,,,,,,,
encoding,value,10,17024973,17030986,17029377.0,17029415.0,39.0,39.0,626.6,738.0999999999999,,,none,44.84550745901652,50.85886758402921,2.0,Object_Land_Pattern_Small,-8.0,,,,,,,,,,,
encoding,value,10,17024973,17030986,17029512.0,17029533.0,22.0,22.0,216.0,682.0,,,none,44.84550745901652,50.85886758402921,2.0,Object_Land_Pattern_Small,-8.0,,,,,,,,,,,
encoding,value,10,17024973,17030986,17030060.0,17030083.0,24.0,24.0,120.9,680.2,,,none,44.84550745901652,50.85886758402921,2.0,Object_Land_Pattern_Small,-8.0,,,,,,,,,,,
encoding,value,10,17024973,17030986,17030312.0,17030438.0,127.0,127.0,1701.6,1289.2,1591.0,891.0,Animal_Land_Pattern_Large,44.84550745901652,50.85886758402921,2.0,Object_Land_Pattern_Small,-8.0,,,,,,,,,,,
encoding,value,10,17024973,17030986,17030489.0,17030734.0,246.0,246.0,2132.7,1250.8,2249.0,891.0,Object_Land_Solid_Large,44.84550745901652,50.85886758402921,2.0,Object_Land_Pattern_Small,-8.0,,,,,,,,,,,
encoding,value,10,17024973,17030986,17030748.0,17030890.0,143.0,143.0,2286.2,1247.8,2249.0,891.0,Object_Land_Solid_Large,44.84550745901652,50.85886758402921,2.0,Object_Land_Pattern_Small,-8.0,,,,,,,,,,,
encoding,value,10,17024973,17030986,17030939.0,17031254.0,316.0,47.0,1974.5,687.0999999999999,1920.0,1460.0,Object_Land_Pattern_Small,44.84550745901652,50.85886758402921,2.0,Object_Land_Pattern_Small,-8.0,,,,,,,,,,,
encoding,attention,10,17030986,17034006,17031276.0,17031675.0,400.0,400.0,1924.7,616.5999999999999,1920.0,1460.0,Object_Land_Pattern_Small,50.85906004207209,53.87810033408459,2.0,Object_Land_Pattern_Small,-8.0,-8.0,1.0,1.169650041963905,,,,,,,,
encoding,attention,10,17030986,17034006,17031682.0,17031783.0,102.0,102.0,1955.3,653.3,1920.0,1460.0,Object_Land_Pattern_Small,50.85906004207209,53.87810033408459,2.0,Object_Land_Pattern_Small,-8.0,-8.0,1.0,1.169650041963905,,,,,,,,
encoding,attention,10,17030986,17034006,17031789.0,17031889.0,101.0,101.0,1950.0,645.2,1920.0,1460.0,Object_Land_Pattern_Small,50.85906004207209,53.87810033408459,2.0,Object_Land_Pattern_Small,-8.0,-8.0,1.0,1.169650041963905,,,,,,,,
encoding,attention,10,17030986,17034006,17031907.0,17031946.0,40.0,40.0,1944.1,653.5,1920.0,1460.0,Object_Land_Pattern_Small,50.85906004207209,53.87810033408459,2.0,Object_Land_Pattern_Small,-8.0,-8.0,1.0,1.169650041963905,,,,,,,,
encoding,attention,10,17030986,17034006,17032017.0,17032080.0,64.0,64.0,1937.3,665.3,1920.0,1460.0,Object_Land_Pattern_Small,50.85906004207209,53.87810033408459,2.0,Object_Land_Pattern_Small,-8.0,-8.0,1.0,1.169650041963905,,,,,,,,
encoding,attention,10,17030986,17034006,17032093.0,17032368.0,276.0,276.0,1924.5,670.8,1920.0,1460.0,Object_Land_Pattern_Small,50.85906004207209,53.87810033408459,2.0,Object_Land_Pattern_Small,-8.0,-8.0,1.0,1.169650041963905,,,,,,,,
encoding,attention,10,17030986,17034006,17032641.0,17032961.0,321.0,321.0,2140.9,1007.4000000000001,2249.0,1269.0,Animal_Sea_Pattern_Large,50.85906004207209,53.87810033408459,2.0,Object_Land_Pattern_Small,-8.0,-8.0,1.0,1.169650041963905,,,,,,,,
encoding,attention,10,17030986,17034006,17033168.0,17033208.0,41.0,41.0,1793.0,858.8,1920.0,1460.0,Object_Land_Pattern_Small,50.85906004207209,53.87810033408459,2.0,Object_Land_Pattern_Small,-8.0,-8.0,1.0,1.169650041963905,,,,,,,,
encoding,attention,10,17030986,17034006,17033225.0,17033266.0,42.0,42.0,1793.0,841.3,1920.0,1460.0,Object_Land_Pattern_Small,50.85906004207209,53.87810033408459,2.0,Object_Land_Pattern_Small,-8.0,-8.0,1.0,1.169650041963905,,,,,,,,
encoding,attention,10,17030986,17034006,17033278.0,17033363.0,86.0,86.0,1791.2,837.0,1920.0,1460.0,Object_Land_Pattern_Small,50.85906004207209,53.87810033408459,2.0,Object_Land_Pattern_Small,-8.0,-8.0,1.0,1.169650041963905,,,,,,,,
encoding,attention,10,17030986,17034006,17033392.0,17033476.0,85.0,85.0,1793.9,819.8,1920.0,1460.0,Object_Land_Pattern_Small,50.85906004207209,53.87810033408459,2.0,Object_Land_Pattern_Small,-8.0,-8.0,1.0,1.169650041963905,,,,,,,,
encoding,fixation,11,17034006,17034761,17034530.0,17034550.0,21.0,21.0,1963.7,1019.4000000000001,2249.0,1269.0,Animal_Sea_Pattern_Large,53.878260584082454,54.63327462505549,2.0,Animal_Sea_Solid_Small,-1.0,,,,,,,,,,,
encoding,fixation,11,17034006,17034761,17034568.0,17034683.0,116.0,116.0,1963.6,1015.8,2249.0,1269.0,Animal_Sea_Pattern_Large,53.878260584082454,54.63327462505549,2.0,Animal_Sea_Solid_Small,-1.0,,,,,,,,,,,
encoding,image,11,17034761,17035772,17034978.0,17035134.0,157.0,157.0,1962.0,1347.8,1920.0,700.0,Animal_Sea_Solid_Small,54.63338654208928,55.64447858405765,2.0,Animal_Sea_Solid_Small,-1.0,,,,,,,,,,,
encoding,image,11,17034761,17035772,17035140.0,17035185.0,46.0,46.0,1956.7,1362.5,1920.0,700.0,Animal_Sea_Solid_Small,54.63338654208928,55.64447858405765,2.0,Animal_Sea_Solid_Small,-1.0,,,,,,,,,,,
encoding,image,11,17034761,17035772,17035244.0,17035603.0,360.0,360.0,1941.0,1440.6,1920.0,700.0,Animal_Sea_Solid_Small,54.63338654208928,55.64447858405765,2.0,Animal_Sea_Solid_Small,-1.0,,,,,,,,,,,
encoding,image,11,17034761,17035772,17035618.0,17035647.0,30.0,30.0,1938.9,1393.7,1920.0,700.0,Animal_Sea_Solid_Small,54.63338654208928,55.64447858405765,2.0,Animal_Sea_Solid_Small,-1.0,,,,,,,,,,,
encoding,value,11,17035772,17041784,17035856.0,17035970.0,115.0,115.0,1964.7,1218.7,1920.0,700.0,Animal_Sea_Solid_Small,55.64461058401503,61.65586329204962,2.0,Animal_Sea_Solid_Small,-1.0,,,,,,,,,,,
encoding,value,11,17035772,17041784,17035999.0,17036275.0,277.0,277.0,1982.3,1173.6,2249.0,891.0,Object_Land_Solid_Large,55.64461058401503,61.65586329204962,2.0,Animal_Sea_Solid_Small,-1.0,,,,,,,,,,,
encoding,value,11,17035772,17041784,17036477.0,17036523.0,47.0,47.0,1981.9,1401.9,1920.0,700.0,Animal_Sea_Solid_Small,55.64461058401503,61.65586329204962,2.0,Animal_Sea_Solid_Small,-1.0,,,,,,,,,,,
encoding,value,11,17035772,17041784,17036573.0,17036852.0,280.0,280.0,1999.5,1305.0,1920.0,700.0,Animal_Sea_Solid_Small,55.64461058401503,61.65586329204962,2.0,Animal_Sea_Solid_Small,-1.0,,,,,,,,,,,
encoding,value,11,17035772,17041784,17036872.0,17037058.0,187.0,187.0,2152.8,1212.7,2249.0,891.0,Object_Land_Solid_Large,55.64461058401503,61.65586329204962,2.0,Animal_Sea_Solid_Small,-1.0,,,,,,,,,,,
encoding,value,11,17035772,17041784,17037099.0,17037330.0,232.0,232.0,1980.6,1022.7,2249.0,1269.0,Animal_Sea_Pattern_Large,55.64461058401503,61.65586329204962,2.0,Animal_Sea_Solid_Small,-1.0,,,,,,,,,,,
encoding,value,11,17035772,17041784,17037351.0,17037665.0,315.0,315.0,2109.2,1095.3,2249.0,891.0,Object_Land_Solid_Large,55.64461058401503,61.65586329204962,2.0,Animal_Sea_Solid_Small,-1.0,,,,,,,,,,,
encoding,value,11,17035772,17041784,17037731.0,17037904.0,174.0,174.0,1985.7,893.0,1920.0,1460.0,Object_Land_Pattern_Small,55.64461058401503,61.65586329204962,2.0,Animal_Sea_Solid_Small,-1.0,,,,,,,,,,,
encoding,value,11,17035772,17041784,17037942.0,17037971.0,30.0,30.0,1946.0,1282.1,1920.0,700.0,Animal_Sea_Solid_Small,55.64461058401503,61.65586329204962,2.0,Animal_Sea_Solid_Small,-1.0,,,,,,,,,,,
encoding,value,11,17035772,17041784,17037981.0,17038282.0,302.0,302.0,1964.7,1254.7,1920.0,700.0,Animal_Sea_Solid_Small,55.64461058401503,61.65586329204962,2.0,Animal_Sea_Solid_Small,-1.0,,,,,,,,,,,
encoding,value,11,17035772,17041784,17038493.0,17038678.0,186.0,186.0,2123.9,1251.7,2249.0,891.0,Object_Land_Solid_Large,55.64461058401503,61.65586329204962,2.0,Animal_Sea_Solid_Small,-1.0,,,,,,,,,,,
encoding,value,11,17035772,17041784,17038724.0,17038953.0,230.0,230.0,2192.1,921.0999999999999,2249.0,1269.0,Animal_Sea_Pattern_Large,55.64461058401503,61.65586329204962,2.0,Animal_Sea_Solid_Small,-1.0,,,,,,,,,,,
encoding,value,11,17035772,17041784,17038975.0,17039383.0,409.0,409.0,2025.0,977.3,2249.0,1269.0,Animal_Sea_Pattern_Large,55.64461058401503,61.65586329204962,2.0,Animal_Sea_Solid_Small,-1.0,,,,,,,,,,,
encoding,value,11,17035772,17041784,17039566.0,17040103.0,538.0,538.0,2051.1,1004.5999999999999,2249.0,1269.0,Animal_Sea_Pattern_Large,55.64461058401503,61.65586329204962,2.0,Animal_Sea_Solid_Small,-1.0,,,,,,,,,,,
encoding,value,11,17035772,17041784,17040124.0,17040341.0,218.0,218.0,1898.9,990.4000000000001,1920.0,1460.0,Object_Land_Pattern_Small,55.64461058401503,61.65586329204962,2.0,Animal_Sea_Solid_Small,-1.0,,,,,,,,,,,
encoding,value,11,17035772,17041784,17040377.0,17040643.0,267.0,267.0,1976.5,1291.6,1920.0,700.0,Animal_Sea_Solid_Small,55.64461058401503,61.65586329204962,2.0,Animal_Sea_Solid_Small,-1.0,,,,,,,,,,,
encoding,value,11,17035772,17041784,17040661.0,17041046.0,386.0,386.0,1988.3,1384.2,1920.0,700.0,Animal_Sea_Solid_Small,55.64461058401503,61.65586329204962,2.0,Animal_Sea_Solid_Small,-1.0,,,,,,,,,,,
encoding,value,11,17035772,17041784,17041217.0,17041335.0,119.0,119.0,2030.7,1174.3,2249.0,891.0,Object_Land_Solid_Large,55.64461058401503,61.65586329204962,2.0,Animal_Sea_Solid_Small,-1.0,,,,,,,,,,,
encoding,value,11,17035772,17041784,17041378.0,17041492.0,115.0,115.0,2044.2,1116.1,2249.0,891.0,Object_Land_Solid_Large,55.64461058401503,61.65586329204962,2.0,Animal_Sea_Solid_Small,-1.0,,,,,,,,,,,
encoding,value,11,17035772,17041784,17041603.0,17041630.0,28.0,28.0,2047.6,1106.8,2249.0,891.0,Object_Land_Solid_Large,55.64461058401503,61.65586329204962,2.0,Animal_Sea_Solid_Small,-1.0,,,,,,,,,,,
encoding,value,11,17035772,17041784,17041651.0,17041687.0,37.0,37.0,2051.9,1093.1,2249.0,891.0,Object_Land_Solid_Large,55.64461058401503,61.65586329204962,2.0,Animal_Sea_Solid_Small,-1.0,,,,,,,,,,,
encoding,attention,11,17041784,17044802,17041840.0,17042124.0,285.0,285.0,1941.3,1273.2,1920.0,700.0,Animal_Sea_Solid_Small,61.65602204203606,64.67412300000433,2.0,Animal_Sea_Solid_Small,-1.0,-1.0,1.0,1.5982179580023512,,,,,,,,
encoding,attention,11,17041784,17044802,17042139.0,17042384.0,246.0,246.0,2023.7,1312.2,1920.0,700.0,Animal_Sea_Solid_Small,61.65602204203606,64.67412300000433,2.0,Animal_Sea_Solid_Small,-1.0,-1.0,1.0,1.5982179580023512,,,,,,,,
encoding,attention,11,17041784,17044802,17042404.0,17042428.0,25.0,25.0,2020.9,1311.5,1920.0,700.0,Animal_Sea_Solid_Small,61.65602204203606,64.67412300000433,2.0,Animal_Sea_Solid_Small,-1.0,-1.0,1.0,1.5982179580023512,,,,,,,,
encoding,attention,11,17041784,17044802,17042678.0,17042769.0,92.0,92.0,1906.3,1538.1,1920.0,700.0,Animal_Sea_Solid_Small,61.65602204203606,64.67412300000433,2.0,Animal_Sea_Solid_Small,-1.0,-1.0,1.0,1.5982179580023512,,,,,,,,
encoding,attention,11,17041784,17044802,17042845.0,17043625.0,781.0,781.0,1935.8,1449.4,1920.0,700.0,Animal_Sea_Solid_Small,61.65602204203606,64.67412300000433,2.0,Animal_Sea_Solid_Small,-1.0,-1.0,1.0,1.5982179580023512,,,,,,,,
encoding,attention,11,17041784,17044802,17043796.0,17043966.0,171.0,171.0,2181.4,1234.0,2249.0,891.0,Object_Land_Solid_Large,61.65602204203606,64.67412300000433,2.0,Animal_Sea_Solid_Small,-1.0,-1.0,1.0,1.5982179580023512,,,,,,,,
encoding,attention,11,17041784,17044802,17044001.0,17044052.0,52.0,52.0,2187.6,1190.7,2249.0,891.0,Object_Land_Solid_Large,61.65602204203606,64.67412300000433,2.0,Animal_Sea_Solid_Small,-1.0,-1.0,1.0,1.5982179580023512,,,,,,,,
encoding,attention,11,17041784,17044802,17044115.0,17044209.0,95.0,95.0,2170.1,1169.7,2249.0,891.0,Object_Land_Solid_Large,61.65602204203606,64.67412300000433,2.0,Animal_Sea_Solid_Small,-1.0,-1.0,1.0,1.5982179580023512,,,,,,,,
encoding,attention,11,17041784,17044802,17044222.0,17044544.0,323.0,323.0,2188.4,1142.7,2249.0,891.0,Object_Land_Solid_Large,61.65602204203606,64.67412300000433,2.0,Animal_Sea_Solid_Small,-1.0,-1.0,1.0,1.5982179580023512,,,,,,,,
encoding,fixation,12,17044802,17045807,17044885.0,17045030.0,146.0,146.0,2133.7,1190.2,2249.0,891.0,Object_Land_Solid_Large,64.67427891702391,65.6794004170224,2.0,Animal_Land_Pattern_Large,8.0,,,,,,,,,,,
encoding,fixation,12,17044802,17045807,17045057.0,17045143.0,87.0,87.0,1967.6,1076.0,1920.0,1080.0,fixation,64.67427891702391,65.6794004170224,2.0,Animal_Land_Pattern_Large,8.0,,,,,,,,,,,
encoding,fixation,12,17044802,17045807,17045447.0,17045467.0,21.0,21.0,773.1,1099.7,,,none,64.67427891702391,65.6794004170224,2.0,Animal_Land_Pattern_Large,8.0,,,,,,,,,,,
encoding,image,12,17045808,17046818,17046249.0,17046354.0,106.0,106.0,1694.7,1360.9,1591.0,891.0,Animal_Land_Pattern_Large,65.67951433407143,66.6903335840907,2.0,Animal_Land_Pattern_Large,8.0,,,,,,,,,,,
encoding,image,12,17045808,17046818,17046424.0,17046641.0,218.0,218.0,1610.6,1293.1,1591.0,891.0,Animal_Land_Pattern_Large,65.67951433407143,66.6903335840907,2.0,Animal_Land_Pattern_Large,8.0,,,,,,,,,,,
encoding,image,12,17045808,17046818,17046656.0,17046831.0,176.0,162.0,1607.9,1268.4,1591.0,891.0,Animal_Land_Pattern_Large,65.67951433407143,66.6903335840907,2.0,Animal_Land_Pattern_Large,8.0,,,,,,,,,,,
encoding,value,12,17046818,17052830,17046868.0,17047126.0,259.0,259.0,2071.4,1211.3,2249.0,891.0,Object_Land_Solid_Large,66.69044429203495,72.70168191706762,2.0,Animal_Land_Pattern_Large,8.0,,,,,,,,,,,
encoding,value,12,17046818,17052830,17047296.0,17047450.0,155.0,155.0,2132.9,1141.9,2249.0,891.0,Object_Land_Solid_Large,66.69044429203495,72.70168191706762,2.0,Animal_Land_Pattern_Large,8.0,,,,,,,,,,,
encoding,value,12,17046818,17052830,17047504.0,17047749.0,246.0,246.0,2149.6,1077.7,2249.0,1269.0,Animal_Sea_Pattern_Large,66.69044429203495,72.70168191706762,2.0,Animal_Land_Pattern_Large,8.0,,,,,,,,,,,
encoding,value,12,17046818,17052830,17047822.0,17048069.0,248.0,248.0,1654.9,1140.7,1591.0,891.0,Animal_Land_Pattern_Large,66.69044429203495,72.70168191706762,2.0,Animal_Land_Pattern_Large,8.0,,,,,,,,,,,
encoding,value,12,17046818,17052830,17048089.0,17048343.0,255.0,255.0,1667.2,1140.4,1591.0,891.0,Animal_Land_Pattern_Large,66.69044429203495,72.70168191706762,2.0,Animal_Land_Pattern_Large,8.0,,,,,,,,,,,
encoding,value,12,17046818,17052830,17048649.0,17048753.0,105.0,105.0,2127.9,1307.2,2249.0,891.0,Object_Land_Solid_Large,66.69044429203495,72.70168191706762,2.0,Animal_Land_Pattern_Large,8.0,,,,,,,,,,,
encoding,value,12,17046818,17052830,17048935.0,17049021.0,87.0,87.0,1813.5,1007.5999999999999,1591.0,1269.0,Object_Sea_Solid_Small,66.69044429203495,72.70168191706762,2.0,Animal_Land_Pattern_Large,8.0,,,,,,,,,,,
encoding,value,12,17046818,17052830,17049084.0,17049118.0,35.0,35.0,1966.6,910.5,1920.0,1460.0,Object_Land_Pattern_Small,66.69044429203495,72.70168191706762,2.0,Animal_Land_Pattern_Large,8.0,,,,,,,,,,,
encoding,value,12,17046818,17052830,17049155.0,17049264.0,110.0,110.0,1969.0,912.8,1920.0,1460.0,Object_Land_Pattern_Small,66.69044429203495,72.70168191706762,2.0,Animal_Land_Pattern_Large,8.0,,,,,,,,,,,
encoding,value,12,17046818,17052830,17049372.0,17049488.0,117.0,117.0,1969.5,921.4000000000001,1920.0,1460.0,Object_Land_Pattern_Small,66.69044429203495,72.70168191706762,2.0,Animal_Land_Pattern_Large,8.0,,,,,,,,,,,
encoding,value,12,17046818,17052830,17049636.0,17049664.0,29.0,29.0,1786.1,1030.8,1591.0,1269.0,Object_Sea_Solid_Small,66.69044429203495,72.70168191706762,2.0,Animal_Land_Pattern_Large,8.0,,,,,,,,,,,
encoding,value,12,17046818,17052830,17049688.0,17049930.0,243.0,243.0,1789.1,1029.4,1591.0,1269.0,Object_Sea_Solid_Small,66.69044429203495,72.70168191706762,2.0,Animal_Land_Pattern_Large,8.0,,,,,,,,,,,
encoding,value,12,17046818,17052830,17049955.0,17050008.0,54.0,54.0,1935.4,1092.2,1920.0,1080.0,fixation,66.69044429203495,72.70168191706762,2.0,Animal_Land_Pattern_Large,8.0,,,,,,,,,,,
encoding,value,12,17046818,17052830,17050024.0,17050055.0,32.0,32.0,1937.2,1083.5,1920.0,1080.0,fixation,66.69044429203495,72.70168191706762,2.0,Animal_Land_Pattern_Large,8.0,,,,,,,,,,,
encoding,value,12,17046818,17052830,17050381.0,17050475.0,95.0,95.0,1921.0,1056.7,1920.0,1080.0,fixation,66.69044429203495,72.70168191706762,2.0,Animal_Land_Pattern_Large,8.0,,,,,,,,,,,
encoding,value,12,17046818,17052830,17050515.0,17050652.0,138.0,138.0,1930.4,1027.3,1920.0,1080.0,fixation,66.69044429203495,72.70168191706762,2.0,Animal_Land_Pattern_Large,8.0,,,,,,,,,,,
encoding,value,12,17046818,17052830,17050672.0,17050956.0,285.0,285.0,1989.2,1027.4,2249.0,1269.0,Animal_Sea_Pattern_Large,66.69044429203495,72.70168191706762,2.0,Animal_Land_Pattern_Large,8.0,,,,,,,,,,,
encoding,value,12,17046818,17052830,17051189.0,17051306.0,118.0,118.0,1813.8,1104.6,1591.0,891.0,Animal_Land_Pattern_Large,66.69044429203495,72.70168191706762,2.0,Animal_Land_Pattern_Large,8.0,,,,,,,,,,,
encoding,value,12,17046818,17052830,17051405.0,17051425.0,21.0,21.0,1812.6,1072.0,1591.0,1269.0,Object_Sea_Solid_Small,66.69044429203495,72.70168191706762,2.0,Animal_Land_Pattern_Large,8.0,,,,,,,,,,,
encoding,value,12,17046818,17052830,17051445.0,17051495.0,51.0,51.0,1816.1,1071.8,1591.0,1269.0,Object_Sea_Solid_Small,66.69044429203495,72.70168191706762,2.0,Animal_Land_Pattern_Large,8.0,,,,,,,,,,,
encoding,value,12,17046818,17052830,17052249.0,17052310.0,62.0,62.0,1626.8,1104.2,1591.0,891.0,Animal_Land_Pattern_Large,66.69044429203495,72.70168191706762,2.0,Animal_Land_Pattern_Large,8.0,,,,,,,,,,,
encoding,value,12,17046818,17052830,17052633.0,17052657.0,25.0,25.0,1626.5,1260.6,1591.0,891.0,Animal_Land_Pattern_Large,66.69044429203495,72.70168191706762,2.0,Animal_Land_Pattern_Large,8.0,,,,,,,,,,,
encoding,value,12,17046818,17052830,17052677.0,17052719.0,43.0,43.0,1631.7,1182.5,1591.0,891.0,Animal_Land_Pattern_Large,66.69044429203495,72.70168191706762,2.0,Animal_Land_Pattern_Large,8.0,,,,,,,,,,,
encoding,value,12,17046818,17052830,17052737.0,17052934.0,198.0,93.0,1646.1,1161.1,1591.0,891.0,Animal_Land_Pattern_Large,66.69044429203495,72.70168191706762,2.0,Animal_Land_Pattern_Large,8.0,,,,,,,,,,,
encoding,attention,12,17052830,17055847,17052974.0,17053133.0,160.0,160.0,1654.1,1122.5,1591.0,891.0,Animal_Land_Pattern_Large,72.70183999999426,75.7187761249952,2.0,Animal_Land_Pattern_Large,8.0,8.0,1.0,2.9279513329965994,,,,,,,,
encoding,attention,12,17052830,17055847,17053195.0,17053281.0,87.0,87.0,1661.7,1123.3,1591.0,891.0,Animal_Land_Pattern_Large,72.70183999999426,75.7187761249952,2.0,Animal_Land_Pattern_Large,8.0,8.0,1.0,2.9279513329965994,,,,,,,,
encoding,attention,12,17052830,17055847,17053300.0,17054050.0,751.0,751.0,1569.2,1132.8,1591.0,891.0,Animal_Land_Pattern_Large,72.70183999999426,75.7187761249952,2.0,Animal_Land_Pattern_Large,8.0,8.0,1.0,2.9279513329965994,,,,,,,,
encoding,attention,12,17052830,17055847,17054097.0,17054131.0,35.0,35.0,1566.6,1123.0,1591.0,891.0,Animal_Land_Pattern_Large,72.70183999999426,75.7187761249952,2.0,Animal_Land_Pattern_Large,8.0,8.0,1.0,2.9279513329965994,,,,,,,,
encoding,attention,12,17052830,17055847,17054156.0,17054369.0,214.0,214.0,1565.9,1132.8,1591.0,891.0,Animal_Land_Pattern_Large,72.70183999999426,75.7187761249952,2.0,Animal_Land_Pattern_Large,8.0,8.0,1.0,2.9279513329965994,,,,,,,,
encoding,attention,12,17052830,17055847,17054413.0,17054479.0,67.0,67.0,1564.6,1141.2,1591.0,891.0,Animal_Land_Pattern_Large,72.70183999999426,75.7187761249952,2.0,Animal_Land_Pattern_Large,8.0,8.0,1.0,2.9279513329965994,,,,,,,,
encoding,attention,12,17052830,17055847,17054571.0,17054730.0,160.0,160.0,1562.5,1173.9,1591.0,891.0,Animal_Land_Pattern_Large,72.70183999999426,75.7187761249952,2.0,Animal_Land_Pattern_Large,8.0,8.0,1.0,2.9279513329965994,,,,,,,,
encoding,attention,12,17052830,17055847,17054986.0,17055057.0,72.0,72.0,1588.6,1264.1,1591.0,891.0,Animal_Land_Pattern_Large,72.70183999999426,75.7187761249952,2.0,Animal_Land_Pattern_Large,8.0,8.0,1.0,2.9279513329965994,,,,,,,,
encoding,attention,12,17052830,17055847,17055188.0,17055214.0,27.0,27.0,1594.1,1223.5,1591.0,891.0,Animal_Land_Pattern_Large,72.70183999999426,75.7187761249952,2.0,Animal_Land_Pattern_Large,8.0,8.0,1.0,2.9279513329965994,,,,,,,,
encoding,attention,12,17052830,17055847,17055324.0,17055424.0,101.0,101.0,1603.7,1226.6,1591.0,891.0,Animal_Land_Pattern_Large,72.70183999999426,75.7187761249952,2.0,Animal_Land_Pattern_Large,8.0,8.0,1.0,2.9279513329965994,,,,,,,,
