phase,event,onset,offset,trial_number,game,image,outcome,choice,correct,rt,letter,match,response,option,true_value,true_position,recalled_position,
encoding,fixation,6.569005082943477,7.584954541991465,1,1,Animal_Land_Solid_Small,4,,,,,,,,,,,
encoding,image,7.585071666981094,8.605526375002228,1,1,Animal_Land_Solid_Small,4,,,,,,,,,,,
encoding,value,8.605644666939043,14.62252362491563,1,1,Animal_Land_Solid_Small,4,,,,,,,,,,,
encoding,attention,14.622633249964565,17.639948625001125,1,1,Animal_Land_Solid_Small,4,+4,1,1.1180867919465527,,,,,,,,
encoding,fixation,17.640109332976863,18.895083499955945,2,1,Object_Land_Pattern_Large,-2,,,,,,,,,,,
encoding,image,18.895188791910186,19.907240374945104,2,1,Object_Land_Pattern_Large,-2,,,,,,,,,,,
encoding,value,19.907348832930438,25.920286999898963,2,1,Object_Land_Pattern_Large,-2,,,,,,,,,,,
encoding,attention,25.92039695789572,28.93971999990754,2,1,Object_Land_Pattern_Large,-2,-2,1,1.0443737920140848,,,,,,,,
encoding,fixation,28.939863582956605,29.945027791894972,3,1,Animal_Sea_Solid_Large,7,,,,,,,,,,,
encoding,image,29.94513270794414,30.95674395794049,3,1,Animal_Sea_Solid_Large,7,,,,,,,,,,,
encoding,value,30.95686583290808,36.969216333003715,3,1,Animal_Sea_Solid_Large,7,,,,,,,,,,,
encoding,attention,36.969359124894254,39.98920379194897,3,1,Animal_Sea_Solid_Large,7,+7,1,0.6337350839748979,,,,,,,,
encoding,fixation,39.98936041700654,40.49441162496805,4,1,Object_Sea_Solid_Small,-9,,,,,,,,,,,
encoding,image,40.494524249923415,41.50465399993118,4,1,Object_Sea_Solid_Small,-9,,,,,,,,,,,
encoding,value,41.504776374902576,47.51696566690225,4,1,Object_Sea_Solid_Small,-9,,,,,,,,,,,
encoding,attention,47.51708149991464,50.53550783300307,4,1,Object_Sea_Solid_Small,-9,-9,1,1.2319126250222325,,,,,,,,
encoding,fixation,50.535654624924064,51.29054787498899,5,1,Animal_Land_Pattern_Large,-4,,,,,,,,,,,
encoding,image,51.29066291695926,52.30168891698122,5,1,Animal_Land_Pattern_Large,-4,,,,,,,,,,,
encoding,value,52.301817082916386,58.31348808296025,5,1,Animal_Land_Pattern_Large,-4,,,,,,,,,,,
encoding,attention,58.313599874963984,61.331250957911834,5,1,Animal_Land_Pattern_Large,-4,-4,1,0.8574111250927672,,,,,,,,
encoding,fixation,61.33140841696877,62.83642658300232,6,1,Object_Sea_Pattern_Small,4,,,,,,,,,,,
encoding,image,62.83653762494214,63.84755824995227,6,1,Object_Sea_Pattern_Small,4,,,,,,,,,,,
encoding,value,63.84766920795664,69.85975587496068,6,1,Object_Sea_Pattern_Small,4,,,,,,,,,,,
encoding,attention,69.85986583295744,72.8772759999847,6,1,Object_Sea_Pattern_Small,4,+4,1,1.7534042079932988,,,,,,,,
n-back,,,,1,1,,,,1,None,X,False,None,,,,,
n-back,,,,2,1,,,,1,None,X,False,None,,,,,
n-back,,,,3,1,,,,1,None,Z,False,None,,,,,
n-back,,,,4,1,,,,1,None,C,False,None,,,,,
n-back,,,,5,1,,,,1,None,N,False,None,,,,,
n-back,,,,6,1,,,,1,None,X,False,None,,,,,
n-back,,,,7,1,,,,1,None,B,False,None,,,,,
n-back,,,,8,1,,,,1,0.44179291697219014,X,True,1,,,,,
n-back,,,,9,1,,,,1,None,X,False,None,,,,,
n-back,,,,10,1,,,,0,None,X,True,None,,,,,
n-back,,,,11,1,,,,1,None,B,False,None,,,,,
n-back,,,,12,1,,,,1,None,Z,False,None,,,,,
n-back,,,,13,1,,,,1,None,V,False,None,,,,,
n-back,,,,14,1,,,,1,None,B,False,None,,,,,
n-back,,,,15,1,,,,1,None,N,False,None,,,,,
n-back,,,,16,1,,,,0,None,B,True,None,,,,,
n-back,,,,17,1,,,,1,None,C,False,None,,,,,
n-back,,,,18,1,,,,1,0.5856561670079827,B,True,1,,,,,
n-back,,,,19,1,,,,0,None,C,True,None,,,,,
n-back,,,,20,1,,,,0,None,B,True,None,,,,,
n-back,,,,21,1,,,,1,None,X,False,None,,,,,
n-back,,,,22,1,,,,1,None,N,False,None,,,,,
n-back,,,,23,1,,,,1,None,N,False,None,,,,,
n-back,,,,24,1,,,,1,0.9811799160670489,N,True,1,,,,,
n-back,,,,25,1,,,,1,None,X,False,None,,,,,
n-back,,,,26,1,,,,0,None,N,True,None,,,,,
n-back,,,,27,1,,,,1,None,V,False,None,,,,,
n-back,,,,28,1,,,,1,0.9054265830200166,N,True,1,,,,,
n-back,,,,29,1,,,,1,None,N,False,None,,,,,
n-back,,,,30,1,,,,0,None,N,True,None,,,,,
choice,fixation,146.35281620791648,147.60794412496034,1,1,,,,,,,,,Sea,,,,
choice,option,147.6167031249497,148.7873147499049,1,1,,,,,,,,,Sea,,,,
choice,choice,148.78744474996347,159.4134572079638,1,1,,,2,0,9.6151606249623,,,,Sea,,,,
choice,fixation,159.41358208295424,160.66872108296957,2,1,,,,,,,,,Animal,,,,
choice,option,160.67843970796093,161.70594854198862,2,1,,,,,,,,,Animal,,,,
choice,choice,161.70608258293942,174.51101629191544,2,1,,,2,0,11.794247874990106,,,,Animal,,,,
choice,fixation,174.51113120792434,176.01616904197726,3,1,,,,,,,,,Land,,,,
choice,option,176.02529916691128,177.0539192080032,3,1,,,,,,,,,Land,,,,
choice,choice,177.05407162499614,192.4248629999347,3,1,,,1,0,14.360034208046272,,,,Land,,,,
choice,fixation,192.42498716700356,193.93034487497061,4,1,,,,,,,,,Object,,,,
choice,option,193.9400852919789,194.9677190829534,4,1,,,,,,,,,Object,,,,
choice,choice,194.96782333299052,205.71056937496178,4,1,,,1,0,9.732415208010934,,,,Object,,,,
choice,fixation,205.7107495419914,206.9657620419748,5,1,,,,,,,,,Large,,,,
choice,option,206.97458945796825,208.0014037078945,5,1,,,,,,,,,Large,,,,
choice,choice,208.0015483329771,224.31174166698474,5,1,,,2,0,15.299689083942212,,,,Large,,,,
choice,fixation,224.31187712494284,225.31766887498088,6,1,,,,,,,,,Small,,,,
choice,option,225.32638654194307,226.35300645790994,6,1,,,,,,,,,Small,,,,
choice,choice,226.35313099995255,234.67879570799414,6,1,,,1,0,7.315950624994002,,,,Small,,,,
choice,fixation,234.6789119580062,235.68386691692285,7,1,,,,,,,,,Pattern,,,,
choice,option,235.69310916692484,236.71992383291945,7,1,,,,,,,,,Pattern,,,,
choice,choice,236.72004924993962,249.2084436248988,7,1,,,1,0,11.477673250017688,,,,Pattern,,,,
choice,fixation,249.2085713329725,250.71480445796624,8,1,,,,,,,,,Solid,,,,
choice,option,250.72399670793675,251.75089329190087,8,1,,,,,,,,,Solid,,,,
choice,choice,251.7510297918925,256.92610183299985,8,1,,,2,0,4.165596499922685,,,,Solid,,,,
memory,free_recall,312.3051896248944,332.71580424997956,0,1,,,,,,,,,,,,,
memory,value_recall,375.61101141700055,384.60951158299576,1,1,Object_Land_Pattern_Large,,,,8.993804958998226,,,,,-2,,,
memory,value_recall,386.4104269579984,389.2247058749199,2,1,Animal_Sea_Solid_Large,,,,2.8074958339566365,,,,,7,,,
memory,value_recall,390.77181437495165,393.599899791996,3,1,Animal_Land_Pattern_Large,,,,2.8236945419339463,,,,,-4,,,
memory,value_recall,395.39580729196314,402.2567789579043,4,1,Animal_Land_Solid_Small,,,,6.856908457935788,,,,,4,,,
memory,value_recall,403.55311737500597,408.28192879189737,5,1,Object_Sea_Solid_Small,,,,4.724763292004354,,,,,-9,,,
memory,value_recall,410.3277924580034,412.5211025829194,6,1,Object_Sea_Pattern_Small,,,,2.1884423749288544,,,,,4,,,
memory,spatial_recall,432.7425483328989,437.0495920419926,6,1,Object_Sea_Solid_Small,,,1,4.3029567080084234,,,,,,"[-329, -190]","[-329, -190]",
memory,spatial_recall,438.613411166938,441.89441170799546,6,1,Object_Land_Pattern_Large,,,1,3.276902584009804,,,,,,"[0, -380]","[0, -380]",
memory,spatial_recall,443.7027067919262,447.5775767499581,6,1,Animal_Sea_Solid_Large,,,1,3.870726332999766,,,,,,"[329, 189]","[329, 189]",
memory,spatial_recall,449.6333577919286,452.54456116689835,6,1,Animal_Land_Solid_Small,,,1,2.907043250044808,,,,,,"[329, -190]","[329, -190]",
memory,spatial_recall,453.85048812499736,457.5277478749631,6,1,Object_Sea_Pattern_Small,,,1,3.6730648340890184,,,,,,"[0, 380]","[0, 380]",
memory,spatial_recall,459.0832421669038,463.027277666959,6,1,Animal_Land_Pattern_Large,,,1,3.9399817920057103,,,,,,"[-329, 190]","[-329, 190]",
encoding,fixation,8.44097633403726,9.946072500082664,7,2,Animal_Sea_Pattern_Large,-1,,,,,,,,,,,
encoding,image,9.946188125060871,10.957171084010042,7,2,Animal_Sea_Pattern_Large,-1,,,,,,,,,,,
encoding,value,10.957285042037256,16.9699814170599,7,2,Animal_Sea_Pattern_Large,-1,,,,,,,,,,,
encoding,attention,16.970101583981887,19.987221125047654,7,2,Animal_Sea_Pattern_Large,-1,-1,1,1.363252375042066,,,,,,,,
encoding,fixation,19.987363125081174,21.24232929199934,8,2,Object_Sea_Solid_Small,8,,,,,,,,,,,
encoding,image,21.24243295902852,22.252045375062153,8,2,Object_Sea_Solid_Small,8,,,,,,,,,,,
encoding,value,22.252164042089134,28.263306500040926,8,2,Object_Sea_Solid_Small,8,,,,,,,,,,,
encoding,attention,28.26342462503817,31.28290295903571,8,2,Object_Sea_Solid_Small,8,+8,1,0.883546833996661,,,,,,,,
encoding,fixation,31.283053959021345,32.53915362502448,9,2,Object_Land_Solid_Large,7,,,,,,,,,,,
encoding,image,32.53930008399766,33.54950154200196,9,2,Object_Land_Solid_Large,7,,,,,,,,,,,
encoding,value,33.54961170908064,39.56039412505925,9,2,Object_Land_Solid_Large,7,,,,,,,,,,,
encoding,attention,39.56052029202692,42.57861879200209,9,2,Object_Land_Solid_Large,7,+7,1,1.804609083919786,,,,,,,,
encoding,fixation,42.578775083995424,43.833811916993,10,2,Object_Land_Pattern_Small,-8,,,,,,,,,,,
encoding,image,43.83393620909192,44.84532562503591,10,2,Object_Land_Pattern_Small,-8,,,,,,,,,,,
encoding,value,44.84550745901652,50.85886758402921,10,2,Object_Land_Pattern_Small,-8,,,,,,,,,,,
encoding,attention,50.85906004207209,53.87810033408459,10,2,Object_Land_Pattern_Small,-8,-8,1,1.169650041963905,,,,,,,,
encoding,fixation,53.878260584082454,54.63327462505549,11,2,Animal_Sea_Solid_Small,-1,,,,,,,,,,,
encoding,image,54.63338654208928,55.64447858405765,11,2,Animal_Sea_Solid_Small,-1,,,,,,,,,,,
encoding,value,55.64461058401503,61.65586329204962,11,2,Animal_Sea_Solid_Small,-1,,,,,,,,,,,
encoding,attention,61.65602204203606,64.67412300000433,11,2,Animal_Sea_Solid_Small,-1,-1,1,1.5982179580023512,,,,,,,,
encoding,fixation,64.67427891702391,65.6794004170224,12,2,Animal_Land_Pattern_Large,8,,,,,,,,,,,
encoding,image,65.67951433407143,66.6903335840907,12,2,Animal_Land_Pattern_Large,8,,,,,,,,,,,
encoding,value,66.69044429203495,72.70168191706762,12,2,Animal_Land_Pattern_Large,8,,,,,,,,,,,
encoding,attention,72.70183999999426,75.7187761249952,12,2,Animal_Land_Pattern_Large,8,+8,1,2.9279513329965994,,,,,,,,
n-back,,,,31,2,,,,0,None,V,True,None,,,,,
n-back,,,,32,2,,,,0,None,V,True,None,,,,,
n-back,,,,33,2,,,,1,None,Z,False,None,,,,,
n-back,,,,34,2,,,,1,None,Z,False,None,,,,,
n-back,,,,35,2,,,,1,None,B,False,None,,,,,
n-back,,,,36,2,,,,1,None,B,False,None,,,,,
n-back,,,,37,2,,,,1,None,N,False,None,,,,,
n-back,,,,38,2,,,,1,None,X,False,None,,,,,
n-back,,,,39,2,,,,1,0.6108383329119533,N,True,1,,,,,
n-back,,,,40,2,,,,1,None,N,False,None,,,,,
n-back,,,,41,2,,,,0,None,N,True,None,,,,,
n-back,,,,42,2,,,,1,None,V,False,None,,,,,
n-back,,,,43,2,,,,1,0.35533562500495464,N,True,1,,,,,
n-back,,,,44,2,,,,0,None,V,True,None,,,,,
n-back,,,,45,2,,,,1,None,V,False,None,,,,,
n-back,,,,46,2,,,,1,1.1452440000139177,V,True,1,,,,,
n-back,,,,47,2,,,,0,None,V,True,None,,,,,
n-back,,,,48,2,,,,1,None,X,False,None,,,,,
n-back,,,,49,2,,,,1,None,C,False,None,,,,,
n-back,,,,50,2,,,,1,None,B,False,None,,,,,
n-back,,,,51,2,,,,1,None,N,False,None,,,,,
n-back,,,,52,2,,,,1,None,V,False,None,,,,,
n-back,,,,53,2,,,,0,0.7634602910839021,C,False,1,,,,,
n-back,,,,54,2,,,,0,None,V,True,None,,,,,
n-back,,,,55,2,,,,1,None,B,False,None,,,,,
n-back,,,,56,2,,,,1,None,B,False,None,,,,,
n-back,,,,57,2,,,,1,None,C,False,None,,,,,
n-back,,,,58,2,,,,1,0.8177125419024378,B,True,1,,,,,
n-back,,,,59,2,,,,1,None,X,False,None,,,,,
n-back,,,,60,2,,,,1,None,V,False,None,,,,,
choice,fixation,155.14555258408654,156.3988674590364,9,2,,,,,,,,,Large,,,,
choice,option,156.4069914170541,157.43519091699272,9,2,,,,,,,,,Large,,,,
choice,choice,157.43530512508005,168.96868979209103,9,2,,,1,1,10.522687707911246,,,,Large,,,,
choice,fixation,168.9688570840517,169.72398675000295,10,2,,,,,,,,,Solid,,,,
choice,option,169.73335695907008,170.7596434589941,10,2,,,,,,,,,Solid,,,,
choice,choice,170.75973312498536,191.24876400001813,10,2,,,1,1,19.478432083968073,,,,Solid,,,,
choice,fixation,191.24888987501618,191.7553391250549,11,2,,,,,,,,,Small,,,,
choice,option,191.76373270899057,192.79031504201703,11,2,,,,,,,,,Small,,,,
choice,choice,192.79043891699985,211.46476541704033,11,2,,,2,1,17.662547124898992,,,,Small,,,,
choice,fixation,211.46490770904347,212.47176087507978,12,2,,,,,,,,,Pattern,,,,
choice,option,212.48071704199538,213.50807416706812,12,2,,,,,,,,,Pattern,,,,
choice,choice,213.50817920907866,227.58061150007416,12,2,,,2,1,13.061119833029807,,,,Pattern,,,,
choice,fixation,227.58077337499708,228.83632537501398,13,2,,,,,,,,,Animal,,,,
choice,option,228.8460912919836,229.87377437506802,13,2,,,,,,,,,Animal,,,,
choice,choice,229.87387216708157,234.78438770899083,13,2,,,2,0,3.900336917024106,,,,Animal,,,,
choice,fixation,234.7845131669892,235.79025345901027,14,2,,,,,,,,,Land,,,,
choice,option,235.7994099589996,236.82656566705555,14,2,,,,,,,,,Land,,,,
choice,choice,236.82669608399738,252.36165920901112,14,2,,,1,1,14.523858583997935,,,,Land,,,,
choice,fixation,252.3617795840837,252.86710825003684,15,2,,,,,,,,,Sea,,,,
choice,option,252.8758346249815,253.90232645906508,15,2,,,,,,,,,Sea,,,,
choice,choice,253.90243237500545,265.4812281250488,15,2,,,1,1,10.567875916953199,,,,Sea,,,,
choice,fixation,265.4813427920453,265.98839475004934,16,2,,,,,,,,,Object,,,,
choice,option,265.99769504205324,267.02377129206434,16,2,,,,,,,,,Object,,,,
choice,choice,267.0238730420824,268.99267904204316,16,2,,,1,1,0.9593345000175759,,,,Object,,,,
memory,free_recall,277.9861102499999,312.5461999170948,6,2,,,,,,,,,,,,,
memory,value_recall,318.7236011250643,328.50531870906707,7,2,Animal_Land_Pattern_Large,,,,9.778139333007857,,,,,8,,,
memory,value_recall,329.8022429170087,332.2910315000918,8,2,Animal_Sea_Solid_Small,,,,2.4846845000283793,,,,,-1,,,
memory,value_recall,334.33927691704594,336.2206672920147,9,2,Object_Sea_Solid_Small,,,,1.877250749967061,,,,,8,,,
memory,value_recall,337.76618641708046,344.1052216250682,10,2,Object_Land_Pattern_Small,,,,6.33287270902656,,,,,-8,,,
memory,value_recall,345.15140983404126,346.93112195900176,11,2,Object_Land_Solid_Large,,,,1.7764988329727203,,,,,7,,,
memory,value_recall,348.97810050006956,352.6029860000126,12,2,Animal_Sea_Pattern_Large,,,,3.6206220829626545,,,,,-1,,,
memory,spatial_recall,358.75884666701313,362.337171375053,12,2,Object_Sea_Solid_Small,,,1,3.574287583003752,,,,,,"[-329, -190]","[-329, -190]",
memory,spatial_recall,363.90467279206496,365.9374392090831,12,2,Object_Land_Pattern_Small,,,1,2.027758292038925,,,,,,"[0, -380]","[0, -380]",
memory,spatial_recall,367.9988715420477,372.53270695905667,12,2,Animal_Sea_Solid_Small,,,1,4.529546375037171,,,,,,"[0, 380]","[0, 380]",
memory,spatial_recall,374.0872470000759,375.86593950004317,12,2,Object_Land_Solid_Large,,,1,1.77461833297275,,,,,,"[329, 189]","[329, 189]",
memory,spatial_recall,376.92066425003577,379.84945662505925,12,2,Animal_Sea_Pattern_Large,,,1,2.926426334073767,,,,,,"[329, -190]","[329, -190]",
memory,spatial_recall,380.90593058406375,382.71544316702057,12,2,Animal_Land_Pattern_Large,,,1,1.8070616249460727,,,,,,"[-329, 190]","[-329, 190]",
encoding,fixation,3.7780027500120923,4.786285666981712,13,3,Object_Land_Solid_Small,-5,,,,,,,,,,,
encoding,image,4.7864062080625445,5.797779749962501,13,3,Object_Land_Solid_Small,-5,,,,,,,,,,,
encoding,value,5.797885457985103,11.811069041956216,13,3,Object_Land_Solid_Small,-5,,,,,,,,,,,
encoding,attention,11.811189291998744,14.830741500016302,13,3,Object_Land_Solid_Small,-5,-5,1,2.157963417004794,,,,,,,,
encoding,fixation,14.830889458069578,15.335811082972214,14,3,Animal_Land_Solid_Large,-6,,,,,,,,,,,
encoding,image,15.335923042031936,16.34727029199712,14,3,Animal_Land_Solid_Large,-6,,,,,,,,,,,
encoding,value,16.347386042005382,22.359937499975786,14,3,Animal_Land_Solid_Large,-6,,,,,,,,,,,
encoding,attention,22.360044667031616,25.377602291991934,14,3,Animal_Land_Solid_Large,-6,-6,1,0.823120207991451,,,,,,,,
encoding,fixation,25.377766250050627,26.63612625002861,15,3,Object_Sea_Solid_Large,2,,,,,,,,,,,
encoding,image,26.636309207999147,27.648579042055644,15,3,Object_Sea_Solid_Large,2,,,,,,,,,,,
encoding,value,27.648669917020015,33.66210295795463,15,3,Object_Sea_Solid_Large,2,,,,,,,,,,,
encoding,attention,33.66220758296549,36.68044004205149,15,3,Object_Sea_Solid_Large,2,+2,1,1.3279649169417098,,,,,,,,
encoding,fixation,36.680593083030544,37.43584029201884,16,3,Object_Sea_Pattern_Large,1,,,,,,,,,,,
encoding,image,37.435945875011384,38.4468242500443,16,3,Object_Sea_Pattern_Large,1,,,,,,,,,,,
encoding,value,38.446945833042264,44.45902941701934,16,3,Object_Sea_Pattern_Large,1,,,,,,,,,,,
encoding,attention,44.45913966698572,47.47820491704624,16,3,Object_Sea_Pattern_Large,1,+1,1,1.3883898749481887,,,,,,,,
encoding,fixation,47.47835524997208,48.235793542000465,17,3,Animal_Sea_Pattern_Small,-6,,,,,,,,,,,
encoding,image,48.23591399996076,49.24742533301469,17,3,Animal_Sea_Pattern_Small,-6,,,,,,,,,,,
encoding,value,49.247534750029445,55.25905320805032,17,3,Animal_Sea_Pattern_Small,-6,,,,,,,,,,,
encoding,attention,55.259160749963485,58.27831712504849,17,3,Animal_Sea_Pattern_Small,-6,-6,1,2.7233517499407753,,,,,,,,
encoding,fixation,58.278462624992244,59.78509566700086,18,3,Animal_Land_Pattern_Small,7,,,,,,,,,,,
encoding,image,59.785217666998506,60.79664395796135,18,3,Animal_Land_Pattern_Small,7,,,,,,,,,,,
encoding,value,60.79682504199445,66.80889058299363,18,3,Animal_Land_Pattern_Small,7,,,,,,,,,,,
encoding,attention,66.80900566698983,69.82579783303663,18,3,Animal_Land_Pattern_Small,7,+7,1,0.8387079579988495,,,,,,,,
n-back,,,,61,3,,,,1,None,C,False,None,,,,,
n-back,,,,62,3,,,,1,None,C,False,None,,,,,
n-back,,,,63,3,,,,1,None,Z,False,None,,,,,
n-back,,,,64,3,,,,1,None,B,False,None,,,,,
n-back,,,,65,3,,,,1,None,X,False,None,,,,,
n-back,,,,66,3,,,,1,0.6265845840098336,B,True,1,,,,,
n-back,,,,67,3,,,,1,0.8706432499457151,X,True,1,,,,,
n-back,,,,68,3,,,,1,None,V,False,None,,,,,
n-back,,,,69,3,,,,1,None,C,False,None,,,,,
n-back,,,,70,3,,,,1,0.3161916659446433,V,True,1,,,,,
n-back,,,,71,3,,,,1,0.9418915830319747,C,True,1,,,,,
n-back,,,,72,3,,,,1,None,X,False,None,,,,,
n-back,,,,73,3,,,,0,1.1062543749576434,V,False,1,,,,,
n-back,,,,74,3,,,,1,0.7320958339842036,X,True,1,,,,,
n-back,,,,75,3,,,,1,1.145463666995056,V,True,1,,,,,
n-back,,,,76,3,,,,1,0.8995498750591651,X,True,1,,,,,
n-back,,,,77,3,,,,1,None,C,False,None,,,,,
n-back,,,,78,3,,,,1,1.3197262500179932,X,True,1,,,,,
n-back,,,,79,3,,,,1,None,N,False,None,,,,,
n-back,,,,80,3,,,,1,None,V,False,None,,,,,
n-back,,,,81,3,,,,0,None,N,True,None,,,,,
n-back,,,,82,3,,,,1,None,B,False,None,,,,,
n-back,,,,83,3,,,,1,None,V,False,None,,,,,
n-back,,,,84,3,,,,1,None,V,False,None,,,,,
n-back,,,,85,3,,,,1,None,X,False,None,,,,,
n-back,,,,86,3,,,,1,1.2583550830604509,V,True,1,,,,,
n-back,,,,87,3,,,,1,None,V,False,None,,,,,
n-back,,,,88,3,,,,1,None,B,False,None,,,,,
n-back,,,,89,3,,,,1,None,X,False,None,,,,,
n-back,,,,90,3,,,,1,None,Z,False,None,,,,,
choice,fixation,146.110693500028,147.11633554205764,17,3,,,,,,,,,Animal,,,,
choice,option,147.12564470805228,148.15322841703892,17,3,,,,,,,,,Animal,,,,
choice,choice,148.1533384170616,177.62455683306325,17,3,,,2,1,28.460161666967906,,,,Animal,,,,
choice,fixation,177.62469629198313,179.1296825830359,18,3,,,,,,,,,Pattern,,,,
choice,option,179.13908341701608,180.1677840000484,18,3,,,,,,,,,Pattern,,,,
choice,choice,180.16791008296423,209.67392479197588,18,3,,,1,1,28.494058292009868,,,,Pattern,,,,
choice,fixation,209.67403791705146,211.17907979199663,19,3,,,,,,,,,Solid,,,,
choice,option,211.18843316705897,212.21492637495976,19,3,,,,,,,,,Solid,,,,
choice,choice,212.21503399999347,214.7269462500699,19,3,,,2,1,1.5023503330303356,,,,Solid,,,,
choice,fixation,214.7270652919542,215.23557616700418,20,3,,,,,,,,,Land,,,,
choice,option,215.24377337505575,216.27058124996256,20,3,,,,,,,,,Land,,,,
choice,choice,216.2706831250107,238.50493370799813,20,3,,,1,0,21.22332633298356,,,,Land,,,,
choice,fixation,238.5050615000073,239.76007391698658,21,3,,,,,,,,,Large,,,,
choice,option,239.76881658297498,240.7953153749695,21,3,,,,,,,,,Large,,,,
choice,choice,240.79541841696482,244.38515099999495,21,3,,,2,1,2.5778726659482345,,,,Large,,,,
choice,fixation,244.38529737503268,245.140616083052,22,3,,,,,,,,,Object,,,,
choice,option,245.15058629203122,246.17650370800402,22,3,,,,,,,,,Object,,,,
choice,choice,246.17662908299826,257.0073015000671,22,3,,,2,1,9.820174249936827,,,,Object,,,,
choice,fixation,257.00741620804183,257.5127477500355,23,3,,,,,,,,,Sea,,,,
choice,option,257.5212540420471,258.5473685420584,23,3,,,,,,,,,Sea,,,,
choice,choice,258.5474872919731,274.8562922499841,23,3,,,2,1,15.297724333941005,,,,Sea,,,,
choice,fixation,274.8564306249609,275.3614593750099,24,3,,,,,,,,,Small,,,,
choice,option,275.3703316670144,276.3959945420502,24,3,,,,,,,,,Small,,,,
choice,choice,276.3961167919915,286.84724933304824,24,3,,,2,1,9.441137957968749,,,,Small,,,,
memory,free_recall,297.5660350000253,310.850752874976,12,3,,,,,,,,,,,,,
memory,value_recall,314.7302258750424,317.65246529201977,13,3,Animal_Land_Pattern_Small,,,,2.9183737500570714,,,,,7,,,
memory,value_recall,319.2011656250106,322.4734197499929,14,3,Object_Sea_Solid_Large,,,,3.268101125024259,,,,,2,,,
memory,value_recall,324.5195745830424,326.5873084999621,15,3,Object_Sea_Pattern_Large,,,,2.06347958301194,,,,,1,,,
memory,value_recall,327.88546995806973,331.0592615000205,16,3,Animal_Land_Solid_Large,,,,3.1696060419781134,,,,,-6,,,
memory,value_recall,332.85555520805065,335.33728400000837,17,3,Object_Land_Solid_Small,,,,2.4776184159563854,,,,,-5,,,
memory,value_recall,336.38438508298714,338.49875658296514,18,3,Animal_Sea_Pattern_Small,,,,2.1110816249856725,,,,,-6,,,
memory,spatial_recall,342.377610375057,348.23712445795536,18,3,Object_Sea_Solid_Large,,,1,5.853071000077762,,,,,,"[329, 189]","[329, 189]",
memory,spatial_recall,349.5502064579632,353.8786433750065,18,3,Animal_Sea_Pattern_Small,,,1,4.324161750031635,,,,,,"[0, -380]","[0, -380]",
memory,spatial_recall,355.686462291982,357.0080430000089,18,3,Object_Sea_Pattern_Large,,,1,1.317472834023647,,,,,,"[329, -190]","[329, -190]",
memory,spatial_recall,358.56372312502936,360.88351829198655,18,3,Object_Land_Solid_Small,,,1,2.3157872909214348,,,,,,"[-329, 190]","[-329, 190]",
memory,spatial_recall,362.69693241699133,366.3784183750395,18,3,Animal_Land_Solid_Large,,,1,3.6766867500264198,,,,,,"[0, 380]","[0, 380]",
memory,spatial_recall,367.43462991702836,370.3249673329992,18,3,Animal_Land_Pattern_Small,,,1,2.887977833976038,,,,,,"[-329, -190]","[-329, -190]",
encoding,fixation,3.9461418749997392,5.453028957941569,19,4,Object_Sea_Pattern_Small,-3,,,,,,,,,,,
encoding,image,5.453154957969673,6.465778250014409,19,4,Object_Sea_Pattern_Small,-3,,,,,,,,,,,
encoding,value,6.465897124959156,12.478979040984996,19,4,Object_Sea_Pattern_Small,-3,,,,,,,,,,,
encoding,attention,12.479104707948864,15.499703333014622,19,4,Object_Sea_Pattern_Small,-3,-3,1,0.9584342919988558,,,,,,,,
encoding,fixation,15.499848166015,16.009013290982693,20,4,Object_Sea_Solid_Small,9,,,,,,,,,,,
encoding,image,16.009122082963586,17.019396957941353,20,4,Object_Sea_Solid_Small,9,,,,,,,,,,,
encoding,value,17.019509915960953,23.030970207997598,20,4,Object_Sea_Solid_Small,9,,,,,,,,,,,
encoding,attention,23.03109141602181,26.04811583296396,20,4,Object_Sea_Solid_Small,9,+9,1,0.9953830409795046,,,,,,,,
encoding,fixation,26.048285124939866,27.304380708024837,21,4,Animal_Sea_Solid_Large,-3,,,,,,,,,,,
encoding,image,27.304487250046805,28.31599858298432,21,4,Animal_Sea_Solid_Large,-3,,,,,,,,,,,
encoding,value,28.316115790978074,34.32782483298797,21,4,Animal_Sea_Solid_Large,-3,,,,,,,,,,,
encoding,attention,34.32792920793872,37.34542566596065,21,4,Animal_Sea_Solid_Large,-3,-3,1,1.9688008340308443,,,,,,,,
encoding,fixation,37.34558741596993,38.3507035409566,22,4,Object_Land_Pattern_Large,-9,,,,,,,,,,,
encoding,image,38.35082912503276,39.36275566602126,22,4,Object_Land_Pattern_Large,-9,,,,,,,,,,,
encoding,value,39.36288341600448,45.37495487497654,22,4,Object_Land_Pattern_Large,-9,,,,,,,,,,,
encoding,attention,45.37508299993351,48.39641691604629,22,4,Object_Land_Pattern_Large,-9,-9,1,0.9895976659609005,,,,,,,,
encoding,fixation,48.39659804094117,49.651817374979146,23,4,Animal_Land_Pattern_Large,9,,,,,,,,,,,
encoding,image,49.651928541017696,50.663663832936436,23,4,Animal_Land_Pattern_Large,9,,,,,,,,,,,
encoding,value,50.663773166015744,56.674885708023794,23,4,Animal_Land_Pattern_Large,9,,,,,,,,,,,
encoding,attention,56.67499924998265,59.695263499976136,23,4,Animal_Land_Pattern_Large,9,+9,1,1.18571054097265,,,,,,,,
encoding,fixation,59.69548400002532,60.950859416043386,24,4,Animal_Land_Solid_Small,-5,,,,,,,,,,,
encoding,image,60.95098062499892,61.96172141598072,24,4,Animal_Land_Solid_Small,-5,,,,,,,,,,,
encoding,value,61.96182870795019,67.9765741250012,24,4,Animal_Land_Solid_Small,-5,,,,,,,,,,,
encoding,attention,67.97668820794206,70.99465854093432,24,4,Animal_Land_Solid_Small,-5,-5,1,1.7003655000589788,,,,,,,,
n-back,,,,91,4,,,,1,None,N,False,None,,,,,
n-back,,,,92,4,,,,0,None,C,True,None,,,,,
n-back,,,,93,4,,,,1,None,X,False,None,,,,,
n-back,,,,94,4,,,,1,0.5650204999838024,C,True,1,,,,,
n-back,,,,95,4,,,,1,0.8267663749866188,X,True,1,,,,,
n-back,,,,96,4,,,,1,None,B,False,None,,,,,
n-back,,,,97,4,,,,1,0.8911704999627545,X,True,1,,,,,
n-back,,,,98,4,,,,1,0.7448081669863313,B,True,1,,,,,
n-back,,,,99,4,,,,1,None,Z,False,None,,,,,
n-back,,,,100,4,,,,1,0.5935405830387026,B,True,1,,,,,
n-back,,,,101,4,,,,1,None,N,False,None,,,,,
n-back,,,,102,4,,,,1,None,C,False,None,,,,,
n-back,,,,103,4,,,,1,None,X,False,None,,,,,
n-back,,,,104,4,,,,1,None,Z,False,None,,,,,
n-back,,,,105,4,,,,1,None,V,False,None,,,,,
n-back,,,,106,4,,,,1,None,V,False,None,,,,,
n-back,,,,107,4,,,,0,0.6832080840831622,X,False,1,,,,,
n-back,,,,108,4,,,,1,None,C,False,None,,,,,
n-back,,,,109,4,,,,1,0.9733532080426812,X,True,1,,,,,
n-back,,,,110,4,,,,1,0.8337812080280855,C,True,1,,,,,
n-back,,,,111,4,,,,1,0.716418334050104,X,True,1,,,,,
n-back,,,,112,4,,,,1,None,B,False,None,,,,,
n-back,,,,113,4,,,,1,None,C,False,None,,,,,
n-back,,,,114,4,,,,1,None,Z,False,None,,,,,
n-back,,,,115,4,,,,1,0.721219833008945,C,True,1,,,,,
n-back,,,,116,4,,,,1,None,N,False,None,,,,,
n-back,,,,117,4,,,,1,None,B,False,None,,,,,
n-back,,,,118,4,,,,1,None,X,False,None,,,,,
n-back,,,,119,4,,,,1,None,N,False,None,,,,,
n-back,,,,120,4,,,,1,None,C,False,None,,,,,
choice,fixation,145.49203741597012,146.74563691602089,25,4,,,,,,,,,Small,,,,
choice,option,146.7547573329648,147.78301320795435,25,4,,,,,,,,,Small,,,,
choice,choice,147.78311924997251,186.1047212909907,25,4,,,2,0,37.30732016602997,,,,Small,,,,
choice,fixation,186.1049052500166,187.10992929094937,26,4,,,,,,,,,Land,,,,
choice,option,187.11832766595762,188.14514470798895,26,4,,,,,,,,,Land,,,,
choice,choice,188.14525212498847,207.34124758304097,26,4,,,2,1,18.182352625066414,,,,Land,,,,
choice,fixation,207.3413693329785,208.59670691599604,27,4,,,,,,,,,Pattern,,,,
choice,option,208.60639008297585,209.63313716603443,27,4,,,,,,,,,Pattern,,,,
choice,choice,209.6332384160487,230.0969220829429,27,4,,,2,1,19.450521041988395,,,,Pattern,,,,
choice,fixation,230.09708937502,231.60243025003,28,4,,,,,,,,,Large,,,,
choice,option,231.6112885409966,232.63796904101036,28,4,,,,,,,,,Large,,,,
choice,choice,232.63807487499435,258.6736359159695,28,4,,,2,1,25.025326250004582,,,,Large,,,,
choice,fixation,258.67382054100744,259.6791126659373,29,4,,,,,,,,,Solid,,,,
choice,option,259.6892402910162,260.71613704098854,29,4,,,,,,,,,Solid,,,,
choice,choice,260.71624929097015,272.0178695829818,29,4,,,1,1,10.286234125029296,,,,Solid,,,,
choice,fixation,272.0180011249613,273.27330491598696,30,4,,,,,,,,,Sea,,,,
choice,option,273.28135750000365,274.3074410830159,30,4,,,,,,,,,Sea,,,,
choice,choice,274.30757787497714,289.3527275000233,30,4,,,1,1,14.034016542020254,,,,Sea,,,,
choice,fixation,289.3528844580287,290.85820362495724,31,4,,,,,,,,,Object,,,,
choice,option,290.8675233749673,291.8950822079787,31,4,,,,,,,,,Object,,,,
choice,choice,291.89518937503453,303.6418122079922,31,4,,,1,0,10.735849207965657,,,,Object,,,,
choice,fixation,303.64200516603887,304.89671383297537,32,4,,,,,,,,,Animal,,,,
choice,option,304.9063187909778,305.9347228750121,32,4,,,,,,,,,Animal,,,,
choice,choice,305.9348343750462,308.1449830830097,32,4,,,2,0,1.2001201669918373,,,,Animal,,,,
memory,free_recall,316.083797957981,334.7789033750305,18,4,,,,,,,,,,,,,
memory,value_recall,339.00677154096775,342.2660777909914,19,4,Object_Land_Pattern_Large,,,,3.2547261669533327,,,,,-9,,,
memory,value_recall,343.81136783293914,345.4182841660222,20,4,Animal_Land_Pattern_Large,,,,1.6027281250571832,,,,,9,,,
memory,value_recall,347.4627745830221,349.33183866599575,21,4,Animal_Sea_Solid_Large,,,,1.8647543749539182,,,,,-3,,,
memory,value_recall,350.6275499999756,353.1867164579453,22,4,Object_Sea_Pattern_Small,,,,2.5550201250007376,,,,,-3,,,
memory,value_recall,354.2328297080239,357.88955916604027,23,4,Object_Sea_Solid_Small,,,,3.6511509170522913,,,,,9,,,
memory,value_recall,359.9366004159674,361.99372579099145,24,4,Animal_Land_Solid_Small,,,,2.052470542024821,,,,,-5,,,
memory,spatial_recall,365.32975849998184,371.78406812495086,24,4,Animal_Sea_Solid_Large,,,1,6.450968499993905,,,,,,"[329, 189]","[329, 189]",
memory,spatial_recall,373.59453949995805,376.7835534999613,24,4,Object_Sea_Pattern_Small,,,1,3.1849846669938415,,,,,,"[0, 380]","[0, 380]",
memory,spatial_recall,378.83954737498425,382.00093312503304,24,4,Animal_Land_Solid_Small,,,1,3.157178167020902,,,,,,"[329, -190]","[329, -190]",
memory,spatial_recall,384.06134024995845,386.8891788329929,24,4,Object_Land_Pattern_Large,,,1,2.8237066250294447,,,,,,"[0, -380]","[0, -380]",
memory,spatial_recall,387.9500736249611,392.23433474998455,24,4,Animal_Land_Pattern_Large,,,1,4.277625042013824,,,,,,"[-329, 190]","[-329, 190]",
memory,spatial_recall,393.53919683303684,398.28420379094314,24,4,Object_Sea_Solid_Small,,,1,4.740902916062623,,,,,,"[-329, -190]","[-329, -190]",
encoding,fixation,3.28063195804134,4.036956625059247,25,5,Object_Land_Solid_Large,8,,,,,,,,,,,
encoding,image,4.03706595802214,5.047904166975059,25,5,Object_Land_Solid_Large,8,,,,,,,,,,,
encoding,value,5.048051791964099,11.060154292033985,25,5,Object_Land_Solid_Large,8,,,,,,,,,,,
encoding,attention,11.060266874963418,14.076733457972296,25,5,Object_Land_Solid_Large,8,+8,1,0.8898087500128895,,,,,,,,
encoding,fixation,14.076883542002179,14.58189837494865,26,5,Animal_Sea_Solid_Small,3,,,,,,,,,,,
encoding,image,14.581995083019137,15.59324595797807,26,5,Animal_Sea_Solid_Small,3,,,,,,,,,,,
encoding,value,15.593352874973789,21.605133792036213,26,5,Animal_Sea_Solid_Small,3,,,,,,,,,,,
encoding,attention,21.605246791965328,24.62270308297593,26,5,Animal_Sea_Solid_Small,3,+3,1,0.9843098750570789,,,,,,,,
encoding,fixation,24.62286324996967,25.380638416972943,27,5,Animal_Sea_Pattern_Large,2,,,,,,,,,,,
encoding,image,25.380749583011493,26.390878375037573,27,5,Animal_Sea_Pattern_Large,2,,,,,,,,,,,
encoding,value,26.391018375055864,32.40265083301347,27,5,Animal_Sea_Pattern_Large,2,,,,,,,,,,,
encoding,attention,32.40276254201308,35.4189068749547,27,5,Animal_Sea_Pattern_Large,2,+2,1,1.551256874925457,,,,,,,,
encoding,fixation,35.419049208052456,35.923931124969386,28,5,Animal_Land_Pattern_Large,-8,,,,,,,,,,,
encoding,image,35.924043916980736,36.935473041958176,28,5,Animal_Land_Pattern_Large,-8,,,,,,,,,,,
encoding,value,36.93563325004652,42.94826049997937,28,5,Animal_Land_Pattern_Large,-8,,,,,,,,,,,
encoding,attention,42.94843733299058,45.96903783304151,28,5,Animal_Land_Pattern_Large,-8,-8,1,0.9840486249886453,,,,,,,,
encoding,fixation,45.96925579197705,46.973906166967936,29,5,Object_Land_Pattern_Small,4,,,,,,,,,,,
encoding,image,46.974026083014905,47.98559929197654,29,5,Object_Land_Pattern_Small,4,,,,,,,,,,,
encoding,value,47.9857070830185,53.99866033298895,29,5,Object_Land_Pattern_Small,4,,,,,,,,,,,
encoding,attention,53.9988265420543,57.01871687499806,29,5,Object_Land_Pattern_Small,4,+4,1,0.8315558329923078,,,,,,,,
encoding,fixation,57.01888433296699,58.02393274998758,30,5,Object_Sea_Solid_Small,-8,,,,,,,,,,,
encoding,image,58.02404516702518,59.03414875001181,30,5,Object_Sea_Solid_Small,-8,,,,,,,,,,,
encoding,value,59.034271624987014,65.04823141696397,30,5,Object_Sea_Solid_Small,-8,,,,,,,,,,,
encoding,attention,65.04834258300252,68.06398720794823,30,5,Object_Sea_Solid_Small,-8,-8,1,0.7382207090267912,,,,,,,,
n-back,,,,121,5,,,,0,None,C,True,None,,,,,
n-back,,,,122,5,,,,1,None,B,False,None,,,,,
n-back,,,,123,5,,,,1,None,B,False,None,,,,,
n-back,,,,124,5,,,,1,None,Z,False,None,,,,,
n-back,,,,125,5,,,,1,None,C,False,None,,,,,
n-back,,,,126,5,,,,1,None,C,False,None,,,,,
n-back,,,,127,5,,,,1,None,X,False,None,,,,,
n-back,,,,128,5,,,,1,0.5233506660442799,C,True,1,,,,,
n-back,,,,129,5,,,,1,None,C,False,None,,,,,
n-back,,,,130,5,,,,1,0.603138874983415,C,True,1,,,,,
n-back,,,,131,5,,,,1,None,N,False,None,,,,,
n-back,,,,132,5,,,,1,0.5887704170309007,C,True,1,,,,,
n-back,,,,133,5,,,,1,0.7946964169386774,N,True,1,,,,,
n-back,,,,134,5,,,,1,None,B,False,None,,,,,
n-back,,,,135,5,,,,1,None,V,False,None,,,,,
n-back,,,,136,5,,,,1,None,X,False,None,,,,,
n-back,,,,137,5,,,,1,None,Z,False,None,,,,,
n-back,,,,138,5,,,,1,0.7864474169909954,X,True,1,,,,,
n-back,,,,139,5,,,,1,None,C,False,None,,,,,
n-back,,,,140,5,,,,1,None,C,False,None,,,,,
n-back,,,,141,5,,,,1,0.3771077919518575,C,True,1,,,,,
n-back,,,,142,5,,,,1,None,Z,False,None,,,,,
n-back,,,,143,5,,,,1,None,X,False,None,,,,,
n-back,,,,144,5,,,,1,0.7652994999662042,Z,True,1,,,,,
n-back,,,,145,5,,,,1,0.8339965420309454,X,True,1,,,,,
n-back,,,,146,5,,,,1,None,V,False,None,,,,,
n-back,,,,147,5,,,,1,0.8651861660182476,X,True,1,,,,,
n-back,,,,148,5,,,,1,None,X,False,None,,,,,
n-back,,,,149,5,,,,1,None,V,False,None,,,,,
n-back,,,,150,5,,,,1,None,C,False,None,,,,,
choice,fixation,142.4184377080528,143.6717547919834,33,5,,,,,,,,,Object,,,,
choice,option,143.6807934170356,144.70713662495837,33,5,,,,,,,,,Object,,,,
choice,choice,144.70724420796614,173.87275120802224,33,5,,,1,1,28.154564708005637,,,,Object,,,,
choice,fixation,173.87287291698158,175.127992792055,34,5,,,,,,,,,Small,,,,
choice,option,175.13697079196572,176.1643785419874,34,5,,,,,,,,,Small,,,,
choice,choice,176.16450612503104,211.26755600003526,34,5,,,1,0,34.089130333974026,,,,Small,,,,
choice,fixation,211.2677360420348,212.02317229204345,35,5,,,,,,,,,Solid,,,,
choice,option,212.0337372920476,213.0624736249447,35,5,,,,,,,,,Solid,,,,
choice,choice,213.0625948329689,237.60825875005685,35,5,,,2,0,23.53437024995219,,,,Solid,,,,
choice,fixation,237.6083687080536,238.36365683295298,36,5,,,,,,,,,Large,,,,
choice,option,238.37234324996825,239.39947854203638,36,5,,,,,,,,,Large,,,,
choice,choice,239.39960058301222,258.7765627920162,36,5,,,1,1,18.36604949994944,,,,Large,,,,
choice,fixation,258.7767081670463,259.78222129202913,37,5,,,,,,,,,Animal,,,,
choice,option,259.79217300005257,260.81969158304855,37,5,,,,,,,,,Animal,,,,
choice,choice,260.8197961250553,266.4385406669462,37,5,,,1,0,4.6081046250183135,,,,Animal,,,,
choice,fixation,266.4386836249614,267.19381708302535,38,5,,,,,,,,,Sea,,,,
choice,option,267.20229945797473,268.22844324994367,38,5,,,,,,,,,Sea,,,,
choice,choice,268.22856774996035,281.47117316699587,38,5,,,2,1,12.231096832896583,,,,Sea,,,,
choice,fixation,281.47131100005936,282.9763259170577,39,5,,,,,,,,,Land,,,,
choice,option,282.9855909580365,284.01401595794596,39,5,,,,,,,,,Land,,,,
choice,choice,284.0141384169692,286.06350375001784,39,5,,,1,1,1.0396745830075815,,,,Land,,,,
choice,fixation,286.06364329205826,287.31876320799347,40,5,,,,,,,,,Pattern,,,,
choice,option,287.328054707963,288.3541077079717,40,5,,,,,,,,,Pattern,,,,
choice,choice,288.35422866698354,294.13428695802577,40,5,,,1,0,4.769840458058752,,,,Pattern,,,,
memory,free_recall,302.83983929199167,324.5773803329794,24,5,,,,,,,,,,,,,
memory,value_recall,330.14376500004437,334.4569602080155,25,5,Animal_Sea_Pattern_Large,,,,4.309010625001974,,,,,2,,,
memory,value_recall,335.50526237499435,337.0657426669495,26,5,Object_Sea_Solid_Small,,,,1.5577242500148714,,,,,-8,,,
memory,value_recall,338.1071741669439,339.1962518750224,27,5,Animal_Land_Pattern_Large,,,,1.084689790965058,,,,,-8,,,
memory,value_recall,340.22990729205776,348.3682639170438,28,5,Animal_Sea_Solid_Small,,,,8.135809374973178,,,,,3,,,
memory,value_recall,350.41412112500984,354.06606216705404,29,5,Object_Land_Pattern_Small,,,,3.647828000015579,,,,,4,,,
memory,value_recall,355.3618025420001,357.88092720799614,30,5,Object_Land_Solid_Large,,,,2.514946833020076,,,,,8,,,
memory,spatial_recall,360.4312258330174,362.6910769579699,30,5,Animal_Land_Pattern_Large,,,1,2.2556427919771522,,,,,,"[-329, 190]","[-329, 190]",
memory,spatial_recall,364.49834929197095,366.48742070805747,30,5,Object_Sea_Solid_Small,,,1,1.985299332998693,,,,,,"[-329, -190]","[-329, -190]",
memory,spatial_recall,368.54602691705804,369.9410579999676,30,5,Object_Land_Pattern_Small,,,1,1.3906586659140885,,,,,,"[0, -380]","[0, -380]",
memory,spatial_recall,371.99662779201753,373.5998434999492,30,5,Animal_Sea_Pattern_Large,,,0,1.5990467499941587,,,,,,"[329, -190]","[329, 189]",
memory,spatial_recall,374.90074824995827,378.39107466698624,30,5,Object_Land_Solid_Large,,,1,3.4859716249629855,,,,,,"[329, 189]","[329, 189]",
memory,spatial_recall,380.44766287505627,382.69685679196846,30,5,Animal_Sea_Solid_Small,,,1,2.245125125045888,,,,,,"[0, 380]","[0, 380]",
encoding,fixation,3.583186750067398,4.589848208008334,31,6,Object_Sea_Pattern_Large,2,,,,,,,,,,,
encoding,image,4.589957791031338,5.601724290987477,31,6,Object_Sea_Pattern_Large,2,,,,,,,,,,,
encoding,value,5.601827875012532,11.617265540990047,31,6,Object_Sea_Pattern_Large,2,,,,,,,,,,,
encoding,attention,11.617448000004515,14.637736915959977,31,6,Object_Sea_Pattern_Large,2,+2,1,0.9844887920189649,,,,,,,,
encoding,fixation,14.63788375002332,15.643206750042737,32,6,Animal_Land_Solid_Large,6,,,,,,,,,,,
encoding,image,15.643313458072953,16.6555104580475,32,6,Animal_Land_Solid_Large,6,,,,,,,,,,,
encoding,value,16.655622333055362,22.66814708302263,32,6,Animal_Land_Solid_Large,6,,,,,,,,,,,
encoding,attention,22.66825566603802,25.685487249982543,32,6,Animal_Land_Solid_Large,6,+6,1,0.8694618750596419,,,,,,,,
encoding,fixation,25.685633333050646,27.1909917909652,33,6,Object_Land_Solid_Small,1,,,,,,,,,,,
encoding,image,27.191094083013013,28.20236820797436,33,6,Object_Land_Solid_Small,1,,,,,,,,,,,
encoding,value,28.202471458003856,34.21663074998651,33,6,Object_Land_Solid_Small,1,,,,,,,,,,,
encoding,attention,34.21674866601825,37.233827083022334,33,6,Object_Land_Solid_Small,1,+1,1,1.8259206250077114,,,,,,,,
encoding,fixation,37.23396674997639,37.73894533305429,34,6,Object_Sea_Solid_Large,-6,,,,,,,,,,,
encoding,image,37.739056166028604,38.75057062506676,34,6,Object_Sea_Solid_Large,-6,,,,,,,,,,,
encoding,value,38.75071520800702,44.76243733300362,34,6,Object_Sea_Solid_Large,-6,,,,,,,,,,,
encoding,attention,44.76256037503481,47.780401624972,34,6,Object_Sea_Solid_Large,-6,-6,1,2.6247805829625577,,,,,,,,
encoding,fixation,47.78058041597251,48.78580391604919,35,6,Animal_Land_Pattern_Small,-8,,,,,,,,,,,
encoding,image,48.785917500033975,49.79980712500401,35,6,Animal_Land_Pattern_Small,-8,,,,,,,,,,,
encoding,value,49.79993604100309,55.811547750025056,35,6,Animal_Land_Pattern_Small,-8,,,,,,,,,,,
encoding,attention,55.8116574579617,58.82913412502967,35,6,Animal_Land_Pattern_Small,-8,-8,1,0.9750624999869615,,,,,,,,
encoding,fixation,58.82936112501193,60.3346146249678,36,6,Animal_Sea_Pattern_Small,3,,,,,,,,,,,
encoding,image,60.33473116601817,61.346214874996804,36,6,Animal_Sea_Pattern_Small,3,,,,,,,,,,,
encoding,value,61.34635916596744,67.35917429102119,36,6,Animal_Sea_Pattern_Small,3,,,,,,,,,,,
encoding,attention,67.35928466601763,70.3766472080024,36,6,Animal_Sea_Pattern_Small,3,+3,1,1.5308158330153674,,,,,,,,
n-back,,,,151,6,,,,1,None,B,False,None,,,,,
n-back,,,,152,6,,,,0,None,Z,True,None,,,,,
n-back,,,,153,6,,,,1,None,V,False,None,,,,,
n-back,,,,154,6,,,,1,None,C,False,None,,,,,
n-back,,,,155,6,,,,1,0.6096807919675484,V,True,1,,,,,
n-back,,,,156,6,,,,1,None,V,False,None,,,,,
n-back,,,,157,6,,,,1,1.054981791996397,V,True,1,,,,,
n-back,,,,158,6,,,,1,None,B,False,None,,,,,
n-back,,,,159,6,,,,1,None,B,False,None,,,,,
n-back,,,,160,6,,,,1,None,X,False,None,,,,,
n-back,,,,161,6,,,,1,0.6038933329982683,B,True,1,,,,,
n-back,,,,162,6,,,,0,1.0906375420745462,B,False,1,,,,,
n-back,,,,163,6,,,,0,1.1777390419738367,X,False,1,,,,,
n-back,,,,164,6,,,,1,None,V,False,None,,,,,
n-back,,,,165,6,,,,1,None,V,False,None,,,,,
n-back,,,,166,6,,,,1,None,B,False,None,,,,,
n-back,,,,167,6,,,,1,0.8787923749769107,V,True,1,,,,,
n-back,,,,168,6,,,,1,None,N,False,None,,,,,
n-back,,,,169,6,,,,1,None,B,False,None,,,,,
n-back,,,,170,6,,,,1,0.583797083934769,N,True,1,,,,,
n-back,,,,171,6,,,,1,None,X,False,None,,,,,
n-back,,,,172,6,,,,1,None,B,False,None,,,,,
n-back,,,,173,6,,,,1,0.6766021659132093,X,True,1,,,,,
n-back,,,,174,6,,,,1,None,C,False,None,,,,,
n-back,,,,175,6,,,,1,None,Z,False,None,,,,,
n-back,,,,176,6,,,,1,None,V,False,None,,,,,
n-back,,,,177,6,,,,0,None,Z,True,None,,,,,
n-back,,,,178,6,,,,1,None,X,False,None,,,,,
n-back,,,,179,6,,,,1,0.6396599999861792,Z,True,1,,,,,
n-back,,,,180,6,,,,1,0.7439303750870749,X,True,1,,,,,
choice,fixation,137.83862929104362,138.8419364580186,41,6,,,,,,,,,Solid,,,,
choice,option,138.85122983297333,139.87745825003367,41,6,,,,,,,,,Solid,,,,
choice,choice,139.87757308303844,179.89414154097904,41,6,,,2,0,39.00405500002671,,,,Solid,,,,
choice,fixation,179.89427300007083,181.39954941603355,42,6,,,,,,,,,Large,,,,
choice,option,181.4078824580647,182.43459412502125,42,6,,,,,,,,,Large,,,,
choice,choice,182.4346963330172,206.03017033298966,42,6,,,1,1,22.584157124976628,,,,Large,,,,
choice,fixation,206.03033162502106,206.7857030830346,43,6,,,,,,,,,Land,,,,
choice,option,206.7950991250109,207.8217536250595,43,6,,,,,,,,,Land,,,,
choice,choice,207.8218704579631,246.32548058300745,43,6,,,2,1,37.49247245793231,,,,Land,,,,
choice,fixation,246.3256110000657,247.08344808302354,44,6,,,,,,,,,Sea,,,,
choice,option,247.09199724998325,248.1184565409785,44,6,,,,,,,,,Sea,,,,
choice,choice,248.11855725001078,253.21142345806584,44,6,,,2,1,4.083191499928944,,,,Sea,,,,
choice,fixation,253.21154295804445,254.21714770805556,45,6,,,,,,,,,Object,,,,
choice,option,254.22642937500495,255.25254629098345,45,6,,,,,,,,,Object,,,,
choice,choice,255.2526602500584,283.363877833006,45,6,,,1,0,27.100158749963157,,,,Object,,,,
choice,fixation,283.3639973750105,284.3692792910151,46,6,,,,,,,,,Pattern,,,,
choice,option,284.37858566606883,285.40492050000466,46,6,,,,,,,,,Pattern,,,,
choice,choice,285.4050267910352,304.73242562497035,46,6,,,2,1,18.316622207988985,,,,Pattern,,,,
choice,fixation,304.73262562497985,305.2376452910248,47,6,,,,,,,,,Animal,,,,
choice,option,305.24689900001977,306.2736785829766,47,6,,,,,,,,,Animal,,,,
choice,choice,306.27379629097413,312.18833425000776,47,6,,,1,1,4.904926125076599,,,,Animal,,,,
choice,fixation,312.18845200003125,313.44361804099753,48,6,,,,,,,,,Small,,,,
choice,option,313.4529499160126,314.48304283304606,48,6,,,,,,,,,Small,,,,
choice,choice,314.48316329100635,336.8755372080486,48,6,,,2,1,21.381455958005972,,,,Small,,,,
memory,free_recall,343.9670757909771,367.3980229579611,30,6,,,,,,,,,,,,,
memory,value_recall,371.6768468749942,374.430472832988,31,6,Animal_Sea_Pattern_Small,,,,2.7495233330409974,,,,,3,,,
memory,value_recall,376.47464645805303,379.1569327500183,32,6,Animal_Land_Pattern_Small,,,,2.678171082981862,,,,,-8,,,
memory,value_recall,380.45192512497306,383.86900795798283,33,6,Object_Sea_Pattern_Large,,,,3.412977167055942,,,,,2,,,
memory,value_recall,384.91666729096323,388.4366257910151,34,6,Object_Sea_Solid_Large,,,,3.5159746670397,,,,,-6,,,
memory,value_recall,390.2329261660343,393.1682099580066,35,6,Object_Land_Solid_Small,,,,2.9312408750411123,,,,,1,,,
memory,value_recall,394.46445529104676,396.5845908749616,36,6,Animal_Land_Solid_Large,,,,2.1158760000253096,,,,,6,,,
memory,spatial_recall,399.4160739580402,402.25978724996094,36,6,Animal_Land_Solid_Large,,,1,2.839625332970172,,,,,,"[0, 380]","[0, 380]",
memory,spatial_recall,404.0689871250652,406.42609745799564,36,6,Object_Sea_Solid_Large,,,1,2.3530254169600084,,,,,,"[329, 189]","[329, 189]",
memory,spatial_recall,408.2328292080201,410.37609345803503,36,6,Object_Sea_Pattern_Large,,,1,2.1391729169990867,,,,,,"[329, -190]","[329, -190]",
memory,spatial_recall,412.1846530829789,413.38081429107115,36,6,Object_Land_Solid_Small,,,1,1.192239583004266,,,,,,"[-329, 190]","[-329, 190]",
memory,spatial_recall,415.44314470805693,417.1096809160663,36,6,Animal_Land_Pattern_Small,,,1,1.660992958000861,,,,,,"[-329, -190]","[-329, -190]",
memory,spatial_recall,419.17102316603996,421.11860366596375,36,6,Animal_Sea_Pattern_Small,,,1,1.9434963749954477,,,,,,"[0, -380]","[0, -380]",
encoding,fixation,6.554427791968919,7.310336041962728,37,7,Animal_Sea_Solid_Small,9,,,,,,,,,,,
encoding,image,7.310447333031334,8.322044042055495,37,7,Animal_Sea_Solid_Small,9,,,,,,,,,,,
encoding,value,8.322150791995227,14.334840707946569,37,7,Animal_Sea_Solid_Small,9,,,,,,,,,,,
encoding,attention,14.33494679199066,17.35371891700197,37,7,Animal_Sea_Solid_Small,9,+9,1,1.2241292090620846,,,,,,,,
encoding,fixation,17.353878500056453,18.859034541994333,38,7,Object_Land_Pattern_Large,7,,,,,,,,,,,
encoding,image,18.85916095797438,19.87101287499536,38,7,Object_Land_Pattern_Large,7,,,,,,,,,,,
encoding,value,19.871140250004828,25.88384991697967,38,7,Object_Land_Pattern_Large,7,,,,,,,,,,,
encoding,attention,25.88395649997983,28.902035624952987,38,7,Object_Land_Pattern_Large,7,+7,1,0.6505371659295633,,,,,,,,
encoding,fixation,28.90217366698198,30.40733125002589,39,7,Animal_Sea_Solid_Large,-1,,,,,,,,,,,
encoding,image,30.40744458301924,31.41878520802129,39,7,Animal_Sea_Solid_Large,-1,,,,,,,,,,,
encoding,value,31.418898458010517,37.431126249954104,39,7,Animal_Sea_Solid_Large,-1,,,,,,,,,,,
encoding,attention,37.431237458018586,40.44880595803261,39,7,Animal_Sea_Solid_Large,-1,-1,1,0.5757538750767708,,,,,,,,
encoding,fixation,40.44897245801985,41.954418541979976,40,7,Object_Sea_Pattern_Large,-2,,,,,,,,,,,
encoding,image,41.95451737497933,42.96574670798145,40,7,Object_Sea_Pattern_Large,-2,,,,,,,,,,,
encoding,value,42.965864458004944,48.97732487495523,40,7,Object_Sea_Pattern_Large,-2,,,,,,,,,,,
encoding,attention,48.97744354198221,51.99464666703716,40,7,Object_Sea_Pattern_Large,-2,-2,1,2.175023667048663,,,,,,,,
encoding,fixation,51.99480175005738,53.5000870419899,41,7,Object_Land_Solid_Small,-2,,,,,,,,,,,
encoding,image,53.500209458055906,54.51454433298204,41,7,Object_Land_Solid_Small,-2,,,,,,,,,,,
encoding,value,54.514741500024684,60.52632308297325,41,7,Object_Land_Solid_Small,-2,,,,,,,,,,,
encoding,attention,60.52644299995154,63.54350699996576,41,7,Object_Land_Solid_Small,-2,-2,1,0.9937934170011431,,,,,,,,
encoding,fixation,63.543661916977726,64.54877562494949,42,7,Animal_Land_Pattern_Small,-3,,,,,,,,,,,
encoding,image,64.54888870799914,65.56042679201346,42,7,Animal_Land_Pattern_Small,-3,,,,,,,,,,,
encoding,value,65.5605238750577,71.57228750002105,42,7,Animal_Land_Pattern_Small,-3,,,,,,,,,,,
encoding,attention,71.57239370804746,74.59008374996483,42,7,Animal_Land_Pattern_Small,-3,-3,1,1.083509917021729,,,,,,,,
n-back,,,,181,7,,,,0,None,N,True,None,,,,,
n-back,,,,182,7,,,,1,None,N,False,None,,,,,
n-back,,,,183,7,,,,1,None,B,False,None,,,,,
n-back,,,,184,7,,,,1,None,V,False,None,,,,,
n-back,,,,185,7,,,,1,0.44770920800510794,B,True,1,,,,,
n-back,,,,186,7,,,,1,0.7892192909494042,V,True,1,,,,,
n-back,,,,187,7,,,,1,0.6422183749964461,B,True,1,,,,,
n-back,,,,188,7,,,,1,None,Z,False,None,,,,,
n-back,,,,189,7,,,,1,None,Z,False,None,,,,,
n-back,,,,190,7,,,,1,None,N,False,None,,,,,
n-back,,,,191,7,,,,1,None,C,False,None,,,,,
n-back,,,,192,7,,,,1,None,Z,False,None,,,,,
n-back,,,,193,7,,,,1,0.5461183750303462,C,True,1,,,,,
n-back,,,,194,7,,,,1,0.7731739589944482,Z,True,1,,,,,
n-back,,,,195,7,,,,1,0.7472679580096155,C,True,1,,,,,
n-back,,,,196,7,,,,1,None,X,False,None,,,,,
n-back,,,,197,7,,,,1,None,X,False,None,,,,,
n-back,,,,198,7,,,,1,None,V,False,None,,,,,
n-back,,,,199,7,,,,1,None,B,False,None,,,,,
n-back,,,,200,7,,,,1,None,C,False,None,,,,,
n-back,,,,201,7,,,,1,0.6629350829171017,B,True,1,,,,,
n-back,,,,202,7,,,,1,None,Z,False,None,,,,,
n-back,,,,203,7,,,,1,None,V,False,None,,,,,
n-back,,,,204,7,,,,1,1.2024172500241548,Z,True,1,,,,,
n-back,,,,205,7,,,,1,None,Z,False,None,,,,,
n-back,,,,206,7,,,,1,None,X,False,None,,,,,
n-back,,,,207,7,,,,1,None,V,False,None,,,,,
n-back,,,,208,7,,,,1,1.1282226250041276,X,True,1,,,,,
n-back,,,,209,7,,,,1,None,Z,False,None,,,,,
n-back,,,,210,7,,,,1,None,B,False,None,,,,,
choice,fixation,149.52121200005058,151.0253892079927,49,7,,,,,,,,,Pattern,,,,
choice,option,151.03448112495244,152.0629853750579,49,7,,,,,,,,,Pattern,,,,
choice,choice,152.0631147499662,185.05309891700745,49,7,,,2,0,31.976477999938652,,,,Pattern,,,,
choice,fixation,185.05322370794602,185.8084099580301,50,7,,,,,,,,,Small,,,,
choice,option,185.81739354203455,186.84697891701944,50,7,,,,,,,,,Small,,,,
choice,choice,186.8470842919778,203.94873954204377,50,7,,,2,0,16.088813542039134,,,,Small,,,,
choice,fixation,203.94887920795009,204.70405616704375,51,7,,,,,,,,,Animal,,,,
choice,option,204.71386491705198,205.74081900005694,51,7,,,,,,,,,Animal,,,,
choice,choice,205.7409222080605,243.4338343749987,51,7,,,2,0,36.68082616699394,,,,Animal,,,,
choice,fixation,243.43396387505345,244.18924066703767,52,7,,,,,,,,,Land,,,,
choice,option,244.19768816698343,245.225231874967,52,7,,,,,,,,,Land,,,,
choice,choice,245.22542016697116,269.6908284999663,52,7,,,2,0,23.454223292064853,,,,Land,,,,
choice,fixation,269.69097075005993,270.9467879170552,53,7,,,,,,,,,Sea,,,,
choice,option,270.95575316704344,271.9836301669711,53,7,,,,,,,,,Sea,,,,
choice,choice,271.98372454196215,278.29664345795754,53,7,,,1,1,5.303219959023409,,,,Sea,,,,
choice,fixation,278.29681441700086,279.0519188749604,54,7,,,,,,,,,Object,,,,
choice,option,279.06138045794796,280.08778666704893,54,7,,,,,,,,,Object,,,,
choice,choice,280.0879034999525,304.3531131669879,54,7,,,1,1,23.25410408398602,,,,Object,,,,
choice,fixation,304.35324729199056,305.35877391695976,55,7,,,,,,,,,Large,,,,
choice,option,305.3677640829701,306.3944963749964,55,7,,,,,,,,,Large,,,,
choice,choice,306.3946228750283,313.80079833301716,55,7,,,1,1,6.39585408300627,,,,Large,,,,
choice,fixation,313.8009448329685,314.5564769579796,56,7,,,,,,,,,Solid,,,,
choice,option,314.5659409579821,315.5919018329587,56,7,,,,,,,,,Solid,,,,
choice,choice,315.5920217500534,332.3145002919482,56,7,,,1,1,15.711663458961993,,,,Solid,,,,
memory,free_recall,339.64997137500905,362.8353234169772,36,7,,,,,,,,,,,,,
memory,value_recall,366.60036716703326,371.3144495000597,37,7,Animal_Land_Pattern_Small,,,,4.7095826249569654,,,,,-3,,,
memory,value_recall,372.35955483303405,375.26211229199544,38,7,Animal_Sea_Solid_Large,,,,2.899439916945994,,,,,-1,,,
memory,value_recall,376.8082136249868,378.43560970795806,39,7,Animal_Sea_Solid_Small,,,,1.6225563749903813,,,,,9,,,
memory,value_recall,379.73102270800155,381.8450140419882,40,7,Object_Sea_Pattern_Large,,,,2.1098283329047263,,,,,-2,,,
memory,value_recall,383.1408562080469,384.7403667080216,41,7,Object_Land_Solid_Small,,,,1.5952691660495475,,,,,-2,,,
memory,value_recall,385.7750220829621,387.25000079197343,42,7,Object_Land_Pattern_Large,,,,1.4718015410471708,,,,,7,,,
memory,spatial_recall,390.93750541703776,393.0478344169678,42,7,Object_Land_Solid_Small,,,1,2.106106665916741,,,,,,"[-329, 190]","[-329, 190]",
memory,spatial_recall,394.6090947500197,397.7573810419999,42,7,Animal_Land_Pattern_Small,,,1,3.143930000020191,,,,,,"[-329, -190]","[-329, -190]",
memory,spatial_recall,399.5684319169959,400.91495379200205,42,7,Object_Land_Pattern_Large,,,1,1.342114958097227,,,,,,"[0, -380]","[0, -380]",
memory,spatial_recall,402.2130262500141,403.77817045804113,42,7,Animal_Sea_Solid_Large,,,1,1.5611217500409111,,,,,,"[329, 189]","[329, 189]",
memory,spatial_recall,405.3382379580289,407.49629337503575,42,7,Object_Sea_Pattern_Large,,,1,2.1536139170639217,,,,,,"[329, -190]","[329, -190]",
memory,spatial_recall,409.5606029579649,411.07313416700345,42,7,Animal_Sea_Solid_Small,,,1,1.508340207976289,,,,,,"[0, 380]","[0, 380]",
