subject,phase,event,trial_number,game,option,choice,rt,roi_content,item_index,is_center,is_relevant,fix_start,fix_end,fix_duration_bounded
140,choice,choice,1,1.0,Sea,2.0,9.6151606249623,Animal_Sea_Solid_Large,0,0,1,16646906.0,16647124.0,218.0
140,choice,choice,1,1.0,Sea,2.0,9.6151606249623,fixation,-1,1,0,16647145.0,16647348.0,203.0
140,choice,choice,1,1.0,Sea,2.0,9.6151606249623,Object_Sea_Pattern_Small,1,0,1,16647592.0,16647758.0,166.0
140,choice,choice,1,1.0,Sea,2.0,9.6151606249623,fixation,-1,1,0,16647866.0,16648014.0,148.0
140,choice,choice,1,1.0,Sea,2.0,9.6151606249623,Animal_Land_Pattern_Large,2,0,0,16648118.0,16648183.0,65.0
140,choice,choice,1,1.0,Sea,2.0,9.6151606249623,Object_Sea_Pattern_Small,1,0,1,16648714.0,16649510.0,796.0
140,choice,choice,1,1.0,Sea,2.0,9.6151606249623,Animal_Sea_Solid_Large,0,0,1,16649821.0,16650222.0,401.0
140,choice,choice,1,1.0,Sea,2.0,9.6151606249623,Object_Sea_Pattern_Small,1,0,1,16650281.0,16651707.0,1426.0
140,choice,choice,1,1.0,Sea,2.0,9.6151606249623,Animal_Land_Solid_Small,3,0,0,16652108.0,16652400.0,292.0
140,choice,choice,1,1.0,Sea,2.0,9.6151606249623,Object_Land_Pattern_Large,4,0,0,16652433.0,16652748.0,315.0
140,choice,choice,1,1.0,Sea,2.0,9.6151606249623,Animal_Land_Solid_Small,3,0,0,16652766.0,16653086.0,320.0
140,choice,choice,1,1.0,Sea,2.0,9.6151606249623,Object_Land_Pattern_Large,4,0,0,16653313.0,16653449.0,136.0
140,choice,choice,1,1.0,Sea,2.0,9.6151606249623,Animal_Land_Pattern_Large,2,0,0,16655247.0,16655271.0,24.0
140,choice,choice,1,1.0,Sea,2.0,9.6151606249623,fixation,-1,1,0,16655348.0,16655956.0,608.0
140,choice,choice,1,1.0,Sea,2.0,9.6151606249623,Animal_Land_Solid_Small,3,0,0,16656042.0,16656440.0,398.0
140,choice,choice,2,1.0,Animal,2.0,11.794247874990106,Animal_Land_Pattern_Large,2,0,1,16660079.0,16660192.0,113.0
140,choice,choice,2,1.0,Animal,2.0,11.794247874990106,Object_Sea_Pattern_Small,1,0,0,16660942.0,16661462.0,520.0
140,choice,choice,2,1.0,Animal,2.0,11.794247874990106,Animal_Sea_Solid_Large,0,0,1,16661504.0,16661725.0,221.0
140,choice,choice,2,1.0,Animal,2.0,11.794247874990106,Animal_Land_Solid_Small,3,0,1,16661955.0,16662072.0,117.0
140,choice,choice,2,1.0,Animal,2.0,11.794247874990106,Object_Sea_Solid_Small,5,0,0,16662148.0,16662279.0,131.0
140,choice,choice,2,1.0,Animal,2.0,11.794247874990106,Object_Sea_Pattern_Small,1,0,0,16664357.0,16664713.0,356.0
140,choice,choice,2,1.0,Animal,2.0,11.794247874990106,Animal_Sea_Solid_Large,0,0,1,16664858.0,16667087.0,2229.0
140,choice,choice,2,1.0,Animal,2.0,11.794247874990106,Object_Sea_Pattern_Small,1,0,0,16667135.0,16667452.0,317.0
140,choice,choice,2,1.0,Animal,2.0,11.794247874990106,fixation,-1,1,0,16667667.0,16668637.0,970.0
140,choice,choice,2,1.0,Animal,2.0,11.794247874990106,Object_Sea_Pattern_Small,1,0,0,16668867.0,16668978.0,111.0
140,choice,choice,2,1.0,Animal,2.0,11.794247874990106,fixation,-1,1,0,16669155.0,16671486.0,2331.0
140,choice,choice,3,1.0,Land,1.0,14.360034208046272,Object_Sea_Pattern_Small,1,0,0,16675194.0,16675628.0,434.0
140,choice,choice,3,1.0,Land,1.0,14.360034208046272,fixation,-1,1,0,16677144.0,16677395.0,251.0
140,choice,choice,3,1.0,Land,1.0,14.360034208046272,Animal_Sea_Solid_Large,0,0,0,16677711.0,16677907.0,196.0
140,choice,choice,3,1.0,Land,1.0,14.360034208046272,Object_Sea_Pattern_Small,1,0,0,16678120.0,16678146.0,26.0
140,choice,choice,3,1.0,Land,1.0,14.360034208046272,Animal_Sea_Solid_Large,0,0,0,16678158.0,16678492.0,334.0
140,choice,choice,3,1.0,Land,1.0,14.360034208046272,Animal_Land_Pattern_Large,2,0,1,16678539.0,16679075.0,536.0
140,choice,choice,3,1.0,Land,1.0,14.360034208046272,fixation,-1,1,0,16679696.0,16680073.0,377.0
140,choice,choice,3,1.0,Land,1.0,14.360034208046272,Object_Sea_Pattern_Small,1,0,0,16680286.0,16681357.0,1071.0
140,choice,choice,3,1.0,Land,1.0,14.360034208046272,Animal_Land_Solid_Small,3,0,1,16682505.0,16682807.0,302.0
140,choice,choice,3,1.0,Land,1.0,14.360034208046272,Animal_Sea_Solid_Large,0,0,0,16682854.0,16683025.0,171.0
140,choice,choice,3,1.0,Land,1.0,14.360034208046272,Object_Sea_Pattern_Small,1,0,0,16683103.0,16683417.0,314.0
140,choice,choice,3,1.0,Land,1.0,14.360034208046272,Animal_Land_Pattern_Large,2,0,1,16683694.0,16683863.0,169.0
140,choice,choice,3,1.0,Land,1.0,14.360034208046272,Object_Sea_Pattern_Small,1,0,0,16684430.0,16685700.0,1270.0
140,choice,choice,3,1.0,Land,1.0,14.360034208046272,Animal_Land_Pattern_Large,2,0,1,16686735.0,16686979.0,244.0
140,choice,choice,3,1.0,Land,1.0,14.360034208046272,Object_Sea_Pattern_Small,1,0,0,16687599.0,16687650.0,51.0
140,choice,choice,3,1.0,Land,1.0,14.360034208046272,Animal_Land_Pattern_Large,2,0,1,16687683.0,16688637.0,954.0
140,choice,choice,3,1.0,Land,1.0,14.360034208046272,Object_Sea_Solid_Small,5,0,0,16688679.0,16688909.0,230.0
140,choice,choice,3,1.0,Land,1.0,14.360034208046272,Animal_Land_Pattern_Large,2,0,1,16689170.0,16689377.0,207.0
140,choice,choice,4,1.0,Object,1.0,9.732415208010934,Object_Sea_Pattern_Small,1,0,1,16693145.0,16693506.0,361.0
140,choice,choice,4,1.0,Object,1.0,9.732415208010934,fixation,-1,1,0,16693626.0,16694107.0,481.0
140,choice,choice,4,1.0,Object,1.0,9.732415208010934,Object_Sea_Pattern_Small,1,0,1,16694386.0,16694637.0,251.0
140,choice,choice,4,1.0,Object,1.0,9.732415208010934,fixation,-1,1,0,16694987.0,16695842.0,855.0
140,choice,choice,4,1.0,Object,1.0,9.732415208010934,Animal_Sea_Solid_Large,0,0,0,16696212.0,16696964.0,752.0
140,choice,choice,4,1.0,Object,1.0,9.732415208010934,Animal_Land_Pattern_Large,2,0,0,16697426.0,16698055.0,629.0
140,choice,choice,4,1.0,Object,1.0,9.732415208010934,Object_Sea_Pattern_Small,1,0,1,16698180.0,16699317.0,1137.0
140,choice,choice,4,1.0,Object,1.0,9.732415208010934,Animal_Sea_Solid_Large,0,0,0,16699558.0,16699829.0,271.0
140,choice,choice,4,1.0,Object,1.0,9.732415208010934,Animal_Land_Solid_Small,3,0,0,16699865.0,16700207.0,342.0
140,choice,choice,4,1.0,Object,1.0,9.732415208010934,Object_Sea_Solid_Small,5,0,1,16700653.0,16700923.0,270.0
140,choice,choice,4,1.0,Object,1.0,9.732415208010934,Animal_Land_Solid_Small,3,0,0,16701347.0,16701523.0,176.0
140,choice,choice,4,1.0,Object,1.0,9.732415208010934,Animal_Land_Pattern_Large,2,0,0,16702316.0,16702456.0,140.0
140,choice,choice,4,1.0,Object,1.0,9.732415208010934,Object_Sea_Solid_Small,5,0,1,16702509.0,16702655.0,146.0
140,choice,choice,5,1.0,Large,2.0,15.299689083942212,Object_Sea_Pattern_Small,1,0,0,16706063.0,16706184.0,121.0
140,choice,choice,5,1.0,Large,2.0,15.299689083942212,Animal_Land_Pattern_Large,2,0,1,16706455.0,16706800.0,345.0
140,choice,choice,5,1.0,Large,2.0,15.299689083942212,Object_Sea_Pattern_Small,1,0,0,16707630.0,16707839.0,209.0
140,choice,choice,5,1.0,Large,2.0,15.299689083942212,Animal_Land_Pattern_Large,2,0,1,16707909.0,16708074.0,165.0
140,choice,choice,5,1.0,Large,2.0,15.299689083942212,Object_Sea_Solid_Small,5,0,0,16709867.0,16710178.0,311.0
140,choice,choice,5,1.0,Large,2.0,15.299689083942212,Animal_Land_Pattern_Large,2,0,1,16710207.0,16711813.0,1606.0
140,choice,choice,5,1.0,Large,2.0,15.299689083942212,fixation,-1,1,0,16711873.0,16712596.0,723.0
140,choice,choice,5,1.0,Large,2.0,15.299689083942212,Animal_Land_Pattern_Large,2,0,1,16712846.0,16713123.0,277.0
140,choice,choice,5,1.0,Large,2.0,15.299689083942212,Object_Sea_Pattern_Small,1,0,0,16713370.0,16713780.0,410.0
140,choice,choice,5,1.0,Large,2.0,15.299689083942212,Animal_Land_Solid_Small,3,0,0,16713810.0,16713979.0,169.0
140,choice,choice,5,1.0,Large,2.0,15.299689083942212,Animal_Sea_Solid_Large,0,0,1,16714064.0,16714381.0,317.0
140,choice,choice,5,1.0,Large,2.0,15.299689083942212,Object_Sea_Pattern_Small,1,0,0,16714693.0,16714851.0,158.0
140,choice,choice,5,1.0,Large,2.0,15.299689083942212,fixation,-1,1,0,16715897.0,16716549.0,652.0
140,choice,choice,5,1.0,Large,2.0,15.299689083942212,Animal_Sea_Solid_Large,0,0,1,16716579.0,16716772.0,193.0
140,choice,choice,5,1.0,Large,2.0,15.299689083942212,Object_Sea_Pattern_Small,1,0,0,16717092.0,16717252.0,160.0
140,choice,choice,5,1.0,Large,2.0,15.299689083942212,Animal_Land_Pattern_Large,2,0,1,16717312.0,16718112.0,800.0
140,choice,choice,5,1.0,Large,2.0,15.299689083942212,Object_Sea_Pattern_Small,1,0,0,16718596.0,16718670.0,74.0
140,choice,choice,5,1.0,Large,2.0,15.299689083942212,Animal_Sea_Solid_Large,0,0,1,16718789.0,16719390.0,601.0
140,choice,choice,5,1.0,Large,2.0,15.299689083942212,Animal_Land_Pattern_Large,2,0,1,16719404.0,16719664.0,260.0
140,choice,choice,5,1.0,Large,2.0,15.299689083942212,fixation,-1,1,0,16719690.0,16720150.0,460.0
140,choice,choice,5,1.0,Large,2.0,15.299689083942212,Animal_Land_Pattern_Large,2,0,1,16720205.0,16720361.0,156.0
140,choice,choice,5,1.0,Large,2.0,15.299689083942212,Object_Sea_Pattern_Small,1,0,0,16720550.0,16721245.0,695.0
140,choice,choice,6,1.0,Small,1.0,7.315950624994002,Animal_Sea_Solid_Large,0,0,0,16724579.0,16724660.0,81.0
140,choice,choice,6,1.0,Small,1.0,7.315950624994002,Object_Sea_Pattern_Small,1,0,1,16724977.0,16725574.0,597.0
140,choice,choice,6,1.0,Small,1.0,7.315950624994002,Animal_Sea_Solid_Large,0,0,0,16726843.0,16727049.0,206.0
140,choice,choice,6,1.0,Small,1.0,7.315950624994002,Object_Sea_Solid_Small,5,0,1,16727480.0,16727717.0,237.0
140,choice,choice,6,1.0,Small,1.0,7.315950624994002,fixation,-1,1,0,16727784.0,16727905.0,121.0
140,choice,choice,6,1.0,Small,1.0,7.315950624994002,Object_Sea_Pattern_Small,1,0,1,16728168.0,16728237.0,69.0
140,choice,choice,6,1.0,Small,1.0,7.315950624994002,Animal_Land_Pattern_Large,2,0,0,16728838.0,16728873.0,35.0
140,choice,choice,6,1.0,Small,1.0,7.315950624994002,Object_Sea_Pattern_Small,1,0,1,16728895.0,16729618.0,723.0
140,choice,choice,6,1.0,Small,1.0,7.315950624994002,Animal_Sea_Solid_Large,0,0,0,16729881.0,16730190.0,309.0
140,choice,choice,6,1.0,Small,1.0,7.315950624994002,Object_Sea_Solid_Small,5,0,1,16730325.0,16730455.0,130.0
140,choice,choice,6,1.0,Small,1.0,7.315950624994002,Object_Land_Pattern_Large,4,0,0,16730635.0,16730787.0,152.0
140,choice,choice,6,1.0,Small,1.0,7.315950624994002,Animal_Land_Solid_Small,3,0,1,16730984.0,16731519.0,535.0
140,choice,choice,7,1.0,Pattern,1.0,11.477673250017688,fixation,-1,1,0,16734756.0,16735192.0,436.0
140,choice,choice,7,1.0,Pattern,1.0,11.477673250017688,Animal_Sea_Solid_Large,0,0,0,16735469.0,16735561.0,92.0
140,choice,choice,7,1.0,Pattern,1.0,11.477673250017688,Object_Sea_Pattern_Small,1,0,1,16735690.0,16735827.0,137.0
140,choice,choice,7,1.0,Pattern,1.0,11.477673250017688,Animal_Land_Pattern_Large,2,0,1,16735904.0,16736239.0,335.0
140,choice,choice,7,1.0,Pattern,1.0,11.477673250017688,Object_Sea_Pattern_Small,1,0,1,16736928.0,16737066.0,138.0
140,choice,choice,7,1.0,Pattern,1.0,11.477673250017688,Animal_Land_Pattern_Large,2,0,1,16737112.0,16737577.0,465.0
140,choice,choice,7,1.0,Pattern,1.0,11.477673250017688,Object_Sea_Pattern_Small,1,0,1,16737710.0,16738311.0,601.0
140,choice,choice,7,1.0,Pattern,1.0,11.477673250017688,Animal_Land_Pattern_Large,2,0,1,16738534.0,16739145.0,611.0
140,choice,choice,7,1.0,Pattern,1.0,11.477673250017688,Object_Sea_Solid_Small,5,0,0,16739743.0,16740009.0,266.0
140,choice,choice,7,1.0,Pattern,1.0,11.477673250017688,fixation,-1,1,0,16740107.0,16740424.0,317.0
140,choice,choice,7,1.0,Pattern,1.0,11.477673250017688,Animal_Land_Pattern_Large,2,0,1,16740437.0,16741266.0,829.0
140,choice,choice,7,1.0,Pattern,1.0,11.477673250017688,Object_Sea_Pattern_Small,1,0,1,16741364.0,16742261.0,897.0
140,choice,choice,7,1.0,Pattern,1.0,11.477673250017688,fixation,-1,1,0,16742801.0,16743146.0,345.0
140,choice,choice,7,1.0,Pattern,1.0,11.477673250017688,Animal_Land_Solid_Small,3,0,0,16743436.0,16743520.0,84.0
140,choice,choice,7,1.0,Pattern,1.0,11.477673250017688,Object_Sea_Solid_Small,5,0,0,16743549.0,16744741.0,1192.0
140,choice,choice,7,1.0,Pattern,1.0,11.477673250017688,fixation,-1,1,0,16744758.0,16744996.0,238.0
140,choice,choice,7,1.0,Pattern,1.0,11.477673250017688,Object_Sea_Pattern_Small,1,0,1,16745188.0,16745223.0,35.0
140,choice,choice,7,1.0,Pattern,1.0,11.477673250017688,Animal_Sea_Solid_Large,0,0,0,16745234.0,16745349.0,115.0
140,choice,choice,7,1.0,Pattern,1.0,11.477673250017688,Animal_Land_Pattern_Large,2,0,1,16745933.0,16746231.0,298.0
140,choice,choice,8,1.0,Solid,2.0,4.165596499922685,Object_Sea_Pattern_Small,1,0,0,16749979.0,16750122.0,143.0
140,choice,choice,8,1.0,Solid,2.0,4.165596499922685,fixation,-1,1,0,16750145.0,16751084.0,939.0
140,choice,choice,8,1.0,Solid,2.0,4.165596499922685,Animal_Land_Pattern_Large,2,0,0,16751151.0,16751402.0,251.0
140,choice,choice,8,1.0,Solid,2.0,4.165596499922685,fixation,-1,1,0,16751737.0,16752266.0,529.0
140,choice,choice,8,1.0,Solid,2.0,4.165596499922685,Object_Sea_Solid_Small,5,0,1,16752290.0,16752745.0,455.0
140,choice,choice,8,1.0,Solid,2.0,4.165596499922685,Animal_Land_Solid_Small,3,0,1,16752781.0,16753287.0,506.0
140,choice,choice,8,1.0,Solid,2.0,4.165596499922685,Object_Sea_Pattern_Small,1,0,0,16753503.0,16753532.0,29.0
140,choice,choice,8,1.0,Solid,2.0,4.165596499922685,fixation,-1,1,0,16753547.0,16753843.0,296.0
140,choice,choice,9,2.0,Large,1.0,10.522687707911246,Animal_Land_Pattern_Large,0,0,1,17137895.0,17137926.0,31.0
140,choice,choice,9,2.0,Large,1.0,10.522687707911246,Animal_Sea_Solid_Small,1,0,0,17138028.0,17138149.0,121.0
140,choice,choice,9,2.0,Large,1.0,10.522687707911246,Object_Land_Solid_Large,2,0,1,17138354.0,17138997.0,643.0
140,choice,choice,9,2.0,Large,1.0,10.522687707911246,fixation,-1,1,0,17139696.0,17140284.0,588.0
140,choice,choice,9,2.0,Large,1.0,10.522687707911246,Animal_Sea_Pattern_Large,3,0,1,17140510.0,17140904.0,394.0
140,choice,choice,9,2.0,Large,1.0,10.522687707911246,Object_Sea_Solid_Small,4,0,0,17141223.0,17142033.0,810.0
140,choice,choice,9,2.0,Large,1.0,10.522687707911246,Animal_Sea_Pattern_Large,3,0,1,17142541.0,17142952.0,411.0
140,choice,choice,9,2.0,Large,1.0,10.522687707911246,Object_Land_Solid_Large,2,0,1,17143153.0,17143567.0,414.0
140,choice,choice,9,2.0,Large,1.0,10.522687707911246,fixation,-1,1,0,17143626.0,17143971.0,345.0
140,choice,choice,9,2.0,Large,1.0,10.522687707911246,Object_Sea_Solid_Small,4,0,0,17144042.0,17144146.0,104.0
140,choice,choice,9,2.0,Large,1.0,10.522687707911246,fixation,-1,1,0,17144411.0,17144990.0,579.0
140,choice,choice,9,2.0,Large,1.0,10.522687707911246,Object_Sea_Solid_Small,4,0,0,17145387.0,17145418.0,31.0
140,choice,choice,9,2.0,Large,1.0,10.522687707911246,fixation,-1,1,0,17145541.0,17145937.0,396.0
140,choice,choice,9,2.0,Large,1.0,10.522687707911246,Animal_Sea_Pattern_Large,3,0,1,17146298.0,17146331.0,33.0
140,choice,choice,9,2.0,Large,1.0,10.522687707911246,Object_Land_Solid_Large,2,0,1,17146352.0,17146703.0,351.0
140,choice,choice,9,2.0,Large,1.0,10.522687707911246,Object_Land_Pattern_Small,5,0,0,17147096.0,17147855.0,759.0
140,choice,choice,10,2.0,Solid,1.0,19.478432083968073,fixation,-1,1,0,17151203.0,17151304.0,101.0
140,choice,choice,10,2.0,Solid,1.0,19.478432083968073,Object_Sea_Solid_Small,4,0,1,17151451.0,17151661.0,210.0
140,choice,choice,10,2.0,Solid,1.0,19.478432083968073,Animal_Land_Pattern_Large,0,0,0,17152239.0,17152263.0,24.0
140,choice,choice,10,2.0,Solid,1.0,19.478432083968073,Object_Land_Solid_Large,2,0,1,17152374.0,17152838.0,464.0
140,choice,choice,10,2.0,Solid,1.0,19.478432083968073,Animal_Land_Pattern_Large,0,0,0,17153183.0,17154256.0,1073.0
140,choice,choice,10,2.0,Solid,1.0,19.478432083968073,Animal_Sea_Solid_Small,1,0,1,17154294.0,17156130.0,1836.0
140,choice,choice,10,2.0,Solid,1.0,19.478432083968073,Object_Land_Solid_Large,2,0,1,17157406.0,17157493.0,87.0
140,choice,choice,10,2.0,Solid,1.0,19.478432083968073,Animal_Sea_Solid_Small,1,0,1,17157709.0,17158262.0,553.0
140,choice,choice,10,2.0,Solid,1.0,19.478432083968073,fixation,-1,1,0,17158293.0,17158623.0,330.0
140,choice,choice,10,2.0,Solid,1.0,19.478432083968073,Animal_Sea_Pattern_Large,3,0,0,17158635.0,17159518.0,883.0
140,choice,choice,10,2.0,Solid,1.0,19.478432083968073,fixation,-1,1,0,17159559.0,17159998.0,439.0
140,choice,choice,10,2.0,Solid,1.0,19.478432083968073,Object_Land_Solid_Large,2,0,1,17160280.0,17160417.0,137.0
140,choice,choice,10,2.0,Solid,1.0,19.478432083968073,fixation,-1,1,0,17160540.0,17160830.0,290.0
140,choice,choice,10,2.0,Solid,1.0,19.478432083968073,Object_Land_Solid_Large,2,0,1,17160933.0,17161142.0,209.0
140,choice,choice,10,2.0,Solid,1.0,19.478432083968073,Animal_Sea_Pattern_Large,3,0,0,17161191.0,17161279.0,88.0
140,choice,choice,10,2.0,Solid,1.0,19.478432083968073,fixation,-1,1,0,17161297.0,17161740.0,443.0
140,choice,choice,10,2.0,Solid,1.0,19.478432083968073,Animal_Sea_Pattern_Large,3,0,0,17161841.0,17162202.0,361.0
140,choice,choice,10,2.0,Solid,1.0,19.478432083968073,Object_Land_Solid_Large,2,0,1,17162499.0,17162623.0,124.0
140,choice,choice,10,2.0,Solid,1.0,19.478432083968073,Animal_Sea_Pattern_Large,3,0,0,17162803.0,17163154.0,351.0
140,choice,choice,10,2.0,Solid,1.0,19.478432083968073,Object_Land_Solid_Large,2,0,1,17163422.0,17163802.0,380.0
140,choice,choice,10,2.0,Solid,1.0,19.478432083968073,fixation,-1,1,0,17164149.0,17164317.0,168.0
140,choice,choice,10,2.0,Solid,1.0,19.478432083968073,Animal_Sea_Solid_Small,1,0,1,17164976.0,17165123.0,147.0
140,choice,choice,10,2.0,Solid,1.0,19.478432083968073,Animal_Land_Pattern_Large,0,0,0,17165774.0,17166587.0,813.0
140,choice,choice,10,2.0,Solid,1.0,19.478432083968073,fixation,-1,1,0,17167842.0,17168199.0,357.0
140,choice,choice,10,2.0,Solid,1.0,19.478432083968073,Animal_Sea_Solid_Small,1,0,1,17168517.0,17168566.0,49.0
140,choice,choice,10,2.0,Solid,1.0,19.478432083968073,fixation,-1,1,0,17168660.0,17168729.0,69.0
140,choice,choice,10,2.0,Solid,1.0,19.478432083968073,Object_Land_Solid_Large,2,0,1,17168776.0,17169132.0,356.0
140,choice,choice,10,2.0,Solid,1.0,19.478432083968073,fixation,-1,1,0,17169196.0,17170353.0,1157.0
140,choice,choice,11,2.0,Small,2.0,17.662547124898992,fixation,-1,1,0,17173035.0,17173696.0,661.0
140,choice,choice,11,2.0,Small,2.0,17.662547124898992,Animal_Land_Pattern_Large,0,0,0,17173995.0,17174103.0,108.0
140,choice,choice,11,2.0,Small,2.0,17.662547124898992,fixation,-1,1,0,17174395.0,17175028.0,633.0
140,choice,choice,11,2.0,Small,2.0,17.662547124898992,Animal_Sea_Solid_Small,1,0,1,17176092.0,17176252.0,160.0
140,choice,choice,11,2.0,Small,2.0,17.662547124898992,Object_Land_Solid_Large,2,0,0,17176448.0,17177190.0,742.0
140,choice,choice,11,2.0,Small,2.0,17.662547124898992,Animal_Land_Pattern_Large,0,0,0,17177451.0,17177939.0,488.0
140,choice,choice,11,2.0,Small,2.0,17.662547124898992,Object_Sea_Solid_Small,4,0,1,17179334.0,17179414.0,80.0
140,choice,choice,11,2.0,Small,2.0,17.662547124898992,Animal_Land_Pattern_Large,0,0,0,17179536.0,17179643.0,107.0
140,choice,choice,11,2.0,Small,2.0,17.662547124898992,Object_Sea_Solid_Small,4,0,1,17180212.0,17180647.0,435.0
140,choice,choice,11,2.0,Small,2.0,17.662547124898992,fixation,-1,1,0,17180759.0,17181282.0,523.0
140,choice,choice,11,2.0,Small,2.0,17.662547124898992,Animal_Sea_Pattern_Large,3,0,0,17181625.0,17181844.0,219.0
140,choice,choice,11,2.0,Small,2.0,17.662547124898992,Object_Land_Pattern_Small,5,0,1,17182006.0,17182192.0,186.0
140,choice,choice,11,2.0,Small,2.0,17.662547124898992,fixation,-1,1,0,17182330.0,17182392.0,62.0
140,choice,choice,11,2.0,Small,2.0,17.662547124898992,Object_Land_Solid_Large,2,0,0,17182443.0,17182491.0,48.0
140,choice,choice,11,2.0,Small,2.0,17.662547124898992,Animal_Sea_Solid_Small,1,0,1,17182534.0,17182560.0,26.0
140,choice,choice,11,2.0,Small,2.0,17.662547124898992,Object_Land_Solid_Large,2,0,0,17182804.0,17183643.0,839.0
140,choice,choice,11,2.0,Small,2.0,17.662547124898992,Animal_Sea_Pattern_Large,3,0,0,17184181.0,17184563.0,382.0
140,choice,choice,11,2.0,Small,2.0,17.662547124898992,fixation,-1,1,0,17184630.0,17184899.0,269.0
140,choice,choice,11,2.0,Small,2.0,17.662547124898992,Animal_Sea_Solid_Small,1,0,1,17185264.0,17186083.0,819.0
140,choice,choice,11,2.0,Small,2.0,17.662547124898992,Object_Land_Solid_Large,2,0,0,17186829.0,17187032.0,203.0
140,choice,choice,11,2.0,Small,2.0,17.662547124898992,Animal_Sea_Solid_Small,1,0,1,17187069.0,17187416.0,347.0
140,choice,choice,11,2.0,Small,2.0,17.662547124898992,Animal_Land_Pattern_Large,0,0,0,17187440.0,17187801.0,361.0
140,choice,choice,11,2.0,Small,2.0,17.662547124898992,Animal_Sea_Solid_Small,1,0,1,17187821.0,17188489.0,668.0
140,choice,choice,11,2.0,Small,2.0,17.662547124898992,Animal_Land_Pattern_Large,0,0,0,17189213.0,17189697.0,484.0
140,choice,choice,12,2.0,Pattern,2.0,13.061119833029808,Animal_Sea_Solid_Small,1,0,0,17193725.0,17194932.0,1207.0
140,choice,choice,12,2.0,Pattern,2.0,13.061119833029808,fixation,-1,1,0,17195648.0,17195785.0,137.0
140,choice,choice,12,2.0,Pattern,2.0,13.061119833029808,Animal_Sea_Solid_Small,1,0,0,17196006.0,17196608.0,602.0
140,choice,choice,12,2.0,Pattern,2.0,13.061119833029808,Object_Land_Solid_Large,2,0,0,17196620.0,17198790.0,2170.0
140,choice,choice,12,2.0,Pattern,2.0,13.061119833029808,fixation,-1,1,0,17199586.0,17199645.0,59.0
140,choice,choice,12,2.0,Pattern,2.0,13.061119833029808,Animal_Sea_Pattern_Large,3,0,1,17199701.0,17199999.0,298.0
140,choice,choice,12,2.0,Pattern,2.0,13.061119833029808,fixation,-1,1,0,17200103.0,17200548.0,445.0
140,choice,choice,12,2.0,Pattern,2.0,13.061119833029808,Animal_Sea_Pattern_Large,3,0,1,17200958.0,17201594.0,636.0
140,choice,choice,12,2.0,Pattern,2.0,13.061119833029808,fixation,-1,1,0,17201668.0,17202024.0,356.0
140,choice,choice,12,2.0,Pattern,2.0,13.061119833029808,Object_Land_Solid_Large,2,0,0,17202530.0,17202908.0,378.0
140,choice,choice,12,2.0,Pattern,2.0,13.061119833029808,Animal_Sea_Solid_Small,1,0,0,17203120.0,17203522.0,402.0
140,choice,choice,12,2.0,Pattern,2.0,13.061119833029808,Animal_Land_Pattern_Large,0,0,1,17204958.0,17205196.0,238.0
140,choice,choice,12,2.0,Pattern,2.0,13.061119833029808,Object_Land_Solid_Large,2,0,0,17205226.0,17205444.0,218.0
140,choice,choice,12,2.0,Pattern,2.0,13.061119833029808,fixation,-1,1,0,17205665.0,17206357.0,692.0
140,choice,choice,13,2.0,Animal,2.0,3.900336917024106,Animal_Sea_Solid_Small,1,0,1,17210134.0,17210537.0,403.0
140,choice,choice,13,2.0,Animal,2.0,3.900336917024106,Animal_Land_Pattern_Large,0,0,1,17211422.0,17211511.0,89.0
140,choice,choice,13,2.0,Animal,2.0,3.900336917024106,Animal_Sea_Solid_Small,1,0,1,17211756.0,17211904.0,148.0
140,choice,choice,13,2.0,Animal,2.0,3.900336917024106,Object_Land_Solid_Large,2,0,0,17213046.0,17213223.0,177.0
140,choice,choice,13,2.0,Animal,2.0,3.900336917024106,Object_Sea_Solid_Small,4,0,0,17213246.0,17213603.0,357.0
140,choice,choice,13,2.0,Animal,2.0,3.900336917024106,Animal_Sea_Pattern_Large,3,0,1,17213624.0,17213914.0,290.0
140,choice,choice,14,2.0,Land,1.0,14.523858583997937,Object_Land_Solid_Large,2,0,1,17217015.0,17217132.0,117.0
140,choice,choice,14,2.0,Land,1.0,14.523858583997937,fixation,-1,1,0,17217166.0,17217245.0,79.0
140,choice,choice,14,2.0,Land,1.0,14.523858583997937,Object_Land_Solid_Large,2,0,1,17217281.0,17217751.0,470.0
140,choice,choice,14,2.0,Land,1.0,14.523858583997937,Animal_Land_Pattern_Large,0,0,1,17217998.0,17218361.0,363.0
140,choice,choice,14,2.0,Land,1.0,14.523858583997937,Object_Sea_Solid_Small,4,0,0,17219086.0,17219390.0,304.0
140,choice,choice,14,2.0,Land,1.0,14.523858583997937,fixation,-1,1,0,17219436.0,17219683.0,247.0
140,choice,choice,14,2.0,Land,1.0,14.523858583997937,Object_Land_Solid_Large,2,0,1,17219863.0,17220628.0,765.0
140,choice,choice,14,2.0,Land,1.0,14.523858583997937,Object_Sea_Solid_Small,4,0,0,17220967.0,17221185.0,218.0
140,choice,choice,14,2.0,Land,1.0,14.523858583997937,Object_Land_Solid_Large,2,0,1,17221369.0,17221536.0,167.0
140,choice,choice,14,2.0,Land,1.0,14.523858583997937,Animal_Land_Pattern_Large,0,0,1,17221572.0,17222371.0,799.0
140,choice,choice,14,2.0,Land,1.0,14.523858583997937,Animal_Sea_Solid_Small,1,0,0,17222646.0,17222796.0,150.0
140,choice,choice,14,2.0,Land,1.0,14.523858583997937,Object_Land_Solid_Large,2,0,1,17223085.0,17224187.0,1102.0
140,choice,choice,14,2.0,Land,1.0,14.523858583997937,Animal_Sea_Solid_Small,1,0,0,17224314.0,17224519.0,205.0
140,choice,choice,14,2.0,Land,1.0,14.523858583997937,Object_Land_Solid_Large,2,0,1,17224783.0,17225970.0,1187.0
140,choice,choice,14,2.0,Land,1.0,14.523858583997937,Animal_Sea_Pattern_Large,3,0,0,17226205.0,17226314.0,109.0
140,choice,choice,14,2.0,Land,1.0,14.523858583997937,fixation,-1,1,0,17226443.0,17227749.0,1306.0
140,choice,choice,14,2.0,Land,1.0,14.523858583997937,Animal_Sea_Pattern_Large,3,0,0,17228096.0,17228206.0,110.0
140,choice,choice,14,2.0,Land,1.0,14.523858583997937,fixation,-1,1,0,17228231.0,17228388.0,157.0
140,choice,choice,14,2.0,Land,1.0,14.523858583997937,Object_Land_Pattern_Small,5,0,1,17228494.0,17228676.0,182.0
140,choice,choice,14,2.0,Land,1.0,14.523858583997937,Object_Land_Solid_Large,2,0,1,17228704.0,17229312.0,608.0
140,choice,choice,14,2.0,Land,1.0,14.523858583997937,fixation,-1,1,0,17229754.0,17230283.0,529.0
140,choice,choice,14,2.0,Land,1.0,14.523858583997937,Animal_Land_Pattern_Large,0,0,1,17230960.0,17231093.0,133.0
140,choice,choice,15,2.0,Sea,1.0,10.5678759169532,fixation,-1,1,0,17234092.0,17234159.0,67.0
140,choice,choice,15,2.0,Sea,1.0,10.5678759169532,Object_Land_Solid_Large,2,0,0,17234464.0,17234526.0,62.0
140,choice,choice,15,2.0,Sea,1.0,10.5678759169532,fixation,-1,1,0,17234656.0,17235130.0,474.0
140,choice,choice,15,2.0,Sea,1.0,10.5678759169532,Animal_Sea_Solid_Small,1,0,1,17235405.0,17235761.0,356.0
140,choice,choice,15,2.0,Sea,1.0,10.5678759169532,Object_Land_Solid_Large,2,0,0,17235901.0,17236220.0,319.0
140,choice,choice,15,2.0,Sea,1.0,10.5678759169532,Object_Sea_Solid_Small,4,0,1,17236257.0,17236430.0,173.0
140,choice,choice,15,2.0,Sea,1.0,10.5678759169532,fixation,-1,1,0,17236957.0,17237531.0,574.0
140,choice,choice,15,2.0,Sea,1.0,10.5678759169532,Animal_Land_Pattern_Large,0,0,0,17237798.0,17237955.0,157.0
140,choice,choice,15,2.0,Sea,1.0,10.5678759169532,Object_Land_Solid_Large,2,0,0,17238071.0,17238417.0,346.0
140,choice,choice,15,2.0,Sea,1.0,10.5678759169532,Animal_Land_Pattern_Large,0,0,0,17238667.0,17238890.0,223.0
140,choice,choice,15,2.0,Sea,1.0,10.5678759169532,Object_Sea_Solid_Small,4,0,1,17239064.0,17239373.0,309.0
140,choice,choice,15,2.0,Sea,1.0,10.5678759169532,Object_Land_Solid_Large,2,0,0,17240228.0,17240336.0,108.0
140,choice,choice,15,2.0,Sea,1.0,10.5678759169532,fixation,-1,1,0,17240447.0,17240916.0,469.0
140,choice,choice,15,2.0,Sea,1.0,10.5678759169532,Object_Land_Solid_Large,2,0,0,17241006.0,17241672.0,666.0
140,choice,choice,15,2.0,Sea,1.0,10.5678759169532,Animal_Sea_Solid_Small,1,0,1,17241713.0,17242233.0,520.0
140,choice,choice,15,2.0,Sea,1.0,10.5678759169532,Animal_Land_Pattern_Large,0,0,0,17242624.0,17242652.0,28.0
140,choice,choice,15,2.0,Sea,1.0,10.5678759169532,Object_Land_Solid_Large,2,0,0,17242691.0,17242856.0,165.0
140,choice,choice,15,2.0,Sea,1.0,10.5678759169532,Animal_Sea_Pattern_Large,3,0,1,17242891.0,17243195.0,304.0
140,choice,choice,15,2.0,Sea,1.0,10.5678759169532,Object_Land_Solid_Large,2,0,0,17243256.0,17243589.0,333.0
140,choice,choice,15,2.0,Sea,1.0,10.5678759169532,Animal_Land_Pattern_Large,0,0,0,17243855.0,17244143.0,288.0
140,choice,choice,15,2.0,Sea,1.0,10.5678759169532,Animal_Sea_Solid_Small,1,0,1,17244150.0,17244178.0,28.0
140,choice,choice,15,2.0,Sea,1.0,10.5678759169532,Object_Sea_Solid_Small,4,0,1,17244226.0,17244519.0,293.0
140,choice,choice,16,2.0,Object,1.0,0.959334500017576,Animal_Sea_Solid_Small,1,0,0,17247186.0,17247273.0,87.0
140,choice,choice,16,2.0,Object,1.0,0.959334500017576,Object_Sea_Solid_Small,4,0,1,17247848.0,17248123.0,275.0
140,choice,choice,17,3.0,Animal,2.0,28.460161666967903,Object_Land_Solid_Small,0,0,0,17525826.0,17526299.0,473.0
140,choice,choice,17,3.0,Animal,2.0,28.460161666967903,Animal_Land_Solid_Large,1,0,1,17526427.0,17526613.0,186.0
140,choice,choice,17,3.0,Animal,2.0,28.460161666967903,fixation,-1,1,0,17526634.0,17526804.0,170.0
140,choice,choice,17,3.0,Animal,2.0,28.460161666967903,Object_Land_Solid_Small,0,0,0,17527028.0,17527179.0,151.0
140,choice,choice,17,3.0,Animal,2.0,28.460161666967903,fixation,-1,1,0,17527221.0,17527615.0,394.0
140,choice,choice,17,3.0,Animal,2.0,28.460161666967903,Object_Land_Solid_Small,0,0,0,17528091.0,17528698.0,607.0
140,choice,choice,17,3.0,Animal,2.0,28.460161666967903,Animal_Land_Solid_Large,1,0,1,17529573.0,17530690.0,1117.0
140,choice,choice,17,3.0,Animal,2.0,28.460161666967903,Object_Sea_Solid_Large,2,0,0,17531293.0,17531748.0,455.0
140,choice,choice,17,3.0,Animal,2.0,28.460161666967903,Animal_Land_Solid_Large,1,0,1,17531785.0,17532735.0,950.0
140,choice,choice,17,3.0,Animal,2.0,28.460161666967903,Object_Sea_Solid_Large,2,0,0,17532964.0,17533105.0,141.0
140,choice,choice,17,3.0,Animal,2.0,28.460161666967903,Animal_Land_Solid_Large,1,0,1,17533218.0,17533274.0,56.0
140,choice,choice,17,3.0,Animal,2.0,28.460161666967903,Object_Land_Solid_Small,0,0,0,17533304.0,17533707.0,403.0
140,choice,choice,17,3.0,Animal,2.0,28.460161666967903,fixation,-1,1,0,17533749.0,17534912.0,1163.0
140,choice,choice,17,3.0,Animal,2.0,28.460161666967903,Object_Sea_Pattern_Large,3,0,0,17535423.0,17535772.0,349.0
140,choice,choice,17,3.0,Animal,2.0,28.460161666967903,fixation,-1,1,0,17535807.0,17536661.0,854.0
140,choice,choice,17,3.0,Animal,2.0,28.460161666967903,Object_Sea_Pattern_Large,3,0,0,17536704.0,17537016.0,312.0
140,choice,choice,17,3.0,Animal,2.0,28.460161666967903,Animal_Sea_Pattern_Small,4,0,1,17537043.0,17537235.0,192.0
140,choice,choice,17,3.0,Animal,2.0,28.460161666967903,fixation,-1,1,0,17537425.0,17537474.0,49.0
140,choice,choice,17,3.0,Animal,2.0,28.460161666967903,Object_Sea_Pattern_Large,3,0,0,17537487.0,17537631.0,144.0
140,choice,choice,17,3.0,Animal,2.0,28.460161666967903,fixation,-1,1,0,17537651.0,17537873.0,222.0
140,choice,choice,17,3.0,Animal,2.0,28.460161666967903,Animal_Sea_Pattern_Small,4,0,1,17537931.0,17538688.0,757.0
140,choice,choice,17,3.0,Animal,2.0,28.460161666967903,fixation,-1,1,0,17538708.0,17541001.0,2293.0
140,choice,choice,17,3.0,Animal,2.0,28.460161666967903,Object_Sea_Pattern_Large,3,0,0,17541315.0,17541916.0,601.0
140,choice,choice,17,3.0,Animal,2.0,28.460161666967903,Animal_Land_Solid_Large,1,0,1,17542384.0,17542511.0,127.0
140,choice,choice,17,3.0,Animal,2.0,28.460161666967903,Object_Land_Solid_Small,0,0,0,17542574.0,17543152.0,578.0
140,choice,choice,17,3.0,Animal,2.0,28.460161666967903,Animal_Land_Solid_Large,1,0,1,17544279.0,17544686.0,407.0
140,choice,choice,17,3.0,Animal,2.0,28.460161666967903,Object_Land_Solid_Small,0,0,0,17545384.0,17545655.0,271.0
140,choice,choice,17,3.0,Animal,2.0,28.460161666967903,fixation,-1,1,0,17546107.0,17547603.0,1496.0
140,choice,choice,17,3.0,Animal,2.0,28.460161666967903,Object_Land_Solid_Small,0,0,0,17547803.0,17547867.0,64.0
140,choice,choice,17,3.0,Animal,2.0,28.460161666967903,fixation,-1,1,0,17547894.0,17548654.0,760.0
140,choice,choice,17,3.0,Animal,2.0,28.460161666967903,Animal_Land_Solid_Large,1,0,1,17548914.0,17548955.0,41.0
140,choice,choice,17,3.0,Animal,2.0,28.460161666967903,fixation,-1,1,0,17549051.0,17550587.0,1536.0
140,choice,choice,17,3.0,Animal,2.0,28.460161666967903,Animal_Land_Pattern_Small,5,0,1,17551280.0,17551359.0,79.0
140,choice,choice,17,3.0,Animal,2.0,28.460161666967903,fixation,-1,1,0,17551727.0,17552146.0,419.0
140,choice,choice,17,3.0,Animal,2.0,28.460161666967903,Animal_Land_Pattern_Small,5,0,1,17552248.0,17552498.0,250.0
140,choice,choice,17,3.0,Animal,2.0,28.460161666967903,fixation,-1,1,0,17552570.0,17552715.0,145.0
140,choice,choice,17,3.0,Animal,2.0,28.460161666967903,Animal_Land_Solid_Large,1,0,1,17552842.0,17553059.0,217.0
140,choice,choice,17,3.0,Animal,2.0,28.460161666967903,fixation,-1,1,0,17553487.0,17554226.0,739.0
140,choice,choice,18,3.0,Pattern,1.0,28.494058292009868,Animal_Land_Solid_Large,1,0,0,17557833.0,17557903.0,70.0
140,choice,choice,18,3.0,Pattern,1.0,28.494058292009868,Object_Land_Solid_Small,0,0,0,17558462.0,17558919.0,457.0
140,choice,choice,18,3.0,Pattern,1.0,28.494058292009868,fixation,-1,1,0,17560071.0,17560298.0,227.0
140,choice,choice,18,3.0,Pattern,1.0,28.494058292009868,Object_Land_Solid_Small,0,0,0,17560334.0,17560626.0,292.0
140,choice,choice,18,3.0,Pattern,1.0,28.494058292009868,Animal_Land_Solid_Large,1,0,0,17560881.0,17561110.0,229.0
140,choice,choice,18,3.0,Pattern,1.0,28.494058292009868,Object_Land_Solid_Small,0,0,0,17561283.0,17561431.0,148.0
140,choice,choice,18,3.0,Pattern,1.0,28.494058292009868,Animal_Land_Solid_Large,1,0,0,17561862.0,17561884.0,22.0
140,choice,choice,18,3.0,Pattern,1.0,28.494058292009868,Object_Land_Solid_Small,0,0,0,17561919.0,17562001.0,82.0
140,choice,choice,18,3.0,Pattern,1.0,28.494058292009868,Animal_Land_Solid_Large,1,0,0,17562181.0,17562466.0,285.0
140,choice,choice,18,3.0,Pattern,1.0,28.494058292009868,Animal_Sea_Pattern_Small,4,0,1,17562505.0,17562671.0,166.0
140,choice,choice,18,3.0,Pattern,1.0,28.494058292009868,fixation,-1,1,0,17562720.0,17562940.0,220.0
140,choice,choice,18,3.0,Pattern,1.0,28.494058292009868,Object_Sea_Solid_Large,2,0,0,17563135.0,17563967.0,832.0
140,choice,choice,18,3.0,Pattern,1.0,28.494058292009868,fixation,-1,1,0,17564042.0,17564270.0,228.0
140,choice,choice,18,3.0,Pattern,1.0,28.494058292009868,Object_Sea_Solid_Large,2,0,0,17564515.0,17564731.0,216.0
140,choice,choice,18,3.0,Pattern,1.0,28.494058292009868,Animal_Land_Solid_Large,1,0,0,17564772.0,17565253.0,481.0
140,choice,choice,18,3.0,Pattern,1.0,28.494058292009868,Object_Land_Solid_Small,0,0,0,17565342.0,17565484.0,142.0
140,choice,choice,18,3.0,Pattern,1.0,28.494058292009868,Animal_Land_Solid_Large,1,0,0,17565729.0,17565766.0,37.0
140,choice,choice,18,3.0,Pattern,1.0,28.494058292009868,Object_Sea_Solid_Large,2,0,0,17565787.0,17565960.0,173.0
140,choice,choice,18,3.0,Pattern,1.0,28.494058292009868,fixation,-1,1,0,17565997.0,17566067.0,70.0
140,choice,choice,18,3.0,Pattern,1.0,28.494058292009868,Object_Sea_Pattern_Large,3,0,1,17566112.0,17566466.0,354.0
140,choice,choice,18,3.0,Pattern,1.0,28.494058292009868,fixation,-1,1,0,17566504.0,17568258.0,1754.0
140,choice,choice,18,3.0,Pattern,1.0,28.494058292009868,Object_Land_Solid_Small,0,0,0,17569482.0,17569709.0,227.0
140,choice,choice,18,3.0,Pattern,1.0,28.494058292009868,fixation,-1,1,0,17569761.0,17570134.0,373.0
140,choice,choice,18,3.0,Pattern,1.0,28.494058292009868,Animal_Land_Solid_Large,1,0,0,17570835.0,17571009.0,174.0
140,choice,choice,18,3.0,Pattern,1.0,28.494058292009868,Animal_Land_Pattern_Small,5,0,1,17571396.0,17571476.0,80.0
140,choice,choice,18,3.0,Pattern,1.0,28.494058292009868,fixation,-1,1,0,17571971.0,17572265.0,294.0
140,choice,choice,18,3.0,Pattern,1.0,28.494058292009868,Animal_Land_Pattern_Small,5,0,1,17572405.0,17573350.0,945.0
140,choice,choice,18,3.0,Pattern,1.0,28.494058292009868,Object_Land_Solid_Small,0,0,0,17574772.0,17574969.0,197.0
140,choice,choice,18,3.0,Pattern,1.0,28.494058292009868,Animal_Land_Pattern_Small,5,0,1,17575021.0,17575113.0,92.0
140,choice,choice,18,3.0,Pattern,1.0,28.494058292009868,Animal_Sea_Pattern_Small,4,0,1,17575132.0,17575425.0,293.0
140,choice,choice,18,3.0,Pattern,1.0,28.494058292009868,fixation,-1,1,0,17575627.0,17576214.0,587.0
140,choice,choice,18,3.0,Pattern,1.0,28.494058292009868,Animal_Sea_Pattern_Small,4,0,1,17576551.0,17576844.0,293.0
140,choice,choice,18,3.0,Pattern,1.0,28.494058292009868,Object_Land_Solid_Small,0,0,0,17577111.0,17577258.0,147.0
140,choice,choice,18,3.0,Pattern,1.0,28.494058292009868,fixation,-1,1,0,17577389.0,17577421.0,32.0
140,choice,choice,18,3.0,Pattern,1.0,28.494058292009868,Animal_Land_Solid_Large,1,0,0,17577820.0,17577861.0,41.0
140,choice,choice,18,3.0,Pattern,1.0,28.494058292009868,fixation,-1,1,0,17577889.0,17578158.0,269.0
140,choice,choice,18,3.0,Pattern,1.0,28.494058292009868,Animal_Land_Pattern_Small,5,0,1,17578194.0,17578433.0,239.0
140,choice,choice,18,3.0,Pattern,1.0,28.494058292009868,fixation,-1,1,0,17578948.0,17579430.0,482.0
140,choice,choice,18,3.0,Pattern,1.0,28.494058292009868,Animal_Land_Pattern_Small,5,0,1,17579761.0,17580247.0,486.0
140,choice,choice,18,3.0,Pattern,1.0,28.494058292009868,fixation,-1,1,0,17580606.0,17581223.0,617.0
140,choice,choice,18,3.0,Pattern,1.0,28.494058292009868,Animal_Land_Pattern_Small,5,0,1,17581436.0,17581672.0,236.0
140,choice,choice,18,3.0,Pattern,1.0,28.494058292009868,fixation,-1,1,0,17581846.0,17582338.0,492.0
140,choice,choice,18,3.0,Pattern,1.0,28.494058292009868,Animal_Land_Pattern_Small,5,0,1,17583002.0,17583506.0,504.0
140,choice,choice,18,3.0,Pattern,1.0,28.494058292009868,Animal_Sea_Pattern_Small,4,0,1,17584201.0,17584501.0,300.0
140,choice,choice,18,3.0,Pattern,1.0,28.494058292009868,fixation,-1,1,0,17584682.0,17585064.0,382.0
140,choice,choice,18,3.0,Pattern,1.0,28.494058292009868,Animal_Sea_Pattern_Small,4,0,1,17585267.0,17585314.0,47.0
140,choice,choice,18,3.0,Pattern,1.0,28.494058292009868,fixation,-1,1,0,17585372.0,17585712.0,340.0
140,choice,choice,18,3.0,Pattern,1.0,28.494058292009868,Object_Sea_Pattern_Large,3,0,1,17585865.0,17586039.0,174.0
140,choice,choice,18,3.0,Pattern,1.0,28.494058292009868,Animal_Land_Pattern_Small,5,0,1,17586083.0,17586183.0,100.0
140,choice,choice,19,3.0,Solid,2.0,1.5023503330303356,Object_Land_Solid_Small,0,0,1,17590032.0,17590103.0,71.0
140,choice,choice,19,3.0,Solid,2.0,1.5023503330303356,fixation,-1,1,0,17590185.0,17590671.0,486.0
140,choice,choice,20,3.0,Land,1.0,21.22332633298356,Animal_Land_Solid_Large,1,0,1,17593930.0,17593957.0,27.0
140,choice,choice,20,3.0,Land,1.0,21.22332633298356,Object_Land_Solid_Small,0,0,1,17594061.0,17594122.0,61.0
140,choice,choice,20,3.0,Land,1.0,21.22332633298356,Animal_Land_Pattern_Small,5,0,1,17594216.0,17594369.0,153.0
140,choice,choice,20,3.0,Land,1.0,21.22332633298356,Object_Land_Solid_Small,0,0,1,17594534.0,17594930.0,396.0
140,choice,choice,20,3.0,Land,1.0,21.22332633298356,Animal_Land_Pattern_Small,5,0,1,17595390.0,17595581.0,191.0
140,choice,choice,20,3.0,Land,1.0,21.22332633298356,Object_Land_Solid_Small,0,0,1,17595842.0,17596517.0,675.0
140,choice,choice,20,3.0,Land,1.0,21.22332633298356,Animal_Land_Solid_Large,1,0,1,17597334.0,17597450.0,116.0
140,choice,choice,20,3.0,Land,1.0,21.22332633298356,Object_Land_Solid_Small,0,0,1,17597477.0,17598234.0,757.0
140,choice,choice,20,3.0,Land,1.0,21.22332633298356,Object_Sea_Solid_Large,2,0,0,17598775.0,17599591.0,816.0
140,choice,choice,20,3.0,Land,1.0,21.22332633298356,Object_Sea_Pattern_Large,3,0,0,17599827.0,17600086.0,259.0
140,choice,choice,20,3.0,Land,1.0,21.22332633298356,Object_Land_Solid_Small,0,0,1,17600351.0,17600469.0,118.0
140,choice,choice,20,3.0,Land,1.0,21.22332633298356,fixation,-1,1,0,17600511.0,17601178.0,667.0
140,choice,choice,20,3.0,Land,1.0,21.22332633298356,Object_Land_Solid_Small,0,0,1,17601523.0,17602762.0,1239.0
140,choice,choice,20,3.0,Land,1.0,21.22332633298356,Animal_Land_Solid_Large,1,0,1,17604389.0,17605051.0,662.0
140,choice,choice,20,3.0,Land,1.0,21.22332633298356,Object_Land_Solid_Small,0,0,1,17605733.0,17605885.0,152.0
140,choice,choice,20,3.0,Land,1.0,21.22332633298356,Object_Sea_Solid_Large,2,0,0,17606075.0,17606379.0,304.0
140,choice,choice,20,3.0,Land,1.0,21.22332633298356,Object_Land_Solid_Small,0,0,1,17606523.0,17606950.0,427.0
140,choice,choice,20,3.0,Land,1.0,21.22332633298356,Animal_Land_Solid_Large,1,0,1,17608462.0,17608700.0,238.0
140,choice,choice,20,3.0,Land,1.0,21.22332633298356,Object_Land_Solid_Small,0,0,1,17608780.0,17609180.0,400.0
140,choice,choice,20,3.0,Land,1.0,21.22332633298356,Animal_Land_Solid_Large,1,0,1,17609581.0,17610215.0,634.0
140,choice,choice,20,3.0,Land,1.0,21.22332633298356,Object_Sea_Solid_Large,2,0,0,17610493.0,17611338.0,845.0
140,choice,choice,20,3.0,Land,1.0,21.22332633298356,Animal_Land_Solid_Large,1,0,1,17611399.0,17611974.0,575.0
140,choice,choice,20,3.0,Land,1.0,21.22332633298356,Object_Sea_Solid_Large,2,0,0,17612541.0,17612902.0,361.0
140,choice,choice,20,3.0,Land,1.0,21.22332633298356,Animal_Land_Pattern_Small,5,0,1,17613283.0,17613715.0,432.0
140,choice,choice,20,3.0,Land,1.0,21.22332633298356,Object_Sea_Pattern_Large,3,0,0,17613786.0,17614528.0,742.0
140,choice,choice,20,3.0,Land,1.0,21.22332633298356,Animal_Land_Solid_Large,1,0,1,17614596.0,17615132.0,536.0
140,choice,choice,21,3.0,Large,2.0,2.5778726659482345,Animal_Land_Solid_Large,1,0,1,17618446.0,17618773.0,327.0
140,choice,choice,21,3.0,Large,2.0,2.5778726659482345,Object_Land_Solid_Small,0,0,0,17619161.0,17619185.0,24.0
140,choice,choice,21,3.0,Large,2.0,2.5778726659482345,Animal_Land_Solid_Large,1,0,1,17619461.0,17619755.0,294.0
140,choice,choice,21,3.0,Large,2.0,2.5778726659482345,Object_Sea_Pattern_Large,3,0,1,17620745.0,17621018.0,273.0
140,choice,choice,22,3.0,Object,2.0,9.820174249936828,Animal_Land_Solid_Large,1,0,0,17624412.0,17624523.0,111.0
140,choice,choice,22,3.0,Object,2.0,9.820174249936828,Object_Sea_Solid_Large,2,0,1,17625000.0,17627255.0,2255.0
140,choice,choice,22,3.0,Object,2.0,9.820174249936828,Object_Sea_Pattern_Large,3,0,1,17628394.0,17628893.0,499.0
140,choice,choice,22,3.0,Object,2.0,9.820174249936828,Object_Land_Solid_Small,0,0,1,17628917.0,17629081.0,164.0
140,choice,choice,22,3.0,Object,2.0,9.820174249936828,fixation,-1,1,0,17629292.0,17629535.0,243.0
140,choice,choice,22,3.0,Object,2.0,9.820174249936828,Object_Sea_Pattern_Large,3,0,1,17630106.0,17630299.0,193.0
140,choice,choice,22,3.0,Object,2.0,9.820174249936828,Object_Sea_Solid_Large,2,0,1,17630624.0,17630828.0,204.0
140,choice,choice,22,3.0,Object,2.0,9.820174249936828,fixation,-1,1,0,17630841.0,17631297.0,456.0
140,choice,choice,22,3.0,Object,2.0,9.820174249936828,Animal_Land_Solid_Large,1,0,0,17632100.0,17632256.0,156.0
140,choice,choice,22,3.0,Object,2.0,9.820174249936828,fixation,-1,1,0,17632279.0,17632775.0,496.0
140,choice,choice,22,3.0,Object,2.0,9.820174249936828,Animal_Land_Solid_Large,1,0,0,17633338.0,17633528.0,190.0
140,choice,choice,23,3.0,Sea,2.0,15.297724333941003,Object_Sea_Solid_Large,2,0,1,17636532.0,17636725.0,193.0
140,choice,choice,23,3.0,Sea,2.0,15.297724333941003,Animal_Land_Solid_Large,1,0,0,17636863.0,17637373.0,510.0
140,choice,choice,23,3.0,Sea,2.0,15.297724333941003,Object_Land_Solid_Small,0,0,0,17637866.0,17637936.0,70.0
140,choice,choice,23,3.0,Sea,2.0,15.297724333941003,Animal_Land_Solid_Large,1,0,0,17638056.0,17638295.0,239.0
140,choice,choice,23,3.0,Sea,2.0,15.297724333941003,fixation,-1,1,0,17639000.0,17639127.0,127.0
140,choice,choice,23,3.0,Sea,2.0,15.297724333941003,Animal_Land_Solid_Large,1,0,0,17639336.0,17639624.0,288.0
140,choice,choice,23,3.0,Sea,2.0,15.297724333941003,fixation,-1,1,0,17640289.0,17640573.0,284.0
140,choice,choice,23,3.0,Sea,2.0,15.297724333941003,Animal_Land_Solid_Large,1,0,0,17640885.0,17641083.0,198.0
140,choice,choice,23,3.0,Sea,2.0,15.297724333941003,Object_Land_Solid_Small,0,0,0,17641503.0,17641608.0,105.0
140,choice,choice,23,3.0,Sea,2.0,15.297724333941003,Object_Sea_Solid_Large,2,0,1,17641831.0,17642755.0,924.0
140,choice,choice,23,3.0,Sea,2.0,15.297724333941003,fixation,-1,1,0,17642825.0,17643240.0,415.0
140,choice,choice,23,3.0,Sea,2.0,15.297724333941003,Animal_Land_Solid_Large,1,0,0,17643472.0,17643530.0,58.0
140,choice,choice,23,3.0,Sea,2.0,15.297724333941003,Object_Sea_Solid_Large,2,0,1,17643594.0,17643621.0,27.0
140,choice,choice,23,3.0,Sea,2.0,15.297724333941003,fixation,-1,1,0,17643694.0,17643733.0,39.0
140,choice,choice,23,3.0,Sea,2.0,15.297724333941003,Object_Sea_Solid_Large,2,0,1,17643753.0,17644306.0,553.0
140,choice,choice,23,3.0,Sea,2.0,15.297724333941003,fixation,-1,1,0,17644778.0,17645036.0,258.0
140,choice,choice,23,3.0,Sea,2.0,15.297724333941003,Object_Land_Solid_Small,0,0,0,17645277.0,17645365.0,88.0
140,choice,choice,23,3.0,Sea,2.0,15.297724333941003,fixation,-1,1,0,17645471.0,17645704.0,233.0
140,choice,choice,23,3.0,Sea,2.0,15.297724333941003,Object_Sea_Solid_Large,2,0,1,17645992.0,17646180.0,188.0
140,choice,choice,23,3.0,Sea,2.0,15.297724333941003,Object_Sea_Pattern_Large,3,0,1,17646293.0,17646421.0,128.0
140,choice,choice,23,3.0,Sea,2.0,15.297724333941003,Animal_Land_Pattern_Small,5,0,0,17646498.0,17646743.0,245.0
140,choice,choice,23,3.0,Sea,2.0,15.297724333941003,Object_Land_Solid_Small,0,0,0,17646769.0,17646797.0,28.0
140,choice,choice,23,3.0,Sea,2.0,15.297724333941003,Animal_Land_Solid_Large,1,0,0,17646984.0,17647091.0,107.0
140,choice,choice,23,3.0,Sea,2.0,15.297724333941003,fixation,-1,1,0,17647285.0,17647403.0,118.0
140,choice,choice,23,3.0,Sea,2.0,15.297724333941003,Object_Land_Solid_Small,0,0,0,17647685.0,17647708.0,23.0
140,choice,choice,23,3.0,Sea,2.0,15.297724333941003,fixation,-1,1,0,17647734.0,17647941.0,207.0
140,choice,choice,23,3.0,Sea,2.0,15.297724333941003,Object_Sea_Pattern_Large,3,0,1,17648025.0,17648667.0,642.0
140,choice,choice,23,3.0,Sea,2.0,15.297724333941003,Animal_Land_Pattern_Small,5,0,0,17648728.0,17649009.0,281.0
140,choice,choice,23,3.0,Sea,2.0,15.297724333941003,fixation,-1,1,0,17649078.0,17649218.0,140.0
140,choice,choice,23,3.0,Sea,2.0,15.297724333941003,Object_Sea_Pattern_Large,3,0,1,17649459.0,17649618.0,159.0
140,choice,choice,23,3.0,Sea,2.0,15.297724333941003,fixation,-1,1,0,17649709.0,17650032.0,323.0
140,choice,choice,23,3.0,Sea,2.0,15.297724333941003,Animal_Sea_Pattern_Small,4,0,1,17650160.0,17651264.0,1104.0
140,choice,choice,23,3.0,Sea,2.0,15.297724333941003,Animal_Land_Pattern_Small,5,0,0,17651325.0,17651492.0,167.0
140,choice,choice,24,3.0,Small,2.0,9.441137957968747,Animal_Land_Solid_Large,1,0,0,17654207.0,17654242.0,35.0
140,choice,choice,24,3.0,Small,2.0,9.441137957968747,fixation,-1,1,0,17654293.0,17654486.0,193.0
140,choice,choice,24,3.0,Small,2.0,9.441137957968747,Object_Sea_Pattern_Large,3,0,0,17655087.0,17655136.0,49.0
140,choice,choice,24,3.0,Small,2.0,9.441137957968747,Animal_Sea_Pattern_Small,4,0,1,17655170.0,17655354.0,184.0
140,choice,choice,24,3.0,Small,2.0,9.441137957968747,Animal_Land_Pattern_Small,5,0,1,17655664.0,17655766.0,102.0
140,choice,choice,24,3.0,Small,2.0,9.441137957968747,Object_Sea_Pattern_Large,3,0,0,17655888.0,17656318.0,430.0
140,choice,choice,24,3.0,Small,2.0,9.441137957968747,Object_Sea_Solid_Large,2,0,0,17656528.0,17657435.0,907.0
140,choice,choice,24,3.0,Small,2.0,9.441137957968747,fixation,-1,1,0,17657784.0,17658249.0,465.0
140,choice,choice,24,3.0,Small,2.0,9.441137957968747,Animal_Land_Solid_Large,1,0,0,17658771.0,17658972.0,201.0
140,choice,choice,24,3.0,Small,2.0,9.441137957968747,Object_Land_Solid_Small,0,0,1,17659085.0,17659512.0,427.0
140,choice,choice,24,3.0,Small,2.0,9.441137957968747,Animal_Sea_Pattern_Small,4,0,1,17660165.0,17661033.0,868.0
140,choice,choice,24,3.0,Small,2.0,9.441137957968747,fixation,-1,1,0,17661086.0,17661320.0,234.0
140,choice,choice,24,3.0,Small,2.0,9.441137957968747,Object_Sea_Pattern_Large,3,0,0,17661459.0,17661683.0,224.0
140,choice,choice,24,3.0,Small,2.0,9.441137957968747,Object_Sea_Solid_Large,2,0,0,17661904.0,17662134.0,230.0
140,choice,choice,24,3.0,Small,2.0,9.441137957968747,Object_Sea_Pattern_Large,3,0,0,17662205.0,17662593.0,388.0
140,choice,choice,24,3.0,Small,2.0,9.441137957968747,Animal_Sea_Pattern_Small,4,0,1,17662641.0,17662753.0,112.0
140,choice,choice,24,3.0,Small,2.0,9.441137957968747,Animal_Land_Pattern_Small,5,0,1,17662885.0,17662979.0,94.0
140,choice,choice,24,3.0,Small,2.0,9.441137957968747,Object_Sea_Pattern_Large,3,0,0,17663365.0,17663484.0,119.0
140,choice,choice,25,4.0,Small,2.0,37.30732016602997,Object_Sea_Pattern_Small,0,0,1,17909389.0,17909807.0,418.0
140,choice,choice,25,4.0,Small,2.0,37.30732016602997,Animal_Sea_Solid_Large,1,0,0,17909996.0,17910416.0,420.0
140,choice,choice,25,4.0,Small,2.0,37.30732016602997,fixation,-1,1,0,17910727.0,17911530.0,803.0
140,choice,choice,25,4.0,Small,2.0,37.30732016602997,Object_Sea_Pattern_Small,0,0,1,17911866.0,17912279.0,413.0
140,choice,choice,25,4.0,Small,2.0,37.30732016602997,Animal_Sea_Solid_Large,1,0,0,17912843.0,17912986.0,143.0
140,choice,choice,25,4.0,Small,2.0,37.30732016602997,Object_Sea_Pattern_Small,0,0,1,17913031.0,17913183.0,152.0
140,choice,choice,25,4.0,Small,2.0,37.30732016602997,Animal_Land_Solid_Small,2,0,1,17913624.0,17913911.0,287.0
140,choice,choice,25,4.0,Small,2.0,37.30732016602997,fixation,-1,1,0,17913968.0,17914055.0,87.0
140,choice,choice,25,4.0,Small,2.0,37.30732016602997,Animal_Land_Pattern_Large,3,0,0,17914129.0,17914455.0,326.0
140,choice,choice,25,4.0,Small,2.0,37.30732016602997,Object_Sea_Pattern_Small,0,0,1,17915256.0,17915468.0,212.0
140,choice,choice,25,4.0,Small,2.0,37.30732016602997,Animal_Land_Pattern_Large,3,0,0,17915585.0,17915688.0,103.0
140,choice,choice,25,4.0,Small,2.0,37.30732016602997,Object_Sea_Pattern_Small,0,0,1,17916304.0,17916417.0,113.0
140,choice,choice,25,4.0,Small,2.0,37.30732016602997,Animal_Sea_Solid_Large,1,0,0,17916643.0,17916763.0,120.0
140,choice,choice,25,4.0,Small,2.0,37.30732016602997,Animal_Land_Solid_Small,2,0,1,17916867.0,17917620.0,753.0
140,choice,choice,25,4.0,Small,2.0,37.30732016602997,Animal_Sea_Solid_Large,1,0,0,17918223.0,17918266.0,43.0
140,choice,choice,25,4.0,Small,2.0,37.30732016602997,Animal_Land_Solid_Small,2,0,1,17918283.0,17918393.0,110.0
140,choice,choice,25,4.0,Small,2.0,37.30732016602997,fixation,-1,1,0,17918456.0,17919217.0,761.0
140,choice,choice,25,4.0,Small,2.0,37.30732016602997,Animal_Land_Solid_Small,2,0,1,17919777.0,17919885.0,108.0
140,choice,choice,25,4.0,Small,2.0,37.30732016602997,fixation,-1,1,0,17919901.0,17920652.0,751.0
140,choice,choice,25,4.0,Small,2.0,37.30732016602997,Animal_Land_Solid_Small,2,0,1,17920852.0,17921074.0,222.0
140,choice,choice,25,4.0,Small,2.0,37.30732016602997,Object_Sea_Pattern_Small,0,0,1,17921304.0,17921850.0,546.0
140,choice,choice,25,4.0,Small,2.0,37.30732016602997,Animal_Land_Solid_Small,2,0,1,17922399.0,17922821.0,422.0
140,choice,choice,25,4.0,Small,2.0,37.30732016602997,Animal_Sea_Solid_Large,1,0,0,17922911.0,17923159.0,248.0
140,choice,choice,25,4.0,Small,2.0,37.30732016602997,Animal_Land_Solid_Small,2,0,1,17923171.0,17923923.0,752.0
140,choice,choice,25,4.0,Small,2.0,37.30732016602997,fixation,-1,1,0,17923965.0,17924647.0,682.0
140,choice,choice,25,4.0,Small,2.0,37.30732016602997,Animal_Sea_Solid_Large,1,0,0,17924863.0,17925375.0,512.0
140,choice,choice,25,4.0,Small,2.0,37.30732016602997,Object_Sea_Pattern_Small,0,0,1,17925700.0,17925951.0,251.0
140,choice,choice,25,4.0,Small,2.0,37.30732016602997,Animal_Sea_Solid_Large,1,0,0,17926320.0,17926532.0,212.0
140,choice,choice,25,4.0,Small,2.0,37.30732016602997,Object_Sea_Pattern_Small,0,0,1,17927031.0,17927116.0,85.0
140,choice,choice,25,4.0,Small,2.0,37.30732016602997,Animal_Sea_Solid_Large,1,0,0,17927417.0,17927604.0,187.0
140,choice,choice,25,4.0,Small,2.0,37.30732016602997,fixation,-1,1,0,17928004.0,17928208.0,204.0
140,choice,choice,25,4.0,Small,2.0,37.30732016602997,Object_Sea_Pattern_Small,0,0,1,17928995.0,17929081.0,86.0
140,choice,choice,25,4.0,Small,2.0,37.30732016602997,Animal_Sea_Solid_Large,1,0,0,17929299.0,17930097.0,798.0
140,choice,choice,25,4.0,Small,2.0,37.30732016602997,fixation,-1,1,0,17930394.0,17930701.0,307.0
140,choice,choice,25,4.0,Small,2.0,37.30732016602997,Animal_Sea_Solid_Large,1,0,0,17931012.0,17931118.0,106.0
140,choice,choice,25,4.0,Small,2.0,37.30732016602997,Animal_Land_Solid_Small,2,0,1,17931128.0,17931442.0,314.0
140,choice,choice,25,4.0,Small,2.0,37.30732016602997,Animal_Sea_Solid_Large,1,0,0,17931491.0,17931761.0,270.0
140,choice,choice,25,4.0,Small,2.0,37.30732016602997,fixation,-1,1,0,17931998.0,17932742.0,744.0
140,choice,choice,25,4.0,Small,2.0,37.30732016602997,Animal_Sea_Solid_Large,1,0,0,17933006.0,17933091.0,85.0
140,choice,choice,25,4.0,Small,2.0,37.30732016602997,fixation,-1,1,0,17933223.0,17933308.0,85.0
140,choice,choice,25,4.0,Small,2.0,37.30732016602997,Animal_Sea_Solid_Large,1,0,0,17933740.0,17934479.0,739.0
140,choice,choice,25,4.0,Small,2.0,37.30732016602997,Object_Sea_Pattern_Small,0,0,1,17935609.0,17935727.0,118.0
140,choice,choice,25,4.0,Small,2.0,37.30732016602997,Animal_Sea_Solid_Large,1,0,0,17936417.0,17937355.0,938.0
140,choice,choice,25,4.0,Small,2.0,37.30732016602997,Object_Sea_Pattern_Small,0,0,1,17938500.0,17938812.0,312.0
140,choice,choice,25,4.0,Small,2.0,37.30732016602997,Animal_Sea_Solid_Large,1,0,0,17938981.0,17939723.0,742.0
140,choice,choice,25,4.0,Small,2.0,37.30732016602997,Animal_Land_Solid_Small,2,0,1,17941098.0,17941233.0,135.0
140,choice,choice,25,4.0,Small,2.0,37.30732016602997,Animal_Sea_Solid_Large,1,0,0,17941631.0,17942664.0,1033.0
140,choice,choice,25,4.0,Small,2.0,37.30732016602997,Object_Sea_Pattern_Small,0,0,1,17942998.0,17944627.0,1629.0
140,choice,choice,25,4.0,Small,2.0,37.30732016602997,Animal_Sea_Solid_Large,1,0,0,17944670.0,17945676.0,1006.0
140,choice,choice,25,4.0,Small,2.0,37.30732016602997,Object_Sea_Pattern_Small,0,0,1,17945693.0,17945846.0,153.0
140,choice,choice,25,4.0,Small,2.0,37.30732016602997,fixation,-1,1,0,17946039.0,17946303.0,264.0
140,choice,choice,26,4.0,Land,2.0,18.182352625066414,fixation,-1,1,0,17949810.0,17949935.0,125.0
140,choice,choice,26,4.0,Land,2.0,18.182352625066414,Object_Sea_Pattern_Small,0,0,0,17950376.0,17950780.0,404.0
140,choice,choice,26,4.0,Land,2.0,18.182352625066414,Animal_Sea_Solid_Large,1,0,0,17951197.0,17951296.0,99.0
140,choice,choice,26,4.0,Land,2.0,18.182352625066414,Object_Sea_Pattern_Small,0,0,0,17951310.0,17951948.0,638.0
140,choice,choice,26,4.0,Land,2.0,18.182352625066414,Animal_Sea_Solid_Large,1,0,0,17952381.0,17952669.0,288.0
140,choice,choice,26,4.0,Land,2.0,18.182352625066414,fixation,-1,1,0,17953093.0,17953132.0,39.0
140,choice,choice,26,4.0,Land,2.0,18.182352625066414,Animal_Sea_Solid_Large,1,0,0,17953381.0,17954638.0,1257.0
140,choice,choice,26,4.0,Land,2.0,18.182352625066414,fixation,-1,1,0,17955331.0,17955362.0,31.0
140,choice,choice,26,4.0,Land,2.0,18.182352625066414,Object_Sea_Pattern_Small,0,0,0,17955990.0,17956194.0,204.0
140,choice,choice,26,4.0,Land,2.0,18.182352625066414,Animal_Land_Pattern_Large,3,0,1,17956484.0,17956918.0,434.0
140,choice,choice,26,4.0,Land,2.0,18.182352625066414,Object_Sea_Pattern_Small,0,0,0,17957577.0,17958214.0,637.0
140,choice,choice,26,4.0,Land,2.0,18.182352625066414,Object_Land_Pattern_Large,4,0,1,17958742.0,17958893.0,151.0
140,choice,choice,26,4.0,Land,2.0,18.182352625066414,Object_Sea_Solid_Small,5,0,0,17959164.0,17959394.0,230.0
140,choice,choice,26,4.0,Land,2.0,18.182352625066414,Object_Sea_Pattern_Small,0,0,0,17959582.0,17959624.0,42.0
140,choice,choice,26,4.0,Land,2.0,18.182352625066414,fixation,-1,1,0,17959649.0,17960217.0,568.0
140,choice,choice,26,4.0,Land,2.0,18.182352625066414,Object_Sea_Solid_Small,5,0,0,17961044.0,17961101.0,57.0
140,choice,choice,26,4.0,Land,2.0,18.182352625066414,Animal_Land_Solid_Small,2,0,1,17961198.0,17961266.0,68.0
140,choice,choice,26,4.0,Land,2.0,18.182352625066414,Animal_Sea_Solid_Large,1,0,0,17961386.0,17962028.0,642.0
140,choice,choice,26,4.0,Land,2.0,18.182352625066414,fixation,-1,1,0,17962519.0,17963009.0,490.0
140,choice,choice,26,4.0,Land,2.0,18.182352625066414,Animal_Land_Solid_Small,2,0,1,17963306.0,17963440.0,134.0
140,choice,choice,26,4.0,Land,2.0,18.182352625066414,Object_Sea_Pattern_Small,0,0,0,17963663.0,17963837.0,174.0
140,choice,choice,26,4.0,Land,2.0,18.182352625066414,Animal_Land_Pattern_Large,3,0,1,17964056.0,17964277.0,221.0
140,choice,choice,26,4.0,Land,2.0,18.182352625066414,fixation,-1,1,0,17964548.0,17965325.0,777.0
140,choice,choice,26,4.0,Land,2.0,18.182352625066414,Object_Sea_Solid_Small,5,0,0,17965819.0,17965890.0,71.0
140,choice,choice,26,4.0,Land,2.0,18.182352625066414,Animal_Land_Solid_Small,2,0,1,17966441.0,17967338.0,897.0
140,choice,choice,27,4.0,Pattern,2.0,19.450521041988395,fixation,-1,1,0,17971247.0,17971302.0,55.0
140,choice,choice,27,4.0,Pattern,2.0,19.450521041988395,Animal_Land_Pattern_Large,3,0,1,17971634.0,17971835.0,201.0
140,choice,choice,27,4.0,Pattern,2.0,19.450521041988395,Object_Sea_Solid_Small,5,0,0,17971851.0,17971902.0,51.0
140,choice,choice,27,4.0,Pattern,2.0,19.450521041988395,Animal_Land_Pattern_Large,3,0,1,17971978.0,17972039.0,61.0
140,choice,choice,27,4.0,Pattern,2.0,19.450521041988395,Object_Sea_Solid_Small,5,0,0,17972085.0,17972106.0,21.0
140,choice,choice,27,4.0,Pattern,2.0,19.450521041988395,fixation,-1,1,0,17972130.0,17972462.0,332.0
140,choice,choice,27,4.0,Pattern,2.0,19.450521041988395,Object_Sea_Pattern_Small,0,0,1,17972778.0,17973452.0,674.0
140,choice,choice,27,4.0,Pattern,2.0,19.450521041988395,Animal_Sea_Solid_Large,1,0,0,17973810.0,17974342.0,532.0
140,choice,choice,27,4.0,Pattern,2.0,19.450521041988395,Object_Sea_Pattern_Small,0,0,1,17975190.0,17975439.0,249.0
140,choice,choice,27,4.0,Pattern,2.0,19.450521041988395,Animal_Sea_Solid_Large,1,0,0,17975516.0,17975675.0,159.0
140,choice,choice,27,4.0,Pattern,2.0,19.450521041988395,Object_Sea_Pattern_Small,0,0,1,17975939.0,17975970.0,31.0
140,choice,choice,27,4.0,Pattern,2.0,19.450521041988395,Animal_Sea_Solid_Large,1,0,0,17976046.0,17976585.0,539.0
140,choice,choice,27,4.0,Pattern,2.0,19.450521041988395,fixation,-1,1,0,17976843.0,17976996.0,153.0
140,choice,choice,27,4.0,Pattern,2.0,19.450521041988395,Animal_Sea_Solid_Large,1,0,0,17977225.0,17977305.0,80.0
140,choice,choice,27,4.0,Pattern,2.0,19.450521041988395,Animal_Land_Solid_Small,2,0,0,17977353.0,17977392.0,39.0
140,choice,choice,27,4.0,Pattern,2.0,19.450521041988395,Object_Land_Pattern_Large,4,0,1,17977416.0,17978035.0,619.0
140,choice,choice,27,4.0,Pattern,2.0,19.450521041988395,fixation,-1,1,0,17978047.0,17978244.0,197.0
140,choice,choice,27,4.0,Pattern,2.0,19.450521041988395,Animal_Land_Solid_Small,2,0,0,17978535.0,17978700.0,165.0
140,choice,choice,27,4.0,Pattern,2.0,19.450521041988395,fixation,-1,1,0,17978747.0,17979188.0,441.0
140,choice,choice,27,4.0,Pattern,2.0,19.450521041988395,Animal_Land_Solid_Small,2,0,0,17979391.0,17979874.0,483.0
140,choice,choice,27,4.0,Pattern,2.0,19.450521041988395,Object_Sea_Solid_Small,5,0,0,17979952.0,17980430.0,478.0
140,choice,choice,27,4.0,Pattern,2.0,19.450521041988395,Animal_Land_Solid_Small,2,0,0,17980492.0,17980611.0,119.0
140,choice,choice,27,4.0,Pattern,2.0,19.450521041988395,Animal_Sea_Solid_Large,1,0,0,17980948.0,17981018.0,70.0
140,choice,choice,27,4.0,Pattern,2.0,19.450521041988395,Animal_Land_Pattern_Large,3,0,1,17981090.0,17981525.0,435.0
140,choice,choice,27,4.0,Pattern,2.0,19.450521041988395,Animal_Sea_Solid_Large,1,0,0,17982034.0,17982648.0,614.0
140,choice,choice,27,4.0,Pattern,2.0,19.450521041988395,Object_Sea_Pattern_Small,0,0,1,17983382.0,17983430.0,48.0
140,choice,choice,27,4.0,Pattern,2.0,19.450521041988395,Animal_Land_Pattern_Large,3,0,1,17983516.0,17983865.0,349.0
140,choice,choice,27,4.0,Pattern,2.0,19.450521041988395,Animal_Land_Solid_Small,2,0,0,17984153.0,17984561.0,408.0
140,choice,choice,27,4.0,Pattern,2.0,19.450521041988395,Object_Sea_Solid_Small,5,0,0,17984604.0,17984920.0,316.0
140,choice,choice,27,4.0,Pattern,2.0,19.450521041988395,Animal_Land_Solid_Small,2,0,0,17985036.0,17985232.0,196.0
140,choice,choice,27,4.0,Pattern,2.0,19.450521041988395,Animal_Sea_Solid_Large,1,0,0,17985429.0,17985561.0,132.0
140,choice,choice,27,4.0,Pattern,2.0,19.450521041988395,Animal_Land_Solid_Small,2,0,0,17985599.0,17986434.0,835.0
140,choice,choice,27,4.0,Pattern,2.0,19.450521041988395,Object_Sea_Solid_Small,5,0,0,17986714.0,17987151.0,437.0
140,choice,choice,27,4.0,Pattern,2.0,19.450521041988395,Object_Sea_Pattern_Small,0,0,1,17987879.0,17988227.0,348.0
140,choice,choice,27,4.0,Pattern,2.0,19.450521041988395,Animal_Land_Pattern_Large,3,0,1,17988367.0,17988589.0,222.0
140,choice,choice,27,4.0,Pattern,2.0,19.450521041988395,Object_Sea_Pattern_Small,0,0,1,17989055.0,17989169.0,114.0
140,choice,choice,27,4.0,Pattern,2.0,19.450521041988395,Animal_Land_Pattern_Large,3,0,1,17989294.0,17989517.0,223.0
140,choice,choice,27,4.0,Pattern,2.0,19.450521041988395,Object_Sea_Pattern_Small,0,0,1,17989927.0,17990185.0,258.0
140,choice,choice,27,4.0,Pattern,2.0,19.450521041988395,Object_Sea_Solid_Small,5,0,0,17990247.0,17990449.0,202.0
140,choice,choice,28,4.0,Large,2.0,25.025326250004586,fixation,-1,1,0,17994590.0,17994706.0,116.0
140,choice,choice,28,4.0,Large,2.0,25.025326250004586,Object_Land_Pattern_Large,4,0,1,17994716.0,17995109.0,393.0
140,choice,choice,28,4.0,Large,2.0,25.025326250004586,Animal_Land_Solid_Small,2,0,0,17995164.0,17995347.0,183.0
140,choice,choice,28,4.0,Large,2.0,25.025326250004586,Object_Sea_Solid_Small,5,0,0,17995521.0,17995757.0,236.0
140,choice,choice,28,4.0,Large,2.0,25.025326250004586,Animal_Land_Pattern_Large,3,0,1,17995997.0,17996042.0,45.0
140,choice,choice,28,4.0,Large,2.0,25.025326250004586,fixation,-1,1,0,17996082.0,17996445.0,363.0
140,choice,choice,28,4.0,Large,2.0,25.025326250004586,Animal_Land_Pattern_Large,3,0,1,17996484.0,17997167.0,683.0
140,choice,choice,28,4.0,Large,2.0,25.025326250004586,Object_Sea_Pattern_Small,0,0,0,17998100.0,17999018.0,918.0
140,choice,choice,28,4.0,Large,2.0,25.025326250004586,Animal_Sea_Solid_Large,1,0,1,17999497.0,17999576.0,79.0
140,choice,choice,28,4.0,Large,2.0,25.025326250004586,Object_Sea_Pattern_Small,0,0,0,17999741.0,18001151.0,1410.0
140,choice,choice,28,4.0,Large,2.0,25.025326250004586,Animal_Land_Pattern_Large,3,0,1,18002149.0,18002489.0,340.0
140,choice,choice,28,4.0,Large,2.0,25.025326250004586,Animal_Sea_Solid_Large,1,0,1,18002542.0,18002735.0,193.0
140,choice,choice,28,4.0,Large,2.0,25.025326250004586,Object_Sea_Pattern_Small,0,0,0,18003051.0,18003283.0,232.0
140,choice,choice,28,4.0,Large,2.0,25.025326250004586,Animal_Sea_Solid_Large,1,0,1,18003326.0,18003532.0,206.0
140,choice,choice,28,4.0,Large,2.0,25.025326250004586,Object_Sea_Pattern_Small,0,0,0,18003584.0,18003916.0,332.0
140,choice,choice,28,4.0,Large,2.0,25.025326250004586,Animal_Sea_Solid_Large,1,0,1,18004141.0,18004344.0,203.0
140,choice,choice,28,4.0,Large,2.0,25.025326250004586,Animal_Land_Pattern_Large,3,0,1,18004634.0,18004928.0,294.0
140,choice,choice,28,4.0,Large,2.0,25.025326250004586,Animal_Sea_Solid_Large,1,0,1,18005069.0,18006213.0,1144.0
140,choice,choice,28,4.0,Large,2.0,25.025326250004586,Object_Sea_Pattern_Small,0,0,0,18006277.0,18006627.0,350.0
140,choice,choice,28,4.0,Large,2.0,25.025326250004586,Animal_Sea_Solid_Large,1,0,1,18006850.0,18009537.0,2687.0
140,choice,choice,28,4.0,Large,2.0,25.025326250004586,Animal_Land_Pattern_Large,3,0,1,18011020.0,18011234.0,214.0
140,choice,choice,28,4.0,Large,2.0,25.025326250004586,Animal_Sea_Solid_Large,1,0,1,18011484.0,18013442.0,1958.0
140,choice,choice,28,4.0,Large,2.0,25.025326250004586,Animal_Land_Solid_Small,2,0,0,18014454.0,18014683.0,229.0
140,choice,choice,28,4.0,Large,2.0,25.025326250004586,fixation,-1,1,0,18014730.0,18015140.0,410.0
140,choice,choice,28,4.0,Large,2.0,25.025326250004586,Animal_Sea_Solid_Large,1,0,1,18015455.0,18017719.0,2264.0
140,choice,choice,28,4.0,Large,2.0,25.025326250004586,fixation,-1,1,0,18017959.0,18018011.0,52.0
140,choice,choice,28,4.0,Large,2.0,25.025326250004586,Animal_Sea_Solid_Large,1,0,1,18018026.0,18018311.0,285.0
140,choice,choice,28,4.0,Large,2.0,25.025326250004586,fixation,-1,1,0,18018487.0,18018989.0,502.0
140,choice,choice,28,4.0,Large,2.0,25.025326250004586,Animal_Land_Solid_Small,2,0,0,18019121.0,18019253.0,132.0
140,choice,choice,29,4.0,Solid,1.0,10.286234125029296,Object_Sea_Pattern_Small,0,0,0,18022456.0,18022620.0,164.0
140,choice,choice,29,4.0,Solid,1.0,10.286234125029296,Animal_Sea_Solid_Large,1,0,1,18023210.0,18023707.0,497.0
140,choice,choice,29,4.0,Solid,1.0,10.286234125029296,Object_Sea_Pattern_Small,0,0,0,18023767.0,18024528.0,761.0
140,choice,choice,29,4.0,Solid,1.0,10.286234125029296,Animal_Sea_Solid_Large,1,0,1,18025266.0,18025398.0,132.0
140,choice,choice,29,4.0,Solid,1.0,10.286234125029296,Object_Sea_Pattern_Small,0,0,0,18025518.0,18025773.0,255.0
140,choice,choice,29,4.0,Solid,1.0,10.286234125029296,Animal_Land_Pattern_Large,3,0,0,18026716.0,18026883.0,167.0
140,choice,choice,29,4.0,Solid,1.0,10.286234125029296,Animal_Sea_Solid_Large,1,0,1,18027057.0,18028048.0,991.0
140,choice,choice,29,4.0,Solid,1.0,10.286234125029296,fixation,-1,1,0,18028720.0,18029284.0,564.0
140,choice,choice,29,4.0,Solid,1.0,10.286234125029296,Object_Sea_Pattern_Small,0,0,0,18029527.0,18029681.0,154.0
140,choice,choice,29,4.0,Solid,1.0,10.286234125029296,fixation,-1,1,0,18029702.0,18029938.0,236.0
140,choice,choice,29,4.0,Solid,1.0,10.286234125029296,Object_Sea_Pattern_Small,0,0,0,18030350.0,18030672.0,322.0
140,choice,choice,29,4.0,Solid,1.0,10.286234125029296,Animal_Land_Pattern_Large,3,0,0,18030761.0,18030840.0,79.0
140,choice,choice,29,4.0,Solid,1.0,10.286234125029296,Animal_Sea_Solid_Large,1,0,1,18031774.0,18031932.0,158.0
140,choice,choice,29,4.0,Solid,1.0,10.286234125029296,Animal_Land_Solid_Small,2,0,1,18031976.0,18032224.0,248.0
140,choice,choice,30,4.0,Sea,1.0,14.034016542020254,fixation,-1,1,0,18035927.0,18036055.0,128.0
140,choice,choice,30,4.0,Sea,1.0,14.034016542020254,Object_Sea_Pattern_Small,0,0,1,18036317.0,18036731.0,414.0
140,choice,choice,30,4.0,Sea,1.0,14.034016542020254,Animal_Land_Pattern_Large,3,0,0,18036830.0,18038374.0,1544.0
140,choice,choice,30,4.0,Sea,1.0,14.034016542020254,Object_Sea_Pattern_Small,0,0,1,18038399.0,18039396.0,997.0
140,choice,choice,30,4.0,Sea,1.0,14.034016542020254,Animal_Sea_Solid_Large,1,0,1,18041788.0,18042065.0,277.0
140,choice,choice,30,4.0,Sea,1.0,14.034016542020254,Object_Sea_Pattern_Small,0,0,1,18042897.0,18043119.0,222.0
140,choice,choice,30,4.0,Sea,1.0,14.034016542020254,Animal_Sea_Solid_Large,1,0,1,18043221.0,18043825.0,604.0
140,choice,choice,30,4.0,Sea,1.0,14.034016542020254,Object_Sea_Pattern_Small,0,0,1,18044053.0,18044316.0,263.0
140,choice,choice,30,4.0,Sea,1.0,14.034016542020254,Animal_Sea_Solid_Large,1,0,1,18044597.0,18044849.0,252.0
140,choice,choice,30,4.0,Sea,1.0,14.034016542020254,Object_Sea_Pattern_Small,0,0,1,18044929.0,18044951.0,22.0
140,choice,choice,30,4.0,Sea,1.0,14.034016542020254,Animal_Sea_Solid_Large,1,0,1,18045152.0,18046356.0,1204.0
140,choice,choice,30,4.0,Sea,1.0,14.034016542020254,fixation,-1,1,0,18046468.0,18047052.0,584.0
140,choice,choice,30,4.0,Sea,1.0,14.034016542020254,Object_Sea_Pattern_Small,0,0,1,18047063.0,18047489.0,426.0
140,choice,choice,30,4.0,Sea,1.0,14.034016542020254,Animal_Land_Pattern_Large,3,0,0,18047760.0,18047791.0,31.0
140,choice,choice,30,4.0,Sea,1.0,14.034016542020254,Object_Sea_Pattern_Small,0,0,1,18048125.0,18048230.0,105.0
140,choice,choice,30,4.0,Sea,1.0,14.034016542020254,Animal_Land_Pattern_Large,3,0,0,18048777.0,18048923.0,146.0
140,choice,choice,30,4.0,Sea,1.0,14.034016542020254,Object_Sea_Pattern_Small,0,0,1,18049114.0,18049541.0,427.0
140,choice,choice,31,4.0,Object,1.0,10.735849207965655,Animal_Land_Pattern_Large,3,0,0,18053674.0,18053708.0,34.0
140,choice,choice,31,4.0,Object,1.0,10.735849207965655,Object_Sea_Pattern_Small,0,0,1,18053996.0,18054638.0,642.0
140,choice,choice,31,4.0,Object,1.0,10.735849207965655,Animal_Sea_Solid_Large,1,0,0,18055819.0,18056202.0,383.0
140,choice,choice,31,4.0,Object,1.0,10.735849207965655,Object_Sea_Pattern_Small,0,0,1,18056444.0,18056497.0,53.0
140,choice,choice,31,4.0,Object,1.0,10.735849207965655,Animal_Sea_Solid_Large,1,0,0,18056539.0,18057539.0,1000.0
140,choice,choice,31,4.0,Object,1.0,10.735849207965655,fixation,-1,1,0,18057918.0,18058134.0,216.0
140,choice,choice,31,4.0,Object,1.0,10.735849207965655,Object_Sea_Solid_Small,5,0,1,18058369.0,18058591.0,222.0
140,choice,choice,31,4.0,Object,1.0,10.735849207965655,fixation,-1,1,0,18058854.0,18059728.0,874.0
140,choice,choice,31,4.0,Object,1.0,10.735849207965655,Object_Sea_Pattern_Small,0,0,1,18060081.0,18060420.0,339.0
140,choice,choice,31,4.0,Object,1.0,10.735849207965655,Animal_Land_Pattern_Large,3,0,0,18061184.0,18061368.0,184.0
140,choice,choice,31,4.0,Object,1.0,10.735849207965655,Object_Sea_Pattern_Small,0,0,1,18061404.0,18062206.0,802.0
140,choice,choice,31,4.0,Object,1.0,10.735849207965655,Animal_Land_Pattern_Large,3,0,0,18062294.0,18062803.0,509.0
140,choice,choice,31,4.0,Object,1.0,10.735849207965655,Object_Sea_Pattern_Small,0,0,1,18063281.0,18064223.0,942.0
140,choice,choice,32,4.0,Animal,2.0,1.200120166991837,Animal_Sea_Solid_Large,1,0,1,18067597.0,18068541.0,944.0
140,choice,choice,33,5.0,Object,1.0,28.154564708005637,Animal_Sea_Solid_Small,0,0,0,18320041.0,18320306.0,265.0
140,choice,choice,33,5.0,Object,1.0,28.154564708005637,Object_Land_Solid_Large,1,0,1,18320319.0,18320448.0,129.0
140,choice,choice,33,5.0,Object,1.0,28.154564708005637,Animal_Sea_Solid_Small,0,0,0,18320671.0,18321002.0,331.0
140,choice,choice,33,5.0,Object,1.0,28.154564708005637,Object_Land_Solid_Large,1,0,1,18321154.0,18323047.0,1893.0
140,choice,choice,33,5.0,Object,1.0,28.154564708005637,Animal_Sea_Solid_Small,0,0,0,18323282.0,18323426.0,144.0
140,choice,choice,33,5.0,Object,1.0,28.154564708005637,Object_Land_Solid_Large,1,0,1,18323456.0,18323639.0,183.0
140,choice,choice,33,5.0,Object,1.0,28.154564708005637,fixation,-1,1,0,18323712.0,18324493.0,781.0
140,choice,choice,33,5.0,Object,1.0,28.154564708005637,Animal_Land_Pattern_Large,2,0,0,18324538.0,18324782.0,244.0
140,choice,choice,33,5.0,Object,1.0,28.154564708005637,Animal_Sea_Solid_Small,0,0,0,18325042.0,18325080.0,38.0
140,choice,choice,33,5.0,Object,1.0,28.154564708005637,Object_Land_Solid_Large,1,0,1,18325326.0,18325597.0,271.0
140,choice,choice,33,5.0,Object,1.0,28.154564708005637,fixation,-1,1,0,18325641.0,18325804.0,163.0
140,choice,choice,33,5.0,Object,1.0,28.154564708005637,Object_Land_Pattern_Small,3,0,1,18326049.0,18326504.0,455.0
140,choice,choice,33,5.0,Object,1.0,28.154564708005637,Animal_Sea_Pattern_Large,4,0,0,18326510.0,18327057.0,547.0
140,choice,choice,33,5.0,Object,1.0,28.154564708005637,fixation,-1,1,0,18327230.0,18327810.0,580.0
140,choice,choice,33,5.0,Object,1.0,28.154564708005637,Object_Land_Solid_Large,1,0,1,18327997.0,18328640.0,643.0
140,choice,choice,33,5.0,Object,1.0,28.154564708005637,fixation,-1,1,0,18328677.0,18330228.0,1551.0
140,choice,choice,33,5.0,Object,1.0,28.154564708005637,Animal_Sea_Solid_Small,0,0,0,18330896.0,18331879.0,983.0
140,choice,choice,33,5.0,Object,1.0,28.154564708005637,Object_Land_Solid_Large,1,0,1,18332162.0,18332920.0,758.0
140,choice,choice,33,5.0,Object,1.0,28.154564708005637,fixation,-1,1,0,18332972.0,18334834.0,1862.0
140,choice,choice,33,5.0,Object,1.0,28.154564708005637,Object_Land_Solid_Large,1,0,1,18335378.0,18335781.0,403.0
140,choice,choice,33,5.0,Object,1.0,28.154564708005637,fixation,-1,1,0,18335806.0,18336719.0,913.0
140,choice,choice,33,5.0,Object,1.0,28.154564708005637,Animal_Sea_Pattern_Large,4,0,0,18337017.0,18337115.0,98.0
140,choice,choice,33,5.0,Object,1.0,28.154564708005637,fixation,-1,1,0,18337151.0,18337355.0,204.0
140,choice,choice,33,5.0,Object,1.0,28.154564708005637,Animal_Sea_Solid_Small,0,0,0,18337647.0,18337725.0,78.0
140,choice,choice,33,5.0,Object,1.0,28.154564708005637,fixation,-1,1,0,18337731.0,18338442.0,711.0
140,choice,choice,33,5.0,Object,1.0,28.154564708005637,Animal_Sea_Solid_Small,0,0,0,18338702.0,18338779.0,77.0
140,choice,choice,33,5.0,Object,1.0,28.154564708005637,fixation,-1,1,0,18338862.0,18339255.0,393.0
140,choice,choice,33,5.0,Object,1.0,28.154564708005637,Object_Land_Solid_Large,1,0,1,18339478.0,18339614.0,136.0
140,choice,choice,33,5.0,Object,1.0,28.154564708005637,fixation,-1,1,0,18339642.0,18340916.0,1274.0
140,choice,choice,33,5.0,Object,1.0,28.154564708005637,Object_Land_Solid_Large,1,0,1,18341676.0,18341747.0,71.0
140,choice,choice,33,5.0,Object,1.0,28.154564708005637,fixation,-1,1,0,18341755.0,18342323.0,568.0
140,choice,choice,33,5.0,Object,1.0,28.154564708005637,Animal_Sea_Solid_Small,0,0,0,18342564.0,18342753.0,189.0
140,choice,choice,33,5.0,Object,1.0,28.154564708005637,fixation,-1,1,0,18342813.0,18343602.0,789.0
140,choice,choice,33,5.0,Object,1.0,28.154564708005637,Object_Land_Solid_Large,1,0,1,18343806.0,18344859.0,1053.0
140,choice,choice,33,5.0,Object,1.0,28.154564708005637,Animal_Sea_Solid_Small,0,0,0,18344975.0,18345078.0,103.0
140,choice,choice,33,5.0,Object,1.0,28.154564708005637,Object_Land_Solid_Large,1,0,1,18345439.0,18346168.0,729.0
140,choice,choice,33,5.0,Object,1.0,28.154564708005637,fixation,-1,1,0,18346488.0,18347821.0,1333.0
140,choice,choice,34,5.0,Small,1.0,34.089130333974026,Animal_Sea_Solid_Small,0,0,1,18351295.0,18351374.0,79.0
140,choice,choice,34,5.0,Small,1.0,34.089130333974026,Animal_Land_Pattern_Large,2,0,0,18351734.0,18351798.0,64.0
140,choice,choice,34,5.0,Small,1.0,34.089130333974026,Object_Sea_Solid_Small,5,0,1,18351839.0,18352210.0,371.0
140,choice,choice,34,5.0,Small,1.0,34.089130333974026,fixation,-1,1,0,18352985.0,18353527.0,542.0
140,choice,choice,34,5.0,Small,1.0,34.089130333974026,Animal_Sea_Solid_Small,0,0,1,18353567.0,18353825.0,258.0
140,choice,choice,34,5.0,Small,1.0,34.089130333974026,Animal_Land_Pattern_Large,2,0,0,18354512.0,18354647.0,135.0
140,choice,choice,34,5.0,Small,1.0,34.089130333974026,Object_Land_Solid_Large,1,0,0,18354710.0,18355086.0,376.0
140,choice,choice,34,5.0,Small,1.0,34.089130333974026,fixation,-1,1,0,18355319.0,18355910.0,591.0
140,choice,choice,34,5.0,Small,1.0,34.089130333974026,Animal_Sea_Solid_Small,0,0,1,18356148.0,18356478.0,330.0
140,choice,choice,34,5.0,Small,1.0,34.089130333974026,Animal_Land_Pattern_Large,2,0,0,18356778.0,18357131.0,353.0
140,choice,choice,34,5.0,Small,1.0,34.089130333974026,Animal_Sea_Solid_Small,0,0,1,18357203.0,18357319.0,116.0
140,choice,choice,34,5.0,Small,1.0,34.089130333974026,Animal_Land_Pattern_Large,2,0,0,18357517.0,18357759.0,242.0
140,choice,choice,34,5.0,Small,1.0,34.089130333974026,Animal_Sea_Solid_Small,0,0,1,18357896.0,18358510.0,614.0
140,choice,choice,34,5.0,Small,1.0,34.089130333974026,Object_Land_Solid_Large,1,0,0,18358852.0,18359255.0,403.0
140,choice,choice,34,5.0,Small,1.0,34.089130333974026,Animal_Land_Pattern_Large,2,0,0,18359523.0,18360261.0,738.0
140,choice,choice,34,5.0,Small,1.0,34.089130333974026,Animal_Sea_Solid_Small,0,0,1,18360748.0,18360949.0,201.0
140,choice,choice,34,5.0,Small,1.0,34.089130333974026,Object_Land_Solid_Large,1,0,0,18360977.0,18361191.0,214.0
140,choice,choice,34,5.0,Small,1.0,34.089130333974026,Animal_Sea_Solid_Small,0,0,1,18361227.0,18361792.0,565.0
140,choice,choice,34,5.0,Small,1.0,34.089130333974026,Animal_Land_Pattern_Large,2,0,0,18362234.0,18362722.0,488.0
140,choice,choice,34,5.0,Small,1.0,34.089130333974026,Animal_Sea_Solid_Small,0,0,1,18362958.0,18363090.0,132.0
140,choice,choice,34,5.0,Small,1.0,34.089130333974026,Animal_Sea_Pattern_Large,4,0,0,18363166.0,18363306.0,140.0
140,choice,choice,34,5.0,Small,1.0,34.089130333974026,fixation,-1,1,0,18363386.0,18364531.0,1145.0
140,choice,choice,34,5.0,Small,1.0,34.089130333974026,Animal_Sea_Solid_Small,0,0,1,18364848.0,18364995.0,147.0
140,choice,choice,34,5.0,Small,1.0,34.089130333974026,fixation,-1,1,0,18365077.0,18367624.0,2547.0
140,choice,choice,34,5.0,Small,1.0,34.089130333974026,Animal_Sea_Pattern_Large,4,0,0,18368439.0,18368602.0,163.0
140,choice,choice,34,5.0,Small,1.0,34.089130333974026,fixation,-1,1,0,18368613.0,18370298.0,1685.0
140,choice,choice,34,5.0,Small,1.0,34.089130333974026,Animal_Sea_Pattern_Large,4,0,0,18371125.0,18371759.0,634.0
140,choice,choice,34,5.0,Small,1.0,34.089130333974026,fixation,-1,1,0,18372013.0,18373677.0,1664.0
140,choice,choice,34,5.0,Small,1.0,34.089130333974026,Animal_Sea_Pattern_Large,4,0,0,18374033.0,18374527.0,494.0
140,choice,choice,34,5.0,Small,1.0,34.089130333974026,Object_Land_Solid_Large,1,0,0,18374541.0,18374575.0,34.0
140,choice,choice,34,5.0,Small,1.0,34.089130333974026,Animal_Land_Pattern_Large,2,0,0,18374868.0,18375107.0,239.0
140,choice,choice,34,5.0,Small,1.0,34.089130333974026,fixation,-1,1,0,18375229.0,18375516.0,287.0
140,choice,choice,34,5.0,Small,1.0,34.089130333974026,Animal_Sea_Solid_Small,0,0,1,18375811.0,18376143.0,332.0
140,choice,choice,34,5.0,Small,1.0,34.089130333974026,fixation,-1,1,0,18376263.0,18377778.0,1515.0
140,choice,choice,34,5.0,Small,1.0,34.089130333974026,Object_Land_Solid_Large,1,0,0,18378184.0,18378666.0,482.0
140,choice,choice,34,5.0,Small,1.0,34.089130333974026,fixation,-1,1,0,18378731.0,18379076.0,345.0
140,choice,choice,34,5.0,Small,1.0,34.089130333974026,Object_Land_Solid_Large,1,0,0,18379348.0,18380346.0,998.0
140,choice,choice,34,5.0,Small,1.0,34.089130333974026,Animal_Sea_Solid_Small,0,0,1,18380687.0,18380965.0,278.0
140,choice,choice,34,5.0,Small,1.0,34.089130333974026,Object_Land_Solid_Large,1,0,0,18381124.0,18381555.0,431.0
140,choice,choice,34,5.0,Small,1.0,34.089130333974026,fixation,-1,1,0,18381889.0,18383634.0,1745.0
140,choice,choice,34,5.0,Small,1.0,34.089130333974026,Animal_Sea_Pattern_Large,4,0,0,18384190.0,18384316.0,126.0
140,choice,choice,34,5.0,Small,1.0,34.089130333974026,fixation,-1,1,0,18384388.0,18385153.0,765.0
140,choice,choice,35,5.0,Solid,2.0,23.53437024995219,Animal_Sea_Solid_Small,0,0,1,18388154.0,18388370.0,216.0
140,choice,choice,35,5.0,Solid,2.0,23.53437024995219,fixation,-1,1,0,18388710.0,18388957.0,247.0
140,choice,choice,35,5.0,Solid,2.0,23.53437024995219,Object_Land_Solid_Large,1,0,1,18389002.0,18389182.0,180.0
140,choice,choice,35,5.0,Solid,2.0,23.53437024995219,Animal_Land_Pattern_Large,2,0,0,18389285.0,18389752.0,467.0
140,choice,choice,35,5.0,Solid,2.0,23.53437024995219,Animal_Sea_Solid_Small,0,0,1,18390447.0,18390838.0,391.0
140,choice,choice,35,5.0,Solid,2.0,23.53437024995219,Object_Land_Solid_Large,1,0,1,18391334.0,18391449.0,115.0
140,choice,choice,35,5.0,Solid,2.0,23.53437024995219,Animal_Sea_Solid_Small,0,0,1,18391659.0,18391775.0,116.0
140,choice,choice,35,5.0,Solid,2.0,23.53437024995219,Animal_Land_Pattern_Large,2,0,0,18391825.0,18392580.0,755.0
140,choice,choice,35,5.0,Solid,2.0,23.53437024995219,Animal_Sea_Solid_Small,0,0,1,18392896.0,18393339.0,443.0
140,choice,choice,35,5.0,Solid,2.0,23.53437024995219,Animal_Land_Pattern_Large,2,0,0,18393982.0,18395103.0,1121.0
140,choice,choice,35,5.0,Solid,2.0,23.53437024995219,Object_Land_Solid_Large,1,0,1,18396195.0,18397248.0,1053.0
140,choice,choice,35,5.0,Solid,2.0,23.53437024995219,Animal_Sea_Pattern_Large,4,0,0,18397560.0,18397732.0,172.0
140,choice,choice,35,5.0,Solid,2.0,23.53437024995219,fixation,-1,1,0,18397760.0,18397960.0,200.0
140,choice,choice,35,5.0,Solid,2.0,23.53437024995219,Animal_Sea_Solid_Small,0,0,1,18398367.0,18398404.0,37.0
140,choice,choice,35,5.0,Solid,2.0,23.53437024995219,Animal_Land_Pattern_Large,2,0,0,18398411.0,18398543.0,132.0
140,choice,choice,35,5.0,Solid,2.0,23.53437024995219,Object_Land_Solid_Large,1,0,1,18398648.0,18398908.0,260.0
140,choice,choice,35,5.0,Solid,2.0,23.53437024995219,Animal_Land_Pattern_Large,2,0,0,18398975.0,18399359.0,384.0
140,choice,choice,35,5.0,Solid,2.0,23.53437024995219,fixation,-1,1,0,18399601.0,18399778.0,177.0
140,choice,choice,35,5.0,Solid,2.0,23.53437024995219,Object_Land_Solid_Large,1,0,1,18399973.0,18400506.0,533.0
140,choice,choice,35,5.0,Solid,2.0,23.53437024995219,Animal_Sea_Solid_Small,0,0,1,18400588.0,18400659.0,71.0
140,choice,choice,35,5.0,Solid,2.0,23.53437024995219,Object_Land_Solid_Large,1,0,1,18400677.0,18400946.0,269.0
140,choice,choice,35,5.0,Solid,2.0,23.53437024995219,Animal_Sea_Solid_Small,0,0,1,18401316.0,18401861.0,545.0
140,choice,choice,35,5.0,Solid,2.0,23.53437024995219,Object_Land_Solid_Large,1,0,1,18402236.0,18403477.0,1241.0
140,choice,choice,35,5.0,Solid,2.0,23.53437024995219,fixation,-1,1,0,18403828.0,18403958.0,130.0
140,choice,choice,35,5.0,Solid,2.0,23.53437024995219,Object_Land_Solid_Large,1,0,1,18404195.0,18404776.0,581.0
140,choice,choice,35,5.0,Solid,2.0,23.53437024995219,Animal_Sea_Pattern_Large,4,0,0,18405102.0,18405599.0,497.0
140,choice,choice,35,5.0,Solid,2.0,23.53437024995219,Object_Sea_Solid_Small,5,0,1,18405621.0,18405949.0,328.0
140,choice,choice,35,5.0,Solid,2.0,23.53437024995219,fixation,-1,1,0,18406042.0,18406211.0,169.0
140,choice,choice,35,5.0,Solid,2.0,23.53437024995219,Object_Land_Solid_Large,1,0,1,18406452.0,18406762.0,310.0
140,choice,choice,35,5.0,Solid,2.0,23.53437024995219,fixation,-1,1,0,18406797.0,18407412.0,615.0
140,choice,choice,35,5.0,Solid,2.0,23.53437024995219,Animal_Sea_Solid_Small,0,0,1,18407912.0,18408007.0,95.0
140,choice,choice,35,5.0,Solid,2.0,23.53437024995219,Animal_Land_Pattern_Large,2,0,0,18408073.0,18408155.0,82.0
140,choice,choice,35,5.0,Solid,2.0,23.53437024995219,Animal_Sea_Solid_Small,0,0,1,18408613.0,18409170.0,557.0
140,choice,choice,35,5.0,Solid,2.0,23.53437024995219,Object_Land_Solid_Large,1,0,1,18409606.0,18409768.0,162.0
140,choice,choice,35,5.0,Solid,2.0,23.53437024995219,Animal_Sea_Solid_Small,0,0,1,18409818.0,18410226.0,408.0
140,choice,choice,35,5.0,Solid,2.0,23.53437024995219,Object_Land_Solid_Large,1,0,1,18410438.0,18410771.0,333.0
140,choice,choice,35,5.0,Solid,2.0,23.53437024995219,Animal_Sea_Pattern_Large,4,0,0,18410829.0,18411442.0,613.0
140,choice,choice,36,5.0,Large,1.0,18.36604949994944,Animal_Sea_Solid_Small,0,0,0,18414713.0,18414814.0,101.0
140,choice,choice,36,5.0,Large,1.0,18.36604949994944,Object_Land_Solid_Large,1,0,1,18414925.0,18415818.0,893.0
140,choice,choice,36,5.0,Large,1.0,18.36604949994944,Animal_Sea_Solid_Small,0,0,0,18416414.0,18417059.0,645.0
140,choice,choice,36,5.0,Large,1.0,18.36604949994944,Object_Land_Solid_Large,1,0,1,18417751.0,18417991.0,240.0
140,choice,choice,36,5.0,Large,1.0,18.36604949994944,Animal_Sea_Solid_Small,0,0,0,18418288.0,18419010.0,722.0
140,choice,choice,36,5.0,Large,1.0,18.36604949994944,Object_Land_Solid_Large,1,0,1,18419353.0,18419890.0,537.0
140,choice,choice,36,5.0,Large,1.0,18.36604949994944,Animal_Sea_Solid_Small,0,0,0,18420145.0,18420532.0,387.0
140,choice,choice,36,5.0,Large,1.0,18.36604949994944,Animal_Land_Pattern_Large,2,0,1,18420680.0,18421006.0,326.0
140,choice,choice,36,5.0,Large,1.0,18.36604949994944,Animal_Sea_Solid_Small,0,0,0,18421199.0,18421426.0,227.0
140,choice,choice,36,5.0,Large,1.0,18.36604949994944,Object_Land_Solid_Large,1,0,1,18421827.0,18422052.0,225.0
140,choice,choice,36,5.0,Large,1.0,18.36604949994944,Animal_Sea_Solid_Small,0,0,0,18422494.0,18422688.0,194.0
140,choice,choice,36,5.0,Large,1.0,18.36604949994944,Animal_Land_Pattern_Large,2,0,1,18422741.0,18423345.0,604.0
140,choice,choice,36,5.0,Large,1.0,18.36604949994944,Animal_Sea_Solid_Small,0,0,0,18423608.0,18424471.0,863.0
140,choice,choice,36,5.0,Large,1.0,18.36604949994944,Object_Land_Solid_Large,1,0,1,18425662.0,18426105.0,443.0
140,choice,choice,36,5.0,Large,1.0,18.36604949994944,Animal_Sea_Solid_Small,0,0,0,18426202.0,18427315.0,1113.0
140,choice,choice,36,5.0,Large,1.0,18.36604949994944,Object_Land_Solid_Large,1,0,1,18427820.0,18427929.0,109.0
140,choice,choice,36,5.0,Large,1.0,18.36604949994944,Animal_Sea_Solid_Small,0,0,0,18428022.0,18428271.0,249.0
140,choice,choice,36,5.0,Large,1.0,18.36604949994944,fixation,-1,1,0,18428291.0,18429053.0,762.0
140,choice,choice,36,5.0,Large,1.0,18.36604949994944,Animal_Sea_Solid_Small,0,0,0,18429439.0,18429697.0,258.0
140,choice,choice,36,5.0,Large,1.0,18.36604949994944,fixation,-1,1,0,18430034.0,18430593.0,559.0
140,choice,choice,36,5.0,Large,1.0,18.36604949994944,Object_Land_Solid_Large,1,0,1,18431085.0,18431578.0,493.0
140,choice,choice,36,5.0,Large,1.0,18.36604949994944,Animal_Sea_Solid_Small,0,0,0,18431669.0,18432429.0,760.0
140,choice,choice,37,5.0,Animal,1.0,4.6081046250183135,Animal_Sea_Solid_Small,0,0,1,18435902.0,18436775.0,873.0
140,choice,choice,37,5.0,Animal,1.0,4.6081046250183135,Object_Land_Solid_Large,1,0,0,18438104.0,18438252.0,148.0
140,choice,choice,37,5.0,Animal,1.0,4.6081046250183135,Animal_Sea_Solid_Small,0,0,1,18438324.0,18438677.0,353.0
140,choice,choice,37,5.0,Animal,1.0,4.6081046250183135,Object_Land_Solid_Large,1,0,0,18439022.0,18439425.0,403.0
140,choice,choice,37,5.0,Animal,1.0,4.6081046250183135,Animal_Land_Pattern_Large,2,0,1,18439713.0,18440189.0,476.0
140,choice,choice,38,5.0,Sea,2.0,12.231096832896585,Animal_Sea_Solid_Small,0,0,1,18443312.0,18444143.0,831.0
140,choice,choice,38,5.0,Sea,2.0,12.231096832896585,fixation,-1,1,0,18444209.0,18444496.0,287.0
140,choice,choice,38,5.0,Sea,2.0,12.231096832896585,Animal_Land_Pattern_Large,2,0,0,18444710.0,18445654.0,944.0
140,choice,choice,38,5.0,Sea,2.0,12.231096832896585,Object_Land_Solid_Large,1,0,0,18446237.0,18446570.0,333.0
140,choice,choice,38,5.0,Sea,2.0,12.231096832896585,Animal_Sea_Solid_Small,0,0,1,18446629.0,18446938.0,309.0
140,choice,choice,38,5.0,Sea,2.0,12.231096832896585,Object_Land_Solid_Large,1,0,0,18447481.0,18448459.0,978.0
140,choice,choice,38,5.0,Sea,2.0,12.231096832896585,Animal_Sea_Solid_Small,0,0,1,18448911.0,18449024.0,113.0
140,choice,choice,38,5.0,Sea,2.0,12.231096832896585,Animal_Land_Pattern_Large,2,0,0,18449085.0,18449526.0,441.0
140,choice,choice,38,5.0,Sea,2.0,12.231096832896585,Animal_Sea_Solid_Small,0,0,1,18449700.0,18450147.0,447.0
140,choice,choice,38,5.0,Sea,2.0,12.231096832896585,Object_Land_Solid_Large,1,0,0,18450763.0,18451173.0,410.0
140,choice,choice,38,5.0,Sea,2.0,12.231096832896585,Animal_Sea_Solid_Small,0,0,1,18451503.0,18452030.0,527.0
140,choice,choice,38,5.0,Sea,2.0,12.231096832896585,Animal_Land_Pattern_Large,2,0,0,18452517.0,18452729.0,212.0
140,choice,choice,38,5.0,Sea,2.0,12.231096832896585,Object_Land_Solid_Large,1,0,0,18452773.0,18454988.0,2215.0
140,choice,choice,39,5.0,Land,1.0,1.0396745830075815,Animal_Sea_Solid_Small,0,0,0,18459147.0,18459322.0,175.0
140,choice,choice,39,5.0,Land,1.0,1.0396745830075815,Animal_Land_Pattern_Large,2,0,1,18459357.0,18459752.0,395.0
140,choice,choice,39,5.0,Land,1.0,1.0396745830075815,Animal_Sea_Solid_Small,0,0,0,18460035.0,18460073.0,38.0
140,choice,choice,40,5.0,Pattern,1.0,4.769840458058752,Animal_Sea_Solid_Small,0,0,0,18463522.0,18464393.0,871.0
140,choice,choice,40,5.0,Pattern,1.0,4.769840458058752,Animal_Land_Pattern_Large,2,0,1,18464983.0,18465182.0,199.0
140,choice,choice,40,5.0,Pattern,1.0,4.769840458058752,Object_Land_Solid_Large,1,0,0,18465693.0,18466190.0,497.0
140,choice,choice,40,5.0,Pattern,1.0,4.769840458058752,Animal_Land_Pattern_Large,2,0,1,18466605.0,18466774.0,169.0
140,choice,choice,40,5.0,Pattern,1.0,4.769840458058752,Object_Sea_Solid_Small,5,0,0,18466899.0,18467098.0,199.0
140,choice,choice,40,5.0,Pattern,1.0,4.769840458058752,Animal_Sea_Solid_Small,0,0,0,18467337.0,18467779.0,442.0
140,choice,choice,40,5.0,Pattern,1.0,4.769840458058752,Object_Land_Solid_Large,1,0,0,18467862.0,18468144.0,282.0
140,choice,choice,41,6.0,Solid,2.0,39.00405500002671,Animal_Land_Solid_Large,0,0,1,18711738.0,18712248.0,510.0
140,choice,choice,41,6.0,Solid,2.0,39.00405500002671,Object_Land_Solid_Small,1,0,1,18712325.0,18712546.0,221.0
140,choice,choice,41,6.0,Solid,2.0,39.00405500002671,Animal_Land_Solid_Large,0,0,1,18712863.0,18712972.0,109.0
140,choice,choice,41,6.0,Solid,2.0,39.00405500002671,Object_Sea_Solid_Large,2,0,1,18712977.0,18713527.0,550.0
140,choice,choice,41,6.0,Solid,2.0,39.00405500002671,Object_Land_Solid_Small,1,0,1,18713596.0,18715284.0,1688.0
140,choice,choice,41,6.0,Solid,2.0,39.00405500002671,Animal_Land_Solid_Large,0,0,1,18716476.0,18716831.0,355.0
140,choice,choice,41,6.0,Solid,2.0,39.00405500002671,Object_Sea_Solid_Large,2,0,1,18716869.0,18717105.0,236.0
140,choice,choice,41,6.0,Solid,2.0,39.00405500002671,Object_Land_Solid_Small,1,0,1,18717160.0,18717659.0,499.0
140,choice,choice,41,6.0,Solid,2.0,39.00405500002671,fixation,-1,1,0,18717690.0,18718002.0,312.0
140,choice,choice,41,6.0,Solid,2.0,39.00405500002671,Animal_Land_Solid_Large,0,0,1,18718129.0,18718931.0,802.0
140,choice,choice,41,6.0,Solid,2.0,39.00405500002671,Object_Sea_Solid_Large,2,0,1,18719369.0,18719515.0,146.0
140,choice,choice,41,6.0,Solid,2.0,39.00405500002671,fixation,-1,1,0,18719596.0,18720214.0,618.0
140,choice,choice,41,6.0,Solid,2.0,39.00405500002671,Object_Land_Solid_Small,1,0,1,18720245.0,18720414.0,169.0
140,choice,choice,41,6.0,Solid,2.0,39.00405500002671,Animal_Land_Solid_Large,0,0,1,18720642.0,18721089.0,447.0
140,choice,choice,41,6.0,Solid,2.0,39.00405500002671,Object_Land_Solid_Small,1,0,1,18721228.0,18721811.0,583.0
140,choice,choice,41,6.0,Solid,2.0,39.00405500002671,Animal_Land_Solid_Large,0,0,1,18722296.0,18723061.0,765.0
140,choice,choice,41,6.0,Solid,2.0,39.00405500002671,Object_Land_Solid_Small,1,0,1,18723307.0,18723655.0,348.0
140,choice,choice,41,6.0,Solid,2.0,39.00405500002671,Animal_Land_Solid_Large,0,0,1,18723768.0,18724461.0,693.0
140,choice,choice,41,6.0,Solid,2.0,39.00405500002671,Object_Land_Solid_Small,1,0,1,18724878.0,18725763.0,885.0
140,choice,choice,41,6.0,Solid,2.0,39.00405500002671,Animal_Land_Solid_Large,0,0,1,18725799.0,18726061.0,262.0
140,choice,choice,41,6.0,Solid,2.0,39.00405500002671,Object_Sea_Solid_Large,2,0,1,18726142.0,18726392.0,250.0
140,choice,choice,41,6.0,Solid,2.0,39.00405500002671,Animal_Land_Solid_Large,0,0,1,18726670.0,18726699.0,29.0
140,choice,choice,41,6.0,Solid,2.0,39.00405500002671,Object_Sea_Solid_Large,2,0,1,18726778.0,18727052.0,274.0
140,choice,choice,41,6.0,Solid,2.0,39.00405500002671,Animal_Land_Solid_Large,0,0,1,18727310.0,18727606.0,296.0
140,choice,choice,41,6.0,Solid,2.0,39.00405500002671,Object_Land_Solid_Small,1,0,1,18727911.0,18727989.0,78.0
140,choice,choice,41,6.0,Solid,2.0,39.00405500002671,Animal_Land_Solid_Large,0,0,1,18728033.0,18728338.0,305.0
140,choice,choice,41,6.0,Solid,2.0,39.00405500002671,Object_Land_Solid_Small,1,0,1,18728395.0,18728564.0,169.0
140,choice,choice,41,6.0,Solid,2.0,39.00405500002671,Animal_Land_Solid_Large,0,0,1,18728900.0,18729835.0,935.0
140,choice,choice,41,6.0,Solid,2.0,39.00405500002671,Object_Land_Solid_Small,1,0,1,18730364.0,18731004.0,640.0
140,choice,choice,41,6.0,Solid,2.0,39.00405500002671,Animal_Land_Solid_Large,0,0,1,18731235.0,18731513.0,278.0
140,choice,choice,41,6.0,Solid,2.0,39.00405500002671,Object_Sea_Solid_Large,2,0,1,18731537.0,18732358.0,821.0
140,choice,choice,41,6.0,Solid,2.0,39.00405500002671,Animal_Land_Solid_Large,0,0,1,18732599.0,18733096.0,497.0
140,choice,choice,41,6.0,Solid,2.0,39.00405500002671,Object_Sea_Solid_Large,2,0,1,18733325.0,18733679.0,354.0
140,choice,choice,41,6.0,Solid,2.0,39.00405500002671,fixation,-1,1,0,18733713.0,18733981.0,268.0
140,choice,choice,41,6.0,Solid,2.0,39.00405500002671,Object_Sea_Solid_Large,2,0,1,18734194.0,18734404.0,210.0
140,choice,choice,41,6.0,Solid,2.0,39.00405500002671,fixation,-1,1,0,18734423.0,18734525.0,102.0
140,choice,choice,41,6.0,Solid,2.0,39.00405500002671,Object_Sea_Pattern_Large,3,0,0,18734564.0,18735382.0,818.0
140,choice,choice,41,6.0,Solid,2.0,39.00405500002671,fixation,-1,1,0,18735730.0,18736257.0,527.0
140,choice,choice,41,6.0,Solid,2.0,39.00405500002671,Object_Sea_Pattern_Large,3,0,0,18736288.0,18736426.0,138.0
140,choice,choice,41,6.0,Solid,2.0,39.00405500002671,Object_Sea_Solid_Large,2,0,1,18736479.0,18736649.0,170.0
140,choice,choice,41,6.0,Solid,2.0,39.00405500002671,fixation,-1,1,0,18736894.0,18737296.0,402.0
140,choice,choice,41,6.0,Solid,2.0,39.00405500002671,Animal_Land_Pattern_Small,4,0,0,18737359.0,18737734.0,375.0
140,choice,choice,41,6.0,Solid,2.0,39.00405500002671,fixation,-1,1,0,18737974.0,18740051.0,2077.0
140,choice,choice,41,6.0,Solid,2.0,39.00405500002671,Object_Sea_Solid_Large,2,0,1,18740738.0,18740957.0,219.0
140,choice,choice,41,6.0,Solid,2.0,39.00405500002671,Object_Sea_Pattern_Large,3,0,0,18740999.0,18741129.0,130.0
140,choice,choice,41,6.0,Solid,2.0,39.00405500002671,Animal_Sea_Pattern_Small,5,0,0,18741172.0,18741626.0,454.0
140,choice,choice,41,6.0,Solid,2.0,39.00405500002671,Object_Land_Solid_Small,1,0,1,18741810.0,18742159.0,349.0
140,choice,choice,41,6.0,Solid,2.0,39.00405500002671,fixation,-1,1,0,18742217.0,18742467.0,250.0
140,choice,choice,41,6.0,Solid,2.0,39.00405500002671,Animal_Sea_Pattern_Small,5,0,0,18742677.0,18743022.0,345.0
140,choice,choice,41,6.0,Solid,2.0,39.00405500002671,fixation,-1,1,0,18743054.0,18743396.0,342.0
140,choice,choice,41,6.0,Solid,2.0,39.00405500002671,Object_Land_Solid_Small,1,0,1,18743645.0,18743957.0,312.0
140,choice,choice,41,6.0,Solid,2.0,39.00405500002671,fixation,-1,1,0,18744134.0,18745105.0,971.0
140,choice,choice,41,6.0,Solid,2.0,39.00405500002671,Object_Sea_Solid_Large,2,0,1,18745418.0,18745546.0,128.0
140,choice,choice,41,6.0,Solid,2.0,39.00405500002671,Object_Land_Solid_Small,1,0,1,18745777.0,18745918.0,141.0
140,choice,choice,41,6.0,Solid,2.0,39.00405500002671,Animal_Land_Pattern_Small,4,0,0,18746071.0,18746354.0,283.0
140,choice,choice,41,6.0,Solid,2.0,39.00405500002671,fixation,-1,1,0,18746439.0,18746650.0,211.0
140,choice,choice,41,6.0,Solid,2.0,39.00405500002671,Animal_Sea_Pattern_Small,5,0,0,18746686.0,18746800.0,114.0
140,choice,choice,41,6.0,Solid,2.0,39.00405500002671,fixation,-1,1,0,18746809.0,18747812.0,1003.0
140,choice,choice,41,6.0,Solid,2.0,39.00405500002671,Object_Land_Solid_Small,1,0,1,18748110.0,18748541.0,431.0
140,choice,choice,41,6.0,Solid,2.0,39.00405500002671,fixation,-1,1,0,18749001.0,18749785.0,784.0
140,choice,choice,41,6.0,Solid,2.0,39.00405500002671,Object_Sea_Pattern_Large,3,0,0,18749838.0,18750001.0,163.0
140,choice,choice,41,6.0,Solid,2.0,39.00405500002671,Object_Sea_Solid_Large,2,0,1,18750262.0,18750508.0,246.0
140,choice,choice,41,6.0,Solid,2.0,39.00405500002671,fixation,-1,1,0,18750528.0,18750638.0,110.0
140,choice,choice,42,6.0,Large,1.0,22.584157124976628,Animal_Land_Solid_Large,0,0,1,18754195.0,18754680.0,485.0
140,choice,choice,42,6.0,Large,1.0,22.584157124976628,fixation,-1,1,0,18755375.0,18755670.0,295.0
140,choice,choice,42,6.0,Large,1.0,22.584157124976628,Object_Sea_Solid_Large,2,0,1,18755744.0,18755973.0,229.0
140,choice,choice,42,6.0,Large,1.0,22.584157124976628,fixation,-1,1,0,18756189.0,18756355.0,166.0
140,choice,choice,42,6.0,Large,1.0,22.584157124976628,Object_Land_Solid_Small,1,0,0,18756582.0,18757130.0,548.0
140,choice,choice,42,6.0,Large,1.0,22.584157124976628,fixation,-1,1,0,18757859.0,18758043.0,184.0
140,choice,choice,42,6.0,Large,1.0,22.584157124976628,Object_Land_Solid_Small,1,0,0,18758278.0,18758565.0,287.0
140,choice,choice,42,6.0,Large,1.0,22.584157124976628,fixation,-1,1,0,18758641.0,18759205.0,564.0
140,choice,choice,42,6.0,Large,1.0,22.584157124976628,Object_Land_Solid_Small,1,0,0,18759482.0,18759643.0,161.0
140,choice,choice,42,6.0,Large,1.0,22.584157124976628,Animal_Land_Solid_Large,0,0,1,18759832.0,18760175.0,343.0
140,choice,choice,42,6.0,Large,1.0,22.584157124976628,Object_Sea_Solid_Large,2,0,1,18760222.0,18760347.0,125.0
140,choice,choice,42,6.0,Large,1.0,22.584157124976628,Object_Land_Solid_Small,1,0,0,18760792.0,18762260.0,1468.0
140,choice,choice,42,6.0,Large,1.0,22.584157124976628,Animal_Land_Solid_Large,0,0,1,18762974.0,18763126.0,152.0
140,choice,choice,42,6.0,Large,1.0,22.584157124976628,Object_Land_Solid_Small,1,0,0,18763176.0,18763673.0,497.0
140,choice,choice,42,6.0,Large,1.0,22.584157124976628,Animal_Land_Solid_Large,0,0,1,18763888.0,18765733.0,1845.0
140,choice,choice,42,6.0,Large,1.0,22.584157124976628,Object_Sea_Solid_Large,2,0,1,18766541.0,18767302.0,761.0
140,choice,choice,42,6.0,Large,1.0,22.584157124976628,Animal_Land_Solid_Large,0,0,1,18767508.0,18768097.0,589.0
140,choice,choice,42,6.0,Large,1.0,22.584157124976628,Object_Sea_Solid_Large,2,0,1,18768230.0,18768489.0,259.0
140,choice,choice,42,6.0,Large,1.0,22.584157124976628,fixation,-1,1,0,18768534.0,18768693.0,159.0
140,choice,choice,42,6.0,Large,1.0,22.584157124976628,Animal_Land_Solid_Large,0,0,1,18768910.0,18769109.0,199.0
140,choice,choice,42,6.0,Large,1.0,22.584157124976628,Object_Sea_Solid_Large,2,0,1,18769126.0,18769549.0,423.0
140,choice,choice,42,6.0,Large,1.0,22.584157124976628,Animal_Land_Solid_Large,0,0,1,18769803.0,18770209.0,406.0
140,choice,choice,42,6.0,Large,1.0,22.584157124976628,Object_Sea_Solid_Large,2,0,1,18770350.0,18770679.0,329.0
140,choice,choice,42,6.0,Large,1.0,22.584157124976628,fixation,-1,1,0,18770696.0,18770998.0,302.0
140,choice,choice,42,6.0,Large,1.0,22.584157124976628,Animal_Land_Solid_Large,0,0,1,18771011.0,18771152.0,141.0
140,choice,choice,42,6.0,Large,1.0,22.584157124976628,Object_Land_Solid_Small,1,0,0,18771168.0,18771505.0,337.0
140,choice,choice,42,6.0,Large,1.0,22.584157124976628,Animal_Land_Solid_Large,0,0,1,18771740.0,18771815.0,75.0
140,choice,choice,42,6.0,Large,1.0,22.584157124976628,fixation,-1,1,0,18771830.0,18772107.0,277.0
140,choice,choice,42,6.0,Large,1.0,22.584157124976628,Object_Land_Solid_Small,1,0,0,18772238.0,18773469.0,1231.0
140,choice,choice,42,6.0,Large,1.0,22.584157124976628,fixation,-1,1,0,18773969.0,18774607.0,638.0
140,choice,choice,42,6.0,Large,1.0,22.584157124976628,Animal_Sea_Pattern_Small,5,0,0,18774962.0,18775955.0,993.0
140,choice,choice,42,6.0,Large,1.0,22.584157124976628,Object_Sea_Pattern_Large,3,0,1,18776321.0,18776389.0,68.0
140,choice,choice,42,6.0,Large,1.0,22.584157124976628,Animal_Sea_Pattern_Small,5,0,0,18776435.0,18776468.0,33.0
140,choice,choice,43,6.0,Land,2.0,37.49247245793231,Animal_Land_Solid_Large,0,0,1,18779681.0,18780065.0,384.0
140,choice,choice,43,6.0,Land,2.0,37.49247245793231,Object_Land_Solid_Small,1,0,1,18780529.0,18781115.0,586.0
140,choice,choice,43,6.0,Land,2.0,37.49247245793231,fixation,-1,1,0,18782374.0,18782665.0,291.0
140,choice,choice,43,6.0,Land,2.0,37.49247245793231,Animal_Land_Solid_Large,0,0,1,18782976.0,18783328.0,352.0
140,choice,choice,43,6.0,Land,2.0,37.49247245793231,fixation,-1,1,0,18783772.0,18783918.0,146.0
140,choice,choice,43,6.0,Land,2.0,37.49247245793231,Object_Sea_Pattern_Large,3,0,0,18783950.0,18784102.0,152.0
140,choice,choice,43,6.0,Land,2.0,37.49247245793231,fixation,-1,1,0,18784206.0,18784527.0,321.0
140,choice,choice,43,6.0,Land,2.0,37.49247245793231,Animal_Land_Solid_Large,0,0,1,18784738.0,18785749.0,1011.0
140,choice,choice,43,6.0,Land,2.0,37.49247245793231,fixation,-1,1,0,18786174.0,18786826.0,652.0
140,choice,choice,43,6.0,Land,2.0,37.49247245793231,Animal_Land_Solid_Large,0,0,1,18787094.0,18787538.0,444.0
140,choice,choice,43,6.0,Land,2.0,37.49247245793231,fixation,-1,1,0,18787605.0,18789075.0,1470.0
140,choice,choice,43,6.0,Land,2.0,37.49247245793231,Animal_Sea_Pattern_Small,5,0,0,18789426.0,18790729.0,1303.0
140,choice,choice,43,6.0,Land,2.0,37.49247245793231,fixation,-1,1,0,18790958.0,18795597.0,4639.0
140,choice,choice,43,6.0,Land,2.0,37.49247245793231,Animal_Sea_Pattern_Small,5,0,0,18797257.0,18797557.0,300.0
140,choice,choice,43,6.0,Land,2.0,37.49247245793231,fixation,-1,1,0,18797634.0,18798715.0,1081.0
140,choice,choice,43,6.0,Land,2.0,37.49247245793231,Animal_Land_Solid_Large,0,0,1,18799491.0,18799868.0,377.0
140,choice,choice,43,6.0,Land,2.0,37.49247245793231,fixation,-1,1,0,18799876.0,18800360.0,484.0
140,choice,choice,43,6.0,Land,2.0,37.49247245793231,Object_Sea_Solid_Large,2,0,0,18800705.0,18801135.0,430.0
140,choice,choice,43,6.0,Land,2.0,37.49247245793231,fixation,-1,1,0,18801216.0,18801778.0,562.0
140,choice,choice,43,6.0,Land,2.0,37.49247245793231,Animal_Land_Solid_Large,0,0,1,18802233.0,18802762.0,529.0
140,choice,choice,43,6.0,Land,2.0,37.49247245793231,Object_Sea_Solid_Large,2,0,0,18802863.0,18802976.0,113.0
140,choice,choice,43,6.0,Land,2.0,37.49247245793231,Animal_Land_Solid_Large,0,0,1,18803205.0,18803519.0,314.0
140,choice,choice,43,6.0,Land,2.0,37.49247245793231,Object_Sea_Solid_Large,2,0,0,18803594.0,18804413.0,819.0
140,choice,choice,43,6.0,Land,2.0,37.49247245793231,Animal_Land_Solid_Large,0,0,1,18805109.0,18805543.0,434.0
140,choice,choice,43,6.0,Land,2.0,37.49247245793231,Object_Sea_Solid_Large,2,0,0,18805893.0,18806114.0,221.0
140,choice,choice,43,6.0,Land,2.0,37.49247245793231,fixation,-1,1,0,18806147.0,18806282.0,135.0
140,choice,choice,43,6.0,Land,2.0,37.49247245793231,Animal_Land_Solid_Large,0,0,1,18806585.0,18807139.0,554.0
140,choice,choice,43,6.0,Land,2.0,37.49247245793231,Object_Land_Solid_Small,1,0,1,18807305.0,18807549.0,244.0
140,choice,choice,43,6.0,Land,2.0,37.49247245793231,Animal_Land_Solid_Large,0,0,1,18808015.0,18808368.0,353.0
140,choice,choice,43,6.0,Land,2.0,37.49247245793231,Object_Land_Solid_Small,1,0,1,18809068.0,18809149.0,81.0
140,choice,choice,43,6.0,Land,2.0,37.49247245793231,Animal_Land_Solid_Large,0,0,1,18809386.0,18809646.0,260.0
140,choice,choice,43,6.0,Land,2.0,37.49247245793231,Object_Land_Solid_Small,1,0,1,18809746.0,18809822.0,76.0
140,choice,choice,43,6.0,Land,2.0,37.49247245793231,Animal_Land_Solid_Large,0,0,1,18810174.0,18810478.0,304.0
140,choice,choice,43,6.0,Land,2.0,37.49247245793231,Object_Land_Solid_Small,1,0,1,18811058.0,18811296.0,238.0
140,choice,choice,43,6.0,Land,2.0,37.49247245793231,Animal_Land_Solid_Large,0,0,1,18811644.0,18812099.0,455.0
