phase,event,onset,offset,trial_number,game,image,outcome,choice,correct,rt,letter,match,response,option,true_value,true_position,recalled_position,
encoding,fixation,12.193425332894549,13.463657874846831,1,1,Animal_Land_Solid_Large,-2,,,,,,,,,,,
encoding,image,13.463801916921511,14.489210749976337,1,1,Animal_Land_Solid_Large,-2,,,,,,,,,,,
encoding,value,14.48931233305484,20.50572875002399,1,1,Animal_Land_Solid_Large,-2,,,,,,,,,,,
encoding,attention,20.505851791938767,23.5245644999668,1,1,Animal_Land_Solid_Large,-2,-2,1,2.41804137500003,,,,,,,,
encoding,fixation,23.524715417064726,25.029979625018314,2,1,Object_Sea_Solid_Small,4,,,,,,,,,,,
encoding,image,25.030073457863182,26.041371874976903,2,1,Object_Sea_Solid_Small,4,,,,,,,,,,,
encoding,value,26.04147420800291,32.05226079188287,2,1,Object_Sea_Solid_Small,4,,,,,,,,,,,
encoding,attention,32.05236866697669,35.06503399997018,2,1,Object_Sea_Solid_Small,4,None,None,None,,,,,,,,
encoding,fixation,35.06517208297737,36.570477874949574,3,1,Object_Sea_Solid_Large,7,,,,,,,,,,,
encoding,image,36.57058241707273,37.58255095803179,3,1,Object_Sea_Solid_Large,7,,,,,,,,,,,
encoding,value,37.58267216687091,43.595287249889225,3,1,Object_Sea_Solid_Large,7,,,,,,,,,,,
encoding,attention,43.59542024997063,46.614228249993175,3,1,Object_Sea_Solid_Large,7,+7,1,2.0789972918573767,,,,,,,,
encoding,fixation,46.61441216687672,47.869516582926735,4,1,Animal_Land_Pattern_Large,-3,,,,,,,,,,,
encoding,image,47.86963629187085,48.88218579185195,4,1,Animal_Land_Pattern_Large,-3,,,,,,,,,,,
encoding,value,48.88233337504789,54.89370391704142,4,1,Animal_Land_Pattern_Large,-3,,,,,,,,,,,
encoding,attention,54.89385062502697,57.912313082953915,4,1,Animal_Land_Pattern_Large,-3,-3,1,1.6072507910430431,,,,,,,,
encoding,fixation,57.91246633301489,58.41739204199985,5,1,Object_Sea_Pattern_Small,-8,,,,,,,,,,,
encoding,image,58.41750391689129,59.429044416872784,5,1,Object_Sea_Pattern_Small,-8,,,,,,,,,,,
encoding,value,59.42916620802134,65.44128250004724,5,1,Object_Sea_Pattern_Small,-8,,,,,,,,,,,
encoding,attention,65.44139024987817,68.50952004198916,5,1,Object_Sea_Pattern_Small,-8,-8,1,1.096686917124316,,,,,,,,
encoding,fixation,68.5096604169812,69.5151720000431,6,1,Animal_Land_Pattern_Small,3,,,,,,,,,,,
encoding,image,69.51527762506157,70.52616645791568,6,1,Animal_Land_Pattern_Small,3,,,,,,,,,,,
encoding,value,70.52627483289689,76.53742866707034,6,1,Animal_Land_Pattern_Small,3,,,,,,,,,,,
encoding,attention,76.53753558290191,79.55461458303034,6,1,Animal_Land_Pattern_Small,3,+3,1,0.8195283338427544,,,,,,,,
n-back,,,,1,1,,,,0,None,V,True,None,,,,,
n-back,,,,2,1,,,,0,None,B,True,None,,,,,
n-back,,,,3,1,,,,1,None,C,False,None,,,,,
n-back,,,,4,1,,,,1,None,V,False,None,,,,,
n-back,,,,5,1,,,,1,1.065664750058204,C,True,1,,,,,
n-back,,,,6,1,,,,1,None,X,False,None,,,,,
n-back,,,,7,1,,,,1,None,X,False,None,,,,,
n-back,,,,8,1,,,,1,None,B,False,None,,,,,
n-back,,,,9,1,,,,1,None,C,False,None,,,,,
n-back,,,,10,1,,,,1,0.7760010829661041,B,True,1,,,,,
n-back,,,,11,1,,,,1,None,X,False,None,,,,,
n-back,,,,12,1,,,,0,None,B,True,None,,,,,
n-back,,,,13,1,,,,1,0.5307390408124775,X,True,1,,,,,
n-back,,,,14,1,,,,1,None,N,False,None,,,,,
n-back,,,,15,1,,,,1,None,C,False,None,,,,,
n-back,,,,16,1,,,,1,None,B,False,None,,,,,
n-back,,,,17,1,,,,1,None,V,False,None,,,,,
n-back,,,,18,1,,,,1,None,X,False,None,,,,,
n-back,,,,19,1,,,,1,None,C,False,None,,,,,
n-back,,,,20,1,,,,1,None,B,False,None,,,,,
n-back,,,,21,1,,,,1,0.9401151249185205,C,True,1,,,,,
n-back,,,,22,1,,,,1,None,X,False,None,,,,,
n-back,,,,23,1,,,,1,None,B,False,None,,,,,
n-back,,,,24,1,,,,1,0.52772624976933,X,True,1,,,,,
n-back,,,,25,1,,,,1,None,X,False,None,,,,,
n-back,,,,26,1,,,,0,None,X,True,None,,,,,
n-back,,,,27,1,,,,1,None,V,False,None,,,,,
n-back,,,,28,1,,,,1,None,V,False,None,,,,,
n-back,,,,29,1,,,,1,None,Z,False,None,,,,,
n-back,,,,30,1,,,,1,0.39490608288906515,V,True,1,,,,,
choice,fixation,171.00042191706598,172.00635608285666,1,1,,,,,,,,,Sea,,,,
choice,option,172.01527924998663,173.27201270801015,1,1,,,,,,,,,Sea,,,,
choice,choice,173.2721279170364,177.12709591700695,1,1,,,1,1,2.8450680000241846,,,,Sea,,,,
choice,fixation,177.12722562486306,177.88241479196586,2,1,,,,,,,,,Solid,,,,
choice,option,177.89179933303967,178.91957220784388,2,1,,,,,,,,,Solid,,,,
choice,choice,178.91968375002034,196.02323287492618,2,1,,,1,1,16.09292145888321,,,,Solid,,,,
choice,fixation,196.0233482918702,196.77827233285643,3,1,,,,,,,,,Pattern,,,,
choice,option,196.78763337503187,197.81533245788887,3,1,,,,,,,,,Pattern,,,,
choice,choice,197.81547020794824,206.94404774997383,3,1,,,2,1,8.117281457874924,,,,Pattern,,,,
choice,fixation,206.94418341689743,207.69921308290213,4,1,,,,,,,,,Object,,,,
choice,option,207.70891100005247,208.73704287502915,4,1,,,,,,,,,Object,,,,
choice,choice,208.73713895794936,212.28770341700874,4,1,,,1,1,2.5409377079922706,,,,Object,,,,
choice,fixation,212.2878225420136,213.54292933293618,5,1,,,,,,,,,Land,,,,
choice,option,213.55194437503815,214.57960545807146,5,1,,,,,,,,,Land,,,,
choice,choice,214.57972241705284,221.92203987506218,5,1,,,2,1,6.332581291906536,,,,Land,,,,
choice,fixation,221.92215624987148,222.42748124990612,6,1,,,,,,,,,Small,,,,
choice,option,222.43650670791976,223.4664000829216,6,1,,,,,,,,,Small,,,,
choice,choice,223.46651045791805,236.61656683287583,6,1,,,1,0,12.137669584015384,,,,Small,,,,
choice,fixation,236.61672733305022,238.1217561250087,7,1,,,,,,,,,Large,,,,
choice,option,238.13061420805752,239.1583414999768,7,1,,,,,,,,,Large,,,,
choice,choice,239.15844608284533,260.19951762491837,7,1,,,1,1,20.027120999991894,,,,Large,,,,
choice,fixation,260.19962812494487,261.7049697919283,8,1,,,,,,,,,Animal,,,,
choice,option,261.71443833294325,262.7414055420086,8,1,,,,,,,,,Animal,,,,
choice,choice,262.7415268330369,270.622113707941,8,1,,,2,1,6.868099209154025,,,,Animal,,,,
memory,free_recall,337.4726392920129,356.89847941696644,0,1,,,,,,,,,,,,,
memory,value_recall,407.5317165418528,416.8726879998576,1,1,Object_Sea_Solid_Large,,,,9.33759608399123,,,,,7,,,
memory,value_recall,418.4199005418923,435.7036486249417,2,1,Animal_Land_Pattern_Large,,,,17.27966191712767,,,,,-3,,,
memory,value_recall,436.75222899997607,440.2728079580702,3,1,Animal_Land_Pattern_Small,,,,3.5178833750542253,,,,,3,,,
memory,value_recall,442.3197698749136,448.09699129196815,4,1,Animal_Land_Solid_Large,,,,5.773325459100306,,,,,-2,,,
memory,value_recall,449.1441955000628,454.75350075005554,5,1,Object_Sea_Solid_Small,,,,5.606166957877576,,,,,4,,,
memory,value_recall,455.80067341704853,461.70500162499957,6,1,Object_Sea_Pattern_Small,,,,5.900887042051181,,,,,-8,,,
memory,spatial_recall,490.3682472920045,501.46522404206917,6,1,Object_Sea_Solid_Small,,,1,11.093751749955118,,,,,,"[0, -380]","[0, -380]",
memory,spatial_recall,503.02641545794904,512.6646960419603,6,1,Animal_Land_Solid_Large,,,1,9.633016292005777,,,,,,"[-329, 190]","[-329, 190]",
memory,spatial_recall,514.4766559170093,519.4919782080688,6,1,Object_Sea_Solid_Large,,,1,5.010522667085752,,,,,,"[329, 189]","[329, 189]",
memory,spatial_recall,521.5497959579807,526.0968901668675,6,1,Animal_Land_Pattern_Large,,,1,4.542913042008877,,,,,,"[0, 380]","[0, 380]",
memory,spatial_recall,528.159278749954,532.0471691668499,6,1,Animal_Land_Pattern_Small,,,1,3.8835084170568734,,,,,,"[329, -190]","[329, -190]",
memory,spatial_recall,534.1090652078856,536.4925094579812,6,1,Object_Sea_Pattern_Small,,,1,2.3784979158081114,,,,,,"[-329, -190]","[-329, -190]",
encoding,fixation,10.485396124888211,10.991175749804825,7,2,Object_Land_Solid_Large,-7,,,,,,,,,,,
encoding,image,10.991311999969184,12.002691624918953,7,2,Object_Land_Solid_Large,-7,,,,,,,,,,,
encoding,value,12.002812624908984,18.0147128328681,7,2,Object_Land_Solid_Large,-7,,,,,,,,,,,
encoding,attention,18.01489229197614,21.03336695791222,7,2,Object_Land_Solid_Large,-7,-7,1,1.0485362499020994,,,,,,,,
encoding,fixation,21.03350849985145,22.53878604178317,8,2,Object_Sea_Pattern_Small,-9,,,,,,,,,,,
encoding,image,22.538893124787137,23.549756082938984,8,2,Object_Sea_Pattern_Small,-9,,,,,,,,,,,
encoding,value,23.549892166862264,29.561683332780376,8,2,Object_Sea_Pattern_Small,-9,,,,,,,,,,,
encoding,attention,29.56181904184632,32.579290458001196,8,2,Object_Sea_Pattern_Small,-9,-9,1,1.1431779589038342,,,,,,,,
encoding,fixation,32.57943295780569,33.834581499919295,9,2,Animal_Sea_Pattern_Large,3,,,,,,,,,,,
encoding,image,33.83468220778741,34.84471445786767,9,2,Animal_Sea_Pattern_Large,3,,,,,,,,,,,
encoding,value,34.84482291690074,40.856189999962226,9,2,Animal_Sea_Pattern_Large,3,,,,,,,,,,,
encoding,attention,40.85630808281712,43.87348541687243,9,2,Animal_Sea_Pattern_Large,3,+3,1,0.5613334171939641,,,,,,,,
encoding,fixation,43.87363995797932,44.37878920789808,10,2,Animal_Sea_Solid_Small,1,,,,,,,,,,,
encoding,image,44.37889012484811,45.38971162494272,10,2,Animal_Sea_Solid_Small,1,,,,,,,,,,,
encoding,value,45.38981737499125,51.40120308287442,10,2,Animal_Sea_Solid_Small,1,,,,,,,,,,,
encoding,attention,51.40130470786244,54.41942983283661,10,2,Animal_Sea_Solid_Small,1,+1,1,1.467051750048995,,,,,,,,
encoding,fixation,54.41958508291282,55.42466204194352,11,2,Object_Land_Pattern_Small,7,,,,,,,,,,,
encoding,image,55.424757916945964,56.436195499962196,11,2,Object_Land_Pattern_Small,7,,,,,,,,,,,
encoding,value,56.43629629188217,62.4475795829203,11,2,Object_Land_Pattern_Small,7,,,,,,,,,,,
encoding,attention,62.447710749926046,65.4649954168126,11,2,Object_Land_Pattern_Small,7,+7,1,0.6086630830541253,,,,,,,,
encoding,fixation,65.46513749985024,66.97026041685604,12,2,Animal_Land_Solid_Large,-7,,,,,,,,,,,
encoding,image,66.9703844578471,67.98209037492052,12,2,Animal_Land_Solid_Large,-7,,,,,,,,,,,
encoding,value,67.98220649990253,73.99381224997342,12,2,Animal_Land_Solid_Large,-7,,,,,,,,,,,
encoding,attention,73.99392445781268,77.0119756248314,12,2,Animal_Land_Solid_Large,-7,-7,1,1.102865541120991,,,,,,,,
n-back,,,,31,2,,,,0,None,X,True,None,,,,,
n-back,,,,32,2,,,,1,None,Z,False,None,,,,,
n-back,,,,33,2,,,,1,None,N,False,None,,,,,
n-back,,,,34,2,,,,1,None,X,False,None,,,,,
n-back,,,,35,2,,,,1,0.6007319579366595,N,True,1,,,,,
n-back,,,,36,2,,,,0,None,X,True,None,,,,,
n-back,,,,37,2,,,,1,None,Z,False,None,,,,,
n-back,,,,38,2,,,,1,None,Z,False,None,,,,,
n-back,,,,39,2,,,,1,0.7955634579993784,Z,True,1,,,,,
n-back,,,,40,2,,,,0,None,Z,True,None,,,,,
n-back,,,,41,2,,,,1,None,X,False,None,,,,,
n-back,,,,42,2,,,,1,0.598492959048599,Z,True,1,,,,,
n-back,,,,43,2,,,,1,None,V,False,None,,,,,
n-back,,,,44,2,,,,1,None,B,False,None,,,,,
n-back,,,,45,2,,,,1,None,X,False,None,,,,,
n-back,,,,46,2,,,,1,None,Z,False,None,,,,,
n-back,,,,47,2,,,,1,1.3513523750007153,X,True,1,,,,,
n-back,,,,48,2,,,,1,None,X,False,None,,,,,
n-back,,,,49,2,,,,0,None,X,True,None,,,,,
n-back,,,,50,2,,,,1,None,V,False,None,,,,,
n-back,,,,51,2,,,,1,None,V,False,None,,,,,
n-back,,,,52,2,,,,1,None,B,False,None,,,,,
n-back,,,,53,2,,,,0,None,V,True,None,,,,,
n-back,,,,54,2,,,,1,None,C,False,None,,,,,
n-back,,,,55,2,,,,0,0.3912982498295605,B,False,1,,,,,
n-back,,,,56,2,,,,1,None,V,False,None,,,,,
n-back,,,,57,2,,,,1,None,C,False,None,,,,,
n-back,,,,58,2,,,,1,None,X,False,None,,,,,
n-back,,,,59,2,,,,1,None,V,False,None,,,,,
n-back,,,,60,2,,,,1,0.8727510841563344,X,True,1,,,,,
choice,fixation,160.8110681248363,161.31450033280998,9,2,,,,,,,,,Sea,,,,
choice,option,161.3222651667893,162.3512198328972,9,2,,,,,,,,,Sea,,,,
choice,choice,162.35131891677156,167.3944113329053,9,2,,,1,0,4.03325695800595,,,,Sea,,,,
choice,fixation,167.39456508285366,167.89998070779257,10,2,,,,,,,,,Land,,,,
choice,option,167.90851283282973,168.93522899993695,10,2,,,,,,,,,Land,,,,
choice,choice,168.93534124991857,176.17763091693632,10,2,,,2,1,6.232474833028391,,,,Land,,,,
choice,fixation,176.1777658748906,176.93288387497887,11,2,,,,,,,,,Pattern,,,,
choice,option,176.94211449986324,177.96934004197828,11,2,,,,,,,,,Pattern,,,,
choice,choice,177.96943949977867,193.8988503748551,11,2,,,2,0,14.918473416939378,,,,Pattern,,,,
choice,fixation,193.8989664579276,195.15408149990253,12,2,,,,,,,,,Animal,,,,
choice,option,195.16354470793158,196.19115462480113,12,2,,,,,,,,,Animal,,,,
choice,choice,196.19126391690224,206.88233191682957,12,2,,,2,1,9.679018165916204,,,,Animal,,,,
choice,fixation,206.8825145829469,208.13752862485126,13,2,,,,,,,,,Small,,,,
choice,option,208.14665558282286,209.17451116698794,13,2,,,,,,,,,Small,,,,
choice,choice,209.17461716686375,221.2048402079381,13,2,,,2,1,11.017419334035367,,,,Small,,,,
choice,fixation,221.20501541695558,221.71006183279678,14,2,,,,,,,,,Large,,,,
choice,option,221.71896224981174,222.74824679177254,14,2,,,,,,,,,Large,,,,
choice,choice,222.7483608748298,236.2107714167796,14,2,,,2,1,12.451020957902074,,,,Large,,,,
choice,fixation,236.2108949169051,237.71604237495922,15,2,,,,,,,,,Solid,,,,
choice,option,237.72557599982247,238.75203304179013,15,2,,,,,,,,,Solid,,,,
choice,choice,238.75220062490553,257.0212123747915,15,2,,,2,1,17.258078583981842,,,,Solid,,,,
choice,fixation,257.02134987479076,258.2766878749244,16,2,,,,,,,,,Object,,,,
choice,option,258.2858474578243,259.3149465827737,16,2,,,,,,,,,Object,,,,
choice,choice,259.31505524995737,283.42673066677526,16,2,,,2,1,23.101165249943733,,,,Object,,,,
memory,free_recall,343.4677495418582,363.21983599988744,6,2,,,,,,,,,,,,,
memory,value_recall,385.8039581249468,393.01316083292477,7,2,Animal_Sea_Pattern_Large,,,,7.205080499872565,,,,,3,,,
memory,value_recall,394.81284620799124,399.81308058300056,8,2,Object_Land_Pattern_Small,,,,4.996163459029049,,,,,7,,,
memory,value_recall,401.8591735828668,406.2679747079965,9,2,Animal_Land_Solid_Large,,,,4.403939333045855,,,,,-7,,,
memory,value_recall,407.3155484169256,411.40526854177006,10,2,Animal_Sea_Solid_Small,,,,4.087184666888788,,,,,1,,,
memory,value_recall,413.20193412480876,418.4848695418332,11,2,Object_Sea_Pattern_Small,,,,5.278620708966628,,,,,-9,,,
memory,value_recall,419.5317610418424,422.29338391683996,12,2,Object_Land_Solid_Large,,,,2.7583465420175344,,,,,-7,,,
memory,spatial_recall,435.72151758288965,439.6585027498659,12,2,Animal_Land_Solid_Large,,,1,3.9340616250410676,,,,,,"[-329, 190]","[-329, 190]",
memory,spatial_recall,440.7200859999284,442.84991087485105,12,2,Animal_Sea_Solid_Small,,,1,2.1273669579531997,,,,,,"[329, 189]","[329, 189]",
memory,spatial_recall,443.90630995784886,446.0561581668444,12,2,Object_Sea_Pattern_Small,,,1,2.1472498341463506,,,,,,"[-329, -190]","[-329, -190]",
memory,spatial_recall,448.10874616680667,455.2418504168745,12,2,Object_Land_Solid_Large,,,1,7.129023750079796,,,,,,"[0, -380]","[0, -380]",
memory,spatial_recall,457.0485826248769,458.6082164167892,12,2,Object_Land_Pattern_Small,,,1,1.5555040000472218,,,,,,"[0, 380]","[0, 380]",
memory,spatial_recall,459.6497359168716,463.558222041931,12,2,Animal_Sea_Pattern_Large,,,1,3.906118083978072,,,,,,"[329, -190]","[329, -190]",
encoding,fixation,6.397015624912456,7.6540971249341965,13,3,Object_Sea_Pattern_Large,-9,,,,,,,,,,,
encoding,image,7.6542658330872655,8.667696458054706,13,3,Object_Sea_Pattern_Large,-9,,,,,,,,,,,
encoding,value,8.667805291945115,14.68318795808591,13,3,Object_Sea_Pattern_Large,-9,,,,,,,,,,,
encoding,attention,14.683329458115622,17.702304374892265,13,3,Object_Sea_Pattern_Large,-9,-9,1,0.9426302080973983,,,,,,,,
encoding,fixation,17.702451542019844,18.45770391705446,14,3,Object_Land_Solid_Small,-3,,,,,,,,,,,
encoding,image,18.45782804209739,19.471234542084858,14,3,Object_Land_Solid_Small,-3,,,,,,,,,,,
encoding,value,19.471364500001073,25.48418870801106,14,3,Object_Land_Solid_Small,-3,,,,,,,,,,,
encoding,attention,25.484345958102494,28.501941499998793,14,3,Object_Land_Solid_Small,-3,-3,1,1.0993334169033915,,,,,,,,
encoding,fixation,28.5020774169825,29.007292666938156,15,3,Animal_Sea_Pattern_Small,8,,,,,,,,,,,
encoding,image,29.007392124971375,30.020530791953206,15,3,Animal_Sea_Pattern_Small,8,,,,,,,,,,,
encoding,value,30.020630167098716,36.03264916711487,15,3,Animal_Sea_Pattern_Small,8,,,,,,,,,,,
encoding,attention,36.03281104192138,39.05077883298509,15,3,Animal_Sea_Pattern_Small,8,+8,1,1.1833776249550283,,,,,,,,
encoding,fixation,39.05093316710554,40.05731466691941,16,3,Animal_Land_Solid_Small,-2,,,,,,,,,,,
encoding,image,40.05741004203446,41.06835487508215,16,3,Animal_Land_Solid_Small,-2,,,,,,,,,,,
encoding,value,41.06847812491469,47.0804919579532,16,3,Animal_Land_Solid_Small,-2,,,,,,,,,,,
encoding,attention,47.0805963750463,50.0979171670042,16,3,Animal_Land_Solid_Small,-2,-2,1,0.8476907499134541,,,,,,,,
encoding,fixation,50.0980770830065,51.6055102921091,17,3,Animal_Sea_Solid_Large,9,,,,,,,,,,,
encoding,image,51.60562662500888,52.616895667044446,17,3,Animal_Sea_Solid_Large,9,,,,,,,,,,,
encoding,value,52.61700358311646,58.62846962502226,17,3,Animal_Sea_Solid_Large,9,,,,,,,,,,,
encoding,attention,58.62857816694304,61.64640645799227,17,3,Animal_Sea_Solid_Large,9,+9,1,2.011347834020853,,,,,,,,
encoding,fixation,61.64657233306207,62.151772582903504,18,3,Object_Land_Pattern_Large,9,,,,,,,,,,,
encoding,image,62.151954541914165,63.163972249953076,18,3,Object_Land_Pattern_Large,9,,,,,,,,,,,
encoding,value,63.1640857080929,69.17773408303037,18,3,Object_Land_Pattern_Large,9,,,,,,,,,,,
encoding,attention,69.17783537507057,72.1959374169819,18,3,Object_Land_Pattern_Large,9,+9,1,0.7659953748807311,,,,,,,,
n-back,,,,61,3,,,,1,None,V,False,None,,,,,
n-back,,,,62,3,,,,0,None,X,True,None,,,,,
n-back,,,,63,3,,,,1,None,Z,False,None,,,,,
n-back,,,,64,3,,,,1,None,Z,False,None,,,,,
n-back,,,,65,3,,,,1,None,X,False,None,,,,,
n-back,,,,66,3,,,,1,None,X,False,None,,,,,
n-back,,,,67,3,,,,1,None,V,False,None,,,,,
n-back,,,,68,3,,,,1,None,C,False,None,,,,,
n-back,,,,69,3,,,,1,None,N,False,None,,,,,
n-back,,,,70,3,,,,1,None,V,False,None,,,,,
n-back,,,,71,3,,,,1,None,V,False,None,,,,,
n-back,,,,72,3,,,,1,None,B,False,None,,,,,
n-back,,,,73,3,,,,1,None,N,False,None,,,,,
n-back,,,,74,3,,,,1,None,Z,False,None,,,,,
n-back,,,,75,3,,,,1,None,V,False,None,,,,,
n-back,,,,76,3,,,,1,None,X,False,None,,,,,
n-back,,,,77,3,,,,1,0.7234917918685824,V,True,1,,,,,
n-back,,,,78,3,,,,0,None,X,True,None,,,,,
n-back,,,,79,3,,,,0,None,V,True,None,,,,,
n-back,,,,80,3,,,,1,0.6624063330236822,X,True,1,,,,,
n-back,,,,81,3,,,,1,None,Z,False,None,,,,,
n-back,,,,82,3,,,,0,None,X,True,None,,,,,
n-back,,,,83,3,,,,1,None,B,False,None,,,,,
n-back,,,,84,3,,,,1,None,B,False,None,,,,,
n-back,,,,85,3,,,,0,None,B,True,None,,,,,
n-back,,,,86,3,,,,0,None,B,True,None,,,,,
n-back,,,,87,3,,,,1,None,Z,False,None,,,,,
n-back,,,,88,3,,,,1,1.0608338750898838,B,True,1,,,,,
n-back,,,,89,3,,,,1,None,C,False,None,,,,,
n-back,,,,90,3,,,,0,None,B,True,None,,,,,
choice,fixation,153.09937350009568,153.60299562499858,17,3,,,,,,,,,Land,,,,
choice,option,153.6115767499432,154.63934658304788,17,3,,,,,,,,,Land,,,,
choice,choice,154.63947975006886,165.51125649991445,17,3,,,1,1,9.852818500017747,,,,Land,,,,
choice,fixation,165.5114176250063,166.26719445805065,18,3,,,,,,,,,Large,,,,
choice,option,166.2767188749276,167.30575658311136,18,3,,,,,,,,,Large,,,,
choice,choice,167.30585337500088,185.18045333307236,18,3,,,2,0,16.862537416862324,,,,Large,,,,
choice,fixation,185.18059858307242,186.18733770796098,19,3,,,,,,,,,Solid,,,,
choice,option,186.19738187501207,187.22571379202418,19,3,,,,,,,,,Solid,,,,
choice,choice,187.22582895797677,202.65952679188922,19,3,,,1,1,14.421633957885206,,,,Solid,,,,
choice,fixation,202.6596439999994,204.16522629209794,20,3,,,,,,,,,Pattern,,,,
choice,option,204.17420466709882,205.2046410420444,20,3,,,,,,,,,Pattern,,,,
choice,choice,205.2047572080046,233.06856475002132,20,3,,,1,1,26.85265575000085,,,,Pattern,,,,
choice,fixation,233.06868612510152,233.82323287497275,21,3,,,,,,,,,Animal,,,,
choice,option,233.8330777080264,234.86025433288887,21,3,,,,,,,,,Animal,,,,
choice,choice,234.86036495794542,239.1543539580889,21,3,,,1,1,3.2834130411501974,,,,Animal,,,,
choice,fixation,239.15447566704825,240.1594889999833,22,3,,,,,,,,,Sea,,,,
choice,option,240.16768329194747,241.19541966705583,22,3,,,,,,,,,Sea,,,,
choice,choice,241.195520499954,245.1469477498904,22,3,,,1,1,2.9412572500295937,,,,Sea,,,,
choice,fixation,245.14706633309834,246.40546675003134,23,3,,,,,,,,,Small,,,,
choice,option,246.41460608295165,247.44179741689004,23,3,,,,,,,,,Small,,,,
choice,choice,247.44189508305863,255.61899154190905,23,3,,,2,0,7.167183042038232,,,,Small,,,,
choice,fixation,255.6191241669003,256.87411783309653,24,3,,,,,,,,,Object,,,,
choice,option,256.8834935000632,257.9111270830035,24,3,,,,,,,,,Object,,,,
choice,choice,257.9112701669801,269.11617258307524,24,3,,,2,1,10.193868917180225,,,,Object,,,,
memory,free_recall,290.90931449993514,310.60632624989375,12,3,,,,,,,,,,,,,
memory,value_recall,319.4712378329132,325.5018801249098,13,3,Object_Land_Solid_Small,,,,6.02663724985905,,,,,-3,,,
memory,value_recall,327.2990163329523,331.70201504207216,14,3,Animal_Land_Solid_Small,,,,4.398261833935976,,,,,-2,,,
memory,value_recall,333.2498396250885,335.6139138750732,15,3,Object_Land_Pattern_Large,,,,2.359752207994461,,,,,9,,,
memory,value_recall,337.4129831669852,341.44417233299464,16,3,Animal_Sea_Pattern_Small,,,,4.026958458125591,,,,,8,,,
memory,value_recall,342.4907410829328,348.724670750089,17,3,Animal_Sea_Solid_Large,,,,6.23060595896095,,,,,9,,,
memory,value_recall,350.2718241249677,354.149479374988,18,3,Object_Sea_Pattern_Large,,,,3.8734194580465555,,,,,-9,,,
memory,spatial_recall,358.6385243330151,363.48107470804825,18,3,Object_Land_Solid_Small,,,1,4.838417208055034,,,,,,"[329, -190]","[329, -190]",
memory,spatial_recall,365.04234733292833,366.69792020809837,18,3,Object_Sea_Pattern_Large,,,1,1.6512654579710215,,,,,,"[0, 380]","[0, 380]",
memory,spatial_recall,368.2563144171145,371.96426741709,18,3,Animal_Land_Solid_Small,,,1,3.7037799172103405,,,,,,"[0, -380]","[0, -380]",
memory,spatial_recall,373.77256558299996,376.16413958300836,18,3,Animal_Sea_Pattern_Small,,,1,2.3874728749506176,,,,,,"[-329, 190]","[-329, 190]",
memory,spatial_recall,377.22248904197477,380.297384750098,18,3,Animal_Sea_Solid_Large,,,1,3.0724894169252366,,,,,,"[-329, -190]","[-329, -190]",
memory,spatial_recall,382.1091732920613,383.131351958029,18,3,Object_Land_Pattern_Large,,,1,1.0178656249772757,,,,,,"[329, 189]","[329, 189]",
encoding,fixation,9.538315541110933,11.04527441621758,19,4,Object_Sea_Solid_Large,4,,,,,,,,,,,
encoding,image,11.045375041197985,12.05854570819065,19,4,Object_Sea_Solid_Large,4,,,,,,,,,,,
encoding,value,12.058712375117466,18.072477250127122,19,4,Object_Sea_Solid_Large,4,,,,,,,,,,,
encoding,attention,18.07258104113862,21.09287687507458,19,4,Object_Sea_Solid_Large,4,+4,1,0.41760866716504097,,,,,,,,
encoding,fixation,21.093023749999702,22.34812191617675,20,4,Object_Sea_Pattern_Small,-9,,,,,,,,,,,
encoding,image,22.34823991614394,23.360135375056416,20,4,Object_Sea_Pattern_Small,-9,,,,,,,,,,,
encoding,value,23.36029841611162,29.37304045818746,20,4,Object_Sea_Pattern_Small,-9,,,,,,,,,,,
encoding,attention,29.37314120819792,32.39268954121508,20,4,Object_Sea_Pattern_Small,-9,-9,1,0.5824405839666724,,,,,,,,
encoding,fixation,32.39283550018445,33.647954958025366,21,4,Object_Sea_Solid_Small,3,,,,,,,,,,,
encoding,image,33.64806595817208,34.657931791152805,21,4,Object_Sea_Solid_Small,3,,,,,,,,,,,
encoding,value,34.65803150017746,40.67106825020164,21,4,Object_Sea_Solid_Small,3,,,,,,,,,,,
encoding,attention,40.67119879112579,43.68751612515189,21,4,Object_Sea_Solid_Small,3,+3,1,0.5429945839568973,,,,,,,,
encoding,fixation,43.68766862503253,44.19269000017084,22,4,Animal_Land_Solid_Large,-9,,,,,,,,,,,
encoding,image,44.19280300009996,45.20443020807579,22,4,Animal_Land_Solid_Large,-9,,,,,,,,,,,
encoding,value,45.20453916606493,51.216359625104815,22,4,Animal_Land_Solid_Large,-9,,,,,,,,,,,
encoding,attention,51.21649075020105,54.235013666097075,22,4,Animal_Land_Solid_Large,-9,-9,1,0.5136444999370724,,,,,,,,
encoding,fixation,54.23516329121776,54.99032816616818,23,4,Animal_Land_Pattern_Large,4,,,,,,,,,,,
encoding,image,54.990436875028536,56.00149200018495,23,4,Animal_Land_Pattern_Large,4,,,,,,,,,,,
encoding,value,56.001612125197425,62.01376966619864,23,4,Animal_Land_Pattern_Large,4,,,,,,,,,,,
encoding,attention,62.013878375058994,65.0313031252008,23,4,Animal_Land_Pattern_Large,4,+4,1,0.5982186670880765,,,,,,,,
encoding,fixation,65.03154029115103,66.53656445816159,24,4,Animal_Land_Pattern_Small,8,,,,,,,,,,,
encoding,image,66.53665966610424,67.5482394581195,24,4,Animal_Land_Pattern_Small,8,,,,,,,,,,,
encoding,value,67.54837404121645,73.56011399999261,24,4,Animal_Land_Pattern_Small,8,,,,,,,,,,,
encoding,attention,73.56022495799698,76.57775712502189,24,4,Animal_Land_Pattern_Small,8,+8,1,0.5808012499473989,,,,,,,,
n-back,,,,91,4,,,,1,None,V,False,None,,,,,
n-back,,,,92,4,,,,1,None,N,False,None,,,,,
n-back,,,,93,4,,,,0,None,V,True,None,,,,,
n-back,,,,94,4,,,,0,0.5754563750233501,V,False,1,,,,,
n-back,,,,95,4,,,,0,None,V,True,None,,,,,
n-back,,,,96,4,,,,1,None,C,False,None,,,,,
n-back,,,,97,4,,,,1,None,C,False,None,,,,,
n-back,,,,98,4,,,,1,None,V,False,None,,,,,
n-back,,,,99,4,,,,1,0.5305345838423818,C,True,1,,,,,
n-back,,,,100,4,,,,1,None,C,False,None,,,,,
n-back,,,,101,4,,,,0,None,C,True,None,,,,,
n-back,,,,102,4,,,,1,None,N,False,None,,,,,
n-back,,,,103,4,,,,1,None,Z,False,None,,,,,
n-back,,,,104,4,,,,1,0.6709267501719296,N,True,1,,,,,
n-back,,,,105,4,,,,1,None,C,False,None,,,,,
n-back,,,,106,4,,,,0,None,N,True,None,,,,,
n-back,,,,107,4,,,,1,None,Z,False,None,,,,,
n-back,,,,108,4,,,,1,0.8172648749314249,N,True,1,,,,,
n-back,,,,109,4,,,,1,None,V,False,None,,,,,
n-back,,,,110,4,,,,1,None,Z,False,None,,,,,
n-back,,,,111,4,,,,1,0.7134517498780042,V,True,1,,,,,
n-back,,,,112,4,,,,1,None,V,False,None,,,,,
n-back,,,,113,4,,,,1,None,C,False,None,,,,,
n-back,,,,114,4,,,,1,None,Z,False,None,,,,,
n-back,,,,115,4,,,,1,None,V,False,None,,,,,
n-back,,,,116,4,,,,1,0.9435547911562026,Z,True,1,,,,,
n-back,,,,117,4,,,,1,None,C,False,None,,,,,
n-back,,,,118,4,,,,1,None,V,False,None,,,,,
n-back,,,,119,4,,,,1,None,X,False,None,,,,,
n-back,,,,120,4,,,,0,None,V,True,None,,,,,
choice,fixation,153.3056050830055,154.80908666620962,25,4,,,,,,,,,Object,,,,
choice,option,154.81822704104707,155.8452121661976,25,4,,,,,,,,,Object,,,,
choice,choice,155.84534595813602,178.54446104099043,25,4,,,2,1,21.687400332884863,,,,Object,,,,
choice,fixation,178.54458025004715,179.29978491622023,26,4,,,,,,,,,Large,,,,
choice,option,179.30846600001678,180.33780800015666,26,4,,,,,,,,,Large,,,,
choice,choice,180.3379116251599,185.42613791604526,26,4,,,1,0,4.078689499991015,,,,Large,,,,
choice,fixation,185.42626462504268,186.68123920820653,27,4,,,,,,,,,Small,,,,
choice,option,186.69033766607754,187.7176636250224,27,4,,,,,,,,,Small,,,,
choice,choice,187.71780225005932,201.49478541617282,27,4,,,2,0,12.765927790896967,,,,Small,,,,
choice,fixation,201.49490616610274,202.75018712505698,28,4,,,,,,,,,Land,,,,
choice,option,202.75900029111654,203.78786537516862,28,4,,,,,,,,,Land,,,,
choice,choice,203.78796708304435,211.11767666600645,28,4,,,1,1,6.319382415851578,,,,Land,,,,
choice,fixation,211.11780441598967,211.62231504102238,29,4,,,,,,,,,Pattern,,,,
choice,option,211.63180179102346,212.65848983312026,29,4,,,,,,,,,Pattern,,,,
choice,choice,212.65861341613345,235.1763640830759,29,4,,,2,0,21.506427499931306,,,,Pattern,,,,
choice,fixation,235.17648708308116,235.93183420808055,30,4,,,,,,,,,Solid,,,,
choice,option,235.9412974580191,236.96835679118522,30,4,,,,,,,,,Solid,,,,
choice,choice,236.96845970815048,239.05409391620196,30,4,,,1,0,1.0761277920100838,,,,Solid,,,,
choice,fixation,239.0542078751605,240.55920858308673,31,4,,,,,,,,,Animal,,,,
choice,option,240.56845470820554,241.59544304106385,31,4,,,,,,,,,Animal,,,,
choice,choice,241.595556500135,244.1276107081212,31,4,,,1,1,1.5221241670660675,,,,Animal,,,,
choice,fixation,244.12773391604424,245.38317725015804,32,4,,,,,,,,,Sea,,,,
choice,option,245.39176583313383,246.41887650010176,32,4,,,,,,,,,Sea,,,,
choice,choice,246.41901400010101,249.31691158306785,32,4,,,1,0,1.8880114590283483,,,,Sea,,,,
memory,free_recall,272.072543250164,287.36903987498954,18,4,,,,,,,,,,,,,
memory,value_recall,289.850166000193,296.42075683316216,19,4,Object_Sea_Pattern_Small,,,,6.565240791998804,,,,,-9,,,
memory,value_recall,298.2237431250978,302.75364925013855,20,4,Object_Sea_Solid_Small,,,,4.52551658404991,,,,,3,,,
memory,value_recall,303.8019918331411,307.18600804102607,21,4,Animal_Land_Pattern_Large,,,,3.380619833013043,,,,,4,,,
memory,value_recall,308.7328283751849,313.2561321661342,22,4,Object_Sea_Solid_Large,,,,4.518885250203311,,,,,4,,,
memory,value_recall,315.30528183304705,321.327467125142,23,4,Animal_Land_Solid_Large,,,,6.018193667056039,,,,,-9,,,
memory,value_recall,322.3740751661826,328.54454350005835,24,4,Animal_Land_Pattern_Small,,,,6.167197667062283,,,,,8,,,
memory,spatial_recall,331.3191928330343,334.08875745814294,24,4,Animal_Land_Pattern_Small,,,1,2.7653787080198526,,,,,,"[329, -190]","[329, -190]",
memory,spatial_recall,335.15338283311576,338.0613142910879,24,4,Animal_Land_Solid_Large,,,1,2.9054825420025736,,,,,,"[-329, 190]","[-329, 190]",
memory,spatial_recall,340.1158640831709,341.5366609580815,24,4,Object_Sea_Solid_Small,,,1,1.4163163749035448,,,,,,"[0, -380]","[0, -380]",
memory,spatial_recall,343.59878179105,345.4851644160226,24,4,Object_Sea_Pattern_Small,,,1,1.8808674160391092,,,,,,"[-329, -190]","[-329, -190]",
memory,spatial_recall,347.0483337081969,349.46484195813537,24,4,Object_Sea_Solid_Large,,,1,2.41158275003545,,,,,,"[329, 189]","[329, 189]",
memory,spatial_recall,351.0223080830183,354.40241741621867,24,4,Animal_Land_Pattern_Large,,,1,3.3759556252043694,,,,,,"[0, 380]","[0, 380]",
encoding,fixation,8.581204416928813,9.340560833923519,25,5,Object_Sea_Pattern_Small,9,,,,,,,,,,,
encoding,image,9.34067958407104,10.351963166845962,25,5,Object_Sea_Pattern_Small,9,,,,,,,,,,,
encoding,value,10.352088583866134,16.36545129190199,25,5,Object_Sea_Pattern_Small,9,,,,,,,,,,,
encoding,attention,16.36556054186076,19.382889583939686,25,5,Object_Sea_Pattern_Small,9,+9,1,0.4367836248129606,,,,,,,,
encoding,fixation,19.38304300000891,20.38994462485425,26,5,Animal_Sea_Pattern_Large,-6,,,,,,,,,,,
encoding,image,20.390040708938614,21.400613208999857,26,5,Animal_Sea_Pattern_Large,-6,,,,,,,,,,,
encoding,value,21.400730750057846,27.41250824998133,26,5,Animal_Sea_Pattern_Large,-6,,,,,,,,,,,
encoding,attention,27.412687874864787,30.430141916964203,26,5,Animal_Sea_Pattern_Large,-6,-6,1,0.6862289160490036,,,,,,,,
encoding,fixation,30.430290083866566,30.935680750058964,27,5,Animal_Land_Solid_Large,6,,,,,,,,,,,
encoding,image,30.93578362488188,31.946787624852732,27,5,Animal_Land_Solid_Large,6,,,,,,,,,,,
encoding,value,31.946914916858077,37.95965141686611,27,5,Animal_Land_Solid_Large,6,,,,,,,,,,,
encoding,attention,37.95976220886223,40.97766266693361,27,5,Animal_Land_Solid_Large,6,+6,1,1.1661457500886172,,,,,,,,
encoding,fixation,40.977802959037945,42.48284354200587,28,5,Animal_Sea_Solid_Small,-2,,,,,,,,,,,
encoding,image,42.48294320888817,43.49427762487903,28,5,Animal_Sea_Solid_Small,-2,,,,,,,,,,,
encoding,value,43.494377166964114,49.506950499955565,28,5,Animal_Sea_Solid_Small,-2,,,,,,,,,,,
encoding,attention,49.507071083877236,52.52674562484026,28,5,Animal_Sea_Solid_Small,-2,-2,1,0.9495494998991489,,,,,,,,
encoding,fixation,52.526899833930656,53.28231895901263,29,5,Object_Land_Pattern_Small,-4,,,,,,,,,,,
encoding,image,53.28245049994439,54.294301624875516,29,5,Object_Land_Pattern_Small,-4,,,,,,,,,,,
encoding,value,54.294407417066395,60.306837499840185,29,5,Object_Land_Pattern_Small,-4,,,,,,,,,,,
encoding,attention,60.306952042039484,63.32499245903455,29,5,Object_Land_Pattern_Small,-4,-4,1,0.8470783750526607,,,,,,,,
encoding,fixation,63.32515325001441,64.33050195896067,30,5,Object_Land_Solid_Large,-3,,,,,,,,,,,
encoding,image,64.33061620895751,65.34045524988323,30,5,Object_Land_Solid_Large,-3,,,,,,,,,,,
encoding,value,65.34056445886381,71.35118174995296,30,5,Object_Land_Solid_Large,-3,,,,,,,,,,,
encoding,attention,71.35128524992615,74.36803516699001,30,5,Object_Land_Solid_Large,-3,-4,0,1.1634887498803437,,,,,,,,
n-back,,,,121,5,,,,1,None,X,False,None,,,,,
n-back,,,,122,5,,,,1,None,B,False,None,,,,,
n-back,,,,123,5,,,,1,None,Z,False,None,,,,,
n-back,,,,124,5,,,,1,0.6549760829657316,B,True,1,,,,,
n-back,,,,125,5,,,,1,None,B,False,None,,,,,
n-back,,,,126,5,,,,1,None,C,False,None,,,,,
n-back,,,,127,5,,,,1,None,N,False,None,,,,,
n-back,,,,128,5,,,,1,None,Z,False,None,,,,,
n-back,,,,129,5,,,,1,0.6412079161964357,N,True,1,,,,,
n-back,,,,130,5,,,,0,None,Z,True,None,,,,,
n-back,,,,131,5,,,,0,None,N,True,None,,,,,
n-back,,,,132,5,,,,1,None,V,False,None,,,,,
n-back,,,,133,5,,,,1,None,C,False,None,,,,,
n-back,,,,134,5,,,,1,None,X,False,None,,,,,
n-back,,,,135,5,,,,1,None,Z,False,None,,,,,
n-back,,,,136,5,,,,1,0.6281332080252469,X,True,1,,,,,
n-back,,,,137,5,,,,0,None,Z,True,None,,,,,
n-back,,,,138,5,,,,1,None,Z,False,None,,,,,
n-back,,,,139,5,,,,1,None,N,False,None,,,,,
n-back,,,,140,5,,,,1,None,X,False,None,,,,,
n-back,,,,141,5,,,,1,None,V,False,None,,,,,
n-back,,,,142,5,,,,1,0.6883176660630852,X,True,1,,,,,
n-back,,,,143,5,,,,0,None,V,True,None,,,,,
n-back,,,,144,5,,,,1,None,V,False,None,,,,,
n-back,,,,145,5,,,,1,None,Z,False,None,,,,,
n-back,,,,146,5,,,,1,None,X,False,None,,,,,
n-back,,,,147,5,,,,1,None,N,False,None,,,,,
n-back,,,,148,5,,,,1,None,C,False,None,,,,,
n-back,,,,149,5,,,,1,0.7327857080381364,N,True,1,,,,,
n-back,,,,150,5,,,,0,None,C,True,None,,,,,
choice,fixation,151.81541791697964,153.32173654204234,33,5,,,,,,,,,Solid,,,,
choice,option,153.3314114168752,154.36075487500057,33,5,,,,,,,,,Solid,,,,
choice,choice,154.3608490000479,166.884588124929,33,5,,,1,1,11.512078708969057,,,,Solid,,,,
choice,fixation,166.8847247499507,168.39027674985118,34,5,,,,,,,,,Small,,,,
choice,option,168.3989402090665,169.42573104193434,34,5,,,,,,,,,Small,,,,
choice,choice,169.42586829187348,172.9162869588472,34,5,,,1,1,2.480357584077865,,,,Small,,,,
choice,fixation,172.91642366698943,174.17139237490483,35,5,,,,,,,,,Animal,,,,
choice,option,174.18090024986304,175.20728529198095,35,5,,,,,,,,,Animal,,,,
choice,choice,175.20740533387288,185.66159070888534,35,5,,,1,0,9.442764082923532,,,,Animal,,,,
choice,fixation,185.66176966694184,186.41721874987707,36,5,,,,,,,,,Large,,,,
choice,option,186.42650145897642,187.45575900003314,36,5,,,,,,,,,Large,,,,
choice,choice,187.455868458841,191.84289295901544,36,5,,,2,1,3.3775281668640673,,,,Large,,,,
choice,fixation,191.84302116697654,192.8485350839328,37,5,,,,,,,,,Object,,,,
choice,option,192.8581926668994,193.8849634588696,37,5,,,,,,,,,Object,,,,
choice,choice,193.88507024990395,199.28350891685113,37,5,,,1,1,4.388262042077258,,,,Object,,,,
choice,fixation,199.28363391687162,200.03850954188965,38,5,,,,,,,,,Sea,,,,
choice,option,200.04682429204695,201.07308704196475,38,5,,,,,,,,,Sea,,,,
choice,choice,201.07318887487054,205.83519491693005,38,5,,,1,1,3.752007625065744,,,,Sea,,,,
choice,fixation,205.83532658405602,206.84052124992013,39,5,,,,,,,,,Land,,,,
choice,option,206.84924108395353,207.87636974989437,39,5,,,,,,,,,Land,,,,
choice,choice,207.87648308393545,213.75673887506127,39,5,,,1,0,4.867697000037879,,,,Land,,,,
choice,fixation,213.7568489999976,215.0116957919672,40,5,,,,,,,,,Pattern,,,,
choice,option,215.0208616668824,216.0472933340352,40,5,,,,,,,,,Pattern,,,,
choice,choice,216.04740791697986,219.73110974999145,40,5,,,2,1,2.673900374909863,,,,Pattern,,,,
memory,free_recall,224.77436054195277,245.85551341692917,24,5,,,,,,,,,,,,,
memory,value_recall,248.91492420900613,258.8295291250106,25,5,Animal_Sea_Pattern_Large,,,,9.90708633302711,,,,,-6,,,
memory,value_recall,260.63126570894383,267.46137537504546,26,5,Object_Land_Solid_Large,,,,6.824035207973793,,,,,-3,,,
memory,value_recall,269.0078688338399,277.69347358401865,27,5,Animal_Land_Solid_Large,,,,8.68132625008002,,,,,6,,,
memory,value_recall,278.9911767919548,285.22148533398286,28,5,Animal_Sea_Solid_Small,,,,6.226159125100821,,,,,-2,,,
memory,value_recall,286.2682337090373,292.12110329186544,29,5,Object_Sea_Pattern_Small,,,,5.849593250080943,,,,,9,,,
memory,value_recall,293.1683367919177,296.365244791843,30,5,Object_Land_Pattern_Small,,,,3.193518999963999,,,,,-4,,,
memory,spatial_recall,299.1831334589515,302.79920045891777,30,5,Animal_Sea_Solid_Small,,,1,3.6103089158423245,,,,,,"[329, 189]","[329, 189]",
memory,spatial_recall,304.8623849588912,308.7492907498963,30,5,Animal_Land_Solid_Large,,,1,3.882778916042298,,,,,,"[-329, 190]","[-329, 190]",
memory,spatial_recall,309.80392383388244,311.71681854198687,30,5,Animal_Sea_Pattern_Large,,,1,1.910554625093937,,,,,,"[329, -190]","[329, -190]",
memory,spatial_recall,312.7731801669579,313.63304329197854,30,5,Object_Sea_Pattern_Small,,,1,0.8572449169587344,,,,,,"[-329, -190]","[-329, -190]",
memory,spatial_recall,315.4310850838665,317.68157304194756,30,5,Object_Land_Pattern_Small,,,1,2.2462192908860743,,,,,,"[0, 380]","[0, 380]",
memory,spatial_recall,319.2396473339759,320.60482191690244,30,5,Object_Land_Solid_Large,,,1,1.3610577911604196,,,,,,"[0, -380]","[0, -380]",
encoding,fixation,7.349303999915719,8.854702624958009,31,6,Object_Land_Solid_Small,-4,,,,,,,,,,,
encoding,image,8.854818916879594,9.86656574998051,31,6,Object_Land_Solid_Small,-4,,,,,,,,,,,
encoding,value,9.8666755000595,15.880504457978532,31,6,Object_Land_Solid_Small,-4,,,,,,,,,,,
encoding,attention,15.880624416982755,18.89837675006129,31,6,Object_Land_Solid_Small,-4,-4,1,0.5060461249668151,,,,,,,,
encoding,fixation,18.898593333084136,19.65365529200062,32,6,Object_Sea_Pattern_Large,9,,,,,,,,,,,
encoding,image,19.653760666958988,20.66494920803234,32,6,Object_Sea_Pattern_Large,9,,,,,,,,,,,
encoding,value,20.665060666855425,26.67719562491402,32,6,Object_Sea_Pattern_Large,9,,,,,,,,,,,
encoding,attention,26.677295207977295,29.695420499891043,32,6,Object_Sea_Pattern_Large,9,+9,1,0.7396209160797298,,,,,,,,
encoding,fixation,29.69557591690682,31.200613291934133,33,6,Animal_Land_Solid_Small,9,,,,,,,,,,,
encoding,image,31.20071562496014,32.213304332923144,33,6,Animal_Land_Solid_Small,9,,,,,,,,,,,
encoding,value,32.213403292000294,38.22430791705847,33,6,Animal_Land_Solid_Small,9,,,,,,,,,,,
encoding,attention,38.22441858286038,41.24367500003427,33,6,Animal_Land_Solid_Small,9,+9,1,0.8634278329554945,,,,,,,,
encoding,fixation,41.24382687499747,42.248943499987945,34,6,Object_Land_Pattern_Large,-9,,,,,,,,,,,
encoding,image,42.24903958290815,43.26319533307105,34,6,Object_Land_Pattern_Large,-9,,,,,,,,,,,
encoding,value,43.26330395787954,49.275536082917824,34,6,Object_Land_Pattern_Large,-9,,,,,,,,,,,
encoding,attention,49.27564820786938,52.29454004205763,34,6,Object_Land_Pattern_Large,-9,-9,1,0.4549325418192893,,,,,,,,
encoding,fixation,52.29467754205689,53.29967487487011,35,6,Animal_Sea_Solid_Large,-2,,,,,,,,,,,
encoding,image,53.299800416920334,54.3106994999107,35,6,Animal_Sea_Solid_Large,-2,,,,,,,,,,,
encoding,value,54.31081358296797,60.32355733285658,35,6,Animal_Sea_Solid_Large,-2,,,,,,,,,,,
encoding,attention,60.32367679197341,63.340508125023916,35,6,Animal_Sea_Solid_Large,-2,-2,1,0.9598723331000656,,,,,,,,
encoding,fixation,63.34070016699843,64.34594662487507,36,6,Animal_Sea_Pattern_Small,-4,,,,,,,,,,,
encoding,image,64.34605054208077,65.35751612507738,36,6,Animal_Sea_Pattern_Small,-4,,,,,,,,,,,
encoding,value,65.35762091702782,71.36925824987702,36,6,Animal_Sea_Pattern_Small,-4,,,,,,,,,,,
encoding,attention,71.36936345789582,74.38663075002842,36,6,Animal_Sea_Pattern_Small,-4,-4,1,0.7687566250097007,,,,,,,,
n-back,,,,151,6,,,,0,None,Z,True,None,,,,,
n-back,,,,152,6,,,,1,None,X,False,None,,,,,
n-back,,,,153,6,,,,1,0.39386845799162984,Z,True,1,,,,,
n-back,,,,154,6,,,,1,None,V,False,None,,,,,
n-back,,,,155,6,,,,1,None,C,False,None,,,,,
n-back,,,,156,6,,,,1,None,Z,False,None,,,,,
n-back,,,,157,6,,,,1,1.2094697910360992,C,True,1,,,,,
n-back,,,,158,6,,,,0,None,Z,True,None,,,,,
n-back,,,,159,6,,,,0,None,C,True,None,,,,,
n-back,,,,160,6,,,,1,None,N,False,None,,,,,
n-back,,,,161,6,,,,0,None,C,True,None,,,,,
n-back,,,,162,6,,,,0,0.16532625001855195,Z,False,1,,,,,
n-back,,,,163,6,,,,1,None,B,False,None,,,,,
n-back,,,,164,6,,,,1,None,C,False,None,,,,,
n-back,,,,165,6,,,,1,1.4353152078110725,B,True,1,,,,,
n-back,,,,166,6,,,,1,1.0556752500124276,C,True,1,,,,,
n-back,,,,167,6,,,,1,None,Z,False,None,,,,,
n-back,,,,168,6,,,,1,None,X,False,None,,,,,
n-back,,,,169,6,,,,1,None,N,False,None,,,,,
n-back,,,,170,6,,,,1,0.6349673750810325,X,True,1,,,,,
n-back,,,,171,6,,,,1,None,V,False,None,,,,,
n-back,,,,172,6,,,,1,0.828579582972452,X,True,1,,,,,
n-back,,,,173,6,,,,1,None,C,False,None,,,,,
n-back,,,,174,6,,,,0,0.69445895915851,V,False,1,,,,,
n-back,,,,175,6,,,,1,None,N,False,None,,,,,
n-back,,,,176,6,,,,1,None,C,False,None,,,,,
n-back,,,,177,6,,,,1,None,B,False,None,,,,,
n-back,,,,178,6,,,,1,None,B,False,None,,,,,
n-back,,,,179,6,,,,1,None,C,False,None,,,,,
n-back,,,,180,6,,,,1,None,Z,False,None,,,,,
choice,fixation,150.28862324985676,150.79285741690546,41,6,,,,,,,,,Sea,,,,
choice,option,150.80095879198052,151.8307957078796,41,6,,,,,,,,,Sea,,,,
choice,choice,151.8309187919367,162.07562520797364,41,6,,,1,1,9.23407074995339,,,,Sea,,,,
choice,fixation,162.07575233303942,163.08075866708532,42,6,,,,,,,,,Land,,,,
choice,option,163.0896125829313,164.116671374999,42,6,,,,,,,,,Land,,,,
choice,choice,164.11677854205482,167.54037187504582,42,6,,,1,0,2.41355691710487,,,,Land,,,,
choice,fixation,167.54050112492405,168.7974810418673,43,6,,,,,,,,,Object,,,,
choice,option,168.8068301670719,169.83325458294712,43,6,,,,,,,,,Object,,,,
choice,choice,169.83336104196496,175.13949049985968,43,6,,,1,0,4.295511875068769,,,,Object,,,,
choice,fixation,175.13961174990982,176.14641875005327,44,6,,,,,,,,,Animal,,,,
choice,option,176.1558997919783,177.18332804203965,44,6,,,,,,,,,Animal,,,,
choice,choice,177.1834394999314,181.9810913328547,44,6,,,2,0,3.7856679160613567,,,,Animal,,,,
choice,fixation,181.981241957983,182.98659479198977,45,6,,,,,,,,,Solid,,,,
choice,option,182.99580754199997,184.02187950001098,45,6,,,,,,,,,Solid,,,,
choice,choice,184.02202620799653,187.14073008298874,45,6,,,1,1,2.1084789999295026,,,,Solid,,,,
choice,fixation,187.14087020792067,188.1458657500334,46,6,,,,,,,,,Large,,,,
choice,option,188.1545280830469,189.18130362499505,46,6,,,,,,,,,Large,,,,
choice,choice,189.18140645790845,194.10312275006436,46,6,,,1,0,3.911855167010799,,,,Large,,,,
choice,fixation,194.10324729187414,194.8585348748602,47,6,,,,,,,,,Pattern,,,,
choice,option,194.86772904195823,195.8975000830833,47,6,,,,,,,,,Pattern,,,,
choice,choice,195.89762195805088,199.85172487492673,47,6,,,1,0,2.944437582977116,,,,Pattern,,,,
choice,fixation,199.851847874932,201.10702141700312,48,6,,,,,,,,,Small,,,,
choice,option,201.11634725006297,202.14335174998268,48,6,,,,,,,,,Small,,,,
choice,choice,202.14344904199243,212.4524621248711,48,6,,,2,0,9.297521999804303,,,,Small,,,,
memory,free_recall,224.36565012508072,251.91462441696785,30,6,,,,,,,,,,,,,
memory,value_recall,254.96381433308125,257.85384687501937,31,6,Animal_Land_Solid_Small,,,,2.8858567089773715,,,,,9,,,
memory,value_recall,259.4007867919281,262.10230120806955,32,6,Animal_Sea_Solid_Large,,,,2.696177582954988,,,,,-2,,,
memory,value_recall,263.3998360829428,265.52930308296345,33,6,Object_Land_Pattern_Large,,,,2.1253678330685943,,,,,-9,,,
memory,value_recall,266.8252688329667,271.82355720805936,34,6,Animal_Sea_Pattern_Small,,,,4.993873749859631,,,,,-4,,,
memory,value_recall,273.12190937506966,275.2146485000849,35,6,Object_Sea_Pattern_Large,,,,2.0886525420937687,,,,,9,,,
memory,value_recall,277.0107300418895,281.8307831250131,36,6,Object_Land_Solid_Small,,,,4.8159723749849945,,,,,-4,,,
memory,spatial_recall,283.7024317078758,286.30564579204656,36,6,Object_Land_Pattern_Large,,,1,2.600177332991734,,,,,,"[329, 189]","[329, 189]",
memory,spatial_recall,288.3665700000711,290.3954493328929,36,6,Object_Sea_Pattern_Large,,,1,2.0243306669872254,,,,,,"[0, 380]","[0, 380]",
memory,spatial_recall,292.2081083750818,293.2728099580854,36,6,Object_Land_Solid_Small,,,1,1.0606737090274692,,,,,,"[329, -190]","[329, -190]",
memory,spatial_recall,295.0807376669254,297.42898020800203,36,6,Animal_Sea_Pattern_Small,,,1,2.3443159591406584,,,,,,"[-329, 190]","[-329, 190]",
memory,spatial_recall,299.4912911669817,300.89442524989136,36,6,Animal_Sea_Solid_Large,,,1,1.3990946670528501,,,,,,"[-329, -190]","[-329, -190]",
memory,spatial_recall,302.70635879202746,303.7065196670592,36,6,Animal_Land_Solid_Small,,,1,0.9941640000324696,,,,,,"[0, -380]","[0, -380]",
encoding,fixation,3.712830417091027,4.219518332974985,37,7,Object_Land_Solid_Small,1,,,,,,,,,,,
encoding,image,4.219673000043258,5.230927792144939,37,7,Object_Land_Solid_Small,1,,,,,,,,,,,
encoding,value,5.231031042058021,11.245775833027437,37,7,Object_Land_Solid_Small,1,,,,,,,,,,,
encoding,attention,11.245901667047292,14.266757500125095,37,7,Object_Land_Solid_Small,1,+1,1,0.43749295896850526,,,,,,,,
encoding,fixation,14.266926832962781,15.272894875146449,38,7,Animal_Land_Pattern_Large,-8,,,,,,,,,,,
encoding,image,15.27300270809792,16.284442082978785,38,7,Animal_Land_Pattern_Large,-8,,,,,,,,,,,
encoding,value,16.284556083148345,22.296691375086084,38,7,Animal_Land_Pattern_Large,-8,,,,,,,,,,,
encoding,attention,22.296811833046377,25.315444000065327,38,7,Animal_Land_Pattern_Large,-8,-8,1,0.36682624998502433,,,,,,,,
encoding,fixation,25.31559033296071,26.321287125116214,39,7,Object_Land_Pattern_Large,3,,,,,,,,,,,
encoding,image,26.321409583091736,27.334074000129476,39,7,Object_Land_Pattern_Large,3,,,,,,,,,,,
encoding,value,27.334175292169675,33.347286333097145,39,7,Object_Land_Pattern_Large,3,,,,,,,,,,,
encoding,attention,33.34740133304149,36.36662954208441,39,7,Object_Land_Pattern_Large,3,+3,1,0.9859651660080999,,,,,,,,
encoding,fixation,36.36676999996416,37.37216549995355,40,7,Animal_Sea_Pattern_Small,1,,,,,,,,,,,
encoding,image,37.372281457995996,38.3840778330341,40,7,Animal_Sea_Pattern_Small,1,,,,,,,,,,,
encoding,value,38.384181750006974,44.39609133312479,40,7,Animal_Sea_Pattern_Small,1,,,,,,,,,,,
encoding,attention,44.39625158300623,47.41596308303997,40,7,Animal_Sea_Pattern_Small,1,+1,1,0.5855552922002971,,,,,,,,
encoding,fixation,47.416110791964456,47.92272108304314,41,7,Animal_Sea_Solid_Large,4,,,,,,,,,,,
encoding,image,47.922830207971856,48.93422454199754,41,7,Animal_Sea_Solid_Large,4,,,,,,,,,,,
encoding,value,48.93436362501234,54.94663400016725,41,7,Animal_Sea_Solid_Large,4,,,,,,,,,,,
encoding,attention,54.94673829199746,57.9657721251715,41,7,Animal_Sea_Solid_Large,4,+4,1,0.5688041669782251,,,,,,,,
encoding,fixation,57.96591895795427,58.47127379197627,42,7,Object_Sea_Solid_Small,-9,,,,,,,,,,,
encoding,image,58.4713858331088,59.48149925004691,42,7,Object_Sea_Solid_Small,-9,,,,,,,,,,,
encoding,value,59.48160941712558,65.49578700005077,42,7,Object_Sea_Solid_Small,-9,,,,,,,,,,,
encoding,attention,65.49589999997988,68.51232700003311,42,7,Object_Sea_Solid_Small,-9,-9,1,0.6294053748715669,,,,,,,,
n-back,,,,181,7,,,,1,None,Z,False,None,,,,,
n-back,,,,182,7,,,,0,None,Z,True,None,,,,,
n-back,,,,183,7,,,,1,None,C,False,None,,,,,
n-back,,,,184,7,,,,1,1.3654339590575546,Z,True,1,,,,,
n-back,,,,185,7,,,,1,None,X,False,None,,,,,
n-back,,,,186,7,,,,1,None,N,False,None,,,,,
n-back,,,,187,7,,,,1,0.6877538750413805,X,True,1,,,,,
n-back,,,,188,7,,,,1,None,C,False,None,,,,,
n-back,,,,189,7,,,,1,0.5071230828762054,X,True,1,,,,,
n-back,,,,190,7,,,,1,None,N,False,None,,,,,
n-back,,,,191,7,,,,1,None,V,False,None,,,,,
n-back,,,,192,7,,,,1,None,B,False,None,,,,,
n-back,,,,193,7,,,,1,0.879892542026937,V,True,1,,,,,
n-back,,,,194,7,,,,1,None,N,False,None,,,,,
n-back,,,,195,7,,,,1,None,N,False,None,,,,,
n-back,,,,196,7,,,,1,None,C,False,None,,,,,
n-back,,,,197,7,,,,1,None,X,False,None,,,,,
n-back,,,,198,7,,,,0,0.8216015000361949,B,False,1,,,,,
n-back,,,,199,7,,,,1,None,V,False,None,,,,,
n-back,,,,200,7,,,,1,0.3135992079041898,B,True,1,,,,,
n-back,,,,201,7,,,,1,None,N,False,None,,,,,
n-back,,,,202,7,,,,1,1.2142640829551965,B,True,1,,,,,
n-back,,,,203,7,,,,1,None,C,False,None,,,,,
n-back,,,,204,7,,,,1,None,C,False,None,,,,,
n-back,,,,205,7,,,,1,None,Z,False,None,,,,,
n-back,,,,206,7,,,,1,0.3176405420526862,C,True,1,,,,,
n-back,,,,207,7,,,,1,None,N,False,None,,,,,
n-back,,,,208,7,,,,1,None,N,False,None,,,,,
n-back,,,,209,7,,,,1,0.37484050006605685,N,True,1,,,,,
n-back,,,,210,7,,,,0,None,N,True,None,,,,,
choice,fixation,135.47349820798263,136.7289623329416,49,7,,,,,,,,,Solid,,,,
choice,option,136.73788587516174,137.76807491714135,49,7,,,,,,,,,Solid,,,,
choice,choice,137.7682378331665,141.13524579210207,49,7,,,1,0,2.356830958975479,,,,Solid,,,,
choice,fixation,141.13536187494174,142.14070912497118,50,7,,,,,,,,,Animal,,,,
choice,option,142.14988037501462,143.1794981251005,50,7,,,,,,,,,Animal,,,,
choice,choice,143.17963291704655,145.5681951669976,50,7,,,2,1,1.3783615839201957,,,,Animal,,,,
choice,fixation,145.5683480829466,147.07349529210478,51,7,,,,,,,,,Pattern,,,,
choice,option,147.08280099998228,148.1098033329472,51,7,,,,,,,,,Pattern,,,,
choice,choice,148.10992266703397,153.8960812080186,51,7,,,1,0,4.776214125100523,,,,Pattern,,,,
choice,fixation,153.89619700005278,154.90120525006205,52,7,,,,,,,,,Sea,,,,
choice,option,154.9098585001193,155.93770520808175,52,7,,,,,,,,,Sea,,,,
choice,choice,155.93781783315353,162.77625529211946,52,7,,,1,0,5.8242426661308855,,,,Sea,,,,
choice,fixation,162.77638175012544,164.03167579206638,53,7,,,,,,,,,Object,,,,
choice,option,164.04133666702546,165.0706090000458,53,7,,,,,,,,,Object,,,,
choice,choice,165.0707628331147,166.90228425012901,53,7,,,1,0,0.8216709580738097,,,,Object,,,,
choice,fixation,166.9024128750898,167.40781529201195,54,7,,,,,,,,,Small,,,,
choice,option,167.4167629580479,168.4458854170516,54,7,,,,,,,,,Small,,,,
choice,choice,168.44600395811722,171.27122454205528,54,7,,,2,1,1.8154310418758541,,,,Small,,,,
choice,fixation,171.27133687515743,172.02910745795816,55,7,,,,,,,,,Large,,,,
choice,option,172.0375816670712,173.0647495421581,55,7,,,,,,,,,Large,,,,
choice,choice,173.06487029208802,174.83923545805737,55,7,,,1,0,0.764087500050664,,,,Large,,,,
choice,fixation,174.83938016695902,175.5959265830461,56,7,,,,,,,,,Land,,,,
choice,option,175.60433600004762,176.6301306670066,56,7,,,,,,,,,Land,,,,
choice,choice,176.6302411670331,177.71045520808548,56,7,,,1,0,0.07191145815886557,,,,Land,,,,
memory,free_recall,182.30447887512855,197.00990641699173,36,7,,,,,,,,,,,,,
memory,value_recall,199.50840933294967,202.28279229206964,37,7,Object_Land_Solid_Small,,,,2.769864625064656,,,,,1,,,
memory,value_recall,203.3318525000941,209.98572133295238,38,7,Object_Sea_Solid_Small,,,,6.65050758398138,,,,,-9,,,
memory,value_recall,211.5320668751374,215.2820084169507,39,7,Animal_Land_Pattern_Large,,,,3.7455051250290126,,,,,-8,,,
memory,value_recall,217.0784243750386,222.1366780421231,40,7,Animal_Sea_Pattern_Small,,,,5.054228292079642,,,,,1,,,
memory,value_recall,223.6864549170714,226.25987216713838,41,7,Animal_Sea_Solid_Large,,,,2.5692861250136048,,,,,4,,,
memory,value_recall,228.30558466701768,229.98639870807528,42,7,Object_Land_Pattern_Large,,,,1.6745391248259693,,,,,3,,,
memory,spatial_recall,232.7298709580209,236.8187644169666,42,7,Object_Sea_Solid_Small,,,1,4.0848678750917315,,,,,,"[0, -380]","[0, -380]",
memory,spatial_recall,238.87856708304025,240.05482399999164,42,7,Animal_Sea_Pattern_Small,,,1,1.1721103750169277,,,,,,"[-329, 190]","[-329, 190]",
memory,spatial_recall,241.10646058316343,242.0881433750037,42,7,Object_Land_Pattern_Large,,,1,0.9783943749498576,,,,,,"[329, 189]","[329, 189]",
memory,spatial_recall,243.1453044170048,244.5096529170405,42,7,Object_Land_Solid_Small,,,1,1.361879208125174,,,,,,"[329, -190]","[329, -190]",
memory,spatial_recall,245.56505854194984,247.80525291711092,42,7,Animal_Sea_Solid_Large,,,1,2.237638457911089,,,,,,"[-329, -190]","[-329, -190]",
memory,spatial_recall,249.6140522081405,251.23819104209542,42,7,Animal_Land_Pattern_Large,,,1,1.6200475830119103,,,,,,"[0, 380]","[0, 380]",
