subject,phase,event,trial_number,game,option,choice,rt,roi_content,item_index,is_relevant,fix_start,fix_end,fix_duration_bounded
120,choice,choice,1,1.0,Sea,1.0,2.8450680000241846,Animal_Land_Solid_Large,0,0,10334071.0,10334683.0,612.0
120,choice,choice,1,1.0,Sea,1.0,2.8450680000241846,Animal_Land_Pattern_Large,1,0,10335430.0,10335974.0,544.0
120,choice,choice,1,1.0,Sea,1.0,2.8450680000241846,Object_Sea_Pattern_Small,2,1,10336169.0,10336250.0,81.0
120,choice,choice,2,1.0,Solid,1.0,16.09292145888321,Animal_Land_Pattern_Large,1,0,10341905.0,10342102.0,197.0
120,choice,choice,2,1.0,Solid,1.0,16.09292145888321,Object_Sea_Solid_Small,3,1,10342928.0,10343708.0,780.0
120,choice,choice,2,1.0,Solid,1.0,16.09292145888321,Animal_Land_Pattern_Large,1,0,10345981.0,10346114.0,133.0
120,choice,choice,2,1.0,Solid,1.0,16.09292145888321,Animal_Land_Solid_Large,0,1,10346138.0,10346337.0,199.0
120,choice,choice,2,1.0,Solid,1.0,16.09292145888321,Object_Sea_Solid_Small,3,1,10348344.0,10348400.0,56.0
120,choice,choice,2,1.0,Solid,1.0,16.09292145888321,Animal_Land_Solid_Large,0,1,10348653.0,10348743.0,90.0
120,choice,choice,2,1.0,Solid,1.0,16.09292145888321,Animal_Land_Pattern_Large,1,0,10348760.0,10349066.0,306.0
120,choice,choice,2,1.0,Solid,1.0,16.09292145888321,Object_Sea_Solid_Large,4,1,10349323.0,10349353.0,30.0
120,choice,choice,2,1.0,Solid,1.0,16.09292145888321,Animal_Land_Pattern_Large,1,0,10351917.0,10352169.0,252.0
120,choice,choice,2,1.0,Solid,1.0,16.09292145888321,Object_Sea_Pattern_Small,2,0,10352355.0,10352506.0,151.0
120,choice,choice,2,1.0,Solid,1.0,16.09292145888321,Animal_Land_Solid_Large,0,1,10352812.0,10353430.0,618.0
120,choice,choice,2,1.0,Solid,1.0,16.09292145888321,Object_Sea_Pattern_Small,2,0,10353827.0,10354035.0,208.0
120,choice,choice,2,1.0,Solid,1.0,16.09292145888321,Animal_Land_Solid_Large,0,1,10355231.0,10355520.0,289.0
120,choice,choice,3,1.0,Pattern,2.0,8.117281457874924,Animal_Land_Pattern_Small,5,1,10358638.0,10358883.0,245.0
120,choice,choice,3,1.0,Pattern,2.0,8.117281457874924,Object_Sea_Solid_Small,3,0,10361793.0,10361935.0,142.0
120,choice,choice,3,1.0,Pattern,2.0,8.117281457874924,Animal_Land_Solid_Large,0,0,10362337.0,10362487.0,150.0
120,choice,choice,3,1.0,Pattern,2.0,8.117281457874924,Object_Sea_Pattern_Small,2,1,10362729.0,10363050.0,321.0
120,choice,choice,3,1.0,Pattern,2.0,8.117281457874924,Animal_Land_Pattern_Large,1,1,10364675.0,10365383.0,708.0
120,choice,choice,3,1.0,Pattern,2.0,8.117281457874924,Object_Sea_Pattern_Small,2,1,10365842.0,10365999.0,157.0
120,choice,choice,3,1.0,Pattern,2.0,8.117281457874924,Object_Sea_Solid_Small,3,0,10366378.0,10366440.0,62.0
120,choice,choice,4,1.0,Object,1.0,2.5409377079922706,Object_Sea_Pattern_Small,2,1,10371620.0,10371691.0,71.0
120,choice,choice,5,1.0,Land,2.0,6.332581291906536,Animal_Land_Solid_Large,0,1,10375445.0,10375528.0,83.0
120,choice,choice,5,1.0,Land,2.0,6.332581291906536,Animal_Land_Pattern_Large,1,1,10375758.0,10376146.0,388.0
120,choice,choice,5,1.0,Land,2.0,6.332581291906536,Animal_Land_Solid_Large,0,1,10376953.0,10377503.0,550.0
120,choice,choice,5,1.0,Land,2.0,6.332581291906536,Object_Sea_Solid_Large,4,0,10378283.0,10378334.0,51.0
120,choice,choice,5,1.0,Land,2.0,6.332581291906536,Animal_Land_Pattern_Small,5,1,10378586.0,10378746.0,160.0
120,choice,choice,5,1.0,Land,2.0,6.332581291906536,Object_Sea_Pattern_Small,2,0,10378979.0,10379208.0,229.0
120,choice,choice,5,1.0,Land,2.0,6.332581291906536,Animal_Land_Pattern_Small,5,1,10381014.0,10381111.0,97.0
120,choice,choice,6,1.0,Small,1.0,12.137669584015384,Object_Sea_Solid_Large,4,0,10384422.0,10384554.0,132.0
120,choice,choice,6,1.0,Small,1.0,12.137669584015384,Animal_Land_Pattern_Large,1,0,10386607.0,10386901.0,294.0
120,choice,choice,6,1.0,Small,1.0,12.137669584015384,Object_Sea_Pattern_Small,2,1,10391250.0,10392162.0,912.0
120,choice,choice,8,1.0,Animal,2.0,6.868099209154025,Animal_Land_Solid_Large,0,1,10423374.0,10423532.0,158.0
120,choice,choice,8,1.0,Animal,2.0,6.868099209154025,Object_Sea_Pattern_Small,2,0,10423763.0,10424086.0,323.0
120,choice,choice,8,1.0,Animal,2.0,6.868099209154025,Object_Sea_Solid_Small,3,0,10425574.0,10425787.0,213.0
120,choice,choice,8,1.0,Animal,2.0,6.868099209154025,Animal_Land_Solid_Large,0,1,10426005.0,10426289.0,284.0
120,choice,choice,8,1.0,Animal,2.0,6.868099209154025,Object_Sea_Pattern_Small,2,0,10426557.0,10426982.0,425.0
120,choice,choice,8,1.0,Animal,2.0,6.868099209154025,Animal_Land_Solid_Large,0,1,10428407.0,10429037.0,630.0
120,choice,choice,10,2.0,Land,2.0,6.232474833028391,Object_Land_Pattern_Small,0,1,11018495.0,11018576.0,81.0
120,choice,choice,10,2.0,Land,2.0,6.232474833028391,Object_Sea_Pattern_Small,1,0,11020108.0,11021008.0,900.0
120,choice,choice,10,2.0,Land,2.0,6.232474833028391,Object_Land_Solid_Large,2,1,11024228.0,11024588.0,360.0
120,choice,choice,12,2.0,Animal,2.0,9.679018165916204,Object_Land_Pattern_Small,0,0,11045644.0,11045942.0,298.0
120,choice,choice,12,2.0,Animal,2.0,9.679018165916204,Object_Sea_Pattern_Small,1,0,11047568.0,11047652.0,84.0
120,choice,choice,12,2.0,Animal,2.0,9.679018165916204,Animal_Sea_Solid_Small,3,1,11047914.0,11048783.0,869.0
120,choice,choice,12,2.0,Animal,2.0,9.679018165916204,Object_Sea_Pattern_Small,1,0,11049419.0,11049612.0,193.0
120,choice,choice,12,2.0,Animal,2.0,9.679018165916204,Animal_Sea_Solid_Small,3,1,11049890.0,11050054.0,164.0
120,choice,choice,12,2.0,Animal,2.0,9.679018165916204,Object_Land_Pattern_Small,0,0,11050080.0,11050241.0,161.0
120,choice,choice,12,2.0,Animal,2.0,9.679018165916204,Animal_Sea_Solid_Small,3,1,11051242.0,11051393.0,151.0
120,choice,choice,12,2.0,Animal,2.0,9.679018165916204,Object_Sea_Pattern_Small,1,0,11052201.0,11052422.0,221.0
120,choice,choice,13,2.0,Small,2.0,11.017419334035369,Animal_Sea_Solid_Small,3,1,11058824.0,11059223.0,399.0
120,choice,choice,13,2.0,Small,2.0,11.017419334035369,Object_Sea_Pattern_Small,1,1,11063570.0,11063813.0,243.0
120,choice,choice,13,2.0,Small,2.0,11.017419334035369,Object_Land_Solid_Large,2,0,11064357.0,11064539.0,182.0
120,choice,choice,13,2.0,Small,2.0,11.017419334035369,Animal_Sea_Pattern_Large,4,0,11065220.0,11065731.0,511.0
120,choice,choice,13,2.0,Small,2.0,11.017419334035369,Object_Sea_Pattern_Small,1,1,11067745.0,11067779.0,34.0
120,choice,choice,14,2.0,Large,2.0,12.451020957902074,Animal_Sea_Pattern_Large,4,1,11072445.0,11072689.0,244.0
120,choice,choice,14,2.0,Large,2.0,12.451020957902074,Animal_Sea_Solid_Small,3,0,11072896.0,11073067.0,171.0
120,choice,choice,14,2.0,Large,2.0,12.451020957902074,Object_Land_Pattern_Small,0,0,11073292.0,11073416.0,124.0
120,choice,choice,14,2.0,Large,2.0,12.451020957902074,Animal_Sea_Solid_Small,3,0,11073796.0,11073884.0,88.0
120,choice,choice,14,2.0,Large,2.0,12.451020957902074,Object_Land_Pattern_Small,0,0,11074736.0,11075179.0,443.0
120,choice,choice,14,2.0,Large,2.0,12.451020957902074,Animal_Sea_Solid_Small,3,0,11076079.0,11076228.0,149.0
120,choice,choice,14,2.0,Large,2.0,12.451020957902074,Object_Land_Pattern_Small,0,0,11076775.0,11077039.0,264.0
120,choice,choice,14,2.0,Large,2.0,12.451020957902074,Animal_Sea_Solid_Small,3,0,11077273.0,11077514.0,241.0
120,choice,choice,14,2.0,Large,2.0,12.451020957902074,Object_Sea_Pattern_Small,1,0,11077539.0,11077807.0,268.0
120,choice,choice,14,2.0,Large,2.0,12.451020957902074,Animal_Land_Solid_Large,5,1,11078040.0,11078129.0,89.0
120,choice,choice,14,2.0,Large,2.0,12.451020957902074,Animal_Sea_Solid_Small,3,0,11078481.0,11078722.0,241.0
120,choice,choice,14,2.0,Large,2.0,12.451020957902074,Object_Land_Pattern_Small,0,0,11081011.0,11081102.0,91.0
120,choice,choice,14,2.0,Large,2.0,12.451020957902074,Animal_Sea_Pattern_Large,4,1,11082957.0,11083158.0,201.0
120,choice,choice,15,2.0,Solid,2.0,17.258078583981842,Animal_Sea_Pattern_Large,4,0,11088568.0,11088647.0,79.0
120,choice,choice,15,2.0,Solid,2.0,17.258078583981842,Animal_Land_Solid_Large,5,1,11092189.0,11092287.0,98.0
120,choice,choice,15,2.0,Solid,2.0,17.258078583981842,Animal_Sea_Solid_Small,3,1,11092308.0,11092490.0,182.0
120,choice,choice,15,2.0,Solid,2.0,17.258078583981842,Animal_Sea_Pattern_Large,4,0,11093054.0,11093363.0,309.0
120,choice,choice,15,2.0,Solid,2.0,17.258078583981842,Animal_Land_Solid_Large,5,1,11094711.0,11094962.0,251.0
120,choice,choice,15,2.0,Solid,2.0,17.258078583981842,Animal_Sea_Solid_Small,3,1,11096161.0,11096568.0,407.0
120,choice,choice,15,2.0,Solid,2.0,17.258078583981842,Object_Land_Solid_Large,2,1,11096781.0,11096834.0,53.0
120,choice,choice,15,2.0,Solid,2.0,17.258078583981842,Object_Sea_Pattern_Small,1,0,11097046.0,11097535.0,489.0
120,choice,choice,15,2.0,Solid,2.0,17.258078583981842,Animal_Sea_Solid_Small,3,1,11097840.0,11097974.0,134.0
120,choice,choice,15,2.0,Solid,2.0,17.258078583981842,Animal_Sea_Pattern_Large,4,0,11101952.0,11102219.0,267.0
120,choice,choice,15,2.0,Solid,2.0,17.258078583981842,Object_Sea_Pattern_Small,1,0,11102245.0,11102607.0,362.0
120,choice,choice,15,2.0,Solid,2.0,17.258078583981842,Object_Land_Pattern_Small,0,0,11104148.0,11104425.0,277.0
120,choice,choice,16,2.0,Object,2.0,23.101165249943733,Object_Sea_Pattern_Small,1,1,11109638.0,11110608.0,970.0
120,choice,choice,16,2.0,Object,2.0,23.101165249943733,Animal_Land_Solid_Large,5,0,11113726.0,11113842.0,116.0
120,choice,choice,16,2.0,Object,2.0,23.101165249943733,Object_Sea_Pattern_Small,1,1,11116635.0,11116711.0,76.0
120,choice,choice,16,2.0,Object,2.0,23.101165249943733,Animal_Sea_Solid_Small,3,0,11117132.0,11117498.0,366.0
120,choice,choice,16,2.0,Object,2.0,23.101165249943733,Object_Land_Pattern_Small,0,1,11118085.0,11118154.0,69.0
120,choice,choice,16,2.0,Object,2.0,23.101165249943733,Animal_Sea_Solid_Small,3,0,11119027.0,11119132.0,105.0
120,choice,choice,16,2.0,Object,2.0,23.101165249943733,Object_Land_Solid_Large,2,1,11119724.0,11119924.0,200.0
120,choice,choice,16,2.0,Object,2.0,23.101165249943733,Object_Sea_Pattern_Small,1,1,11120628.0,11120873.0,245.0
120,choice,choice,16,2.0,Object,2.0,23.101165249943733,Animal_Sea_Pattern_Large,4,0,11121899.0,11122126.0,227.0
120,choice,choice,16,2.0,Object,2.0,23.101165249943733,Object_Land_Solid_Large,2,1,11122347.0,11122960.0,613.0
120,choice,choice,16,2.0,Object,2.0,23.101165249943733,Object_Sea_Pattern_Small,1,1,11124129.0,11124979.0,850.0
120,choice,choice,16,2.0,Object,2.0,23.101165249943733,Animal_Sea_Pattern_Large,4,0,11126094.0,11126375.0,281.0
120,choice,choice,16,2.0,Object,2.0,23.101165249943733,Object_Sea_Pattern_Small,1,1,11126614.0,11127177.0,563.0
120,choice,choice,16,2.0,Object,2.0,23.101165249943733,Animal_Land_Solid_Large,5,0,11129920.0,11130107.0,187.0
120,choice,choice,16,2.0,Object,2.0,23.101165249943733,Animal_Sea_Solid_Small,3,0,11130297.0,11130496.0,199.0
120,choice,choice,16,2.0,Object,2.0,23.101165249943733,Object_Land_Solid_Large,2,1,11131805.0,11131841.0,36.0
120,choice,choice,17,3.0,Land,1.0,9.852818500017747,Animal_Sea_Pattern_Small,0,0,11492437.0,11492685.0,248.0
120,choice,choice,17,3.0,Land,1.0,9.852818500017747,Animal_Sea_Solid_Large,1,0,11496653.0,11496796.0,143.0
120,choice,choice,17,3.0,Land,1.0,9.852818500017747,Object_Land_Pattern_Large,2,1,11497071.0,11497475.0,404.0
120,choice,choice,17,3.0,Land,1.0,9.852818500017747,Object_Sea_Pattern_Large,3,0,11500353.0,11500655.0,302.0
120,choice,choice,18,3.0,Large,2.0,16.862537416862324,Animal_Land_Solid_Small,4,0,11505160.0,11505184.0,24.0
120,choice,choice,18,3.0,Large,2.0,16.862537416862324,Object_Land_Pattern_Large,2,1,11505409.0,11505581.0,172.0
120,choice,choice,18,3.0,Large,2.0,16.862537416862324,Animal_Sea_Pattern_Small,0,0,11508630.0,11508906.0,276.0
120,choice,choice,18,3.0,Large,2.0,16.862537416862324,Animal_Sea_Solid_Large,1,1,11509337.0,11509393.0,56.0
120,choice,choice,18,3.0,Large,2.0,16.862537416862324,Animal_Sea_Pattern_Small,0,0,11509635.0,11509781.0,146.0
120,choice,choice,18,3.0,Large,2.0,16.862537416862324,Animal_Sea_Solid_Large,1,1,11510029.0,11510148.0,119.0
120,choice,choice,18,3.0,Large,2.0,16.862537416862324,Object_Sea_Pattern_Large,3,1,11510397.0,11510583.0,186.0
120,choice,choice,18,3.0,Large,2.0,16.862537416862324,Animal_Sea_Solid_Large,1,1,11510820.0,11510866.0,46.0
120,choice,choice,18,3.0,Large,2.0,16.862537416862324,Animal_Sea_Pattern_Small,0,0,11513092.0,11513261.0,169.0
120,choice,choice,18,3.0,Large,2.0,16.862537416862324,Animal_Land_Solid_Small,4,0,11514026.0,11514305.0,279.0
120,choice,choice,18,3.0,Large,2.0,16.862537416862324,Object_Land_Solid_Small,5,0,11516350.0,11516619.0,269.0
120,choice,choice,18,3.0,Large,2.0,16.862537416862324,Object_Sea_Pattern_Large,3,1,11518740.0,11519247.0,507.0
120,choice,choice,18,3.0,Large,2.0,16.862537416862324,Object_Land_Pattern_Large,2,1,11521246.0,11521754.0,508.0
120,choice,choice,19,3.0,Solid,1.0,14.421633957885206,Animal_Sea_Solid_Large,1,1,11528340.0,11528517.0,177.0
120,choice,choice,19,3.0,Solid,1.0,14.421633957885206,Animal_Land_Solid_Small,4,1,11530251.0,11530490.0,239.0
120,choice,choice,19,3.0,Solid,1.0,14.421633957885206,Animal_Sea_Solid_Large,1,1,11532935.0,11533158.0,223.0
120,choice,choice,19,3.0,Solid,1.0,14.421633957885206,Object_Land_Solid_Small,5,1,11533732.0,11534028.0,296.0
120,choice,choice,20,3.0,Pattern,1.0,26.85265575000085,Object_Land_Pattern_Large,2,1,11543590.0,11543792.0,202.0
120,choice,choice,20,3.0,Pattern,1.0,26.85265575000085,Animal_Land_Solid_Small,4,0,11544353.0,11544398.0,45.0
120,choice,choice,20,3.0,Pattern,1.0,26.85265575000085,Object_Land_Pattern_Large,2,1,11544622.0,11545322.0,700.0
120,choice,choice,20,3.0,Pattern,1.0,26.85265575000085,Object_Land_Solid_Small,5,0,11545953.0,11546144.0,191.0
120,choice,choice,20,3.0,Pattern,1.0,26.85265575000085,Object_Sea_Pattern_Large,3,1,11547046.0,11547228.0,182.0
120,choice,choice,20,3.0,Pattern,1.0,26.85265575000085,Animal_Land_Solid_Small,4,0,11547443.0,11547479.0,36.0
120,choice,choice,20,3.0,Pattern,1.0,26.85265575000085,Animal_Sea_Solid_Large,1,0,11548848.0,11549048.0,200.0
120,choice,choice,20,3.0,Pattern,1.0,26.85265575000085,Animal_Sea_Pattern_Small,0,1,11549499.0,11549747.0,248.0
120,choice,choice,20,3.0,Pattern,1.0,26.85265575000085,Object_Sea_Pattern_Large,3,1,11550081.0,11550332.0,251.0
120,choice,choice,20,3.0,Pattern,1.0,26.85265575000085,Animal_Sea_Solid_Large,1,0,11550574.0,11551144.0,570.0
120,choice,choice,20,3.0,Pattern,1.0,26.85265575000085,Object_Land_Solid_Small,5,0,11553965.0,11554050.0,85.0
120,choice,choice,20,3.0,Pattern,1.0,26.85265575000085,Object_Land_Pattern_Large,2,1,11554284.0,11554497.0,213.0
120,choice,choice,20,3.0,Pattern,1.0,26.85265575000085,Animal_Sea_Pattern_Small,0,1,11554520.0,11554782.0,262.0
120,choice,choice,20,3.0,Pattern,1.0,26.85265575000085,Object_Sea_Pattern_Large,3,1,11555120.0,11555798.0,678.0
120,choice,choice,20,3.0,Pattern,1.0,26.85265575000085,Animal_Land_Solid_Small,4,0,11556516.0,11556708.0,192.0
120,choice,choice,20,3.0,Pattern,1.0,26.85265575000085,Animal_Sea_Solid_Large,1,0,11558797.0,11558884.0,87.0
120,choice,choice,20,3.0,Pattern,1.0,26.85265575000085,Object_Land_Solid_Small,5,0,11561447.0,11561584.0,137.0
120,choice,choice,20,3.0,Pattern,1.0,26.85265575000085,Animal_Land_Solid_Small,4,0,11561798.0,11561823.0,25.0
120,choice,choice,20,3.0,Pattern,1.0,26.85265575000085,Object_Land_Pattern_Large,2,1,11562034.0,11562236.0,202.0
120,choice,choice,20,3.0,Pattern,1.0,26.85265575000085,Object_Sea_Pattern_Large,3,1,11563009.0,11563204.0,195.0
120,choice,choice,20,3.0,Pattern,1.0,26.85265575000085,Animal_Sea_Pattern_Small,0,1,11564286.0,11564504.0,218.0
120,choice,choice,20,3.0,Pattern,1.0,26.85265575000085,Object_Land_Solid_Small,5,0,11564750.0,11564918.0,168.0
120,choice,choice,20,3.0,Pattern,1.0,26.85265575000085,Animal_Land_Solid_Small,4,0,11565263.0,11565467.0,204.0
120,choice,choice,20,3.0,Pattern,1.0,26.85265575000085,Object_Land_Solid_Small,5,0,11568326.0,11568425.0,99.0
120,choice,choice,21,3.0,Animal,1.0,3.2834130411501974,Object_Sea_Pattern_Large,3,0,11573091.0,11573263.0,172.0
120,choice,choice,21,3.0,Animal,1.0,3.2834130411501974,Animal_Sea_Pattern_Small,0,1,11573326.0,11573410.0,84.0
120,choice,choice,21,3.0,Animal,1.0,3.2834130411501974,Animal_Sea_Solid_Large,1,1,11574328.0,11574600.0,272.0
120,choice,choice,22,3.0,Sea,1.0,2.9412572500295937,Animal_Land_Solid_Small,4,0,11579678.0,11579945.0,267.0
120,choice,choice,22,3.0,Sea,1.0,2.9412572500295937,Animal_Sea_Solid_Large,1,1,11579989.0,11580170.0,181.0
120,choice,choice,22,3.0,Sea,1.0,2.9412572500295937,Object_Land_Solid_Small,5,0,11580644.0,11580693.0,49.0
120,choice,choice,22,3.0,Sea,1.0,2.9412572500295937,Animal_Sea_Pattern_Small,0,1,11581154.0,11581263.0,109.0
120,choice,choice,23,3.0,Small,2.0,7.167183042038232,Animal_Sea_Pattern_Small,0,1,11585209.0,11585248.0,39.0
120,choice,choice,23,3.0,Small,2.0,7.167183042038232,Animal_Land_Solid_Small,4,1,11587785.0,11587928.0,143.0
120,choice,choice,23,3.0,Small,2.0,7.167183042038232,Animal_Sea_Solid_Large,1,0,11588169.0,11588284.0,115.0
120,choice,choice,23,3.0,Small,2.0,7.167183042038232,Animal_Land_Solid_Small,4,1,11589657.0,11590319.0,662.0
120,choice,choice,24,3.0,Object,2.0,10.193868917180223,Animal_Sea_Solid_Large,1,0,11595862.0,11596193.0,331.0
120,choice,choice,24,3.0,Object,2.0,10.193868917180223,Object_Land_Solid_Small,5,1,11597702.0,11597912.0,210.0
120,choice,choice,24,3.0,Object,2.0,10.193868917180223,Object_Land_Pattern_Large,2,1,11598116.0,11598248.0,132.0
120,choice,choice,24,3.0,Object,2.0,10.193868917180223,Animal_Land_Solid_Small,4,0,11598593.0,11599559.0,966.0
120,choice,choice,24,3.0,Object,2.0,10.193868917180223,Object_Land_Solid_Small,5,1,11602557.0,11602772.0,215.0
120,choice,choice,24,3.0,Object,2.0,10.193868917180223,Animal_Land_Solid_Small,4,0,11604873.0,11604973.0,100.0
120,choice,choice,25,4.0,Object,2.0,21.687400332884863,Object_Sea_Pattern_Small,0,1,11905214.0,11905313.0,99.0
120,choice,choice,25,4.0,Object,2.0,21.687400332884863,Animal_Land_Solid_Large,1,0,11907041.0,11907345.0,304.0
120,choice,choice,25,4.0,Object,2.0,21.687400332884863,Object_Sea_Pattern_Small,0,1,11907546.0,11907629.0,83.0
120,choice,choice,25,4.0,Object,2.0,21.687400332884863,Animal_Land_Solid_Large,1,0,11908212.0,11908723.0,511.0
120,choice,choice,25,4.0,Object,2.0,21.687400332884863,Object_Sea_Pattern_Small,0,1,11909276.0,11909494.0,218.0
120,choice,choice,25,4.0,Object,2.0,21.687400332884863,Object_Sea_Solid_Small,2,1,11910900.0,11911033.0,133.0
120,choice,choice,25,4.0,Object,2.0,21.687400332884863,Animal_Land_Pattern_Small,3,0,11911410.0,11911765.0,355.0
120,choice,choice,25,4.0,Object,2.0,21.687400332884863,Object_Sea_Solid_Small,2,1,11911799.0,11912088.0,289.0
120,choice,choice,25,4.0,Object,2.0,21.687400332884863,Animal_Land_Pattern_Small,3,0,11916902.0,11917101.0,199.0
120,choice,choice,25,4.0,Object,2.0,21.687400332884863,Animal_Land_Solid_Large,1,0,11917499.0,11918479.0,980.0
120,choice,choice,25,4.0,Object,2.0,21.687400332884863,Object_Sea_Pattern_Small,0,1,11920288.0,11920644.0,356.0
120,choice,choice,25,4.0,Object,2.0,21.687400332884863,Animal_Land_Solid_Large,1,0,11920953.0,11921362.0,409.0
120,choice,choice,25,4.0,Object,2.0,21.687400332884863,Object_Sea_Pattern_Small,0,1,11921743.0,11922526.0,783.0
120,choice,choice,25,4.0,Object,2.0,21.687400332884863,Object_Sea_Solid_Large,4,1,11925097.0,11925225.0,128.0
120,choice,choice,25,4.0,Object,2.0,21.687400332884863,Object_Sea_Pattern_Small,0,1,11925440.0,11925644.0,204.0
120,choice,choice,26,4.0,Large,1.0,4.078689499991015,Object_Sea_Solid_Large,4,1,11929457.0,11929611.0,154.0
120,choice,choice,26,4.0,Large,1.0,4.078689499991015,Animal_Land_Solid_Large,1,1,11930336.0,11930567.0,231.0
120,choice,choice,26,4.0,Large,1.0,4.078689499991015,Object_Sea_Pattern_Small,0,0,11931599.0,11931813.0,214.0
120,choice,choice,26,4.0,Large,1.0,4.078689499991015,Object_Sea_Solid_Small,2,0,11932193.0,11932515.0,322.0
120,choice,choice,27,4.0,Small,2.0,12.765927790896969,Object_Sea_Pattern_Small,0,1,11937071.0,11937142.0,71.0
120,choice,choice,27,4.0,Small,2.0,12.765927790896969,Object_Sea_Solid_Small,2,1,11939680.0,11939784.0,104.0
120,choice,choice,27,4.0,Small,2.0,12.765927790896969,Object_Sea_Solid_Large,4,0,11940051.0,11940252.0,201.0
120,choice,choice,27,4.0,Small,2.0,12.765927790896969,Object_Sea_Solid_Small,2,1,11940467.0,11940583.0,116.0
120,choice,choice,27,4.0,Small,2.0,12.765927790896969,Animal_Land_Pattern_Small,3,1,11940791.0,11941051.0,260.0
120,choice,choice,27,4.0,Small,2.0,12.765927790896969,Object_Sea_Solid_Small,2,1,11941263.0,11941305.0,42.0
120,choice,choice,27,4.0,Small,2.0,12.765927790896969,Object_Sea_Pattern_Small,0,1,11942838.0,11943003.0,165.0
120,choice,choice,27,4.0,Small,2.0,12.765927790896969,Animal_Land_Solid_Large,1,0,11943454.0,11944298.0,844.0
120,choice,choice,27,4.0,Small,2.0,12.765927790896969,Object_Sea_Solid_Small,2,1,11945501.0,11945619.0,118.0
120,choice,choice,27,4.0,Small,2.0,12.765927790896969,Animal_Land_Pattern_Large,5,0,11946247.0,11946517.0,270.0
120,choice,choice,27,4.0,Small,2.0,12.765927790896969,Animal_Land_Solid_Large,1,0,11946690.0,11946885.0,195.0
120,choice,choice,28,4.0,Land,1.0,6.319382415851578,Object_Sea_Pattern_Small,0,0,11953582.0,11953700.0,118.0
120,choice,choice,28,4.0,Land,1.0,6.319382415851578,Object_Sea_Solid_Large,4,0,11954284.0,11954575.0,291.0
120,choice,choice,28,4.0,Land,1.0,6.319382415851578,Animal_Land_Pattern_Large,5,1,11956820.0,11957353.0,533.0
120,choice,choice,28,4.0,Land,1.0,6.319382415851578,Animal_Land_Solid_Large,1,1,11957771.0,11957842.0,71.0
120,choice,choice,28,4.0,Land,1.0,6.319382415851578,Object_Sea_Pattern_Small,0,0,11958111.0,11958164.0,53.0
120,choice,choice,28,4.0,Land,1.0,6.319382415851578,Object_Sea_Solid_Small,2,0,11958563.0,11958770.0,207.0
120,choice,choice,29,4.0,Pattern,2.0,21.506427499931306,Animal_Land_Solid_Large,1,0,11961895.0,11962432.0,537.0
120,choice,choice,29,4.0,Pattern,2.0,21.506427499931306,Object_Sea_Solid_Small,2,0,11964736.0,11965074.0,338.0
120,choice,choice,29,4.0,Pattern,2.0,21.506427499931306,Object_Sea_Solid_Large,4,0,11965334.0,11965778.0,444.0
120,choice,choice,29,4.0,Pattern,2.0,21.506427499931306,Object_Sea_Solid_Small,2,0,11966356.0,11966521.0,165.0
120,choice,choice,29,4.0,Pattern,2.0,21.506427499931306,Animal_Land_Solid_Large,1,0,11967010.0,11967187.0,177.0
120,choice,choice,29,4.0,Pattern,2.0,21.506427499931306,Animal_Land_Pattern_Small,3,1,11967667.0,11968023.0,356.0
120,choice,choice,29,4.0,Pattern,2.0,21.506427499931306,Object_Sea_Solid_Large,4,0,11968233.0,11968429.0,196.0
120,choice,choice,29,4.0,Pattern,2.0,21.506427499931306,Animal_Land_Pattern_Large,5,1,11968452.0,11968779.0,327.0
120,choice,choice,29,4.0,Pattern,2.0,21.506427499931306,Animal_Land_Solid_Large,1,0,11969026.0,11969153.0,127.0
120,choice,choice,29,4.0,Pattern,2.0,21.506427499931306,Object_Sea_Pattern_Small,0,1,11970052.0,11970177.0,125.0
120,choice,choice,29,4.0,Pattern,2.0,21.506427499931306,Animal_Land_Solid_Large,1,0,11970210.0,11970520.0,310.0
120,choice,choice,29,4.0,Pattern,2.0,21.506427499931306,Object_Sea_Pattern_Small,0,1,11970757.0,11970975.0,218.0
120,choice,choice,29,4.0,Pattern,2.0,21.506427499931306,Animal_Land_Pattern_Small,3,1,11971253.0,11971765.0,512.0
120,choice,choice,29,4.0,Pattern,2.0,21.506427499931306,Object_Sea_Solid_Small,2,0,11972140.0,11972367.0,227.0
120,choice,choice,29,4.0,Pattern,2.0,21.506427499931306,Animal_Land_Solid_Large,1,0,11977633.0,11978025.0,392.0
120,choice,choice,29,4.0,Pattern,2.0,21.506427499931306,Object_Sea_Pattern_Small,0,1,11978477.0,11978933.0,456.0
120,choice,choice,29,4.0,Pattern,2.0,21.506427499931306,Animal_Land_Pattern_Large,5,1,11981812.0,11981960.0,148.0
120,choice,choice,29,4.0,Pattern,2.0,21.506427499931306,Animal_Land_Solid_Large,1,0,11982162.0,11982295.0,133.0
120,choice,choice,30,4.0,Solid,1.0,1.0761277920100838,Object_Sea_Pattern_Small,0,0,11986094.0,11986488.0,394.0
120,choice,choice,32,4.0,Sea,1.0,1.8880114590283483,Animal_Land_Solid_Large,1,0,11995658.0,11996615.0,957.0
120,choice,choice,32,4.0,Sea,1.0,1.8880114590283483,Object_Sea_Pattern_Small,0,1,11996857.0,11997191.0,334.0
120,choice,choice,33,5.0,Solid,1.0,11.512078708969057,Animal_Sea_Pattern_Large,0,0,12278066.0,12278374.0,308.0
120,choice,choice,33,5.0,Solid,1.0,11.512078708969057,Animal_Sea_Solid_Small,1,1,12278587.0,12278939.0,352.0
120,choice,choice,33,5.0,Solid,1.0,11.512078708969057,Animal_Sea_Pattern_Large,0,0,12279925.0,12280291.0,366.0
120,choice,choice,33,5.0,Solid,1.0,11.512078708969057,Object_Sea_Pattern_Small,2,0,12281277.0,12281543.0,266.0
120,choice,choice,33,5.0,Solid,1.0,11.512078708969057,Animal_Sea_Solid_Small,1,1,12281818.0,12282151.0,333.0
120,choice,choice,33,5.0,Solid,1.0,11.512078708969057,Animal_Sea_Pattern_Large,0,0,12282406.0,12282519.0,113.0
120,choice,choice,33,5.0,Solid,1.0,11.512078708969057,Object_Land_Solid_Large,3,1,12282554.0,12282961.0,407.0
120,choice,choice,33,5.0,Solid,1.0,11.512078708969057,Animal_Land_Solid_Large,4,1,12285199.0,12285744.0,545.0
120,choice,choice,33,5.0,Solid,1.0,11.512078708969057,Object_Sea_Pattern_Small,2,0,12286389.0,12286551.0,162.0
120,choice,choice,34,5.0,Small,1.0,2.480357584077865,Animal_Land_Solid_Large,4,0,12290642.0,12290751.0,109.0
120,choice,choice,34,5.0,Small,1.0,2.480357584077865,Object_Land_Pattern_Small,5,1,12290958.0,12291114.0,156.0
120,choice,choice,34,5.0,Small,1.0,2.480357584077865,Animal_Sea_Solid_Small,1,1,12291710.0,12291927.0,217.0
120,choice,choice,34,5.0,Small,1.0,2.480357584077865,Animal_Land_Solid_Large,4,0,12292151.0,12292610.0,459.0
120,choice,choice,34,5.0,Small,1.0,2.480357584077865,Object_Sea_Pattern_Small,2,1,12292903.0,12293125.0,222.0
120,choice,choice,35,5.0,Animal,1.0,9.442764082923532,Animal_Land_Solid_Large,4,1,12297021.0,12298252.0,1231.0
120,choice,choice,35,5.0,Animal,1.0,9.442764082923532,Object_Land_Pattern_Small,5,0,12299477.0,12300032.0,555.0
120,choice,choice,35,5.0,Animal,1.0,9.442764082923532,Animal_Land_Solid_Large,4,1,12301701.0,12302499.0,798.0
120,choice,choice,35,5.0,Animal,1.0,9.442764082923532,Object_Sea_Pattern_Small,2,0,12303308.0,12303502.0,194.0
120,choice,choice,36,5.0,Large,2.0,3.3775281668640673,Object_Sea_Pattern_Small,2,0,12309614.0,12310163.0,549.0
120,choice,choice,37,5.0,Object,1.0,4.388262042077258,Object_Land_Pattern_Small,5,1,12315390.0,12315432.0,42.0
120,choice,choice,37,5.0,Object,1.0,4.388262042077258,Animal_Sea_Pattern_Large,0,0,12315790.0,12315861.0,71.0
120,choice,choice,37,5.0,Object,1.0,4.388262042077258,Animal_Land_Solid_Large,4,0,12316097.0,12316255.0,158.0
120,choice,choice,37,5.0,Object,1.0,4.388262042077258,Object_Sea_Pattern_Small,2,1,12316852.0,12317046.0,194.0
120,choice,choice,37,5.0,Object,1.0,4.388262042077258,Object_Land_Solid_Large,3,1,12317404.0,12317480.0,76.0
120,choice,choice,37,5.0,Object,1.0,4.388262042077258,Animal_Sea_Solid_Small,1,0,12317678.0,12317853.0,175.0
120,choice,choice,37,5.0,Object,1.0,4.388262042077258,Object_Land_Solid_Large,3,1,12318481.0,12318613.0,132.0
120,choice,choice,37,5.0,Object,1.0,4.388262042077258,Object_Sea_Pattern_Small,2,1,12318860.0,12319132.0,272.0
120,choice,choice,38,5.0,Sea,1.0,3.752007625065744,Object_Land_Solid_Large,3,0,12322777.0,12323038.0,261.0
120,choice,choice,38,5.0,Sea,1.0,3.752007625065744,Animal_Land_Solid_Large,4,0,12323521.0,12323776.0,255.0
120,choice,choice,38,5.0,Sea,1.0,3.752007625065744,Animal_Sea_Pattern_Large,0,1,12325362.0,12325552.0,190.0
120,choice,choice,38,5.0,Sea,1.0,3.752007625065744,Object_Sea_Pattern_Small,2,1,12325573.0,12325752.0,179.0
120,choice,choice,39,5.0,Land,1.0,4.867697000037879,Object_Land_Solid_Large,3,1,12329443.0,12329477.0,34.0
120,choice,choice,39,5.0,Land,1.0,4.867697000037879,Object_Sea_Pattern_Small,2,0,12329762.0,12330276.0,514.0
120,choice,choice,39,5.0,Land,1.0,4.867697000037879,Animal_Sea_Solid_Small,1,0,12331433.0,12331773.0,340.0
120,choice,choice,39,5.0,Land,1.0,4.867697000037879,Object_Sea_Pattern_Small,2,0,12332175.0,12332465.0,290.0
120,choice,choice,39,5.0,Land,1.0,4.867697000037879,Object_Land_Solid_Large,3,1,12332901.0,12333329.0,428.0
120,choice,choice,40,5.0,Pattern,2.0,2.673900374909863,Animal_Sea_Pattern_Large,0,1,12339494.0,12339619.0,125.0
120,choice,choice,41,6.0,Sea,1.0,9.23407074995339,Animal_Sea_Pattern_Small,0,1,12616335.0,12616660.0,325.0
120,choice,choice,41,6.0,Sea,1.0,9.23407074995339,Object_Sea_Pattern_Large,1,1,12616673.0,12617070.0,397.0
120,choice,choice,41,6.0,Sea,1.0,9.23407074995339,Animal_Sea_Pattern_Small,0,1,12617449.0,12617607.0,158.0
120,choice,choice,41,6.0,Sea,1.0,9.23407074995339,Object_Sea_Pattern_Large,1,1,12617922.0,12619095.0,1173.0
120,choice,choice,41,6.0,Sea,1.0,9.23407074995339,Animal_Sea_Solid_Large,2,1,12619937.0,12620116.0,179.0
120,choice,choice,41,6.0,Sea,1.0,9.23407074995339,Object_Land_Solid_Small,3,0,12624438.0,12624745.0,307.0
120,choice,choice,42,6.0,Land,1.0,2.41355691710487,Object_Land_Pattern_Large,4,1,12628526.0,12628732.0,206.0
120,choice,choice,42,6.0,Land,1.0,2.41355691710487,Animal_Sea_Solid_Large,2,0,12629159.0,12629662.0,503.0
120,choice,choice,43,6.0,Object,1.0,4.295511875068769,Object_Land_Solid_Small,3,1,12634764.0,12634949.0,185.0
120,choice,choice,44,6.0,Animal,2.0,3.7856679160613567,Animal_Sea_Solid_Large,2,1,12644697.0,12644867.0,170.0
120,choice,choice,45,6.0,Solid,1.0,2.1084789999295026,Animal_Sea_Solid_Large,2,1,12648438.0,12648539.0,101.0
120,choice,choice,45,6.0,Solid,1.0,2.1084789999295026,Object_Land_Solid_Small,3,1,12648845.0,12649026.0,181.0
120,choice,choice,45,6.0,Solid,1.0,2.1084789999295026,Animal_Sea_Solid_Large,2,1,12650350.0,12650540.0,190.0
120,choice,choice,46,6.0,Large,1.0,3.911855167010799,Animal_Land_Solid_Small,5,0,12654005.0,12654938.0,933.0
120,choice,choice,46,6.0,Large,1.0,3.911855167010799,Object_Land_Solid_Small,3,0,12655155.0,12655482.0,327.0
120,choice,choice,46,6.0,Large,1.0,3.911855167010799,Animal_Sea_Pattern_Small,0,0,12655926.0,12656089.0,163.0
120,choice,choice,46,6.0,Large,1.0,3.911855167010799,Animal_Land_Solid_Small,5,0,12656587.0,12656633.0,46.0
120,choice,choice,47,6.0,Pattern,1.0,2.944437582977116,Animal_Sea_Solid_Large,2,0,12660600.0,12661329.0,729.0
120,choice,choice,47,6.0,Pattern,1.0,2.944437582977116,Animal_Land_Solid_Small,5,0,12661643.0,12661766.0,123.0
120,choice,choice,47,6.0,Pattern,1.0,2.944437582977116,Animal_Sea_Solid_Large,2,0,12662695.0,12663004.0,309.0
120,choice,choice,48,6.0,Small,2.0,9.297521999804305,Animal_Land_Solid_Small,5,1,12671285.0,12671525.0,240.0
120,choice,choice,48,6.0,Small,2.0,9.297521999804305,Object_Land_Solid_Small,3,1,12672578.0,12672624.0,46.0
120,choice,choice,48,6.0,Small,2.0,9.297521999804305,Object_Land_Pattern_Large,4,0,12673261.0,12673672.0,411.0
120,choice,choice,48,6.0,Small,2.0,9.297521999804305,Animal_Sea_Solid_Large,2,0,12674866.0,12675345.0,479.0
120,choice,choice,49,7.0,Solid,1.0,2.356830958975479,Object_Land_Solid_Small,0,1,12981186.0,12981311.0,125.0
120,choice,choice,49,7.0,Solid,1.0,2.356830958975479,Object_Sea_Solid_Small,1,1,12981799.0,12982018.0,219.0
120,choice,choice,49,7.0,Solid,1.0,2.356830958975479,Animal_Land_Pattern_Large,2,0,12982619.0,12982730.0,111.0
120,choice,choice,50,7.0,Animal,2.0,1.3783615839201957,Animal_Sea_Pattern_Small,3,1,12986229.0,12986363.0,134.0
120,choice,choice,51,7.0,Pattern,1.0,4.776214125100523,Animal_Sea_Solid_Large,4,0,12991488.0,12991632.0,144.0
120,choice,choice,51,7.0,Pattern,1.0,4.776214125100523,Object_Land_Pattern_Large,5,1,12992295.0,12992398.0,103.0
120,choice,choice,51,7.0,Pattern,1.0,4.776214125100523,Animal_Sea_Solid_Large,4,0,12993532.0,12993593.0,61.0
120,choice,choice,51,7.0,Pattern,1.0,4.776214125100523,Object_Sea_Solid_Small,1,0,12995476.0,12995558.0,82.0
120,choice,choice,51,7.0,Pattern,1.0,4.776214125100523,Animal_Sea_Solid_Large,4,0,12995783.0,12995795.0,12.0
120,choice,choice,52,7.0,Sea,1.0,5.8242426661308855,Object_Land_Pattern_Large,5,0,12999060.0,12999567.0,507.0
120,choice,choice,52,7.0,Sea,1.0,5.8242426661308855,Animal_Sea_Pattern_Small,3,1,13003542.0,13003683.0,141.0
120,choice,choice,54,7.0,Small,2.0,1.815431041875854,Animal_Sea_Solid_Large,4,0,13011761.0,13012173.0,412.0
120,choice,choice,54,7.0,Small,2.0,1.815431041875854,Object_Sea_Solid_Small,1,1,13013025.0,13013047.0,22.0
120,choice,choice,54,7.0,Small,2.0,1.815431041875854,Animal_Land_Pattern_Large,2,0,13013087.0,13013171.0,84.0
120,choice,choice,56,7.0,Land,1.0,0.0719114581588655,Animal_Sea_Solid_Large,4,0,13019564.0,13019612.0,48.0
