phase,event,trial_number,eyetracker_onset,eyetracker_offset,fix_start,fix_end,fix_duration_full,fix_duration_bounded,fix_x,fix_y,roi_x,roi_y,roi_content,onset,offset,game,image,outcome,choice,correct,rt,letter,match,response,option,true_value,true_position,recalled_position,Unnamed: 18
encoding,fixation,1,10172689,10173959,10172794.0,10172918.0,125.0,125.0,1780.0,898.2,1591.0,1269.0,Object_Sea_Pattern_Small,12.193425332894549,13.463657874846833,1.0,Animal_Land_Solid_Large,-2.0,,,,,,,,,,,
encoding,fixation,1,10172689,10173959,10172950.0,10173104.0,155.0,155.0,1874.7,1203.7,1920.0,700.0,Animal_Land_Pattern_Large,12.193425332894549,13.463657874846833,1.0,Animal_Land_Solid_Large,-2.0,,,,,,,,,,,
encoding,fixation,1,10172689,10173959,10173327.0,10173642.0,316.0,316.0,1827.4,1357.2,1920.0,700.0,Animal_Land_Pattern_Large,12.193425332894549,13.463657874846833,1.0,Animal_Land_Solid_Large,-2.0,,,,,,,,,,,
encoding,fixation,1,10172689,10173959,10173661.0,10173939.0,279.0,279.0,1925.6,1430.2,1920.0,700.0,Animal_Land_Pattern_Large,12.193425332894549,13.463657874846833,1.0,Animal_Land_Solid_Large,-2.0,,,,,,,,,,,
encoding,fixation,1,10172689,10173959,10173953.0,10174119.0,167.0,6.0,1828.1,1446.6,1920.0,700.0,Animal_Land_Pattern_Large,12.193425332894549,13.463657874846833,1.0,Animal_Land_Solid_Large,-2.0,,,,,,,,,,,
encoding,image,1,10173959,10174984,10174148.0,10174414.0,267.0,267.0,1616.3,1272.3,1591.0,891.0,Animal_Land_Solid_Large,13.463801916921511,14.489210749976335,1.0,Animal_Land_Solid_Large,-2.0,,,,,,,,,,,
encoding,image,1,10173959,10174984,10174625.0,10174824.0,200.0,200.0,1583.4,1291.4,1591.0,891.0,Animal_Land_Solid_Large,13.463801916921511,14.489210749976335,1.0,Animal_Land_Solid_Large,-2.0,,,,,,,,,,,
encoding,image,1,10173959,10174984,10174838.0,10175360.0,523.0,146.0,1579.8,1204.2,1591.0,891.0,Animal_Land_Solid_Large,13.463801916921511,14.489210749976335,1.0,Animal_Land_Solid_Large,-2.0,,,,,,,,,,,
encoding,value,1,10174984,10181001,10175561.0,10176361.0,801.0,801.0,1609.5,1186.1,1591.0,891.0,Animal_Land_Solid_Large,14.48931233305484,20.50572875002399,1.0,Animal_Land_Solid_Large,-2.0,,,,,,,,,,,
encoding,value,1,10174984,10181001,10176561.0,10177433.0,873.0,873.0,1588.9,1198.6,1591.0,891.0,Animal_Land_Solid_Large,14.48931233305484,20.50572875002399,1.0,Animal_Land_Solid_Large,-2.0,,,,,,,,,,,
encoding,value,1,10174984,10181001,10177623.0,10178704.0,1082.0,1082.0,1600.9,1209.1,1591.0,891.0,Animal_Land_Solid_Large,14.48931233305484,20.50572875002399,1.0,Animal_Land_Solid_Large,-2.0,,,,,,,,,,,
encoding,value,1,10174984,10181001,10178718.0,10178892.0,175.0,175.0,1604.1,1250.5,1591.0,891.0,Animal_Land_Solid_Large,14.48931233305484,20.50572875002399,1.0,Animal_Land_Solid_Large,-2.0,,,,,,,,,,,
encoding,value,1,10174984,10181001,10178906.0,10180080.0,1175.0,1175.0,1620.3,1298.3,1591.0,891.0,Animal_Land_Solid_Large,14.48931233305484,20.50572875002399,1.0,Animal_Land_Solid_Large,-2.0,,,,,,,,,,,
encoding,value,1,10174984,10181001,10180269.0,10180553.0,285.0,285.0,1591.0,1218.0,1591.0,891.0,Animal_Land_Solid_Large,14.48931233305484,20.50572875002399,1.0,Animal_Land_Solid_Large,-2.0,,,,,,,,,,,
encoding,value,1,10174984,10181001,10180863.0,10181053.0,191.0,138.0,1587.5,1208.3,1591.0,891.0,Animal_Land_Solid_Large,14.48931233305484,20.50572875002399,1.0,Animal_Land_Solid_Large,-2.0,,,,,,,,,,,
encoding,attention,1,10181001,10184020,10181252.0,10181654.0,403.0,403.0,1536.4,1190.1,1591.0,891.0,Animal_Land_Solid_Large,20.505851791938767,23.5245644999668,1.0,Animal_Land_Solid_Large,-2.0,-2.0,1.0,2.41804137500003,,,,,,,,
encoding,attention,1,10181001,10184020,10181673.0,10181770.0,98.0,98.0,1653.0,1204.1,1591.0,891.0,Animal_Land_Solid_Large,20.505851791938767,23.5245644999668,1.0,Animal_Land_Solid_Large,-2.0,-2.0,1.0,2.41804137500003,,,,,,,,
encoding,attention,1,10181001,10184020,10182029.0,10182614.0,586.0,586.0,1628.9,1217.9,1591.0,891.0,Animal_Land_Solid_Large,20.505851791938767,23.5245644999668,1.0,Animal_Land_Solid_Large,-2.0,-2.0,1.0,2.41804137500003,,,,,,,,
encoding,fixation,2,10184020,10185525,10184261.0,10184404.0,144.0,144.0,1930.7,1115.5,1920.0,1080.0,fixation,23.524715417064726,25.029979625018314,1.0,Object_Sea_Solid_Small,4.0,,,,,,,,,,,
encoding,fixation,2,10184020,10185525,10184786.0,10184901.0,116.0,116.0,1915.7,1123.0,1920.0,1080.0,fixation,23.524715417064726,25.029979625018314,1.0,Object_Sea_Solid_Small,4.0,,,,,,,,,,,
encoding,fixation,2,10184020,10185525,10185267.0,10185546.0,280.0,258.0,1933.0,1103.6,1920.0,1080.0,fixation,23.524715417064726,25.029979625018314,1.0,Object_Sea_Solid_Small,4.0,,,,,,,,,,,
encoding,image,2,10185525,10186537,10185782.0,10185900.0,119.0,119.0,1852.4,1102.4,1591.0,891.0,Animal_Land_Solid_Large,25.030073457863185,26.041371874976903,1.0,Object_Sea_Solid_Small,4.0,,,,,,,,,,,
encoding,image,2,10185525,10186537,10185918.0,10186028.0,111.0,111.0,1944.8,1086.7,1920.0,1080.0,fixation,25.030073457863185,26.041371874976903,1.0,Object_Sea_Solid_Small,4.0,,,,,,,,,,,
encoding,image,2,10185525,10186537,10186065.0,10186331.0,267.0,267.0,1909.2,726.5,1920.0,1460.0,Object_Sea_Solid_Small,25.030073457863185,26.041371874976903,1.0,Object_Sea_Solid_Small,4.0,,,,,,,,,,,
encoding,value,2,10186537,10192548,10186554.0,10186762.0,209.0,209.0,1895.7,760.4000000000001,1920.0,1460.0,Object_Sea_Solid_Small,26.04147420800291,32.05226079188287,1.0,Object_Sea_Solid_Small,4.0,,,,,,,,,,,
encoding,value,2,10186537,10192548,10186780.0,10187316.0,537.0,537.0,1883.7,676.4000000000001,1920.0,1460.0,Object_Sea_Solid_Small,26.04147420800291,32.05226079188287,1.0,Object_Sea_Solid_Small,4.0,,,,,,,,,,,
encoding,value,2,10186537,10192548,10187545.0,10187815.0,271.0,271.0,1890.6,585.7,1920.0,1460.0,Object_Sea_Solid_Small,26.04147420800291,32.05226079188287,1.0,Object_Sea_Solid_Small,4.0,,,,,,,,,,,
encoding,value,2,10186537,10192548,10188030.0,10188207.0,178.0,178.0,1906.9,655.4000000000001,1920.0,1460.0,Object_Sea_Solid_Small,26.04147420800291,32.05226079188287,1.0,Object_Sea_Solid_Small,4.0,,,,,,,,,,,
encoding,value,2,10186537,10192548,10188218.0,10188581.0,364.0,364.0,1866.1,757.0,1920.0,1460.0,Object_Sea_Solid_Small,26.04147420800291,32.05226079188287,1.0,Object_Sea_Solid_Small,4.0,,,,,,,,,,,
encoding,value,2,10186537,10192548,10188603.0,10189635.0,1033.0,1033.0,1894.4,642.5999999999999,1920.0,1460.0,Object_Sea_Solid_Small,26.04147420800291,32.05226079188287,1.0,Object_Sea_Solid_Small,4.0,,,,,,,,,,,
encoding,value,2,10186537,10192548,10189655.0,10189843.0,189.0,189.0,1864.0,759.5,1920.0,1460.0,Object_Sea_Solid_Small,26.04147420800291,32.05226079188287,1.0,Object_Sea_Solid_Small,4.0,,,,,,,,,,,
encoding,value,2,10186537,10192548,10189862.0,10190490.0,629.0,629.0,1890.5,645.4000000000001,1920.0,1460.0,Object_Sea_Solid_Small,26.04147420800291,32.05226079188287,1.0,Object_Sea_Solid_Small,4.0,,,,,,,,,,,
encoding,value,2,10186537,10192548,10190507.0,10190628.0,122.0,122.0,1902.0,529.5,1920.0,1460.0,Object_Sea_Solid_Small,26.04147420800291,32.05226079188287,1.0,Object_Sea_Solid_Small,4.0,,,,,,,,,,,
encoding,value,2,10186537,10192548,10190860.0,10190994.0,135.0,135.0,1918.5,556.3,1920.0,1460.0,Object_Sea_Solid_Small,26.04147420800291,32.05226079188287,1.0,Object_Sea_Solid_Small,4.0,,,,,,,,,,,
encoding,value,2,10186537,10192548,10191005.0,10191336.0,332.0,332.0,1897.9,714.0,1920.0,1460.0,Object_Sea_Solid_Small,26.04147420800291,32.05226079188287,1.0,Object_Sea_Solid_Small,4.0,,,,,,,,,,,
encoding,value,2,10186537,10192548,10191723.0,10192503.0,781.0,781.0,1914.2,645.0999999999999,1920.0,1460.0,Object_Sea_Solid_Small,26.04147420800291,32.05226079188287,1.0,Object_Sea_Solid_Small,4.0,,,,,,,,,,,
encoding,attention,2,10192548,10195561,10192711.0,10192890.0,180.0,180.0,1909.0,525.2,1920.0,1460.0,Object_Sea_Solid_Small,32.05236866697669,35.06503399997018,1.0,Object_Sea_Solid_Small,4.0,,,,,,,,,,,
encoding,attention,2,10192548,10195561,10192900.0,10193023.0,124.0,124.0,1961.2,556.0,1920.0,1460.0,Object_Sea_Solid_Small,32.05236866697669,35.06503399997018,1.0,Object_Sea_Solid_Small,4.0,,,,,,,,,,,
encoding,attention,2,10192548,10195561,10193036.0,10193250.0,215.0,215.0,1875.9,559.3,1920.0,1460.0,Object_Sea_Solid_Small,32.05236866697669,35.06503399997018,1.0,Object_Sea_Solid_Small,4.0,,,,,,,,,,,
encoding,attention,2,10192548,10195561,10193549.0,10193796.0,248.0,248.0,1892.0,493.70000000000005,,,none,32.05236866697669,35.06503399997018,1.0,Object_Sea_Solid_Small,4.0,,,,,,,,,,,
encoding,attention,2,10192548,10195561,10194120.0,10194554.0,435.0,435.0,1865.3,533.2,1920.0,1460.0,Object_Sea_Solid_Small,32.05236866697669,35.06503399997018,1.0,Object_Sea_Solid_Small,4.0,,,,,,,,,,,
encoding,attention,2,10192548,10195561,10195206.0,10195295.0,90.0,90.0,1935.3,332.20000000000005,,,none,32.05236866697669,35.06503399997018,1.0,Object_Sea_Solid_Small,4.0,,,,,,,,,,,
encoding,fixation,3,10195561,10197066,10195826.0,10196033.0,208.0,208.0,1906.9,1070.5,1920.0,1080.0,fixation,35.06517208297737,36.570477874949574,1.0,Object_Sea_Solid_Large,7.0,,,,,,,,,,,
encoding,fixation,3,10195561,10197066,10196057.0,10196082.0,26.0,26.0,1892.6,912.8,1920.0,1460.0,Object_Sea_Solid_Small,35.06517208297737,36.570477874949574,1.0,Object_Sea_Solid_Large,7.0,,,,,,,,,,,
encoding,fixation,3,10195561,10197066,10196260.0,10196439.0,180.0,180.0,1914.1,1030.0,1920.0,1080.0,fixation,35.06517208297737,36.570477874949574,1.0,Object_Sea_Solid_Large,7.0,,,,,,,,,,,
encoding,fixation,3,10195561,10197066,10196451.0,10196803.0,353.0,353.0,1913.8,1097.7,1920.0,1080.0,fixation,35.06517208297737,36.570477874949574,1.0,Object_Sea_Solid_Large,7.0,,,,,,,,,,,
encoding,image,3,10197067,10198079,10197520.0,10197702.0,183.0,183.0,1921.8,1159.5,1920.0,700.0,Animal_Land_Pattern_Large,36.57058241707273,37.58255095803179,1.0,Object_Sea_Solid_Large,7.0,,,,,,,,,,,
encoding,image,3,10197067,10198079,10197738.0,10198017.0,280.0,280.0,2252.4,1329.5,2249.0,891.0,Object_Sea_Solid_Large,36.57058241707273,37.58255095803179,1.0,Object_Sea_Solid_Large,7.0,,,,,,,,,,,
encoding,value,3,10198079,10204092,10198420.0,10198577.0,158.0,158.0,2037.6,1132.8,2249.0,891.0,Object_Sea_Solid_Large,37.58267216687091,43.595287249889225,1.0,Object_Sea_Solid_Large,7.0,,,,,,,,,,,
encoding,value,3,10198079,10204092,10198602.0,10199033.0,432.0,432.0,2237.4,1210.6,2249.0,891.0,Object_Sea_Solid_Large,37.58267216687091,43.595287249889225,1.0,Object_Sea_Solid_Large,7.0,,,,,,,,,,,
encoding,value,3,10198079,10204092,10199041.0,10199257.0,217.0,217.0,2264.5,1233.2,2249.0,891.0,Object_Sea_Solid_Large,37.58267216687091,43.595287249889225,1.0,Object_Sea_Solid_Large,7.0,,,,,,,,,,,
encoding,value,3,10198079,10204092,10199479.0,10199579.0,101.0,101.0,2151.8,1285.0,2249.0,891.0,Object_Sea_Solid_Large,37.58267216687091,43.595287249889225,1.0,Object_Sea_Solid_Large,7.0,,,,,,,,,,,
encoding,value,3,10198079,10204092,10199600.0,10201008.0,1409.0,1409.0,2239.6,1205.9,2249.0,891.0,Object_Sea_Solid_Large,37.58267216687091,43.595287249889225,1.0,Object_Sea_Solid_Large,7.0,,,,,,,,,,,
encoding,value,3,10198079,10204092,10201027.0,10201178.0,152.0,152.0,2193.9,1253.8,2249.0,891.0,Object_Sea_Solid_Large,37.58267216687091,43.595287249889225,1.0,Object_Sea_Solid_Large,7.0,,,,,,,,,,,
encoding,value,3,10198079,10204092,10201190.0,10201306.0,117.0,117.0,2247.9,1232.0,2249.0,891.0,Object_Sea_Solid_Large,37.58267216687091,43.595287249889225,1.0,Object_Sea_Solid_Large,7.0,,,,,,,,,,,
encoding,value,3,10198079,10204092,10201510.0,10201898.0,389.0,389.0,2232.5,1241.3,2249.0,891.0,Object_Sea_Solid_Large,37.58267216687091,43.595287249889225,1.0,Object_Sea_Solid_Large,7.0,,,,,,,,,,,
encoding,value,3,10198079,10204092,10201914.0,10202024.0,111.0,111.0,2135.5,1245.5,2249.0,891.0,Object_Sea_Solid_Large,37.58267216687091,43.595287249889225,1.0,Object_Sea_Solid_Large,7.0,,,,,,,,,,,
encoding,value,3,10198079,10204092,10202228.0,10202306.0,79.0,79.0,2166.0,1211.6,2249.0,891.0,Object_Sea_Solid_Large,37.58267216687091,43.595287249889225,1.0,Object_Sea_Solid_Large,7.0,,,,,,,,,,,
encoding,value,3,10198079,10204092,10202319.0,10202987.0,669.0,669.0,2229.4,1237.9,2249.0,891.0,Object_Sea_Solid_Large,37.58267216687091,43.595287249889225,1.0,Object_Sea_Solid_Large,7.0,,,,,,,,,,,
encoding,value,3,10198079,10204092,10203188.0,10204037.0,850.0,850.0,2234.3,1229.7,2249.0,891.0,Object_Sea_Solid_Large,37.58267216687091,43.595287249889225,1.0,Object_Sea_Solid_Large,7.0,,,,,,,,,,,
encoding,attention,3,10204092,10207111,10204226.0,10204589.0,364.0,364.0,2256.2,1236.2,2249.0,891.0,Object_Sea_Solid_Large,43.59542024997063,46.614228249993175,1.0,Object_Sea_Solid_Large,7.0,7.0,1.0,2.0789972918573767,,,,,,,,
encoding,attention,3,10204092,10207111,10204599.0,10204745.0,147.0,147.0,2205.3,1245.8,2249.0,891.0,Object_Sea_Solid_Large,43.59542024997063,46.614228249993175,1.0,Object_Sea_Solid_Large,7.0,7.0,1.0,2.0789972918573767,,,,,,,,
encoding,attention,3,10204092,10207111,10204965.0,10205111.0,147.0,147.0,2239.9,1227.5,2249.0,891.0,Object_Sea_Solid_Large,43.59542024997063,46.614228249993175,1.0,Object_Sea_Solid_Large,7.0,7.0,1.0,2.0789972918573767,,,,,,,,
encoding,attention,3,10204092,10207111,10205122.0,10205377.0,256.0,256.0,2287.2,1229.4,2249.0,891.0,Object_Sea_Solid_Large,43.59542024997063,46.614228249993175,1.0,Object_Sea_Solid_Large,7.0,7.0,1.0,2.0789972918573767,,,,,,,,
encoding,attention,3,10204092,10207111,10205579.0,10206777.0,1199.0,1199.0,2299.1,1244.1,2249.0,891.0,Object_Sea_Solid_Large,43.59542024997063,46.614228249993175,1.0,Object_Sea_Solid_Large,7.0,7.0,1.0,2.0789972918573767,,,,,,,,
encoding,fixation,4,10207111,10208366,10207551.0,10207603.0,53.0,53.0,1911.9,1024.6,1920.0,1080.0,fixation,46.61441216687672,47.869516582926735,1.0,Animal_Land_Pattern_Large,-3.0,,,,,,,,,,,
encoding,fixation,4,10207111,10208366,10207860.0,10208045.0,186.0,186.0,1319.5,1086.4,,,none,46.61441216687672,47.869516582926735,1.0,Animal_Land_Pattern_Large,-3.0,,,,,,,,,,,
encoding,image,4,10208366,10209379,10208419.0,10208550.0,132.0,132.0,1710.9,1205.7,1591.0,891.0,Animal_Land_Solid_Large,47.86963629187085,48.88218579185195,1.0,Animal_Land_Pattern_Large,-3.0,,,,,,,,,,,
encoding,image,4,10208366,10209379,10208586.0,10208877.0,292.0,292.0,1924.0,1415.3,1920.0,700.0,Animal_Land_Pattern_Large,47.86963629187085,48.88218579185195,1.0,Animal_Land_Pattern_Large,-3.0,,,,,,,,,,,
encoding,image,4,10208366,10209379,10209272.0,10209464.0,193.0,107.0,1792.3,1392.7,1920.0,700.0,Animal_Land_Pattern_Large,47.86963629187085,48.88218579185195,1.0,Animal_Land_Pattern_Large,-3.0,,,,,,,,,,,
encoding,value,4,10209379,10215391,10209481.0,10209636.0,156.0,156.0,1895.8,1435.9,1920.0,700.0,Animal_Land_Pattern_Large,48.88233337504789,54.89370391704142,1.0,Animal_Land_Pattern_Large,-3.0,,,,,,,,,,,
encoding,value,4,10209379,10215391,10209649.0,10210249.0,601.0,601.0,1911.1,1382.5,1920.0,700.0,Animal_Land_Pattern_Large,48.88233337504789,54.89370391704142,1.0,Animal_Land_Pattern_Large,-3.0,,,,,,,,,,,
encoding,value,4,10209379,10215391,10210471.0,10211252.0,782.0,782.0,1899.7,1402.2,1920.0,700.0,Animal_Land_Pattern_Large,48.88233337504789,54.89370391704142,1.0,Animal_Land_Pattern_Large,-3.0,,,,,,,,,,,
encoding,value,4,10209379,10215391,10211486.0,10213416.0,1931.0,1931.0,1889.5,1420.1,1920.0,700.0,Animal_Land_Pattern_Large,48.88233337504789,54.89370391704142,1.0,Animal_Land_Pattern_Large,-3.0,,,,,,,,,,,
encoding,value,4,10209379,10215391,10213639.0,10215239.0,1601.0,1601.0,1895.6,1408.1,1920.0,700.0,Animal_Land_Pattern_Large,48.88233337504789,54.89370391704142,1.0,Animal_Land_Pattern_Large,-3.0,,,,,,,,,,,
encoding,attention,4,10215391,10218409,10215649.0,10215987.0,339.0,339.0,1899.7,1398.8,1920.0,700.0,Animal_Land_Pattern_Large,54.89385062502697,57.912313082953915,1.0,Animal_Land_Pattern_Large,-3.0,-3.0,1.0,1.6072507910430431,,,,,,,,
encoding,attention,4,10215391,10218409,10216000.0,10216180.0,181.0,181.0,1836.4,1397.4,1920.0,700.0,Animal_Land_Pattern_Large,54.89385062502697,57.912313082953915,1.0,Animal_Land_Pattern_Large,-3.0,-3.0,1.0,1.6072507910430431,,,,,,,,
encoding,attention,4,10215391,10218409,10216191.0,10216335.0,145.0,145.0,1891.9,1391.5,1920.0,700.0,Animal_Land_Pattern_Large,54.89385062502697,57.912313082953915,1.0,Animal_Land_Pattern_Large,-3.0,-3.0,1.0,1.6072507910430431,,,,,,,,
encoding,attention,4,10215391,10218409,10216346.0,10216528.0,183.0,183.0,1945.6,1394.4,1920.0,700.0,Animal_Land_Pattern_Large,54.89385062502697,57.912313082953915,1.0,Animal_Land_Pattern_Large,-3.0,-3.0,1.0,1.6072507910430431,,,,,,,,
encoding,fixation,5,10218409,10218914,,,,,,,,,none,57.91246633301489,58.41739204199985,1.0,Object_Sea_Pattern_Small,-8.0,,,,,,,,,,,
encoding,image,5,10218914,10219926,10219383.0,10219486.0,104.0,104.0,1937.8,1244.7,1920.0,700.0,Animal_Land_Pattern_Large,58.41750391689129,59.429044416872784,1.0,Object_Sea_Pattern_Small,-8.0,,,,,,,,,,,
encoding,image,5,10218914,10219926,10219524.0,10219975.0,452.0,402.0,1535.8,947.2,1591.0,1269.0,Object_Sea_Pattern_Small,58.41750391689129,59.429044416872784,1.0,Object_Sea_Pattern_Small,-8.0,,,,,,,,,,,
encoding,value,5,10219926,10225939,10220220.0,10220305.0,86.0,86.0,1637.1,753.5999999999999,1591.0,1269.0,Object_Sea_Pattern_Small,59.42916620802134,65.44128250004724,1.0,Object_Sea_Pattern_Small,-8.0,,,,,,,,,,,
encoding,value,5,10219926,10225939,10220315.0,10221174.0,860.0,860.0,1557.8,806.9000000000001,1591.0,1269.0,Object_Sea_Pattern_Small,59.42916620802134,65.44128250004724,1.0,Object_Sea_Pattern_Small,-8.0,,,,,,,,,,,
encoding,value,5,10219926,10225939,10221194.0,10221317.0,124.0,124.0,1560.7,922.0999999999999,1591.0,1269.0,Object_Sea_Pattern_Small,59.42916620802134,65.44128250004724,1.0,Object_Sea_Pattern_Small,-8.0,,,,,,,,,,,
encoding,value,5,10219926,10225939,10221530.0,10221911.0,382.0,382.0,1554.3,912.5999999999999,1591.0,1269.0,Object_Sea_Pattern_Small,59.42916620802134,65.44128250004724,1.0,Object_Sea_Pattern_Small,-8.0,,,,,,,,,,,
encoding,value,5,10219926,10225939,10221932.0,10222749.0,818.0,818.0,1556.0,827.3,1591.0,1269.0,Object_Sea_Pattern_Small,59.42916620802134,65.44128250004724,1.0,Object_Sea_Pattern_Small,-8.0,,,,,,,,,,,
encoding,value,5,10219926,10225939,10222766.0,10222789.0,24.0,24.0,1548.3,894.4000000000001,1591.0,1269.0,Object_Sea_Pattern_Small,59.42916620802134,65.44128250004724,1.0,Object_Sea_Pattern_Small,-8.0,,,,,,,,,,,
encoding,value,5,10219926,10225939,10222996.0,10223265.0,270.0,270.0,1569.8,889.2,1591.0,1269.0,Object_Sea_Pattern_Small,59.42916620802134,65.44128250004724,1.0,Object_Sea_Pattern_Small,-8.0,,,,,,,,,,,
encoding,value,5,10219926,10225939,10223285.0,10224208.0,924.0,924.0,1565.1,824.0999999999999,1591.0,1269.0,Object_Sea_Pattern_Small,59.42916620802134,65.44128250004724,1.0,Object_Sea_Pattern_Small,-8.0,,,,,,,,,,,
encoding,value,5,10219926,10225939,10224221.0,10224510.0,290.0,290.0,1554.1,890.2,1591.0,1269.0,Object_Sea_Pattern_Small,59.42916620802134,65.44128250004724,1.0,Object_Sea_Pattern_Small,-8.0,,,,,,,,,,,
encoding,value,5,10219926,10225939,10224522.0,10224930.0,409.0,409.0,1574.3,844.5999999999999,1591.0,1269.0,Object_Sea_Pattern_Small,59.42916620802134,65.44128250004724,1.0,Object_Sea_Pattern_Small,-8.0,,,,,,,,,,,
encoding,value,5,10219926,10225939,10225134.0,10226226.0,1093.0,805.0,1553.0,805.8,1591.0,1269.0,Object_Sea_Pattern_Small,59.42916620802134,65.44128250004724,1.0,Object_Sea_Pattern_Small,-8.0,,,,,,,,,,,
encoding,attention,5,10225939,10229007,10226235.0,10226397.0,163.0,163.0,1605.6,824.5,1591.0,1269.0,Object_Sea_Pattern_Small,65.44139024987817,68.50952004198916,1.0,Object_Sea_Pattern_Small,-8.0,-8.0,1.0,1.096686917124316,,,,,,,,
encoding,attention,5,10225939,10229007,10226624.0,10228218.0,1595.0,1595.0,1612.2,747.5,1591.0,1269.0,Object_Sea_Pattern_Small,65.44139024987817,68.50952004198916,1.0,Object_Sea_Pattern_Small,-8.0,-8.0,1.0,1.096686917124316,,,,,,,,
encoding,attention,5,10225939,10229007,10228233.0,10228439.0,207.0,207.0,1553.8,850.0,1591.0,1269.0,Object_Sea_Pattern_Small,65.44139024987817,68.50952004198916,1.0,Object_Sea_Pattern_Small,-8.0,-8.0,1.0,1.096686917124316,,,,,,,,
encoding,fixation,6,10229007,10230013,10229040.0,10229139.0,100.0,100.0,1761.0,1145.2,1591.0,891.0,Animal_Land_Solid_Large,68.5096604169812,69.5151720000431,1.0,Animal_Land_Pattern_Small,3.0,,,,,,,,,,,
encoding,fixation,6,10229007,10230013,10229514.0,10229530.0,17.0,17.0,2111.4,1339.8,2249.0,891.0,Object_Sea_Solid_Large,68.5096604169812,69.5151720000431,1.0,Animal_Land_Pattern_Small,3.0,,,,,,,,,,,
encoding,fixation,6,10229007,10230013,10229729.0,10230182.0,454.0,284.0,1719.4,1331.9,1591.0,891.0,Animal_Land_Solid_Large,68.5096604169812,69.5151720000431,1.0,Animal_Land_Pattern_Small,3.0,,,,,,,,,,,
encoding,image,6,10230013,10231024,10230231.0,10230394.0,164.0,164.0,2151.9,971.5999999999999,2249.0,1269.0,Animal_Land_Pattern_Small,69.51527762506157,70.52616645791568,1.0,Animal_Land_Pattern_Small,3.0,,,,,,,,,,,
encoding,image,6,10230013,10231024,10230412.0,10230695.0,284.0,284.0,2231.0,916.5,2249.0,1269.0,Animal_Land_Pattern_Small,69.51527762506157,70.52616645791568,1.0,Animal_Land_Pattern_Small,3.0,,,,,,,,,,,
encoding,value,6,10231024,10237035,10231037.0,10231261.0,225.0,225.0,2141.0,896.3,2249.0,1269.0,Animal_Land_Pattern_Small,70.52627483289689,76.53742866707034,1.0,Animal_Land_Pattern_Small,3.0,,,,,,,,,,,
encoding,value,6,10231024,10237035,10231281.0,10231530.0,250.0,250.0,2223.5,819.8,2249.0,1269.0,Animal_Land_Pattern_Small,70.52627483289689,76.53742866707034,1.0,Animal_Land_Pattern_Small,3.0,,,,,,,,,,,
encoding,value,6,10231024,10237035,10231538.0,10231727.0,190.0,190.0,2175.5,815.8,2249.0,1269.0,Animal_Land_Pattern_Small,70.52627483289689,76.53742866707034,1.0,Animal_Land_Pattern_Small,3.0,,,,,,,,,,,
encoding,value,6,10231024,10237035,10231953.0,10232105.0,153.0,153.0,1940.7,641.0999999999999,1920.0,1460.0,Object_Sea_Solid_Small,70.52627483289689,76.53742866707034,1.0,Animal_Land_Pattern_Small,3.0,,,,,,,,,,,
encoding,value,6,10231024,10237035,10232134.0,10232312.0,179.0,179.0,1530.8,750.9000000000001,1591.0,1269.0,Object_Sea_Pattern_Small,70.52627483289689,76.53742866707034,1.0,Animal_Land_Pattern_Small,3.0,,,,,,,,,,,
encoding,value,6,10231024,10237035,10232574.0,10232704.0,131.0,131.0,931.7,859.0999999999999,,,none,70.52627483289689,76.53742866707034,1.0,Animal_Land_Pattern_Small,3.0,,,,,,,,,,,
encoding,value,6,10231024,10237035,10232780.0,10233160.0,381.0,381.0,2234.1,838.7,2249.0,1269.0,Animal_Land_Pattern_Small,70.52627483289689,76.53742866707034,1.0,Animal_Land_Pattern_Small,3.0,,,,,,,,,,,
encoding,value,6,10231024,10237035,10233406.0,10233774.0,369.0,369.0,1612.8,756.7,1591.0,1269.0,Object_Sea_Pattern_Small,70.52627483289689,76.53742866707034,1.0,Animal_Land_Pattern_Small,3.0,,,,,,,,,,,
encoding,value,6,10231024,10237035,10233829.0,10234424.0,596.0,596.0,2232.8,829.7,2249.0,1269.0,Animal_Land_Pattern_Small,70.52627483289689,76.53742866707034,1.0,Animal_Land_Pattern_Small,3.0,,,,,,,,,,,
encoding,value,6,10231024,10237035,10234435.0,10235275.0,841.0,841.0,2198.0,869.0999999999999,2249.0,1269.0,Animal_Land_Pattern_Small,70.52627483289689,76.53742866707034,1.0,Animal_Land_Pattern_Small,3.0,,,,,,,,,,,
encoding,value,6,10231024,10237035,10235468.0,10235912.0,445.0,445.0,2189.2,804.9000000000001,2249.0,1269.0,Animal_Land_Pattern_Small,70.52627483289689,76.53742866707034,1.0,Animal_Land_Pattern_Small,3.0,,,,,,,,,,,
encoding,value,6,10231024,10237035,10236112.0,10236660.0,549.0,549.0,2206.1,831.4000000000001,2249.0,1269.0,Animal_Land_Pattern_Small,70.52627483289689,76.53742866707034,1.0,Animal_Land_Pattern_Small,3.0,,,,,,,,,,,
encoding,value,6,10231024,10237035,10236844.0,10237037.0,194.0,191.0,2233.8,881.0999999999999,2249.0,1269.0,Animal_Land_Pattern_Small,70.52627483289689,76.53742866707034,1.0,Animal_Land_Pattern_Small,3.0,,,,,,,,,,,
encoding,attention,6,10237035,10240052,10237051.0,10237329.0,279.0,279.0,2216.8,842.2,2249.0,1269.0,Animal_Land_Pattern_Small,76.53753558290191,79.55461458303034,1.0,Animal_Land_Pattern_Small,3.0,3.0,1.0,0.8195283338427544,,,,,,,,
encoding,attention,6,10237035,10240052,10237338.0,10238336.0,999.0,999.0,2166.6,839.3,2249.0,1269.0,Animal_Land_Pattern_Small,76.53753558290191,79.55461458303034,1.0,Animal_Land_Pattern_Small,3.0,3.0,1.0,0.8195283338427544,,,,,,,,
encoding,attention,6,10237035,10240052,10238353.0,10238613.0,261.0,261.0,2217.2,884.9000000000001,2249.0,1269.0,Animal_Land_Pattern_Small,76.53753558290191,79.55461458303034,1.0,Animal_Land_Pattern_Small,3.0,3.0,1.0,0.8195283338427544,,,,,,,,
encoding,attention,6,10237035,10240052,10238637.0,10238720.0,84.0,84.0,2159.1,1037.4,2249.0,1269.0,Animal_Land_Pattern_Small,76.53753558290191,79.55461458303034,1.0,Animal_Land_Pattern_Small,3.0,3.0,1.0,0.8195283338427544,,,,,,,,
encoding,attention,6,10237035,10240052,10238748.0,10239401.0,654.0,654.0,2080.1,1260.0,2249.0,891.0,Object_Sea_Solid_Large,76.53753558290191,79.55461458303034,1.0,Animal_Land_Pattern_Small,3.0,3.0,1.0,0.8195283338427544,,,,,,,,
encoding,attention,6,10237035,10240052,10239427.0,10239702.0,276.0,276.0,1821.3,1253.6,1920.0,700.0,Animal_Land_Pattern_Large,76.53753558290191,79.55461458303034,1.0,Animal_Land_Pattern_Small,3.0,3.0,1.0,0.8195283338427544,,,,,,,,
encoding,attention,6,10237035,10240052,10239743.0,10239967.0,225.0,225.0,2212.0,856.0999999999999,2249.0,1269.0,Animal_Land_Pattern_Small,76.53753558290191,79.55461458303034,1.0,Animal_Land_Pattern_Small,3.0,3.0,1.0,0.8195283338427544,,,,,,,,
encoding,fixation,7,10859894,10860400,10859894.0,10860106.0,213.0,213.0,1862.3,920.5,1920.0,1460.0,Object_Land_Solid_Large,10.485396124888211,10.991175749804825,2.0,Object_Land_Solid_Large,-7.0,,,,,,,,,,,
encoding,fixation,7,10859894,10860400,10860136.0,10860227.0,92.0,92.0,1927.2,1137.3,1920.0,1080.0,fixation,10.485396124888211,10.991175749804825,2.0,Object_Land_Solid_Large,-7.0,,,,,,,,,,,
encoding,image,7,10860400,10861412,10860572.0,10860748.0,177.0,177.0,1772.6,1294.3,1591.0,891.0,Animal_Land_Solid_Large,10.991311999969184,12.002691624918953,2.0,Object_Land_Solid_Large,-7.0,,,,,,,,,,,
encoding,image,7,10860400,10861412,10860796.0,10861213.0,418.0,418.0,1893.9,738.2,1920.0,1460.0,Object_Land_Solid_Large,10.991311999969184,12.002691624918953,2.0,Object_Land_Solid_Large,-7.0,,,,,,,,,,,
encoding,image,7,10860400,10861412,10861227.0,10861559.0,333.0,185.0,1849.0,661.9000000000001,1920.0,1460.0,Object_Land_Solid_Large,10.991311999969184,12.002691624918953,2.0,Object_Land_Solid_Large,-7.0,,,,,,,,,,,
encoding,value,7,10861412,10867424,10861574.0,10861723.0,150.0,150.0,1948.7,636.5,1920.0,1460.0,Object_Land_Solid_Large,12.002812624908984,18.0147128328681,2.0,Object_Land_Solid_Large,-7.0,,,,,,,,,,,
encoding,value,7,10861412,10867424,10861964.0,10862377.0,414.0,414.0,1919.4,618.0999999999999,1920.0,1460.0,Object_Land_Solid_Large,12.002812624908984,18.0147128328681,2.0,Object_Land_Solid_Large,-7.0,,,,,,,,,,,
encoding,value,7,10861412,10867424,10862583.0,10862794.0,212.0,212.0,1929.7,567.0,1920.0,1460.0,Object_Land_Solid_Large,12.002812624908984,18.0147128328681,2.0,Object_Land_Solid_Large,-7.0,,,,,,,,,,,
encoding,value,7,10861412,10867424,10862814.0,10863452.0,639.0,639.0,1896.6,738.0999999999999,1920.0,1460.0,Object_Land_Solid_Large,12.002812624908984,18.0147128328681,2.0,Object_Land_Solid_Large,-7.0,,,,,,,,,,,
encoding,value,7,10861412,10867424,10863655.0,10864379.0,725.0,725.0,1920.3,598.5,1920.0,1460.0,Object_Land_Solid_Large,12.002812624908984,18.0147128328681,2.0,Object_Land_Solid_Large,-7.0,,,,,,,,,,,
encoding,value,7,10861412,10867424,10864576.0,10865376.0,801.0,801.0,1909.3,630.0,1920.0,1460.0,Object_Land_Solid_Large,12.002812624908984,18.0147128328681,2.0,Object_Land_Solid_Large,-7.0,,,,,,,,,,,
encoding,value,7,10861412,10867424,10865886.0,10866438.0,553.0,553.0,1890.5,630.2,1920.0,1460.0,Object_Land_Solid_Large,12.002812624908984,18.0147128328681,2.0,Object_Land_Solid_Large,-7.0,,,,,,,,,,,
encoding,value,7,10861412,10867424,10866899.0,10867685.0,787.0,525.0,1911.0,627.7,1920.0,1460.0,Object_Land_Solid_Large,12.002812624908984,18.0147128328681,2.0,Object_Land_Solid_Large,-7.0,,,,,,,,,,,
encoding,attention,7,10867424,10870443,10867694.0,10867877.0,184.0,184.0,1975.2,606.0999999999999,1920.0,1460.0,Object_Land_Solid_Large,18.01489229197614,21.03336695791222,2.0,Object_Land_Solid_Large,-7.0,-7.0,1.0,1.0485362499020994,,,,,,,,
encoding,attention,7,10867424,10870443,10867894.0,10868725.0,832.0,832.0,1862.7,610.4000000000001,1920.0,1460.0,Object_Land_Solid_Large,18.01489229197614,21.03336695791222,2.0,Object_Land_Solid_Large,-7.0,-7.0,1.0,1.0485362499020994,,,,,,,,
encoding,attention,7,10867424,10870443,10868945.0,10869841.0,897.0,897.0,1963.9,571.7,1920.0,1460.0,Object_Land_Solid_Large,18.01489229197614,21.03336695791222,2.0,Object_Land_Solid_Large,-7.0,-7.0,1.0,1.0485362499020994,,,,,,,,
encoding,attention,7,10867424,10870443,10869864.0,10870059.0,196.0,196.0,1805.7,716.8,1920.0,1460.0,Object_Land_Solid_Large,18.01489229197614,21.03336695791222,2.0,Object_Land_Solid_Large,-7.0,-7.0,1.0,1.0485362499020994,,,,,,,,
encoding,attention,7,10867424,10870443,10870075.0,10870316.0,242.0,242.0,1864.1,690.2,1920.0,1460.0,Object_Land_Solid_Large,18.01489229197614,21.03336695791222,2.0,Object_Land_Solid_Large,-7.0,-7.0,1.0,1.0485362499020994,,,,,,,,
encoding,fixation,8,10870443,10871948,10870706.0,10870735.0,30.0,30.0,1866.3,639.5,1920.0,1460.0,Object_Land_Solid_Large,21.03350849985145,22.53878604178317,2.0,Object_Sea_Pattern_Small,-9.0,,,,,,,,,,,
encoding,fixation,8,10870443,10871948,10870786.0,10870869.0,84.0,84.0,1932.4,1194.4,1920.0,700.0,Object_Land_Pattern_Small,21.03350849985145,22.53878604178317,2.0,Object_Sea_Pattern_Small,-9.0,,,,,,,,,,,
encoding,fixation,8,10870443,10871948,10871251.0,10871408.0,158.0,158.0,1908.1,1094.7,1920.0,1080.0,fixation,21.03350849985145,22.53878604178317,2.0,Object_Sea_Pattern_Small,-9.0,,,,,,,,,,,
encoding,fixation,8,10870443,10871948,10871481.0,10871672.0,192.0,192.0,1117.5,704.5999999999999,,,none,21.03350849985145,22.53878604178317,2.0,Object_Sea_Pattern_Small,-9.0,,,,,,,,,,,
encoding,fixation,8,10870443,10871948,10871935.0,10872042.0,108.0,13.0,1942.0,1172.6,1920.0,700.0,Object_Land_Pattern_Small,21.03350849985145,22.53878604178317,2.0,Object_Sea_Pattern_Small,-9.0,,,,,,,,,,,
encoding,image,8,10871948,10872959,10872051.0,10872113.0,63.0,63.0,1964.8,1151.5,2249.0,891.0,Animal_Sea_Solid_Small,22.538893124787137,23.549756082938984,2.0,Object_Sea_Pattern_Small,-9.0,,,,,,,,,,,
encoding,image,8,10871948,10872959,10872150.0,10872293.0,144.0,144.0,1553.0,998.2,1591.0,1269.0,Object_Sea_Pattern_Small,22.538893124787137,23.549756082938984,2.0,Object_Sea_Pattern_Small,-9.0,,,,,,,,,,,
encoding,image,8,10871948,10872959,10872309.0,10872510.0,202.0,202.0,1616.1,948.7,1591.0,1269.0,Object_Sea_Pattern_Small,22.538893124787137,23.549756082938984,2.0,Object_Sea_Pattern_Small,-9.0,,,,,,,,,,,
encoding,image,8,10871948,10872959,10872928.0,10873144.0,217.0,31.0,1590.9,931.0,1591.0,1269.0,Object_Sea_Pattern_Small,22.538893124787137,23.549756082938984,2.0,Object_Sea_Pattern_Small,-9.0,,,,,,,,,,,
encoding,value,8,10872959,10878971,10873161.0,10874549.0,1389.0,1389.0,1587.7,830.8,1591.0,1269.0,Object_Sea_Pattern_Small,23.549892166862264,29.561683332780376,2.0,Object_Sea_Pattern_Small,-9.0,,,,,,,,,,,
encoding,value,8,10872959,10878971,10874772.0,10875028.0,257.0,257.0,1573.5,751.4000000000001,1591.0,1269.0,Object_Sea_Pattern_Small,23.549892166862264,29.561683332780376,2.0,Object_Sea_Pattern_Small,-9.0,,,,,,,,,,,
encoding,value,8,10872959,10878971,10875234.0,10875484.0,251.0,251.0,1582.3,746.2,1591.0,1269.0,Object_Sea_Pattern_Small,23.549892166862264,29.561683332780376,2.0,Object_Sea_Pattern_Small,-9.0,,,,,,,,,,,
encoding,value,8,10872959,10878971,10875502.0,10875993.0,492.0,492.0,1607.5,906.4000000000001,1591.0,1269.0,Object_Sea_Pattern_Small,23.549892166862264,29.561683332780376,2.0,Object_Sea_Pattern_Small,-9.0,,,,,,,,,,,
encoding,value,8,10872959,10878971,10876010.0,10876192.0,183.0,183.0,1598.1,803.7,1591.0,1269.0,Object_Sea_Pattern_Small,23.549892166862264,29.561683332780376,2.0,Object_Sea_Pattern_Small,-9.0,,,,,,,,,,,
encoding,value,8,10872959,10878971,10876408.0,10876687.0,280.0,280.0,1591.4,745.2,1591.0,1269.0,Object_Sea_Pattern_Small,23.549892166862264,29.561683332780376,2.0,Object_Sea_Pattern_Small,-9.0,,,,,,,,,,,
encoding,value,8,10872959,10878971,10876917.0,10877267.0,351.0,351.0,1591.9,770.7,1591.0,1269.0,Object_Sea_Pattern_Small,23.549892166862264,29.561683332780376,2.0,Object_Sea_Pattern_Small,-9.0,,,,,,,,,,,
encoding,value,8,10872959,10878971,10877488.0,10877614.0,127.0,127.0,2100.0,1159.5,2249.0,891.0,Animal_Sea_Solid_Small,23.549892166862264,29.561683332780376,2.0,Object_Sea_Pattern_Small,-9.0,,,,,,,,,,,
encoding,value,8,10872959,10878971,10877635.0,10877823.0,189.0,189.0,1908.2,1132.6,1920.0,1080.0,fixation,23.549892166862264,29.561683332780376,2.0,Object_Sea_Pattern_Small,-9.0,,,,,,,,,,,
encoding,value,8,10872959,10878971,10877867.0,10878029.0,163.0,163.0,1580.4,822.5999999999999,1591.0,1269.0,Object_Sea_Pattern_Small,23.549892166862264,29.561683332780376,2.0,Object_Sea_Pattern_Small,-9.0,,,,,,,,,,,
encoding,value,8,10872959,10878971,10878678.0,10878842.0,165.0,165.0,1592.7,830.9000000000001,1591.0,1269.0,Object_Sea_Pattern_Small,23.549892166862264,29.561683332780376,2.0,Object_Sea_Pattern_Small,-9.0,,,,,,,,,,,
encoding,value,8,10872959,10878971,10878860.0,10879259.0,400.0,111.0,1601.2,919.3,1591.0,1269.0,Object_Sea_Pattern_Small,23.549892166862264,29.561683332780376,2.0,Object_Sea_Pattern_Small,-9.0,,,,,,,,,,,
encoding,attention,8,10878971,10881989,10879273.0,10880439.0,1167.0,1167.0,1640.0,826.2,1591.0,1269.0,Object_Sea_Pattern_Small,29.56181904184632,32.579290458001196,2.0,Object_Sea_Pattern_Small,-9.0,-9.0,1.0,1.1431779589038342,,,,,,,,
encoding,attention,8,10878971,10881989,10880642.0,10880700.0,59.0,59.0,1643.4,675.8,1591.0,1269.0,Object_Sea_Pattern_Small,29.56181904184632,32.579290458001196,2.0,Object_Sea_Pattern_Small,-9.0,-9.0,1.0,1.1431779589038342,,,,,,,,
encoding,attention,8,10878971,10881989,10880713.0,10881260.0,548.0,548.0,1595.3,884.9000000000001,1591.0,1269.0,Object_Sea_Pattern_Small,29.56181904184632,32.579290458001196,2.0,Object_Sea_Pattern_Small,-9.0,-9.0,1.0,1.1431779589038342,,,,,,,,
encoding,attention,8,10878971,10881989,10881446.0,10881774.0,329.0,329.0,1664.4,769.3,1591.0,1269.0,Object_Sea_Pattern_Small,29.56181904184632,32.579290458001196,2.0,Object_Sea_Pattern_Small,-9.0,-9.0,1.0,1.1431779589038342,,,,,,,,
encoding,fixation,9,10881989,10883244,10882050.0,10882173.0,124.0,124.0,1704.4,897.3,1591.0,1269.0,Object_Sea_Pattern_Small,32.57943295780569,33.834581499919295,2.0,Animal_Sea_Pattern_Large,3.0,,,,,,,,,,,
encoding,fixation,9,10881989,10883244,10882210.0,10882357.0,148.0,148.0,2015.4,1121.2,2249.0,891.0,Animal_Sea_Solid_Small,32.57943295780569,33.834581499919295,2.0,Animal_Sea_Pattern_Large,3.0,,,,,,,,,,,
encoding,fixation,9,10881989,10883244,10882370.0,10882735.0,366.0,366.0,1944.0,1114.0,1920.0,1080.0,fixation,32.57943295780569,33.834581499919295,2.0,Animal_Sea_Pattern_Large,3.0,,,,,,,,,,,
encoding,fixation,9,10881989,10883244,10883010.0,10883214.0,205.0,205.0,2754.7,784.5999999999999,,,none,32.57943295780569,33.834581499919295,2.0,Animal_Sea_Pattern_Large,3.0,,,,,,,,,,,
encoding,fixation,9,10881989,10883244,10883244.0,10883399.0,156.0,0.0,2857.8,570.5999999999999,,,none,32.57943295780569,33.834581499919295,2.0,Animal_Sea_Pattern_Large,3.0,,,,,,,,,,,
encoding,image,9,10883244,10884255,10883244.0,10883399.0,156.0,156.0,2857.8,570.5999999999999,,,none,33.83468220778741,34.84471445786767,2.0,Animal_Sea_Pattern_Large,3.0,,,,,,,,,,,
encoding,image,9,10883244,10884255,10883414.0,10883472.0,59.0,59.0,2766.5,568.0,,,none,33.83468220778741,34.84471445786767,2.0,Animal_Sea_Pattern_Large,3.0,,,,,,,,,,,
encoding,image,9,10883244,10884255,10883517.0,10883682.0,166.0,166.0,2248.0,851.5999999999999,2249.0,1269.0,Animal_Sea_Pattern_Large,33.83468220778741,34.84471445786767,2.0,Animal_Sea_Pattern_Large,3.0,,,,,,,,,,,
encoding,image,9,10883244,10884255,10883698.0,10883807.0,110.0,110.0,2235.5,918.5,2249.0,1269.0,Animal_Sea_Pattern_Large,33.83468220778741,34.84471445786767,2.0,Animal_Sea_Pattern_Large,3.0,,,,,,,,,,,
encoding,value,9,10884255,10890266,10884297.0,10884443.0,147.0,147.0,1810.0,912.2,1591.0,1269.0,Object_Sea_Pattern_Small,34.84482291690074,40.856189999962226,2.0,Animal_Sea_Pattern_Large,3.0,,,,,,,,,,,
encoding,value,9,10884255,10890266,10884484.0,10884925.0,442.0,442.0,2242.4,823.0,2249.0,1269.0,Animal_Sea_Pattern_Large,34.84482291690074,40.856189999962226,2.0,Animal_Sea_Pattern_Large,3.0,,,,,,,,,,,
encoding,value,9,10884255,10890266,10885096.0,10885620.0,525.0,525.0,2192.6,929.2,2249.0,1269.0,Animal_Sea_Pattern_Large,34.84482291690074,40.856189999962226,2.0,Animal_Sea_Pattern_Large,3.0,,,,,,,,,,,
encoding,value,9,10884255,10890266,10885641.0,10886454.0,814.0,814.0,2240.4,825.3,2249.0,1269.0,Animal_Sea_Pattern_Large,34.84482291690074,40.856189999962226,2.0,Animal_Sea_Pattern_Large,3.0,,,,,,,,,,,
encoding,value,9,10884255,10890266,10886654.0,10886735.0,82.0,82.0,2175.5,736.8,2249.0,1269.0,Animal_Sea_Pattern_Large,34.84482291690074,40.856189999962226,2.0,Animal_Sea_Pattern_Large,3.0,,,,,,,,,,,
encoding,value,9,10884255,10890266,10886744.0,10887898.0,1155.0,1155.0,2222.7,831.2,2249.0,1269.0,Animal_Sea_Pattern_Large,34.84482291690074,40.856189999962226,2.0,Animal_Sea_Pattern_Large,3.0,,,,,,,,,,,
encoding,value,9,10884255,10890266,10887906.0,10888554.0,649.0,649.0,2228.2,844.8,2249.0,1269.0,Animal_Sea_Pattern_Large,34.84482291690074,40.856189999962226,2.0,Animal_Sea_Pattern_Large,3.0,,,,,,,,,,,
encoding,value,9,10884255,10890266,10888765.0,10888806.0,42.0,42.0,2116.0,777.9000000000001,2249.0,1269.0,Animal_Sea_Pattern_Large,34.84482291690074,40.856189999962226,2.0,Animal_Sea_Pattern_Large,3.0,,,,,,,,,,,
encoding,value,9,10884255,10890266,10888985.0,10889369.0,385.0,385.0,2235.6,840.7,2249.0,1269.0,Animal_Sea_Pattern_Large,34.84482291690074,40.856189999962226,2.0,Animal_Sea_Pattern_Large,3.0,,,,,,,,,,,
encoding,value,9,10884255,10890266,10889804.0,10890533.0,730.0,462.0,2223.3,847.9000000000001,2249.0,1269.0,Animal_Sea_Pattern_Large,34.84482291690074,40.856189999962226,2.0,Animal_Sea_Pattern_Large,3.0,,,,,,,,,,,
encoding,attention,9,10890266,10893284,10890547.0,10891989.0,1443.0,1443.0,2296.9,833.5999999999999,2249.0,1269.0,Animal_Sea_Pattern_Large,40.85630808281712,43.87348541687243,2.0,Animal_Sea_Pattern_Large,3.0,3.0,1.0,0.5613334171939641,,,,,,,,
encoding,attention,9,10890266,10893284,10892007.0,10892256.0,250.0,250.0,2232.1,883.5,2249.0,1269.0,Animal_Sea_Pattern_Large,40.85630808281712,43.87348541687243,2.0,Animal_Sea_Pattern_Large,3.0,3.0,1.0,0.5613334171939641,,,,,,,,
encoding,attention,9,10890266,10893284,10892272.0,10892425.0,154.0,154.0,2292.5,830.8,2249.0,1269.0,Animal_Sea_Pattern_Large,40.85630808281712,43.87348541687243,2.0,Animal_Sea_Pattern_Large,3.0,3.0,1.0,0.5613334171939641,,,,,,,,
encoding,fixation,10,10893284,10893789,10893538.0,10893675.0,138.0,138.0,1939.8,1061.4,1920.0,1080.0,fixation,43.87363995797932,44.37878920789808,2.0,Animal_Sea_Solid_Small,1.0,,,,,,,,,,,
encoding,fixation,10,10893284,10893789,10893686.0,10893869.0,184.0,103.0,1958.0,1106.8,1920.0,1080.0,fixation,43.87363995797932,44.37878920789808,2.0,Animal_Sea_Solid_Small,1.0,,,,,,,,,,,
encoding,image,10,10893789,10894800,10894062.0,10894394.0,333.0,333.0,2260.2,1260.6,2249.0,891.0,Animal_Sea_Solid_Small,44.37889012484811,45.38971162494272,2.0,Animal_Sea_Solid_Small,1.0,,,,,,,,,,,
encoding,image,10,10893789,10894800,10894420.0,10894669.0,250.0,250.0,1951.4,1194.3,1920.0,700.0,Object_Land_Pattern_Small,44.37889012484811,45.38971162494272,2.0,Animal_Sea_Solid_Small,1.0,,,,,,,,,,,
encoding,value,10,10894800,10900812,10894947.0,10895041.0,95.0,95.0,2257.2,1290.9,2249.0,891.0,Animal_Sea_Solid_Small,45.38981737499125,51.40120308287442,2.0,Animal_Sea_Solid_Small,1.0,,,,,,,,,,,
encoding,value,10,10894800,10900812,10895054.0,10895335.0,282.0,282.0,2263.4,1231.2,2249.0,891.0,Animal_Sea_Solid_Small,45.38981737499125,51.40120308287442,2.0,Animal_Sea_Solid_Small,1.0,,,,,,,,,,,
encoding,value,10,10894800,10900812,10895732.0,10895935.0,204.0,204.0,2237.8,1244.6,2249.0,891.0,Animal_Sea_Solid_Small,45.38981737499125,51.40120308287442,2.0,Animal_Sea_Solid_Small,1.0,,,,,,,,,,,
encoding,value,10,10894800,10900812,10896188.0,10896334.0,147.0,147.0,2198.1,1340.8,2249.0,891.0,Animal_Sea_Solid_Small,45.38981737499125,51.40120308287442,2.0,Animal_Sea_Solid_Small,1.0,,,,,,,,,,,
encoding,value,10,10894800,10900812,10896350.0,10896739.0,390.0,390.0,2271.1,1318.9,2249.0,891.0,Animal_Sea_Solid_Small,45.38981737499125,51.40120308287442,2.0,Animal_Sea_Solid_Small,1.0,,,,,,,,,,,
encoding,value,10,10894800,10900812,10896966.0,10897069.0,104.0,104.0,2144.0,1301.5,2249.0,891.0,Animal_Sea_Solid_Small,45.38981737499125,51.40120308287442,2.0,Animal_Sea_Solid_Small,1.0,,,,,,,,,,,
encoding,value,10,10894800,10900812,10897089.0,10897298.0,210.0,210.0,2279.1,1309.3,2249.0,891.0,Animal_Sea_Solid_Small,45.38981737499125,51.40120308287442,2.0,Animal_Sea_Solid_Small,1.0,,,,,,,,,,,
encoding,value,10,10894800,10900812,10897875.0,10898125.0,251.0,251.0,1961.9,1296.0,1920.0,700.0,Object_Land_Pattern_Small,45.38981737499125,51.40120308287442,2.0,Animal_Sea_Solid_Small,1.0,,,,,,,,,,,
encoding,value,10,10894800,10900812,10898188.0,10898396.0,209.0,209.0,1193.9,1162.6,,,none,45.38981737499125,51.40120308287442,2.0,Animal_Sea_Solid_Small,1.0,,,,,,,,,,,
encoding,value,10,10894800,10900812,10898463.0,10898603.0,141.0,141.0,2188.3,1251.1,2249.0,891.0,Animal_Sea_Solid_Small,45.38981737499125,51.40120308287442,2.0,Animal_Sea_Solid_Small,1.0,,,,,,,,,,,
encoding,value,10,10894800,10900812,10898619.0,10898759.0,141.0,141.0,2275.8,1228.7,2249.0,891.0,Animal_Sea_Solid_Small,45.38981737499125,51.40120308287442,2.0,Animal_Sea_Solid_Small,1.0,,,,,,,,,,,
encoding,value,10,10894800,10900812,10899330.0,10899548.0,219.0,219.0,2238.2,1197.1,2249.0,891.0,Animal_Sea_Solid_Small,45.38981737499125,51.40120308287442,2.0,Animal_Sea_Solid_Small,1.0,,,,,,,,,,,
encoding,value,10,10894800,10900812,10899603.0,10899897.0,295.0,295.0,1632.0,841.0999999999999,1591.0,1269.0,Object_Sea_Pattern_Small,45.38981737499125,51.40120308287442,2.0,Animal_Sea_Solid_Small,1.0,,,,,,,,,,,
encoding,value,10,10894800,10900812,10900368.0,10900525.0,158.0,158.0,2309.9,1238.4,2249.0,891.0,Animal_Sea_Solid_Small,45.38981737499125,51.40120308287442,2.0,Animal_Sea_Solid_Small,1.0,,,,,,,,,,,
encoding,value,10,10894800,10900812,10900538.0,10900742.0,205.0,205.0,2226.5,1218.2,2249.0,891.0,Animal_Sea_Solid_Small,45.38981737499125,51.40120308287442,2.0,Animal_Sea_Solid_Small,1.0,,,,,,,,,,,
encoding,attention,10,10900812,10903830,10900944.0,10901130.0,187.0,187.0,1500.8,770.0999999999999,1591.0,1269.0,Object_Sea_Pattern_Small,51.40130470786244,54.41942983283661,2.0,Animal_Sea_Solid_Small,1.0,1.0,1.0,1.467051750048995,,,,,,,,
encoding,attention,10,10900812,10903830,10901471.0,10901620.0,150.0,150.0,2324.4,1216.6,2249.0,891.0,Animal_Sea_Solid_Small,51.40130470786244,54.41942983283661,2.0,Animal_Sea_Solid_Small,1.0,1.0,1.0,1.467051750048995,,,,,,,,
encoding,attention,10,10900812,10903830,10901637.0,10901937.0,301.0,301.0,2213.1,1227.6,2249.0,891.0,Animal_Sea_Solid_Small,51.40130470786244,54.41942983283661,2.0,Animal_Sea_Solid_Small,1.0,1.0,1.0,1.467051750048995,,,,,,,,
encoding,attention,10,10900812,10903830,10901954.0,10902547.0,594.0,594.0,2319.4,1231.1,2249.0,891.0,Animal_Sea_Solid_Small,51.40130470786244,54.41942983283661,2.0,Animal_Sea_Solid_Small,1.0,1.0,1.0,1.467051750048995,,,,,,,,
encoding,attention,10,10900812,10903830,10902562.0,10902821.0,260.0,260.0,2289.2,1262.8,2249.0,891.0,Animal_Sea_Solid_Small,51.40130470786244,54.41942983283661,2.0,Animal_Sea_Solid_Small,1.0,1.0,1.0,1.467051750048995,,,,,,,,
encoding,fixation,11,10903830,10904835,10904037.0,10904111.0,75.0,75.0,1887.4,1171.7,1920.0,700.0,Object_Land_Pattern_Small,54.41958508291282,55.42466204194352,2.0,Object_Land_Pattern_Small,7.0,,,,,,,,,,,
encoding,fixation,11,10903830,10904835,10904621.0,10904794.0,174.0,174.0,2034.9,1247.4,2249.0,891.0,Animal_Sea_Solid_Small,54.41958508291282,55.42466204194352,2.0,Object_Land_Pattern_Small,7.0,,,,,,,,,,,
encoding,image,11,10904835,10905847,10904846.0,10905017.0,172.0,172.0,1603.9,897.8,1591.0,1269.0,Object_Sea_Pattern_Small,55.42475791694597,56.43619549996219,2.0,Object_Land_Pattern_Small,7.0,,,,,,,,,,,
encoding,image,11,10904835,10905847,10905055.0,10905165.0,111.0,111.0,1918.2,1241.5,1920.0,700.0,Object_Land_Pattern_Small,55.42475791694597,56.43619549996219,2.0,Object_Land_Pattern_Small,7.0,,,,,,,,,,,
encoding,image,11,10904835,10905847,10905188.0,10905370.0,183.0,183.0,1951.4,1382.8,1920.0,700.0,Object_Land_Pattern_Small,55.42475791694597,56.43619549996219,2.0,Object_Land_Pattern_Small,7.0,,,,,,,,,,,
encoding,image,11,10904835,10905847,10905564.0,10906017.0,454.0,283.0,1904.4,1446.3,1920.0,700.0,Object_Land_Pattern_Small,55.42475791694597,56.43619549996219,2.0,Object_Land_Pattern_Small,7.0,,,,,,,,,,,
encoding,value,11,10905847,10911859,10906030.0,10906282.0,253.0,253.0,1935.9,1393.7,1920.0,700.0,Object_Land_Pattern_Small,56.43629629188217,62.4475795829203,2.0,Object_Land_Pattern_Small,7.0,,,,,,,,,,,
encoding,value,11,10905847,10911859,10906550.0,10907466.0,917.0,917.0,1941.7,1389.9,1920.0,700.0,Object_Land_Pattern_Small,56.43629629188217,62.4475795829203,2.0,Object_Land_Pattern_Small,7.0,,,,,,,,,,,
encoding,value,11,10905847,10911859,10907649.0,10908572.0,924.0,924.0,1947.4,1363.2,1920.0,700.0,Object_Land_Pattern_Small,56.43629629188217,62.4475795829203,2.0,Object_Land_Pattern_Small,7.0,,,,,,,,,,,
encoding,value,11,10905847,10911859,10908798.0,10909264.0,467.0,467.0,1904.3,1375.8,1920.0,700.0,Object_Land_Pattern_Small,56.43629629188217,62.4475795829203,2.0,Object_Land_Pattern_Small,7.0,,,,,,,,,,,
encoding,value,11,10905847,10911859,10909276.0,10909689.0,414.0,414.0,1941.6,1393.0,1920.0,700.0,Object_Land_Pattern_Small,56.43629629188217,62.4475795829203,2.0,Object_Land_Pattern_Small,7.0,,,,,,,,,,,
encoding,value,11,10905847,10911859,10909947.0,10910020.0,74.0,74.0,1950.6,1279.2,1920.0,700.0,Object_Land_Pattern_Small,56.43629629188217,62.4475795829203,2.0,Object_Land_Pattern_Small,7.0,,,,,,,,,,,
encoding,value,11,10905847,10911859,10910279.0,10910569.0,291.0,291.0,1900.0,1396.2,1920.0,700.0,Object_Land_Pattern_Small,56.43629629188217,62.4475795829203,2.0,Object_Land_Pattern_Small,7.0,,,,,,,,,,,
encoding,value,11,10905847,10911859,10911287.0,10912089.0,803.0,572.0,1920.2,1394.3,1920.0,700.0,Object_Land_Pattern_Small,56.43629629188217,62.4475795829203,2.0,Object_Land_Pattern_Small,7.0,,,,,,,,,,,
encoding,attention,11,10911859,10914876,10912102.0,10913300.0,1199.0,1199.0,1970.2,1404.5,1920.0,700.0,Object_Land_Pattern_Small,62.447710749926046,65.4649954168126,2.0,Object_Land_Pattern_Small,7.0,7.0,1.0,0.6086630830541253,,,,,,,,
encoding,attention,11,10911859,10914876,10913827.0,10914456.0,630.0,630.0,1887.7,1387.5,1920.0,700.0,Object_Land_Pattern_Small,62.447710749926046,65.4649954168126,2.0,Object_Land_Pattern_Small,7.0,7.0,1.0,0.6086630830541253,,,,,,,,
encoding,attention,11,10911859,10914876,10914523.0,10914770.0,248.0,248.0,1188.9,1091.0,,,none,62.447710749926046,65.4649954168126,2.0,Object_Land_Pattern_Small,7.0,7.0,1.0,0.6086630830541253,,,,,,,,
encoding,fixation,12,10914876,10916381,10915386.0,10915647.0,262.0,262.0,1403.7,510.5,,,none,65.46513749985024,66.97026041685604,2.0,Animal_Land_Solid_Large,-7.0,,,,,,,,,,,
encoding,fixation,12,10914876,10916381,10915691.0,10915887.0,197.0,197.0,1045.6,228.29999999999995,,,none,65.46513749985024,66.97026041685604,2.0,Animal_Land_Solid_Large,-7.0,,,,,,,,,,,
encoding,fixation,12,10914876,10916381,10916189.0,10916581.0,393.0,192.0,2780.3,697.0999999999999,,,none,65.46513749985024,66.97026041685604,2.0,Animal_Land_Solid_Large,-7.0,,,,,,,,,,,
encoding,image,12,10916382,10917393,10916649.0,10916867.0,219.0,219.0,1698.2,1033.4,1591.0,1269.0,Object_Sea_Pattern_Small,66.9703844578471,67.98209037492052,2.0,Animal_Land_Solid_Large,-7.0,,,,,,,,,,,
encoding,image,12,10916382,10917393,10917068.0,10917267.0,200.0,200.0,1618.4,1110.9,1591.0,891.0,Animal_Land_Solid_Large,66.9703844578471,67.98209037492052,2.0,Animal_Land_Solid_Large,-7.0,,,,,,,,,,,
encoding,value,12,10917394,10923405,10917440.0,10917673.0,234.0,234.0,1124.1,806.7,,,none,67.98220649990253,73.99381224997342,2.0,Animal_Land_Solid_Large,-7.0,,,,,,,,,,,
encoding,value,12,10917394,10923405,10917726.0,10917778.0,53.0,53.0,1548.4,1081.6,1591.0,891.0,Animal_Land_Solid_Large,67.98220649990253,73.99381224997342,2.0,Animal_Land_Solid_Large,-7.0,,,,,,,,,,,
encoding,value,12,10917394,10923405,10917985.0,10918614.0,630.0,630.0,1643.8,1233.1,1591.0,891.0,Animal_Land_Solid_Large,67.98220649990253,73.99381224997342,2.0,Animal_Land_Solid_Large,-7.0,,,,,,,,,,,
encoding,value,12,10917394,10923405,10918626.0,10918905.0,280.0,280.0,1593.8,1292.4,1591.0,891.0,Animal_Land_Solid_Large,67.98220649990253,73.99381224997342,2.0,Animal_Land_Solid_Large,-7.0,,,,,,,,,,,
encoding,value,12,10917394,10923405,10918920.0,10919151.0,232.0,232.0,1641.1,1246.0,1591.0,891.0,Animal_Land_Solid_Large,67.98220649990253,73.99381224997342,2.0,Animal_Land_Solid_Large,-7.0,,,,,,,,,,,
encoding,value,12,10917394,10923405,10919680.0,10920268.0,589.0,589.0,1625.9,1207.1,1591.0,891.0,Animal_Land_Solid_Large,67.98220649990253,73.99381224997342,2.0,Animal_Land_Solid_Large,-7.0,,,,,,,,,,,
encoding,value,12,10917394,10923405,10920473.0,10920690.0,218.0,218.0,1621.1,1172.3,1591.0,891.0,Animal_Land_Solid_Large,67.98220649990253,73.99381224997342,2.0,Animal_Land_Solid_Large,-7.0,,,,,,,,,,,
encoding,value,12,10917394,10923405,10920698.0,10921218.0,521.0,521.0,1634.3,1198.7,1591.0,891.0,Animal_Land_Solid_Large,67.98220649990253,73.99381224997342,2.0,Animal_Land_Solid_Large,-7.0,,,,,,,,,,,
encoding,value,12,10917394,10923405,10921412.0,10921792.0,381.0,381.0,1616.3,1206.2,1591.0,891.0,Animal_Land_Solid_Large,67.98220649990253,73.99381224997342,2.0,Animal_Land_Solid_Large,-7.0,,,,,,,,,,,
encoding,value,12,10917394,10923405,10922014.0,10922601.0,588.0,588.0,1616.6,1198.3,1591.0,891.0,Animal_Land_Solid_Large,67.98220649990253,73.99381224997342,2.0,Animal_Land_Solid_Large,-7.0,,,,,,,,,,,
encoding,value,12,10917394,10923405,10922806.0,10922891.0,86.0,86.0,1786.1,1464.1,1920.0,700.0,Object_Land_Pattern_Small,67.98220649990253,73.99381224997342,2.0,Animal_Land_Solid_Large,-7.0,,,,,,,,,,,
encoding,value,12,10917394,10923405,10922918.0,10923275.0,358.0,358.0,1622.6,1232.8,1591.0,891.0,Animal_Land_Solid_Large,67.98220649990253,73.99381224997342,2.0,Animal_Land_Solid_Large,-7.0,,,,,,,,,,,
encoding,value,12,10917394,10923405,10923295.0,10923461.0,167.0,110.0,1630.4,1319.1,1591.0,891.0,Animal_Land_Solid_Large,67.98220649990253,73.99381224997342,2.0,Animal_Land_Solid_Large,-7.0,,,,,,,,,,,
encoding,attention,12,10923405,10926424,10923479.0,10923747.0,269.0,269.0,1634.2,1329.7,1591.0,891.0,Animal_Land_Solid_Large,73.99392445781268,77.0119756248314,2.0,Animal_Land_Solid_Large,-7.0,-7.0,1.0,1.102865541120991,,,,,,,,
encoding,attention,12,10923405,10926424,10923765.0,10924031.0,267.0,267.0,1646.0,1250.5,1591.0,891.0,Animal_Land_Solid_Large,73.99392445781268,77.0119756248314,2.0,Animal_Land_Solid_Large,-7.0,-7.0,1.0,1.102865541120991,,,,,,,,
encoding,attention,12,10923405,10926424,10924258.0,10924767.0,510.0,510.0,1523.7,1194.5,1591.0,891.0,Animal_Land_Solid_Large,73.99392445781268,77.0119756248314,2.0,Animal_Land_Solid_Large,-7.0,-7.0,1.0,1.102865541120991,,,,,,,,
encoding,attention,12,10923405,10926424,10924991.0,10925912.0,922.0,922.0,1533.6,1238.9,1591.0,891.0,Animal_Land_Solid_Large,73.99392445781268,77.0119756248314,2.0,Animal_Land_Solid_Large,-7.0,-7.0,1.0,1.102865541120991,,,,,,,,
encoding,fixation,13,11343971,11345228,11344028.0,11344245.0,218.0,218.0,2076.2,1239.2,2249.0,891.0,Object_Land_Pattern_Large,6.397015624912456,7.6540971249341965,3.0,Object_Sea_Pattern_Large,-9.0,,,,,,,,,,,
encoding,fixation,13,11343971,11345228,11344443.0,11344497.0,55.0,55.0,1712.8,1008.0999999999999,1591.0,1269.0,Animal_Sea_Solid_Large,6.397015624912456,7.6540971249341965,3.0,Object_Sea_Pattern_Large,-9.0,,,,,,,,,,,
encoding,fixation,13,11343971,11345228,11344697.0,11344928.0,232.0,232.0,2113.7,1004.5,2249.0,1269.0,Object_Land_Solid_Small,6.397015624912456,7.6540971249341965,3.0,Object_Sea_Pattern_Large,-9.0,,,,,,,,,,,
encoding,fixation,13,11343971,11345228,11344951.0,11345142.0,192.0,192.0,1912.4,1089.6,1920.0,1080.0,fixation,6.397015624912456,7.6540971249341965,3.0,Object_Sea_Pattern_Large,-9.0,,,,,,,,,,,
encoding,fixation,13,11343971,11345228,11345155.0,11345375.0,221.0,73.0,1926.5,1147.1,1920.0,1080.0,fixation,6.397015624912456,7.6540971249341965,3.0,Object_Sea_Pattern_Large,-9.0,,,,,,,,,,,
encoding,image,13,11345228,11346242,11345405.0,11345656.0,252.0,252.0,1927.3,1437.5,1920.0,700.0,Object_Sea_Pattern_Large,7.6542658330872655,8.667696458054706,3.0,Object_Sea_Pattern_Large,-9.0,,,,,,,,,,,
encoding,image,13,11345228,11346242,11345871.0,11346319.0,449.0,371.0,1879.0,1391.6,1920.0,700.0,Object_Sea_Pattern_Large,7.6542658330872655,8.667696458054706,3.0,Object_Sea_Pattern_Large,-9.0,,,,,,,,,,,
encoding,value,13,11346242,11352257,11346335.0,11346496.0,162.0,162.0,1897.5,1329.6,1920.0,700.0,Object_Sea_Pattern_Large,8.667805291945115,14.68318795808591,3.0,Object_Sea_Pattern_Large,-9.0,,,,,,,,,,,
encoding,value,13,11346242,11352257,11346513.0,11346640.0,128.0,128.0,1927.0,1397.6,1920.0,700.0,Object_Sea_Pattern_Large,8.667805291945115,14.68318795808591,3.0,Object_Sea_Pattern_Large,-9.0,,,,,,,,,,,
encoding,value,13,11346242,11352257,11346857.0,11348851.0,1995.0,1995.0,1920.4,1380.8,1920.0,700.0,Object_Sea_Pattern_Large,8.667805291945115,14.68318795808591,3.0,Object_Sea_Pattern_Large,-9.0,,,,,,,,,,,
encoding,value,13,11346242,11352257,11349067.0,11349762.0,696.0,696.0,1913.7,1382.7,1920.0,700.0,Object_Sea_Pattern_Large,8.667805291945115,14.68318795808591,3.0,Object_Sea_Pattern_Large,-9.0,,,,,,,,,,,
encoding,value,13,11346242,11352257,11350444.0,11350971.0,528.0,528.0,1909.5,1378.6,1920.0,700.0,Object_Sea_Pattern_Large,8.667805291945115,14.68318795808591,3.0,Object_Sea_Pattern_Large,-9.0,,,,,,,,,,,
encoding,value,13,11346242,11352257,11351553.0,11351672.0,120.0,120.0,1953.6,1352.3,1920.0,700.0,Object_Sea_Pattern_Large,8.667805291945115,14.68318795808591,3.0,Object_Sea_Pattern_Large,-9.0,,,,,,,,,,,
encoding,value,13,11346242,11352257,11351724.0,11351890.0,167.0,167.0,2109.7,753.3,2249.0,1269.0,Object_Land_Solid_Small,8.667805291945115,14.68318795808591,3.0,Object_Sea_Pattern_Large,-9.0,,,,,,,,,,,
encoding,attention,13,11352257,11355277,11352470.0,11353582.0,1113.0,1113.0,1981.6,1382.1,1920.0,700.0,Object_Sea_Pattern_Large,14.683329458115622,17.702304374892265,3.0,Object_Sea_Pattern_Large,-9.0,-9.0,1.0,0.9426302080973984,,,,,,,,
encoding,attention,13,11352257,11355277,11353598.0,11354428.0,831.0,831.0,1882.9,1380.0,1920.0,700.0,Object_Sea_Pattern_Large,14.683329458115622,17.702304374892265,3.0,Object_Sea_Pattern_Large,-9.0,-9.0,1.0,0.9426302080973984,,,,,,,,
encoding,attention,13,11352257,11355277,11354445.0,11354491.0,47.0,47.0,1998.5,1417.9,1920.0,700.0,Object_Sea_Pattern_Large,14.683329458115622,17.702304374892265,3.0,Object_Sea_Pattern_Large,-9.0,-9.0,1.0,0.9426302080973984,,,,,,,,
encoding,attention,13,11352257,11355277,11354566.0,11354609.0,44.0,44.0,2069.2,387.4000000000001,,,none,14.683329458115622,17.702304374892265,3.0,Object_Sea_Pattern_Large,-9.0,-9.0,1.0,0.9426302080973984,,,,,,,,
encoding,fixation,14,11355277,11356032,11355527.0,11355684.0,158.0,158.0,1922.7,1129.9,1920.0,1080.0,fixation,17.702451542019844,18.45770391705446,3.0,Object_Land_Solid_Small,-3.0,,,,,,,,,,,
encoding,fixation,14,11355277,11356032,11355986.0,11356188.0,203.0,46.0,1780.7,1157.4,1591.0,891.0,Animal_Sea_Pattern_Small,17.702451542019844,18.45770391705446,3.0,Object_Land_Solid_Small,-3.0,,,,,,,,,,,
encoding,image,14,11356032,11357046,11356231.0,11356483.0,253.0,253.0,2234.0,940.9000000000001,2249.0,1269.0,Object_Land_Solid_Small,18.45782804209739,19.471234542084854,3.0,Object_Land_Solid_Small,-3.0,,,,,,,,,,,
encoding,image,14,11356032,11357046,11356716.0,11356907.0,192.0,192.0,1928.0,14.199999999999818,,,none,18.45782804209739,19.471234542084854,3.0,Object_Land_Solid_Small,-3.0,,,,,,,,,,,
encoding,value,14,11357046,11363059,11357318.0,11357500.0,183.0,183.0,2143.3,853.4000000000001,2249.0,1269.0,Object_Land_Solid_Small,19.471364500001073,25.48418870801106,3.0,Object_Land_Solid_Small,-3.0,,,,,,,,,,,
encoding,value,14,11357046,11363059,11357518.0,11358031.0,514.0,514.0,2251.5,806.5999999999999,2249.0,1269.0,Object_Land_Solid_Small,19.471364500001073,25.48418870801106,3.0,Object_Land_Solid_Small,-3.0,,,,,,,,,,,
encoding,value,14,11357046,11363059,11358053.0,11358221.0,169.0,169.0,2079.1,874.3,2249.0,1269.0,Object_Land_Solid_Small,19.471364500001073,25.48418870801106,3.0,Object_Land_Solid_Small,-3.0,,,,,,,,,,,
encoding,value,14,11357046,11363059,11358250.0,11358481.0,232.0,232.0,1978.8,1080.1,1920.0,1080.0,fixation,19.471364500001073,25.48418870801106,3.0,Object_Land_Solid_Small,-3.0,,,,,,,,,,,
encoding,value,14,11357046,11363059,11358491.0,11358798.0,308.0,308.0,1939.7,1100.0,1920.0,1080.0,fixation,19.471364500001073,25.48418870801106,3.0,Object_Land_Solid_Small,-3.0,,,,,,,,,,,
encoding,value,14,11357046,11363059,11358844.0,11358980.0,137.0,137.0,2217.8,836.7,2249.0,1269.0,Object_Land_Solid_Small,19.471364500001073,25.48418870801106,3.0,Object_Land_Solid_Small,-3.0,,,,,,,,,,,
encoding,value,14,11357046,11363059,11358990.0,11359839.0,850.0,850.0,2246.7,845.0999999999999,2249.0,1269.0,Object_Land_Solid_Small,19.471364500001073,25.48418870801106,3.0,Object_Land_Solid_Small,-3.0,,,,,,,,,,,
encoding,value,14,11357046,11363059,11360011.0,11360209.0,199.0,199.0,2251.7,833.7,2249.0,1269.0,Object_Land_Solid_Small,19.471364500001073,25.48418870801106,3.0,Object_Land_Solid_Small,-3.0,,,,,,,,,,,
encoding,value,14,11357046,11363059,11360458.0,11361192.0,735.0,735.0,2232.1,821.8,2249.0,1269.0,Object_Land_Solid_Small,19.471364500001073,25.48418870801106,3.0,Object_Land_Solid_Small,-3.0,,,,,,,,,,,
encoding,value,14,11357046,11363059,11361199.0,11361388.0,190.0,190.0,2204.2,834.5999999999999,2249.0,1269.0,Object_Land_Solid_Small,19.471364500001073,25.48418870801106,3.0,Object_Land_Solid_Small,-3.0,,,,,,,,,,,
encoding,value,14,11357046,11363059,11361595.0,11362450.0,856.0,856.0,2231.4,817.4000000000001,2249.0,1269.0,Object_Land_Solid_Small,19.471364500001073,25.48418870801106,3.0,Object_Land_Solid_Small,-3.0,,,,,,,,,,,
encoding,value,14,11357046,11363059,11362641.0,11362861.0,221.0,221.0,2223.0,795.4000000000001,2249.0,1269.0,Object_Land_Solid_Small,19.471364500001073,25.48418870801106,3.0,Object_Land_Solid_Small,-3.0,,,,,,,,,,,
encoding,attention,14,11363059,11366076,11363280.0,11363449.0,170.0,170.0,2234.6,800.9000000000001,2249.0,1269.0,Object_Land_Solid_Small,25.484345958102494,28.501941499998793,3.0,Object_Land_Solid_Small,-3.0,-3.0,1.0,1.0993334169033917,,,,,,,,
encoding,attention,14,11363059,11366076,11363458.0,11364370.0,913.0,913.0,2183.9,818.9000000000001,2249.0,1269.0,Object_Land_Solid_Small,25.484345958102494,28.501941499998793,3.0,Object_Land_Solid_Small,-3.0,-3.0,1.0,1.0993334169033917,,,,,,,,
encoding,attention,14,11363059,11366076,11364550.0,11364773.0,224.0,224.0,2243.2,900.9000000000001,2249.0,1269.0,Object_Land_Solid_Small,25.484345958102494,28.501941499998793,3.0,Object_Land_Solid_Small,-3.0,-3.0,1.0,1.0993334169033917,,,,,,,,
encoding,attention,14,11363059,11366076,11364961.0,11365088.0,128.0,128.0,2222.1,896.4000000000001,2249.0,1269.0,Object_Land_Solid_Small,25.484345958102494,28.501941499998793,3.0,Object_Land_Solid_Small,-3.0,-3.0,1.0,1.0993334169033917,,,,,,,,
encoding,attention,14,11363059,11366076,11365263.0,11365687.0,425.0,425.0,2802.6,662.3,,,none,25.484345958102494,28.501941499998793,3.0,Object_Land_Solid_Small,-3.0,-3.0,1.0,1.0993334169033917,,,,,,,,
encoding,attention,14,11363059,11366076,11365723.0,11365813.0,91.0,91.0,2227.5,865.8,2249.0,1269.0,Object_Land_Solid_Small,25.484345958102494,28.501941499998793,3.0,Object_Land_Solid_Small,-3.0,-3.0,1.0,1.0993334169033917,,,,,,,,
encoding,fixation,15,11366077,11366582,11366288.0,11366406.0,119.0,119.0,1879.5,1121.9,1920.0,1080.0,fixation,28.5020774169825,29.007292666938156,3.0,Animal_Sea_Pattern_Small,8.0,,,,,,,,,,,
encoding,image,15,11366582,11367595,11366822.0,11366954.0,133.0,133.0,2097.1,1006.8,2249.0,1269.0,Object_Land_Solid_Small,29.007392124971375,30.02053079195321,3.0,Animal_Sea_Pattern_Small,8.0,,,,,,,,,,,
encoding,image,15,11366582,11367595,11366992.0,11367288.0,297.0,297.0,1664.6,1267.5,1591.0,891.0,Animal_Sea_Pattern_Small,29.007392124971375,30.02053079195321,3.0,Animal_Sea_Pattern_Small,8.0,,,,,,,,,,,
encoding,image,15,11366582,11367595,11367485.0,11367784.0,300.0,110.0,1558.4,1272.2,1591.0,891.0,Animal_Sea_Pattern_Small,29.007392124971375,30.02053079195321,3.0,Animal_Sea_Pattern_Small,8.0,,,,,,,,,,,
encoding,value,15,11367595,11373608,11367800.0,11368140.0,341.0,341.0,1603.9,1213.5,1591.0,891.0,Animal_Sea_Pattern_Small,30.020630167098716,36.03264916711487,3.0,Animal_Sea_Pattern_Small,8.0,,,,,,,,,,,
encoding,value,15,11367595,11373608,11368539.0,11368655.0,117.0,117.0,1635.3,1209.7,1591.0,891.0,Animal_Sea_Pattern_Small,30.020630167098716,36.03264916711487,3.0,Animal_Sea_Pattern_Small,8.0,,,,,,,,,,,
encoding,value,15,11367595,11373608,11368669.0,11368876.0,208.0,208.0,1613.1,1191.2,1591.0,891.0,Animal_Sea_Pattern_Small,30.020630167098716,36.03264916711487,3.0,Animal_Sea_Pattern_Small,8.0,,,,,,,,,,,
encoding,value,15,11367595,11373608,11369318.0,11371040.0,1723.0,1723.0,1620.2,1226.0,1591.0,891.0,Animal_Sea_Pattern_Small,30.020630167098716,36.03264916711487,3.0,Animal_Sea_Pattern_Small,8.0,,,,,,,,,,,
encoding,value,15,11367595,11373608,11371242.0,11371595.0,354.0,354.0,1639.1,1239.0,1591.0,891.0,Animal_Sea_Pattern_Small,30.020630167098716,36.03264916711487,3.0,Animal_Sea_Pattern_Small,8.0,,,,,,,,,,,
encoding,value,15,11367595,11373608,11371604.0,11372102.0,499.0,499.0,1624.7,1218.1,1591.0,891.0,Animal_Sea_Pattern_Small,30.020630167098716,36.03264916711487,3.0,Animal_Sea_Pattern_Small,8.0,,,,,,,,,,,
encoding,value,15,11367595,11373608,11372325.0,11372817.0,493.0,493.0,1615.0,1213.8,1591.0,891.0,Animal_Sea_Pattern_Small,30.020630167098716,36.03264916711487,3.0,Animal_Sea_Pattern_Small,8.0,,,,,,,,,,,
encoding,value,15,11367595,11373608,11373240.0,11373310.0,71.0,71.0,1569.7,1239.6,1591.0,891.0,Animal_Sea_Pattern_Small,30.020630167098716,36.03264916711487,3.0,Animal_Sea_Pattern_Small,8.0,,,,,,,,,,,
encoding,value,15,11367595,11373608,11373322.0,11373607.0,286.0,286.0,1624.9,1229.8,1591.0,891.0,Animal_Sea_Pattern_Small,30.020630167098716,36.03264916711487,3.0,Animal_Sea_Pattern_Small,8.0,,,,,,,,,,,
encoding,attention,15,11373608,11376626,11374140.0,11374511.0,372.0,372.0,1641.9,1246.1,1591.0,891.0,Animal_Sea_Pattern_Small,36.03281104192138,39.05077883298509,3.0,Animal_Sea_Pattern_Small,8.0,8.0,1.0,1.1833776249550283,,,,,,,,
encoding,attention,15,11373608,11376626,11374525.0,11376188.0,1664.0,1664.0,1571.4,1208.5,1591.0,891.0,Animal_Sea_Pattern_Small,36.03281104192138,39.05077883298509,3.0,Animal_Sea_Pattern_Small,8.0,8.0,1.0,1.1833776249550283,,,,,,,,
encoding,attention,15,11373608,11376626,11376200.0,11376548.0,349.0,349.0,1611.7,1263.8,1591.0,891.0,Animal_Sea_Pattern_Small,36.03281104192138,39.05077883298509,3.0,Animal_Sea_Pattern_Small,8.0,8.0,1.0,1.1833776249550283,,,,,,,,
encoding,fixation,16,11376626,11377633,11377418.0,11377503.0,86.0,86.0,1914.3,1159.4,1920.0,700.0,Object_Sea_Pattern_Large,39.05093316710554,40.05731466691941,3.0,Animal_Land_Solid_Small,-2.0,,,,,,,,,,,
encoding,fixation,16,11376626,11377633,11377519.0,11377627.0,109.0,109.0,1954.8,1124.1,1920.0,1080.0,fixation,39.05093316710554,40.05731466691941,3.0,Animal_Land_Solid_Small,-2.0,,,,,,,,,,,
encoding,image,16,11377633,11378644,11378246.0,11378398.0,153.0,153.0,2127.8,1008.8,2249.0,1269.0,Object_Land_Solid_Small,40.05741004203446,41.06835487508215,3.0,Animal_Land_Solid_Small,-2.0,,,,,,,,,,,
encoding,image,16,11377633,11378644,11378436.0,11378732.0,297.0,208.0,1899.7,707.0999999999999,1920.0,1460.0,Animal_Land_Solid_Small,40.05741004203446,41.06835487508215,3.0,Animal_Land_Solid_Small,-2.0,,,,,,,,,,,
encoding,value,16,11378644,11384656,11379086.0,11379392.0,307.0,307.0,1928.4,609.7,1920.0,1460.0,Animal_Land_Solid_Small,41.06847812491469,47.0804919579532,3.0,Animal_Land_Solid_Small,-2.0,,,,,,,,,,,
encoding,value,16,11378644,11384656,11379934.0,11380199.0,266.0,266.0,2022.4,875.2,1920.0,1460.0,Animal_Land_Solid_Small,41.06847812491469,47.0804919579532,3.0,Animal_Land_Solid_Small,-2.0,,,,,,,,,,,
encoding,value,16,11378644,11384656,11380490.0,11380640.0,151.0,151.0,2160.0,657.0,1920.0,1460.0,Animal_Land_Solid_Small,41.06847812491469,47.0804919579532,3.0,Animal_Land_Solid_Small,-2.0,,,,,,,,,,,
encoding,value,16,11378644,11384656,11380663.0,11381004.0,342.0,342.0,1914.7,657.0,1920.0,1460.0,Animal_Land_Solid_Small,41.06847812491469,47.0804919579532,3.0,Animal_Land_Solid_Small,-2.0,,,,,,,,,,,
encoding,value,16,11378644,11384656,11381251.0,11381531.0,281.0,281.0,1925.7,561.0,1920.0,1460.0,Animal_Land_Solid_Small,41.06847812491469,47.0804919579532,3.0,Animal_Land_Solid_Small,-2.0,,,,,,,,,,,
encoding,value,16,11378644,11384656,11381760.0,11382083.0,324.0,324.0,1918.6,599.2,1920.0,1460.0,Animal_Land_Solid_Small,41.06847812491469,47.0804919579532,3.0,Animal_Land_Solid_Small,-2.0,,,,,,,,,,,
encoding,value,16,11378644,11384656,11382098.0,11382208.0,111.0,111.0,1816.0,625.9000000000001,1920.0,1460.0,Animal_Land_Solid_Small,41.06847812491469,47.0804919579532,3.0,Animal_Land_Solid_Small,-2.0,,,,,,,,,,,
encoding,value,16,11378644,11384656,11382465.0,11382678.0,214.0,214.0,1876.7,542.9000000000001,1920.0,1460.0,Animal_Land_Solid_Small,41.06847812491469,47.0804919579532,3.0,Animal_Land_Solid_Small,-2.0,,,,,,,,,,,
encoding,value,16,11378644,11384656,11382691.0,11383673.0,983.0,983.0,1881.3,622.3,1920.0,1460.0,Animal_Land_Solid_Small,41.06847812491469,47.0804919579532,3.0,Animal_Land_Solid_Small,-2.0,,,,,,,,,,,
encoding,value,16,11378644,11384656,11383919.0,11384096.0,178.0,178.0,1918.3,502.5999999999999,1920.0,1460.0,Animal_Land_Solid_Small,41.06847812491469,47.0804919579532,3.0,Animal_Land_Solid_Small,-2.0,,,,,,,,,,,
encoding,value,16,11378644,11384656,11384419.0,11385141.0,723.0,237.0,1873.5,583.3,1920.0,1460.0,Animal_Land_Solid_Small,41.06847812491469,47.0804919579532,3.0,Animal_Land_Solid_Small,-2.0,,,,,,,,,,,
encoding,attention,16,11384656,11387674,11385156.0,11385755.0,600.0,600.0,1944.1,569.4000000000001,1920.0,1460.0,Animal_Land_Solid_Small,47.0805963750463,50.0979171670042,3.0,Animal_Land_Solid_Small,-2.0,-2.0,1.0,0.8476907499134541,,,,,,,,
encoding,attention,16,11384656,11387674,11386006.0,11386052.0,47.0,47.0,1943.0,508.79999999999995,1920.0,1460.0,Animal_Land_Solid_Small,47.0805963750463,50.0979171670042,3.0,Animal_Land_Solid_Small,-2.0,-2.0,1.0,0.8476907499134541,,,,,,,,
encoding,attention,16,11384656,11387674,11386060.0,11386287.0,228.0,228.0,1857.2,740.4000000000001,1920.0,1460.0,Animal_Land_Solid_Small,47.0805963750463,50.0979171670042,3.0,Animal_Land_Solid_Small,-2.0,-2.0,1.0,0.8476907499134541,,,,,,,,
encoding,attention,16,11384656,11387674,11386306.0,11386413.0,108.0,108.0,1925.0,684.5,1920.0,1460.0,Animal_Land_Solid_Small,47.0805963750463,50.0979171670042,3.0,Animal_Land_Solid_Small,-2.0,-2.0,1.0,0.8476907499134541,,,,,,,,
encoding,attention,16,11384656,11387674,11386625.0,11386826.0,202.0,202.0,1942.4,638.9000000000001,1920.0,1460.0,Animal_Land_Solid_Small,47.0805963750463,50.0979171670042,3.0,Animal_Land_Solid_Small,-2.0,-2.0,1.0,0.8476907499134541,,,,,,,,
encoding,fixation,17,11387674,11389181,11387793.0,11387874.0,82.0,82.0,1934.7,687.2,1920.0,1460.0,Animal_Land_Solid_Small,50.0980770830065,51.6055102921091,3.0,Animal_Sea_Solid_Large,9.0,,,,,,,,,,,
encoding,fixation,17,11387674,11389181,11388177.0,11388275.0,99.0,99.0,1885.2,1247.9,1920.0,700.0,Object_Sea_Pattern_Large,50.0980770830065,51.6055102921091,3.0,Animal_Sea_Solid_Large,9.0,,,,,,,,,,,
encoding,fixation,17,11387674,11389181,11388293.0,11388447.0,155.0,155.0,1956.4,1201.9,1920.0,700.0,Object_Sea_Pattern_Large,50.0980770830065,51.6055102921091,3.0,Animal_Sea_Solid_Large,9.0,,,,,,,,,,,
encoding,fixation,17,11387674,11389181,11388455.0,11388660.0,206.0,206.0,1929.6,1156.5,1920.0,700.0,Object_Sea_Pattern_Large,50.0980770830065,51.6055102921091,3.0,Animal_Sea_Solid_Large,9.0,,,,,,,,,,,
encoding,fixation,17,11387674,11389181,11389055.0,11389350.0,296.0,126.0,1920.2,1319.3,1920.0,700.0,Object_Sea_Pattern_Large,50.0980770830065,51.6055102921091,3.0,Animal_Sea_Solid_Large,9.0,,,,,,,,,,,
encoding,image,17,11389181,11390193,11389392.0,11389662.0,271.0,271.0,1578.0,939.3,1591.0,1269.0,Animal_Sea_Solid_Large,51.60562662500888,52.616895667044446,3.0,Animal_Sea_Solid_Large,9.0,,,,,,,,,,,
encoding,value,17,11390193,11396204,11390238.0,11390375.0,138.0,138.0,1501.1,995.0,1591.0,1269.0,Animal_Sea_Solid_Large,52.61700358311646,58.62846962502226,3.0,Animal_Sea_Solid_Large,9.0,,,,,,,,,,,
encoding,value,17,11390193,11396204,11390399.0,11390771.0,373.0,373.0,1575.0,846.2,1591.0,1269.0,Animal_Sea_Solid_Large,52.61700358311646,58.62846962502226,3.0,Animal_Sea_Solid_Large,9.0,,,,,,,,,,,
encoding,value,17,11390193,11396204,11391033.0,11391116.0,84.0,84.0,1566.3,787.5,1591.0,1269.0,Animal_Sea_Solid_Large,52.61700358311646,58.62846962502226,3.0,Animal_Sea_Solid_Large,9.0,,,,,,,,,,,
encoding,value,17,11390193,11396204,11391504.0,11391768.0,265.0,265.0,1601.3,959.0,1591.0,1269.0,Animal_Sea_Solid_Large,52.61700358311646,58.62846962502226,3.0,Animal_Sea_Solid_Large,9.0,,,,,,,,,,,
encoding,value,17,11390193,11396204,11392000.0,11392075.0,76.0,76.0,1524.9,952.5999999999999,1591.0,1269.0,Animal_Sea_Solid_Large,52.61700358311646,58.62846962502226,3.0,Animal_Sea_Solid_Large,9.0,,,,,,,,,,,
encoding,value,17,11390193,11396204,11392102.0,11392784.0,683.0,683.0,1580.7,858.2,1591.0,1269.0,Animal_Sea_Solid_Large,52.61700358311646,58.62846962502226,3.0,Animal_Sea_Solid_Large,9.0,,,,,,,,,,,
encoding,value,17,11390193,11396204,11393014.0,11393154.0,141.0,141.0,1865.1,1013.5999999999999,1591.0,1269.0,Animal_Sea_Solid_Large,52.61700358311646,58.62846962502226,3.0,Animal_Sea_Solid_Large,9.0,,,,,,,,,,,
encoding,value,17,11390193,11396204,11393186.0,11393415.0,230.0,230.0,1556.9,888.4000000000001,1591.0,1269.0,Animal_Sea_Solid_Large,52.61700358311646,58.62846962502226,3.0,Animal_Sea_Solid_Large,9.0,,,,,,,,,,,
encoding,value,17,11390193,11396204,11393653.0,11393809.0,157.0,157.0,1580.6,673.8,1591.0,1269.0,Animal_Sea_Solid_Large,52.61700358311646,58.62846962502226,3.0,Animal_Sea_Solid_Large,9.0,,,,,,,,,,,
encoding,value,17,11390193,11396204,11394060.0,11395595.0,1536.0,1536.0,1570.6,775.5,1591.0,1269.0,Animal_Sea_Solid_Large,52.61700358311646,58.62846962502226,3.0,Animal_Sea_Solid_Large,9.0,,,,,,,,,,,
encoding,value,17,11390193,11396204,11395824.0,11395883.0,60.0,60.0,1584.3,665.9000000000001,1591.0,1269.0,Animal_Sea_Solid_Large,52.61700358311646,58.62846962502226,3.0,Animal_Sea_Solid_Large,9.0,,,,,,,,,,,
encoding,attention,17,11396205,11399223,11396326.0,11396736.0,411.0,411.0,1596.6,793.5,1591.0,1269.0,Animal_Sea_Solid_Large,58.62857816694304,61.64640645799227,3.0,Animal_Sea_Solid_Large,9.0,9.0,1.0,2.011347834020853,,,,,,,,
encoding,attention,17,11396205,11399223,11396749.0,11396956.0,208.0,208.0,1531.0,852.8,1591.0,1269.0,Animal_Sea_Solid_Large,58.62857816694304,61.64640645799227,3.0,Animal_Sea_Solid_Large,9.0,9.0,1.0,2.011347834020853,,,,,,,,
encoding,attention,17,11396205,11399223,11397183.0,11397302.0,120.0,120.0,1530.8,679.5999999999999,1591.0,1269.0,Animal_Sea_Solid_Large,58.62857816694304,61.64640645799227,3.0,Animal_Sea_Solid_Large,9.0,9.0,1.0,2.011347834020853,,,,,,,,
encoding,attention,17,11396205,11399223,11397317.0,11397443.0,127.0,127.0,1631.7,822.5999999999999,1591.0,1269.0,Animal_Sea_Solid_Large,58.62857816694304,61.64640645799227,3.0,Animal_Sea_Solid_Large,9.0,9.0,1.0,2.011347834020853,,,,,,,,
encoding,attention,17,11396205,11399223,11397703.0,11398045.0,343.0,343.0,1523.9,844.0,1591.0,1269.0,Animal_Sea_Solid_Large,58.62857816694304,61.64640645799227,3.0,Animal_Sea_Solid_Large,9.0,9.0,1.0,2.011347834020853,,,,,,,,
encoding,attention,17,11396205,11399223,11398065.0,11398657.0,593.0,593.0,1621.9,828.9000000000001,1591.0,1269.0,Animal_Sea_Solid_Large,58.62857816694304,61.64640645799227,3.0,Animal_Sea_Solid_Large,9.0,9.0,1.0,2.011347834020853,,,,,,,,
encoding,fixation,18,11399223,11399728,11399280.0,11399540.0,261.0,261.0,1829.9,1123.9,1591.0,891.0,Animal_Sea_Pattern_Small,61.64657233306207,62.151772582903504,3.0,Object_Land_Pattern_Large,9.0,,,,,,,,,,,
encoding,image,18,11399728,11400740,11399929.0,11400032.0,104.0,104.0,1683.6,1410.1,1591.0,891.0,Animal_Sea_Pattern_Small,62.151954541914165,63.16397224995307,3.0,Object_Land_Pattern_Large,9.0,,,,,,,,,,,
encoding,image,18,11399728,11400740,11400077.0,11400498.0,422.0,422.0,2221.0,1349.0,2249.0,891.0,Object_Land_Pattern_Large,62.151954541914165,63.16397224995307,3.0,Object_Land_Pattern_Large,9.0,,,,,,,,,,,
encoding,value,18,11400740,11406754,11400927.0,11401049.0,123.0,123.0,2075.5,1265.9,2249.0,891.0,Object_Land_Pattern_Large,63.1640857080929,69.17773408303037,3.0,Object_Land_Pattern_Large,9.0,,,,,,,,,,,
encoding,value,18,11400740,11406754,11401075.0,11402146.0,1072.0,1072.0,2267.7,1216.5,2249.0,891.0,Object_Land_Pattern_Large,63.1640857080929,69.17773408303037,3.0,Object_Land_Pattern_Large,9.0,,,,,,,,,,,
encoding,value,18,11400740,11406754,11402380.0,11402502.0,123.0,123.0,1727.8,1205.5,1591.0,891.0,Animal_Sea_Pattern_Small,63.1640857080929,69.17773408303037,3.0,Object_Land_Pattern_Large,9.0,,,,,,,,,,,
encoding,value,18,11400740,11406754,11402544.0,11403460.0,917.0,917.0,2260.7,1225.0,2249.0,891.0,Object_Land_Pattern_Large,63.1640857080929,69.17773408303037,3.0,Object_Land_Pattern_Large,9.0,,,,,,,,,,,
encoding,value,18,11400740,11406754,11403671.0,11404448.0,778.0,778.0,2230.2,1236.2,2249.0,891.0,Object_Land_Pattern_Large,63.1640857080929,69.17773408303037,3.0,Object_Land_Pattern_Large,9.0,,,,,,,,,,,
encoding,value,18,11400740,11406754,11404466.0,11404559.0,94.0,94.0,2227.9,1320.8,2249.0,891.0,Object_Land_Pattern_Large,63.1640857080929,69.17773408303037,3.0,Object_Land_Pattern_Large,9.0,,,,,,,,,,,
encoding,value,18,11400740,11406754,11404800.0,11404866.0,67.0,67.0,2185.9,1263.6,2249.0,891.0,Object_Land_Pattern_Large,63.1640857080929,69.17773408303037,3.0,Object_Land_Pattern_Large,9.0,,,,,,,,,,,
encoding,value,18,11400740,11406754,11404882.0,11405061.0,180.0,180.0,2283.7,1254.7,2249.0,891.0,Object_Land_Pattern_Large,63.1640857080929,69.17773408303037,3.0,Object_Land_Pattern_Large,9.0,,,,,,,,,,,
encoding,value,18,11400740,11406754,11405068.0,11405386.0,319.0,319.0,2248.0,1263.3,2249.0,891.0,Object_Land_Pattern_Large,63.1640857080929,69.17773408303037,3.0,Object_Land_Pattern_Large,9.0,,,,,,,,,,,
encoding,value,18,11400740,11406754,11405616.0,11405751.0,136.0,136.0,2261.0,1214.4,2249.0,891.0,Object_Land_Pattern_Large,63.1640857080929,69.17773408303037,3.0,Object_Land_Pattern_Large,9.0,,,,,,,,,,,
encoding,value,18,11400740,11406754,11405761.0,11405955.0,195.0,195.0,2195.2,1251.3,2249.0,891.0,Object_Land_Pattern_Large,63.1640857080929,69.17773408303037,3.0,Object_Land_Pattern_Large,9.0,,,,,,,,,,,
encoding,value,18,11400740,11406754,11405966.0,11406179.0,214.0,214.0,2238.6,1233.6,2249.0,891.0,Object_Land_Pattern_Large,63.1640857080929,69.17773408303037,3.0,Object_Land_Pattern_Large,9.0,,,,,,,,,,,
encoding,value,18,11400740,11406754,11406388.0,11406486.0,99.0,99.0,1974.7,1322.9,1920.0,700.0,Object_Sea_Pattern_Large,63.1640857080929,69.17773408303037,3.0,Object_Land_Pattern_Large,9.0,,,,,,,,,,,
encoding,value,18,11400740,11406754,11406515.0,11407231.0,717.0,239.0,2207.5,1250.8,2249.0,891.0,Object_Land_Pattern_Large,63.1640857080929,69.17773408303037,3.0,Object_Land_Pattern_Large,9.0,,,,,,,,,,,
encoding,attention,18,11406754,11409772,11407248.0,11407764.0,517.0,517.0,2299.3,1249.3,2249.0,891.0,Object_Land_Pattern_Large,69.17783537507057,72.1959374169819,3.0,Object_Land_Pattern_Large,9.0,9.0,1.0,0.7659953748807311,,,,,,,,
encoding,attention,18,11406754,11409772,11407991.0,11408263.0,273.0,273.0,2224.8,1272.1,2249.0,891.0,Object_Land_Pattern_Large,69.17783537507057,72.1959374169819,3.0,Object_Land_Pattern_Large,9.0,9.0,1.0,0.7659953748807311,,,,,,,,
encoding,attention,18,11406754,11409772,11408282.0,11408530.0,249.0,249.0,2317.3,1197.5,2249.0,891.0,Object_Land_Pattern_Large,69.17783537507057,72.1959374169819,3.0,Object_Land_Pattern_Large,9.0,9.0,1.0,0.7659953748807311,,,,,,,,
encoding,attention,18,11406754,11409772,11408537.0,11408945.0,409.0,409.0,2293.9,1228.3,2249.0,891.0,Object_Land_Pattern_Large,69.17783537507057,72.1959374169819,3.0,Object_Land_Pattern_Large,9.0,9.0,1.0,0.7659953748807311,,,,,,,,
encoding,attention,18,11406754,11409772,11408964.0,11409714.0,751.0,751.0,2285.3,1224.0,2249.0,891.0,Object_Land_Pattern_Large,69.17783537507057,72.1959374169819,3.0,Object_Land_Pattern_Large,9.0,9.0,1.0,0.7659953748807311,,,,,,,,
encoding,fixation,19,11758647,11760154,11758870.0,11758926.0,57.0,57.0,1960.6,1170.0,1920.0,700.0,Animal_Land_Pattern_Large,9.538315541110933,11.04527441621758,4.0,Object_Sea_Solid_Large,4.0,,,,,,,,,,,
encoding,fixation,19,11758647,11760154,11759312.0,11759506.0,195.0,195.0,1902.1,1220.0,1920.0,700.0,Animal_Land_Pattern_Large,9.538315541110933,11.04527441621758,4.0,Object_Sea_Solid_Large,4.0,,,,,,,,,,,
encoding,fixation,19,11758647,11760154,11759705.0,11760013.0,309.0,309.0,1757.6,1337.8,1591.0,891.0,Animal_Land_Solid_Large,9.538315541110933,11.04527441621758,4.0,Object_Sea_Solid_Large,4.0,,,,,,,,,,,
encoding,fixation,19,11758647,11760154,11760033.0,11760295.0,263.0,121.0,1693.6,1261.7,1591.0,891.0,Animal_Land_Solid_Large,9.538315541110933,11.04527441621758,4.0,Object_Sea_Solid_Large,4.0,,,,,,,,,,,
encoding,image,19,11760154,11761167,11760340.0,11760653.0,314.0,314.0,2251.4,1298.9,2249.0,891.0,Object_Sea_Solid_Large,11.045375041197984,12.05854570819065,4.0,Object_Sea_Solid_Large,4.0,,,,,,,,,,,
encoding,image,19,11760154,11761167,11760669.0,11760922.0,254.0,254.0,2218.1,1226.4,2249.0,891.0,Object_Sea_Solid_Large,11.045375041197984,12.05854570819065,4.0,Object_Sea_Solid_Large,4.0,,,,,,,,,,,
encoding,image,19,11760154,11761167,11760937.0,11761090.0,154.0,154.0,2242.9,1154.2,2249.0,891.0,Object_Sea_Solid_Large,11.045375041197984,12.05854570819065,4.0,Object_Sea_Solid_Large,4.0,,,,,,,,,,,
encoding,image,19,11760154,11761167,11761098.0,11761403.0,306.0,69.0,2242.0,1182.1,2249.0,891.0,Object_Sea_Solid_Large,11.045375041197984,12.05854570819065,4.0,Object_Sea_Solid_Large,4.0,,,,,,,,,,,
encoding,value,19,11761167,11767181,11761411.0,11761483.0,73.0,73.0,2276.8,1187.4,2249.0,891.0,Object_Sea_Solid_Large,12.058712375117466,18.07247725012712,4.0,Object_Sea_Solid_Large,4.0,,,,,,,,,,,
encoding,value,19,11761167,11767181,11761892.0,11762368.0,477.0,477.0,2263.3,1181.5,2249.0,891.0,Object_Sea_Solid_Large,12.058712375117466,18.07247725012712,4.0,Object_Sea_Solid_Large,4.0,,,,,,,,,,,
encoding,value,19,11761167,11767181,11762386.0,11762628.0,243.0,243.0,2236.7,1269.0,2249.0,891.0,Object_Sea_Solid_Large,12.058712375117466,18.07247725012712,4.0,Object_Sea_Solid_Large,4.0,,,,,,,,,,,
encoding,value,19,11761167,11767181,11762644.0,11762927.0,284.0,284.0,2259.2,1175.8,2249.0,891.0,Object_Sea_Solid_Large,12.058712375117466,18.07247725012712,4.0,Object_Sea_Solid_Large,4.0,,,,,,,,,,,
encoding,value,19,11761167,11767181,11763125.0,11764186.0,1062.0,1062.0,2255.5,1201.3,2249.0,891.0,Object_Sea_Solid_Large,12.058712375117466,18.07247725012712,4.0,Object_Sea_Solid_Large,4.0,,,,,,,,,,,
encoding,value,19,11761167,11767181,11764376.0,11764539.0,164.0,164.0,2275.3,1194.5,2249.0,891.0,Object_Sea_Solid_Large,12.058712375117466,18.07247725012712,4.0,Object_Sea_Solid_Large,4.0,,,,,,,,,,,
encoding,value,19,11761167,11767181,11764548.0,11764719.0,172.0,172.0,2229.9,1182.8,2249.0,891.0,Object_Sea_Solid_Large,12.058712375117466,18.07247725012712,4.0,Object_Sea_Solid_Large,4.0,,,,,,,,,,,
encoding,value,19,11761167,11767181,11765176.0,11765274.0,99.0,99.0,2308.3,1183.3,2249.0,891.0,Object_Sea_Solid_Large,12.058712375117466,18.07247725012712,4.0,Object_Sea_Solid_Large,4.0,,,,,,,,,,,
encoding,value,19,11761167,11767181,11765283.0,11765986.0,704.0,704.0,2264.0,1169.9,2249.0,891.0,Object_Sea_Solid_Large,12.058712375117466,18.07247725012712,4.0,Object_Sea_Solid_Large,4.0,,,,,,,,,,,
encoding,value,19,11761167,11767181,11766188.0,11766211.0,24.0,24.0,2219.1,893.0,2249.0,1269.0,Animal_Land_Pattern_Small,12.058712375117466,18.07247725012712,4.0,Object_Sea_Solid_Large,4.0,,,,,,,,,,,
encoding,value,19,11761167,11767181,11766424.0,11767442.0,1019.0,757.0,2244.5,1182.6,2249.0,891.0,Object_Sea_Solid_Large,12.058712375117466,18.07247725012712,4.0,Object_Sea_Solid_Large,4.0,,,,,,,,,,,
encoding,attention,19,11767181,11770202,11767451.0,11768074.0,624.0,624.0,2292.3,1185.0,2249.0,891.0,Object_Sea_Solid_Large,18.07258104113862,21.09287687507458,4.0,Object_Sea_Solid_Large,4.0,4.0,1.0,0.4176086671650409,,,,,,,,
encoding,attention,19,11767181,11770202,11768094.0,11768217.0,124.0,124.0,2142.3,1181.7,2249.0,891.0,Object_Sea_Solid_Large,18.07258104113862,21.09287687507458,4.0,Object_Sea_Solid_Large,4.0,4.0,1.0,0.4176086671650409,,,,,,,,
encoding,attention,19,11767181,11770202,11768413.0,11768643.0,231.0,231.0,2240.5,1174.6,2249.0,891.0,Object_Sea_Solid_Large,18.07258104113862,21.09287687507458,4.0,Object_Sea_Solid_Large,4.0,4.0,1.0,0.4176086671650409,,,,,,,,
encoding,fixation,20,11770202,11771457,11770449.0,11770528.0,80.0,80.0,1983.9,1108.0,1920.0,1080.0,fixation,21.093023749999706,22.34812191617675,4.0,Object_Sea_Pattern_Small,-9.0,,,,,,,,,,,
encoding,fixation,20,11770202,11771457,11770826.0,11771080.0,255.0,255.0,2157.6,534.3,,,none,21.093023749999706,22.34812191617675,4.0,Object_Sea_Pattern_Small,-9.0,,,,,,,,,,,
encoding,fixation,20,11770202,11771457,11771159.0,11771367.0,209.0,209.0,3270.0,-642.8000000000002,,,none,21.093023749999706,22.34812191617675,4.0,Object_Sea_Pattern_Small,-9.0,,,,,,,,,,,
encoding,fixation,20,11770202,11771457,11771410.0,11771639.0,230.0,47.0,3270.0,-1110.0,,,none,21.093023749999706,22.34812191617675,4.0,Object_Sea_Pattern_Small,-9.0,,,,,,,,,,,
encoding,image,20,11771457,11772469,11771854.0,11771937.0,84.0,84.0,1659.6,1045.2,1591.0,1269.0,Object_Sea_Pattern_Small,22.34823991614394,23.360135375056416,4.0,Object_Sea_Pattern_Small,-9.0,,,,,,,,,,,
encoding,image,20,11771457,11772469,11771964.0,11772221.0,258.0,258.0,1587.4,971.4000000000001,1591.0,1269.0,Object_Sea_Pattern_Small,22.34823991614394,23.360135375056416,4.0,Object_Sea_Pattern_Small,-9.0,,,,,,,,,,,
encoding,image,20,11771457,11772469,11772454.0,11772566.0,113.0,15.0,1567.9,790.5999999999999,1591.0,1269.0,Object_Sea_Pattern_Small,22.34823991614394,23.360135375056416,4.0,Object_Sea_Pattern_Small,-9.0,,,,,,,,,,,
encoding,value,20,11772469,11778482,11772577.0,11772758.0,182.0,182.0,1584.6,923.2,1591.0,1269.0,Object_Sea_Pattern_Small,23.36029841611162,29.37304045818746,4.0,Object_Sea_Pattern_Small,-9.0,,,,,,,,,,,
encoding,value,20,11772469,11778482,11772773.0,11772942.0,170.0,170.0,1583.0,844.4000000000001,1591.0,1269.0,Object_Sea_Pattern_Small,23.36029841611162,29.37304045818746,4.0,Object_Sea_Pattern_Small,-9.0,,,,,,,,,,,
encoding,value,20,11772469,11778482,11773310.0,11774129.0,820.0,820.0,1574.5,815.9000000000001,1591.0,1269.0,Object_Sea_Pattern_Small,23.36029841611162,29.37304045818746,4.0,Object_Sea_Pattern_Small,-9.0,,,,,,,,,,,
encoding,value,20,11772469,11778482,11774516.0,11775259.0,744.0,744.0,1570.5,821.4000000000001,1591.0,1269.0,Object_Sea_Pattern_Small,23.36029841611162,29.37304045818746,4.0,Object_Sea_Pattern_Small,-9.0,,,,,,,,,,,
encoding,value,20,11772469,11778482,11775475.0,11775797.0,323.0,323.0,1576.1,751.5,1591.0,1269.0,Object_Sea_Pattern_Small,23.36029841611162,29.37304045818746,4.0,Object_Sea_Pattern_Small,-9.0,,,,,,,,,,,
encoding,value,20,11772469,11778482,11776025.0,11776344.0,320.0,320.0,1583.7,757.0999999999999,1591.0,1269.0,Object_Sea_Pattern_Small,23.36029841611162,29.37304045818746,4.0,Object_Sea_Pattern_Small,-9.0,,,,,,,,,,,
encoding,value,20,11772469,11778482,11776599.0,11776882.0,284.0,284.0,1568.5,739.5999999999999,1591.0,1269.0,Object_Sea_Pattern_Small,23.36029841611162,29.37304045818746,4.0,Object_Sea_Pattern_Small,-9.0,,,,,,,,,,,
encoding,value,20,11772469,11778482,11777137.0,11777166.0,30.0,30.0,1638.4,423.5999999999999,,,none,23.36029841611162,29.37304045818746,4.0,Object_Sea_Pattern_Small,-9.0,,,,,,,,,,,
encoding,value,20,11772469,11778482,11777221.0,11777253.0,33.0,33.0,2004.6,-30.59999999999991,,,none,23.36029841611162,29.37304045818746,4.0,Object_Sea_Pattern_Small,-9.0,,,,,,,,,,,
encoding,value,20,11772469,11778482,11777314.0,11777400.0,87.0,87.0,1564.0,696.2,1591.0,1269.0,Object_Sea_Pattern_Small,23.36029841611162,29.37304045818746,4.0,Object_Sea_Pattern_Small,-9.0,,,,,,,,,,,
encoding,value,20,11772469,11778482,11777595.0,11778610.0,1016.0,887.0,1568.5,796.0999999999999,1591.0,1269.0,Object_Sea_Pattern_Small,23.36029841611162,29.37304045818746,4.0,Object_Sea_Pattern_Small,-9.0,,,,,,,,,,,
encoding,attention,20,11778482,11781502,11778878.0,11779509.0,632.0,632.0,1516.8,718.0999999999999,1591.0,1269.0,Object_Sea_Pattern_Small,29.37314120819792,32.39268954121508,4.0,Object_Sea_Pattern_Small,-9.0,-9.0,1.0,0.5824405839666724,,,,,,,,
encoding,attention,20,11778482,11781502,11779761.0,11780002.0,242.0,242.0,1532.8,842.0,1591.0,1269.0,Object_Sea_Pattern_Small,29.37314120819792,32.39268954121508,4.0,Object_Sea_Pattern_Small,-9.0,-9.0,1.0,0.5824405839666724,,,,,,,,
encoding,attention,20,11778482,11781502,11780236.0,11780382.0,147.0,147.0,1569.3,652.8,1591.0,1269.0,Object_Sea_Pattern_Small,29.37314120819792,32.39268954121508,4.0,Object_Sea_Pattern_Small,-9.0,-9.0,1.0,0.5824405839666724,,,,,,,,
encoding,attention,20,11778482,11781502,11780613.0,11780755.0,143.0,143.0,1531.8,832.9000000000001,1591.0,1269.0,Object_Sea_Pattern_Small,29.37314120819792,32.39268954121508,4.0,Object_Sea_Pattern_Small,-9.0,-9.0,1.0,0.5824405839666724,,,,,,,,
encoding,attention,20,11778482,11781502,11780948.0,11780993.0,46.0,46.0,2103.6,1201.4,2249.0,891.0,Object_Sea_Solid_Large,29.37314120819792,32.39268954121508,4.0,Object_Sea_Pattern_Small,-9.0,-9.0,1.0,0.5824405839666724,,,,,,,,
encoding,attention,20,11778482,11781502,11781196.0,11781477.0,282.0,282.0,2115.3,1256.4,2249.0,891.0,Object_Sea_Solid_Large,29.37314120819792,32.39268954121508,4.0,Object_Sea_Pattern_Small,-9.0,-9.0,1.0,0.5824405839666724,,,,,,,,
encoding,fixation,21,11781502,11782757,11781543.0,11781722.0,180.0,180.0,1582.7,847.3,1591.0,1269.0,Object_Sea_Pattern_Small,32.39283550018445,33.647954958025366,4.0,Object_Sea_Solid_Small,3.0,,,,,,,,,,,
encoding,fixation,21,11781502,11782757,11782214.0,11782313.0,100.0,100.0,2017.3,1240.4,2249.0,891.0,Object_Sea_Solid_Large,32.39283550018445,33.647954958025366,4.0,Object_Sea_Solid_Small,3.0,,,,,,,,,,,
encoding,fixation,21,11781502,11782757,11782704.0,11782993.0,290.0,53.0,1938.3,1212.9,1920.0,700.0,Animal_Land_Pattern_Large,32.39283550018445,33.647954958025366,4.0,Object_Sea_Solid_Small,3.0,,,,,,,,,,,
encoding,image,21,11782758,11783768,11783032.0,11783228.0,197.0,197.0,1918.3,768.8,1920.0,1460.0,Object_Sea_Solid_Small,33.64806595817208,34.657931791152805,4.0,Object_Sea_Solid_Small,3.0,,,,,,,,,,,
encoding,image,21,11782758,11783768,11783235.0,11783360.0,126.0,126.0,1916.7,725.5,1920.0,1460.0,Object_Sea_Solid_Small,33.64806595817208,34.657931791152805,4.0,Object_Sea_Solid_Small,3.0,,,,,,,,,,,
encoding,value,21,11783768,11789781,11783980.0,11784100.0,121.0,121.0,1990.3,545.2,1920.0,1460.0,Object_Sea_Solid_Small,34.65803150017746,40.67106825020164,4.0,Object_Sea_Solid_Small,3.0,,,,,,,,,,,
encoding,value,21,11783768,11789781,11784117.0,11784536.0,420.0,420.0,1900.6,607.5999999999999,1920.0,1460.0,Object_Sea_Solid_Small,34.65803150017746,40.67106825020164,4.0,Object_Sea_Solid_Small,3.0,,,,,,,,,,,
encoding,value,21,11783768,11789781,11784978.0,11785191.0,214.0,214.0,1902.1,633.0999999999999,1920.0,1460.0,Object_Sea_Solid_Small,34.65803150017746,40.67106825020164,4.0,Object_Sea_Solid_Small,3.0,,,,,,,,,,,
encoding,value,21,11783768,11789781,11785506.0,11785672.0,167.0,167.0,1897.5,641.2,1920.0,1460.0,Object_Sea_Solid_Small,34.65803150017746,40.67106825020164,4.0,Object_Sea_Solid_Small,3.0,,,,,,,,,,,
encoding,value,21,11783768,11789781,11785688.0,11786128.0,441.0,441.0,1898.2,646.2,1920.0,1460.0,Object_Sea_Solid_Small,34.65803150017746,40.67106825020164,4.0,Object_Sea_Solid_Small,3.0,,,,,,,,,,,
encoding,value,21,11783768,11789781,11786145.0,11786402.0,258.0,258.0,1890.8,735.0,1920.0,1460.0,Object_Sea_Solid_Small,34.65803150017746,40.67106825020164,4.0,Object_Sea_Solid_Small,3.0,,,,,,,,,,,
encoding,value,21,11783768,11789781,11786632.0,11786735.0,104.0,104.0,1927.5,572.9000000000001,1920.0,1460.0,Object_Sea_Solid_Small,34.65803150017746,40.67106825020164,4.0,Object_Sea_Solid_Small,3.0,,,,,,,,,,,
encoding,value,21,11783768,11789781,11786748.0,11787166.0,419.0,419.0,1917.8,616.8,1920.0,1460.0,Object_Sea_Solid_Small,34.65803150017746,40.67106825020164,4.0,Object_Sea_Solid_Small,3.0,,,,,,,,,,,
encoding,value,21,11783768,11789781,11787405.0,11787592.0,188.0,188.0,1911.9,572.3,1920.0,1460.0,Object_Sea_Solid_Small,34.65803150017746,40.67106825020164,4.0,Object_Sea_Solid_Small,3.0,,,,,,,,,,,
encoding,value,21,11783768,11789781,11787869.0,11788075.0,207.0,207.0,1916.3,630.2,1920.0,1460.0,Object_Sea_Solid_Small,34.65803150017746,40.67106825020164,4.0,Object_Sea_Solid_Small,3.0,,,,,,,,,,,
encoding,value,21,11783768,11789781,11788089.0,11788228.0,140.0,140.0,1907.6,645.0,1920.0,1460.0,Object_Sea_Solid_Small,34.65803150017746,40.67106825020164,4.0,Object_Sea_Solid_Small,3.0,,,,,,,,,,,
encoding,value,21,11783768,11789781,11788519.0,11788929.0,411.0,411.0,1886.5,714.4000000000001,1920.0,1460.0,Object_Sea_Solid_Small,34.65803150017746,40.67106825020164,4.0,Object_Sea_Solid_Small,3.0,,,,,,,,,,,
encoding,value,21,11783768,11789781,11788944.0,11789144.0,201.0,201.0,1911.2,693.5,1920.0,1460.0,Object_Sea_Solid_Small,34.65803150017746,40.67106825020164,4.0,Object_Sea_Solid_Small,3.0,,,,,,,,,,,
encoding,value,21,11783768,11789781,11789442.0,11790064.0,623.0,339.0,1918.0,603.2,1920.0,1460.0,Object_Sea_Solid_Small,34.65803150017746,40.67106825020164,4.0,Object_Sea_Solid_Small,3.0,,,,,,,,,,,
encoding,attention,21,11789781,11792797,11790074.0,11790556.0,483.0,483.0,1872.9,566.8,1920.0,1460.0,Object_Sea_Solid_Small,40.67119879112579,43.68751612515189,4.0,Object_Sea_Solid_Small,3.0,3.0,1.0,0.5429945839568973,,,,,,,,
encoding,attention,21,11789781,11792797,11790887.0,11791258.0,372.0,372.0,2021.0,1089.5,2249.0,891.0,Object_Sea_Solid_Large,40.67119879112579,43.68751612515189,4.0,Object_Sea_Solid_Small,3.0,3.0,1.0,0.5429945839568973,,,,,,,,
encoding,attention,21,11789781,11792797,11791555.0,11791843.0,289.0,289.0,2076.0,1249.8,2249.0,891.0,Object_Sea_Solid_Large,40.67119879112579,43.68751612515189,4.0,Object_Sea_Solid_Small,3.0,3.0,1.0,0.5429945839568973,,,,,,,,
encoding,attention,21,11789781,11792797,11792054.0,11792460.0,407.0,407.0,1877.7,607.4000000000001,1920.0,1460.0,Object_Sea_Solid_Small,40.67119879112579,43.68751612515189,4.0,Object_Sea_Solid_Small,3.0,3.0,1.0,0.5429945839568973,,,,,,,,
encoding,fixation,22,11792797,11793302,,,,,,,,,none,43.68766862503253,44.19269000017084,4.0,Animal_Land_Solid_Large,-9.0,,,,,,,,,,,
encoding,image,22,11793303,11794314,11793443.0,11793562.0,120.0,120.0,1981.1,1192.2,1920.0,700.0,Animal_Land_Pattern_Large,44.19280300009996,45.20443020807579,4.0,Animal_Land_Solid_Large,-9.0,,,,,,,,,,,
encoding,image,22,11793303,11794314,11793598.0,11793947.0,350.0,350.0,1612.0,1278.1,1591.0,891.0,Animal_Land_Solid_Large,44.19280300009996,45.20443020807579,4.0,Animal_Land_Solid_Large,-9.0,,,,,,,,,,,
encoding,image,22,11793303,11794314,11794256.0,11794347.0,92.0,58.0,2102.8,1276.8,2249.0,891.0,Object_Sea_Solid_Large,44.19280300009996,45.20443020807579,4.0,Animal_Land_Solid_Large,-9.0,,,,,,,,,,,
encoding,value,22,11794315,11800326,11794380.0,11794629.0,250.0,250.0,1689.0,1304.6,1591.0,891.0,Animal_Land_Solid_Large,45.20453916606493,51.216359625104815,4.0,Animal_Land_Solid_Large,-9.0,,,,,,,,,,,
encoding,value,22,11794315,11800326,11794649.0,11795207.0,559.0,559.0,1602.1,1202.9,1591.0,891.0,Animal_Land_Solid_Large,45.20453916606493,51.216359625104815,4.0,Animal_Land_Solid_Large,-9.0,,,,,,,,,,,
encoding,value,22,11794315,11800326,11795445.0,11796190.0,746.0,746.0,1610.4,1216.7,1591.0,891.0,Animal_Land_Solid_Large,45.20453916606493,51.216359625104815,4.0,Animal_Land_Solid_Large,-9.0,,,,,,,,,,,
encoding,value,22,11794315,11800326,11796427.0,11796533.0,107.0,107.0,1585.0,1072.3,1591.0,1269.0,Object_Sea_Pattern_Small,45.20453916606493,51.216359625104815,4.0,Animal_Land_Solid_Large,-9.0,,,,,,,,,,,
encoding,value,22,11794315,11800326,11796544.0,11797071.0,528.0,528.0,1608.0,1207.6,1591.0,891.0,Animal_Land_Solid_Large,45.20453916606493,51.216359625104815,4.0,Animal_Land_Solid_Large,-9.0,,,,,,,,,,,
encoding,value,22,11794315,11800326,11797304.0,11797431.0,128.0,128.0,1596.3,642.0,1591.0,1269.0,Object_Sea_Pattern_Small,45.20453916606493,51.216359625104815,4.0,Animal_Land_Solid_Large,-9.0,,,,,,,,,,,
encoding,value,22,11794315,11800326,11797486.0,11798444.0,959.0,959.0,1613.9,1218.8,1591.0,891.0,Animal_Land_Solid_Large,45.20453916606493,51.216359625104815,4.0,Animal_Land_Solid_Large,-9.0,,,,,,,,,,,
encoding,value,22,11794315,11800326,11798690.0,11798856.0,167.0,167.0,1607.4,1261.3,1591.0,891.0,Animal_Land_Solid_Large,45.20453916606493,51.216359625104815,4.0,Animal_Land_Solid_Large,-9.0,,,,,,,,,,,
encoding,value,22,11794315,11800326,11798866.0,11799061.0,196.0,196.0,1611.0,1257.8,1591.0,891.0,Animal_Land_Solid_Large,45.20453916606493,51.216359625104815,4.0,Animal_Land_Solid_Large,-9.0,,,,,,,,,,,
encoding,value,22,11794315,11800326,11799340.0,11799600.0,261.0,261.0,1613.4,1212.3,1591.0,891.0,Animal_Land_Solid_Large,45.20453916606493,51.216359625104815,4.0,Animal_Land_Solid_Large,-9.0,,,,,,,,,,,
encoding,value,22,11794315,11800326,11799990.0,11800125.0,136.0,136.0,1680.1,1273.8,1591.0,891.0,Animal_Land_Solid_Large,45.20453916606493,51.216359625104815,4.0,Animal_Land_Solid_Large,-9.0,,,,,,,,,,,
encoding,value,22,11794315,11800326,11800136.0,11800368.0,233.0,190.0,1629.8,1284.3,1591.0,891.0,Animal_Land_Solid_Large,45.20453916606493,51.216359625104815,4.0,Animal_Land_Solid_Large,-9.0,,,,,,,,,,,
encoding,attention,22,11800327,11803345,11800389.0,11800675.0,287.0,287.0,1634.4,1192.3,1591.0,891.0,Animal_Land_Solid_Large,51.21649075020105,54.235013666097075,4.0,Animal_Land_Solid_Large,-9.0,-9.0,1.0,0.5136444999370724,,,,,,,,
encoding,attention,22,11800327,11803345,11800687.0,11801085.0,399.0,399.0,1562.2,1211.4,1591.0,891.0,Animal_Land_Solid_Large,51.21649075020105,54.235013666097075,4.0,Animal_Land_Solid_Large,-9.0,-9.0,1.0,0.5136444999370724,,,,,,,,
encoding,attention,22,11800327,11803345,11801328.0,11801544.0,217.0,217.0,1571.1,1135.0,1591.0,891.0,Animal_Land_Solid_Large,51.21649075020105,54.235013666097075,4.0,Animal_Land_Solid_Large,-9.0,-9.0,1.0,0.5136444999370724,,,,,,,,
encoding,attention,22,11800327,11803345,11801767.0,11801883.0,117.0,117.0,1571.6,1226.5,1591.0,891.0,Animal_Land_Solid_Large,51.21649075020105,54.235013666097075,4.0,Animal_Land_Solid_Large,-9.0,-9.0,1.0,0.5136444999370724,,,,,,,,
encoding,attention,22,11800327,11803345,11801905.0,11802240.0,336.0,336.0,1647.2,1300.6,1591.0,891.0,Animal_Land_Solid_Large,51.21649075020105,54.235013666097075,4.0,Animal_Land_Solid_Large,-9.0,-9.0,1.0,0.5136444999370724,,,,,,,,
encoding,attention,22,11800327,11803345,11802257.0,11802386.0,130.0,130.0,1586.7,1218.4,1591.0,891.0,Animal_Land_Solid_Large,51.21649075020105,54.235013666097075,4.0,Animal_Land_Solid_Large,-9.0,-9.0,1.0,0.5136444999370724,,,,,,,,
encoding,attention,22,11800327,11803345,11802629.0,11802682.0,54.0,54.0,1688.3,1078.6,1591.0,1269.0,Object_Sea_Pattern_Small,51.21649075020105,54.235013666097075,4.0,Animal_Land_Solid_Large,-9.0,-9.0,1.0,0.5136444999370724,,,,,,,,
encoding,attention,22,11800327,11803345,11802878.0,11803024.0,147.0,147.0,1788.2,1229.8,1591.0,891.0,Animal_Land_Solid_Large,51.21649075020105,54.235013666097075,4.0,Animal_Land_Solid_Large,-9.0,-9.0,1.0,0.5136444999370724,,,,,,,,
encoding,fixation,23,11803346,11804101,11803546.0,11803632.0,87.0,87.0,1996.7,1194.2,2249.0,891.0,Object_Sea_Solid_Large,54.23516329121776,54.99032816616818,4.0,Animal_Land_Pattern_Large,4.0,,,,,,,,,,,
encoding,fixation,23,11803346,11804101,11803974.0,11804063.0,90.0,90.0,1911.6,1143.4,1920.0,1080.0,fixation,54.23516329121776,54.99032816616818,4.0,Animal_Land_Pattern_Large,4.0,,,,,,,,,,,
encoding,image,23,11804101,11805112,11804279.0,11804581.0,303.0,303.0,2058.4,1199.5,2249.0,891.0,Object_Sea_Solid_Large,54.990436875028536,56.00149200018495,4.0,Animal_Land_Pattern_Large,4.0,,,,,,,,,,,
encoding,image,23,11804101,11805112,11804803.0,11804930.0,128.0,128.0,1921.8,1431.0,1920.0,700.0,Animal_Land_Pattern_Large,54.990436875028536,56.00149200018495,4.0,Animal_Land_Pattern_Large,4.0,,,,,,,,,,,
encoding,value,23,11805112,11811124,11805177.0,11805470.0,294.0,294.0,1465.1,1256.1,1591.0,891.0,Animal_Land_Solid_Large,56.001612125197425,62.01376966619864,4.0,Animal_Land_Pattern_Large,4.0,,,,,,,,,,,
encoding,value,23,11805112,11811124,11805708.0,11806107.0,400.0,400.0,1958.0,1397.4,1920.0,700.0,Animal_Land_Pattern_Large,56.001612125197425,62.01376966619864,4.0,Animal_Land_Pattern_Large,4.0,,,,,,,,,,,
encoding,value,23,11805112,11811124,11806462.0,11806973.0,512.0,512.0,1918.3,1385.0,1920.0,700.0,Animal_Land_Pattern_Large,56.001612125197425,62.01376966619864,4.0,Animal_Land_Pattern_Large,4.0,,,,,,,,,,,
encoding,value,23,11805112,11811124,11806982.0,11807678.0,697.0,697.0,1921.8,1391.1,1920.0,700.0,Animal_Land_Pattern_Large,56.001612125197425,62.01376966619864,4.0,Animal_Land_Pattern_Large,4.0,,,,,,,,,,,
encoding,value,23,11805112,11811124,11807904.0,11808435.0,532.0,532.0,1916.9,1419.4,1920.0,700.0,Animal_Land_Pattern_Large,56.001612125197425,62.01376966619864,4.0,Animal_Land_Pattern_Large,4.0,,,,,,,,,,,
encoding,value,23,11805112,11811124,11808677.0,11808835.0,159.0,159.0,1908.5,1508.8,1920.0,700.0,Animal_Land_Pattern_Large,56.001612125197425,62.01376966619864,4.0,Animal_Land_Pattern_Large,4.0,,,,,,,,,,,
encoding,value,23,11805112,11811124,11808858.0,11809805.0,948.0,948.0,1909.8,1419.4,1920.0,700.0,Animal_Land_Pattern_Large,56.001612125197425,62.01376966619864,4.0,Animal_Land_Pattern_Large,4.0,,,,,,,,,,,
encoding,value,23,11805112,11811124,11810019.0,11810666.0,648.0,648.0,1920.8,1397.5,1920.0,700.0,Animal_Land_Pattern_Large,56.001612125197425,62.01376966619864,4.0,Animal_Land_Pattern_Large,4.0,,,,,,,,,,,
encoding,value,23,11805112,11811124,11810678.0,11811587.0,910.0,446.0,1935.8,1403.7,1920.0,700.0,Animal_Land_Pattern_Large,56.001612125197425,62.01376966619864,4.0,Animal_Land_Pattern_Large,4.0,,,,,,,,,,,
encoding,attention,23,11811124,11814142,11811596.0,11812004.0,409.0,409.0,1880.9,1414.2,1920.0,700.0,Animal_Land_Pattern_Large,62.013878375058994,65.0313031252008,4.0,Animal_Land_Pattern_Large,4.0,4.0,1.0,0.5982186670880765,,,,,,,,
encoding,attention,23,11811124,11814142,11812230.0,11812938.0,709.0,709.0,1965.3,1395.2,1920.0,700.0,Animal_Land_Pattern_Large,62.013878375058994,65.0313031252008,4.0,Animal_Land_Pattern_Large,4.0,4.0,1.0,0.5982186670880765,,,,,,,,
encoding,fixation,24,11814142,11815647,11814183.0,11814429.0,247.0,247.0,1914.9,1445.1,1920.0,700.0,Animal_Land_Pattern_Large,65.03154029115103,66.53656445816159,4.0,Animal_Land_Pattern_Small,8.0,,,,,,,,,,,
encoding,fixation,24,11814142,11815647,11814456.0,11814633.0,178.0,178.0,1930.0,1179.8,1920.0,700.0,Animal_Land_Pattern_Large,65.03154029115103,66.53656445816159,4.0,Animal_Land_Pattern_Small,8.0,,,,,,,,,,,
encoding,fixation,24,11814142,11815647,11814645.0,11814756.0,112.0,112.0,1947.2,1127.4,1920.0,1080.0,fixation,65.03154029115103,66.53656445816159,4.0,Animal_Land_Pattern_Small,8.0,,,,,,,,,,,
