phase,event,onset,offset,trial_number,game,image,outcome,choice,correct,rt,letter,match,response,option,true_value,true_position,recalled_position,
encoding,fixation,8.936141959042288,9.696943000075407,1,1,Animal_Sea_Solid_Large,2,,,,,,,,,,,
encoding,image,9.697065792046487,10.714676875039004,1,1,Animal_Sea_Solid_Large,2,,,,,,,,,,,
encoding,value,10.714786250027828,16.73016945901327,1,1,Animal_Sea_Solid_Large,2,,,,,,,,,,,
encoding,attention,16.730289375060238,19.74852612509858,1,1,Animal_Sea_Solid_Large,2,+2,1,1.974790042033419,,,,,,,,
encoding,fixation,19.7486985840369,21.003942209063098,2,1,Animal_Land_Pattern_Small,-7,,,,,,,,,,,
encoding,image,21.004053250071593,22.015297459089197,2,1,Animal_Land_Pattern_Small,-7,,,,,,,,,,,
encoding,value,22.01541991706472,28.02765325002838,2,1,Animal_Land_Pattern_Small,-7,,,,,,,,,,,
encoding,attention,28.0277640420245,31.045603167032823,2,1,Animal_Land_Pattern_Small,-7,-7,1,0.4832925000227988,,,,,,,,
encoding,fixation,31.045759542030282,32.300883000018075,3,1,Animal_Sea_Pattern_Small,3,,,,,,,,,,,
encoding,image,32.30101300007664,33.31255133403465,3,1,Animal_Sea_Pattern_Small,3,,,,,,,,,,,
encoding,value,33.312680250033736,39.32515141705517,3,1,Animal_Sea_Pattern_Small,3,,,,,,,,,,,
encoding,attention,39.325292584020644,42.342054667067714,3,1,Animal_Sea_Pattern_Small,3,+3,1,0.5954086249694228,,,,,,,,
encoding,fixation,42.34221416700166,42.84740829200018,4,1,Object_Sea_Solid_Large,-2,,,,,,,,,,,
encoding,image,42.84753120900132,43.859090667101555,4,1,Object_Sea_Solid_Large,-2,,,,,,,,,,,
encoding,value,43.859217500081286,49.871063084108755,4,1,Object_Sea_Solid_Large,-2,,,,,,,,,,,
encoding,attention,49.871202834066935,52.888469250057824,4,1,Object_Sea_Solid_Large,-2,-2,1,0.8014429159229621,,,,,,,,
encoding,fixation,52.88861979206558,53.893576417001896,5,1,Object_Land_Solid_Large,-2,,,,,,,,,,,
encoding,image,53.89369429205544,54.90401991701219,5,1,Object_Land_Solid_Large,-2,,,,,,,,,,,
encoding,value,54.90412962506525,60.91513029206544,5,1,Object_Land_Solid_Large,-2,,,,,,,,,,,
encoding,attention,60.9152397090802,63.96886625001207,5,1,Object_Land_Solid_Large,-2,-2,1,1.5428308339323848,,,,,,,,
encoding,fixation,63.969078750000335,65.47402270906605,6,1,Object_Land_Pattern_Small,5,,,,,,,,,,,
encoding,image,65.47415204206482,66.48540383402724,6,1,Object_Land_Pattern_Small,5,,,,,,,,,,,
encoding,value,66.4855227090884,72.49820175010245,6,1,Object_Land_Pattern_Small,5,,,,,,,,,,,
encoding,attention,72.49831825005822,75.51626829209272,6,1,Object_Land_Pattern_Small,5,+5,1,0.6268358340021223,,,,,,,,
n-back,,,,1,1,,,,0,None,C,True,None,,,,,
n-back,,,,2,1,,,,1,None,Z,False,None,,,,,
n-back,,,,3,1,,,,1,None,N,False,None,,,,,
n-back,,,,4,1,,,,1,1.3526774580823258,Z,True,1,,,,,
n-back,,,,5,1,,,,1,None,V,False,None,,,,,
n-back,,,,6,1,,,,0,1.2812163339694962,N,False,1,,,,,
n-back,,,,7,1,,,,1,None,C,False,None,,,,,
n-back,,,,8,1,,,,1,1.0925112089607865,N,True,1,,,,,
n-back,,,,9,1,,,,1,None,N,False,None,,,,,
n-back,,,,10,1,,,,1,None,X,False,None,,,,,
n-back,,,,11,1,,,,1,0.7485675419447944,N,True,1,,,,,
n-back,,,,12,1,,,,1,None,C,False,None,,,,,
n-back,,,,13,1,,,,1,None,X,False,None,,,,,
n-back,,,,14,1,,,,1,None,B,False,None,,,,,
n-back,,,,15,1,,,,1,0.8614822090603411,X,True,1,,,,,
n-back,,,,16,1,,,,0,None,B,True,None,,,,,
n-back,,,,17,1,,,,1,None,V,False,None,,,,,
n-back,,,,18,1,,,,1,None,N,False,None,,,,,
n-back,,,,19,1,,,,1,None,C,False,None,,,,,
n-back,,,,20,1,,,,0,0.8190992090385407,B,False,1,,,,,
n-back,,,,21,1,,,,1,None,X,False,None,,,,,
n-back,,,,22,1,,,,0,None,B,True,None,,,,,
n-back,,,,23,1,,,,1,0.7821969580836594,X,True,1,,,,,
n-back,,,,24,1,,,,1,None,Z,False,None,,,,,
n-back,,,,25,1,,,,1,None,Z,False,None,,,,,
n-back,,,,26,1,,,,1,None,C,False,None,,,,,
n-back,,,,27,1,,,,1,0.5637147499946877,Z,True,1,,,,,
n-back,,,,28,1,,,,1,None,Z,False,None,,,,,
n-back,,,,29,1,,,,0,None,Z,True,None,,,,,
n-back,,,,30,1,,,,1,None,V,False,None,,,,,
choice,fixation,156.20924608409405,156.7154921250185,1,1,,,,,,,,,Solid,,,,
choice,option,156.72508716699667,157.83626229211222,1,1,,,,,,,,,Solid,,,,
choice,choice,157.83637579204515,163.0088270000415,1,1,,,1,0,4.162718583014794,,,,Solid,,,,
choice,fixation,163.00895654200576,164.01437854208052,2,1,,,,,,,,,Small,,,,
choice,option,164.02355312509462,165.051706459024,2,1,,,,,,,,,Small,,,,
choice,choice,165.0518269590102,197.28554358403198,2,1,,,1,1,31.218469833023846,,,,Small,,,,
choice,fixation,197.28567629202735,198.04062812507618,3,1,,,,,,,,,Animal,,,,
choice,option,198.05018220900092,199.077454292099,3,1,,,,,,,,,Animal,,,,
choice,choice,199.0775709170848,211.5293804591056,3,1,,,2,1,11.440919917076826,,,,Animal,,,,
choice,fixation,211.52953587507363,212.28453216701746,4,1,,,,,,,,,Sea,,,,
choice,option,212.2927822500933,213.32004087499809,4,1,,,,,,,,,Sea,,,,
choice,choice,213.3201600840548,223.09677016700152,4,1,,,1,1,8.766483458108269,,,,Sea,,,,
choice,fixation,223.09697354200762,223.85199629201088,5,1,,,,,,,,,Large,,,,
choice,option,223.86080404208042,224.88835945900064,5,1,,,,,,,,,Large,,,,
choice,choice,224.8884788340656,245.96789712505415,5,1,,,1,0,20.06888000003528,,,,Large,,,,
choice,fixation,245.9680484170094,247.47302458400372,6,1,,,,,,,,,Pattern,,,,
choice,option,247.48252833401784,248.5102512500016,6,1,,,,,,,,,Pattern,,,,
choice,choice,248.51039079204202,251.6061825840734,6,1,,,2,0,2.0861965420190245,,,,Pattern,,,,
choice,fixation,251.60630533401854,253.1113234590739,7,1,,,,,,,,,Object,,,,
choice,option,253.12108579208143,254.1486567920074,7,1,,,,,,,,,Object,,,,
choice,choice,254.14877575007267,262.1129051670432,7,1,,,2,0,6.953980624908581,,,,Object,,,,
choice,fixation,262.11305954202544,262.618181167054,8,1,,,,,,,,,Land,,,,
choice,option,262.62686658406164,263.65418599999975,8,1,,,,,,,,,Land,,,,
choice,choice,263.65436854201835,272.7290407920955,8,1,,,2,1,8.064403916941956,,,,Land,,,,
memory,free_recall,336.906071000034,345.0269756250782,0,1,,,,,,,,,,,,,
memory,value_recall,386.9652159590041,389.10575787501875,1,1,Object_Land_Solid_Large,,,,2.1373706669546664,,,,,-2,,,
memory,value_recall,390.65272041701246,392.0538237920264,2,1,Animal_Sea_Pattern_Small,,,,1.396642166073434,,,,,3,,,
memory,value_recall,393.8499172090087,395.2988791250391,3,1,Animal_Land_Pattern_Small,,,,1.4449481250485405,,,,,-7,,,
memory,value_recall,396.8453890840756,398.4572602499975,4,1,Object_Land_Pattern_Small,,,,1.6078677909681574,,,,,5,,,
memory,value_recall,400.5058535001008,402.2987925420748,5,1,Object_Sea_Solid_Large,,,,1.7885199169395491,,,,,-2,,,
memory,value_recall,403.84611170901917,405.29105687502306,6,1,Animal_Sea_Solid_Large,,,,1.4407163750147447,,,,,2,,,
memory,spatial_recall,430.2672719170805,434.55486900010146,6,1,Object_Land_Solid_Large,,,1,4.283608708065003,,,,,,"[-329, 190]","[-329, 190]",
memory,spatial_recall,435.6178186670877,438.4054185000714,6,1,Animal_Land_Pattern_Small,,,1,2.78461850003805,,,,,,"[0, -380]","[0, -380]",
memory,spatial_recall,440.2211889590835,442.53754337504506,6,1,Object_Sea_Solid_Large,,,1,2.312209542025812,,,,,,"[329, 189]","[329, 189]",
memory,spatial_recall,444.10288395907264,446.8195910000941,6,1,Animal_Sea_Pattern_Small,,,1,2.712919250014238,,,,,,"[329, -190]","[329, -190]",
memory,spatial_recall,448.12711758411024,449.499006500002,6,1,Object_Land_Pattern_Small,,,1,1.3678485840791836,,,,,,"[-329, -190]","[-329, -190]",
memory,spatial_recall,451.05415991705377,456.8070285420399,6,1,Animal_Sea_Solid_Large,,,1,5.74878454208374,,,,,,"[0, 380]","[0, 380]",
encoding,fixation,8.684533249936067,10.189763124915771,7,2,Object_Land_Solid_Small,-9,,,,,,,,,,,
encoding,image,10.189882541890256,11.201442666933872,7,2,Object_Land_Solid_Small,-9,,,,,,,,,,,
encoding,value,11.201556541956961,17.2147610419197,7,2,Object_Land_Solid_Small,-9,,,,,,,,,,,
encoding,attention,17.214898583944887,20.232133208890446,7,2,Object_Land_Solid_Small,-9,-9,1,0.8165788749465719,,,,,,,,
encoding,fixation,20.232291499967687,20.98763354192488,8,2,Animal_Sea_Solid_Small,1,,,,,,,,,,,
encoding,image,20.98774395894725,21.998321041930467,8,2,Animal_Sea_Solid_Small,1,,,,,,,,,,,
encoding,value,21.998432541964576,28.01201266690623,8,2,Animal_Sea_Solid_Small,1,,,,,,,,,,,
encoding,attention,28.012128416914493,31.0301977499621,8,2,Animal_Sea_Solid_Small,1,+1,1,0.8826759580988437,,,,,,,,
encoding,fixation,31.030344416969456,32.53553429199383,9,2,Object_Land_Pattern_Large,9,,,,,,,,,,,
encoding,image,32.53565491689369,33.54692520899698,9,2,Object_Land_Pattern_Large,9,,,,,,,,,,,
encoding,value,33.54703974991571,39.55891191691626,9,2,Object_Land_Pattern_Large,9,,,,,,,,,,,
encoding,attention,39.55902991699986,42.57819537492469,9,2,Object_Land_Pattern_Large,9,+9,1,0.7189148749457672,,,,,,,,
encoding,fixation,42.578479958930984,43.583600624930114,10,2,Animal_Land_Solid_Small,1,,,,,,,,,,,
encoding,image,43.58371091692243,44.59441804199014,10,2,Animal_Land_Solid_Small,1,,,,,,,,,,,
encoding,value,44.59453191689681,50.605733749922365,10,2,Animal_Land_Solid_Small,1,,,,,,,,,,,
encoding,attention,50.60592720890418,53.62374895892572,10,2,Animal_Land_Solid_Small,1,+1,1,0.7774475420592353,,,,,,,,
encoding,fixation,53.623896042001434,54.37896037497558,11,2,Object_Sea_Pattern_Large,-7,,,,,,,,,,,
encoding,image,54.37907220888883,55.39053241699003,11,2,Object_Sea_Pattern_Large,-7,,,,,,,,,,,
encoding,value,55.390682916971855,61.40277295897249,11,2,Object_Sea_Pattern_Large,-7,,,,,,,,,,,
encoding,attention,61.40290012490004,64.4204171668971,11,2,Object_Sea_Pattern_Large,-7,-7,1,0.5972836249275133,,,,,,,,
encoding,fixation,64.42057858395856,65.92570829193573,12,2,Animal_Sea_Pattern_Large,-8,,,,,,,,,,,
encoding,image,65.92583024990745,66.93617066694424,12,2,Animal_Sea_Pattern_Large,-8,,,,,,,,,,,
encoding,value,66.93635129195172,72.94713866699021,12,2,Animal_Sea_Pattern_Large,-8,,,,,,,,,,,
encoding,attention,72.94726204196922,75.96774166694377,12,2,Animal_Sea_Pattern_Large,-8,-8,1,0.62424649996683,,,,,,,,
n-back,,,,31,2,,,,0,None,B,True,None,,,,,
n-back,,,,32,2,,,,1,None,Z,False,None,,,,,
n-back,,,,33,2,,,,1,None,C,False,None,,,,,
n-back,,,,34,2,,,,1,1.0034442079486325,Z,True,1,,,,,
n-back,,,,35,2,,,,1,None,Z,False,None,,,,,
n-back,,,,36,2,,,,0,None,Z,True,None,,,,,
n-back,,,,37,2,,,,1,None,X,False,None,,,,,
n-back,,,,38,2,,,,1,None,C,False,None,,,,,
n-back,,,,39,2,,,,1,None,B,False,None,,,,,
n-back,,,,40,2,,,,1,None,V,False,None,,,,,
n-back,,,,41,2,,,,1,0.6674522499088198,B,True,1,,,,,
n-back,,,,42,2,,,,1,1.0591377090895548,V,True,1,,,,,
n-back,,,,43,2,,,,1,None,V,False,None,,,,,
n-back,,,,44,2,,,,1,None,C,False,None,,,,,
n-back,,,,45,2,,,,1,None,Z,False,None,,,,,
n-back,,,,46,2,,,,1,None,N,False,None,,,,,
n-back,,,,47,2,,,,1,None,V,False,None,,,,,
n-back,,,,48,2,,,,1,0.9730905829928815,N,True,1,,,,,
n-back,,,,49,2,,,,1,None,N,False,None,,,,,
n-back,,,,50,2,,,,0,None,N,True,None,,,,,
n-back,,,,51,2,,,,1,None,Z,False,None,,,,,
n-back,,,,52,2,,,,1,0.7448469160590321,N,True,1,,,,,
n-back,,,,53,2,,,,1,None,X,False,None,,,,,
n-back,,,,54,2,,,,1,None,B,False,None,,,,,
n-back,,,,55,2,,,,1,None,B,False,None,,,,,
n-back,,,,56,2,,,,1,None,X,False,None,,,,,
n-back,,,,57,2,,,,1,1.0217292919987813,B,True,1,,,,,
n-back,,,,58,2,,,,1,None,N,False,None,,,,,
n-back,,,,59,2,,,,0,None,B,True,None,,,,,
n-back,,,,60,2,,,,1,None,Z,False,None,,,,,
choice,fixation,151.5897042088909,152.59303804195952,9,2,,,,,,,,,Pattern,,,,
choice,option,152.6025963339489,153.63064329198096,9,2,,,,,,,,,Pattern,,,,
choice,choice,153.63076829200145,194.13464412488975,9,2,,,1,0,39.49294575001113,,,,Pattern,,,,
choice,fixation,194.13480737491045,195.64003049989697,10,2,,,,,,,,,Sea,,,,
choice,option,195.64844758389518,196.67491462489124,10,2,,,,,,,,,Sea,,,,
choice,choice,196.67503983399365,222.25861624989193,10,2,,,2,1,24.572769084014,,,,Sea,,,,
choice,fixation,222.2587622499559,223.0137127089547,11,2,,,,,,,,,Land,,,,
choice,option,223.02227437496185,224.04967149998993,11,2,,,,,,,,,Land,,,,
choice,choice,224.04979462490883,233.18672374996822,11,2,,,1,1,8.126673542079516,,,,Land,,,,
choice,fixation,233.1868622499751,234.69097854197025,12,2,,,,,,,,,Solid,,,,
choice,option,234.70110245898832,235.72794129198883,12,2,,,,,,,,,Solid,,,,
choice,choice,235.72806454193778,260.09059749997687,12,2,,,2,1,23.351438875077292,,,,Solid,,,,
choice,fixation,260.090790374903,261.3458588339854,13,2,,,,,,,,,Large,,,,
choice,option,261.3542447919026,262.3808235839242,13,2,,,,,,,,,Large,,,,
choice,choice,262.38095283391885,277.72252304200083,13,2,,,2,1,14.330751167028211,,,,Large,,,,
choice,fixation,277.72266145888716,279.2307190418942,14,2,,,,,,,,,Animal,,,,
choice,option,279.2401178749278,280.2667990839109,14,2,,,,,,,,,Animal,,,,
choice,choice,280.26701879198663,285.50422020896804,14,2,,,2,1,4.227787292096764,,,,Animal,,,,
choice,fixation,285.5043432089733,286.00921362498775,15,2,,,,,,,,,Object,,,,
choice,option,286.01877558394335,287.0454998339992,15,2,,,,,,,,,Object,,,,
choice,choice,287.04561995889526,289.6089067088906,15,2,,,1,0,1.5534402909688652,,,,Object,,,,
choice,fixation,289.60902970889583,290.61357204196975,16,2,,,,,,,,,Small,,,,
choice,option,290.62244966696016,291.649192291894,16,2,,,,,,,,,Small,,,,
choice,choice,291.64932004199363,295.6971807499649,16,2,,,1,0,3.038086959044449,,,,Small,,,,
memory,free_recall,314.62002470891457,327.0764013339067,6,2,,,,,,,,,,,,,
memory,value_recall,334.10781424993183,337.12487774994224,7,2,Animal_Sea_Pattern_Large,,,,3.012937124934979,,,,,-8,,,
memory,value_recall,338.4215827919543,340.77263295894954,8,2,Animal_Sea_Solid_Small,,,,2.346796290948987,,,,,1,,,
memory,value_recall,342.82010508398525,345.866336749983,9,2,Object_Land_Pattern_Large,,,,3.042100708000362,,,,,9,,,
memory,value_recall,346.91281154192984,349.2675492919516,10,2,Animal_Land_Solid_Small,,,,2.352022667066194,,,,,1,,,
memory,value_recall,350.31339808390476,352.77279020892456,11,2,Object_Sea_Pattern_Large,,,,2.4568445419427007,,,,,-7,,,
memory,value_recall,353.81900937494356,355.7863354169531,12,2,Object_Land_Solid_Small,,,,1.9647998329019174,,,,,-9,,,
memory,spatial_recall,361.0871856668964,365.0627157089766,12,2,Animal_Sea_Pattern_Large,,,1,3.971456457977183,,,,,,"[0, -380]","[0, -380]",
memory,spatial_recall,366.8745510838926,369.1976006249897,12,2,Object_Land_Pattern_Large,,,1,2.319111834047362,,,,,,"[0, 380]","[0, 380]",
memory,spatial_recall,370.5036087089684,372.63546787493397,12,2,Object_Land_Solid_Small,,,1,2.127777458052151,,,,,,"[329, -190]","[329, -190]",
memory,spatial_recall,373.949438874959,376.0173720419407,12,2,Object_Sea_Pattern_Large,,,1,2.0636230420786887,,,,,,"[-329, -190]","[-329, -190]",
memory,spatial_recall,377.0795029589208,378.88228195894044,12,2,Animal_Land_Solid_Small,,,1,1.800335458945483,,,,,,"[-329, 190]","[-329, 190]",
memory,spatial_recall,380.9397596248891,382.01656449993607,12,2,Animal_Sea_Solid_Small,,,1,1.0727274169912562,,,,,,"[329, 189]","[329, 189]",
encoding,fixation,6.166306499973871,7.671712624956854,13,3,Animal_Land_Solid_Small,-6,,,,,,,,,,,
encoding,image,7.67183791694697,8.682706541963853,13,3,Animal_Land_Solid_Small,-6,,,,,,,,,,,
encoding,value,8.682822291972116,14.695483083021827,13,3,Animal_Land_Solid_Small,-6,,,,,,,,,,,
encoding,attention,14.695600042003207,17.71368666703347,13,3,Animal_Land_Solid_Small,-6,-6,1,0.8814739170484245,,,,,,,,
encoding,fixation,17.71386616700329,19.2188721250277,14,3,Object_Sea_Pattern_Large,-1,,,,,,,,,,,
encoding,image,19.219001916935667,20.23121433297638,14,3,Object_Sea_Pattern_Large,-1,,,,,,,,,,,
encoding,value,20.23133424995467,26.24394937499892,14,3,Object_Sea_Pattern_Large,-1,,,,,,,,,,,
encoding,attention,26.244120207964443,29.261307707987726,14,3,Object_Sea_Pattern_Large,-1,-1,1,0.6055094160838053,,,,,,,,
encoding,fixation,29.261449291952886,30.016366166993976,15,3,Animal_Land_Pattern_Large,-6,,,,,,,,,,,
encoding,image,30.01647937495727,31.027740749996156,15,3,Animal_Land_Pattern_Large,-6,,,,,,,,,,,
encoding,value,31.027852250030264,37.03878483292647,15,3,Animal_Land_Pattern_Large,-6,,,,,,,,,,,
encoding,attention,37.03889874997549,40.05617437500041,15,3,Animal_Land_Pattern_Large,-6,-6,1,0.5628633330343291,,,,,,,,
encoding,fixation,40.05638670793269,41.31143516697921,16,3,Object_Sea_Pattern_Small,9,,,,,,,,,,,
encoding,image,41.31156820803881,42.32404187496286,16,3,Object_Sea_Pattern_Small,9,,,,,,,,,,,
encoding,value,42.32423266698606,48.33583875000477,16,3,Object_Sea_Pattern_Small,9,,,,,,,,,,,
encoding,attention,48.335961333010346,51.35446549998596,16,3,Object_Sea_Pattern_Small,9,+9,1,1.1138367919484153,,,,,,,,
encoding,fixation,51.3546235000249,52.10965300002135,17,3,Object_Sea_Solid_Small,-1,,,,,,,,,,,
encoding,image,52.10978375002742,53.11978695797734,17,3,Object_Sea_Solid_Small,-1,,,,,,,,,,,
encoding,value,53.11990670801606,59.13054375001229,17,3,Object_Sea_Solid_Small,-1,,,,,,,,,,,
encoding,attention,59.13066391693428,62.14656445803121,17,3,Object_Sea_Solid_Small,-1,-1,1,0.6256367919268087,,,,,,,,
encoding,fixation,62.14671229198575,63.15172637498472,18,3,Animal_Land_Solid_Large,8,,,,,,,,,,,
encoding,image,63.15183204202913,64.16510341700632,18,3,Animal_Land_Solid_Large,8,,,,,,,,,,,
encoding,value,64.16525358299259,70.17797279194929,18,3,Animal_Land_Solid_Large,8,,,,,,,,,,,
encoding,attention,70.17822408303618,73.19540500000585,18,3,Animal_Land_Solid_Large,8,+8,1,1.1226244589779526,,,,,,,,
n-back,,,,61,3,,,,0,0.17705499997828156,C,False,1,,,,,
n-back,,,,62,3,,,,1,None,V,False,None,,,,,
n-back,,,,63,3,,,,0,None,C,True,None,,,,,
n-back,,,,64,3,,,,1,None,Z,False,None,,,,,
n-back,,,,65,3,,,,1,None,N,False,None,,,,,
n-back,,,,66,3,,,,1,None,V,False,None,,,,,
n-back,,,,67,3,,,,1,0.6757722080219537,N,True,1,,,,,
n-back,,,,68,3,,,,1,0.9911225420655683,V,True,1,,,,,
n-back,,,,69,3,,,,1,None,Z,False,None,,,,,
n-back,,,,70,3,,,,1,None,C,False,None,,,,,
n-back,,,,71,3,,,,1,None,N,False,None,,,,,
n-back,,,,72,3,,,,1,None,X,False,None,,,,,
n-back,,,,73,3,,,,1,None,V,False,None,,,,,
n-back,,,,74,3,,,,1,0.7780517910141498,X,True,1,,,,,
n-back,,,,75,3,,,,1,0.776693542022258,V,True,1,,,,,
n-back,,,,76,3,,,,1,1.1240442920243368,X,True,1,,,,,
n-back,,,,77,3,,,,0,None,V,True,None,,,,,
n-back,,,,78,3,,,,1,None,N,False,None,,,,,
n-back,,,,79,3,,,,1,None,B,False,None,,,,,
n-back,,,,80,3,,,,1,None,Z,False,None,,,,,
n-back,,,,81,3,,,,1,None,X,False,None,,,,,
n-back,,,,82,3,,,,1,None,C,False,None,,,,,
n-back,,,,83,3,,,,1,0.6853259579511359,X,True,1,,,,,
n-back,,,,84,3,,,,0,None,C,True,None,,,,,
n-back,,,,85,3,,,,1,None,B,False,None,,,,,
n-back,,,,86,3,,,,1,None,B,False,None,,,,,
n-back,,,,87,3,,,,1,None,Z,False,None,,,,,
n-back,,,,88,3,,,,1,None,N,False,None,,,,,
n-back,,,,89,3,,,,1,None,N,False,None,,,,,
n-back,,,,90,3,,,,0,None,N,True,None,,,,,
choice,fixation,144.6142161670141,146.1174802079331,17,3,,,,,,,,,Land,,,,
choice,option,146.12604050000664,147.1536850000266,17,3,,,,,,,,,Land,,,,
choice,choice,147.15380550001282,168.6278742919676,17,3,,,2,1,20.462851708987728,,,,Land,,,,
choice,fixation,168.62805095803924,169.88308683293872,18,3,,,,,,,,,Pattern,,,,
choice,option,169.89233145792969,170.91958845802583,18,3,,,,,,,,,Pattern,,,,
choice,choice,170.9197049170034,188.02138441696297,18,3,,,1,1,16.090838625095785,,,,Pattern,,,,
choice,fixation,188.02156812499743,189.27660954196472,19,3,,,,,,,,,Animal,,,,
choice,option,189.28658950002864,190.31403554196004,19,3,,,,,,,,,Animal,,,,
choice,choice,190.31415312492754,196.31660466699395,19,3,,,2,1,4.992626124992967,,,,Animal,,,,
choice,fixation,196.3167380419327,197.07175908295903,20,3,,,,,,,,,Object,,,,
choice,option,197.0813677079277,198.10905491700396,20,3,,,,,,,,,Object,,,,
choice,choice,198.10916829202324,210.27160283294506,20,3,,,1,1,11.15167383395601,,,,Object,,,,
choice,fixation,210.27174070803449,211.77682991698384,21,3,,,,,,,,,Sea,,,,
choice,option,211.78536758292466,212.81260783295147,21,3,,,,,,,,,Sea,,,,
choice,choice,212.81276283296756,224.40074666694272,21,3,,,1,1,10.574085791013204,,,,Sea,,,,
choice,fixation,224.40088075003587,225.90579987503588,22,3,,,,,,,,,Large,,,,
choice,option,225.9146129169967,226.94109466695227,22,3,,,,,,,,,Large,,,,
choice,choice,226.9412248749286,241.12396962498315,22,3,,,1,1,13.171709959045984,,,,Large,,,,
choice,fixation,241.12410379201174,242.6290799579583,23,3,,,,,,,,,Small,,,,
choice,option,242.63808508298825,243.6649328749627,23,3,,,,,,,,,Small,,,,
choice,choice,243.66504200000782,258.1074206669582,23,3,,,1,1,13.431264540995471,,,,Small,,,,
choice,fixation,258.1075529169757,259.3626718749292,24,3,,,,,,,,,Solid,,,,
choice,option,259.3718323330395,260.3983596250182,24,3,,,,,,,,,Solid,,,,
choice,choice,260.3984969999874,278.97404141700827,24,3,,,1,1,17.56397070805542,,,,Solid,,,,
memory,free_recall,289.91839837504085,297.2166932920227,12,3,,,,,,,,,,,,,
memory,value_recall,302.6346079169307,304.7117725419812,13,3,Object_Sea_Pattern_Small,,,,2.073025624966249,,,,,9,,,
memory,value_recall,305.75753041694406,307.805077582947,14,3,Animal_Land_Solid_Small,,,,2.0411534160375595,,,,,-6,,,
memory,value_recall,309.8500925420085,311.509872833034,15,3,Animal_Land_Solid_Large,,,,1.6554782920284197,,,,,8,,,
memory,value_recall,313.30553120793775,314.7742686669808,16,3,Animal_Land_Pattern_Large,,,,1.4641802919795737,,,,,-6,,,
memory,value_recall,316.3196532499278,317.45422404201236,17,3,Object_Sea_Pattern_Large,,,,1.1303879170445725,,,,,-1,,,
memory,value_recall,319.2506672079908,320.20030575001147,18,3,Object_Sea_Solid_Small,,,,0.945589332957752,,,,,-1,,,
memory,spatial_recall,325.1548547919374,329.02392029203475,18,3,Animal_Land_Pattern_Large,,,1,3.864747916930355,,,,,,"[329, 189]","[329, 189]",
memory,spatial_recall,331.08861216693185,333.1210834579542,18,3,Object_Sea_Pattern_Large,,,1,2.0285514999413863,,,,,,"[-329, -190]","[-329, -190]",
memory,spatial_recall,334.43227166694123,336.6514218749944,18,3,Object_Sea_Solid_Small,,,1,2.2150037500541657,,,,,,"[329, -190]","[329, -190]",
memory,spatial_recall,338.20700287492946,340.08947825001087,18,3,Object_Sea_Pattern_Small,,,1,1.8783097499981523,,,,,,"[0, -380]","[0, -380]",
memory,spatial_recall,341.9032184999669,343.91972250002436,18,3,Animal_Land_Solid_Large,,,1,2.0123992919689044,,,,,,"[0, 380]","[0, 380]",
memory,spatial_recall,345.9827503749402,347.44828704197425,18,3,Animal_Land_Solid_Small,,,1,1.4612657919060439,,,,,,"[-329, 190]","[-329, 190]",
encoding,fixation,2.5357127089519054,3.5408731669886038,19,4,Animal_Sea_Pattern_Small,1,,,,,,,,,,,
encoding,image,3.540999084012583,4.552710958989337,19,4,Animal_Sea_Pattern_Small,1,,,,,,,,,,,
encoding,value,4.552819791948423,10.566106667043641,19,4,Animal_Sea_Pattern_Small,1,,,,,,,,,,,
encoding,attention,10.566250375006348,13.583269500057213,19,4,Animal_Sea_Pattern_Small,1,+1,1,0.8002709579886869,,,,,,,,
encoding,fixation,13.58343508397229,14.338479959056713,20,4,Animal_Sea_Solid_Large,6,,,,,,,,,,,
encoding,image,14.338601666968316,15.350278833997436,20,4,Animal_Sea_Solid_Large,6,,,,,,,,,,,
encoding,value,15.350410916958936,21.3621505839983,20,4,Animal_Sea_Solid_Large,6,,,,,,,,,,,
encoding,attention,21.36226441699546,24.379020208958536,20,4,Animal_Sea_Solid_Large,6,+6,1,1.3055866250069812,,,,,,,,
encoding,fixation,24.379305709037,25.134707999997772,21,4,Object_Sea_Solid_Large,-8,,,,,,,,,,,
encoding,image,25.134822917054407,26.14653475000523,21,4,Object_Sea_Solid_Large,-8,,,,,,,,,,,
encoding,value,26.146643458982,32.15962045895867,21,4,Object_Sea_Solid_Large,-8,,,,,,,,,,,
encoding,attention,32.159748291946016,35.176801791996695,21,4,Object_Sea_Solid_Large,-8,-8,1,0.655835916986689,,,,,,,,
encoding,fixation,35.177020916948095,35.932337249978445,22,4,Object_Land_Solid_Large,4,,,,,,,,,,,
encoding,image,35.93243845901452,36.94542108394671,22,4,Object_Land_Solid_Large,4,,,,,,,,,,,
encoding,value,36.94553066696972,42.95732908404898,22,4,Object_Land_Solid_Large,4,,,,,,,,,,,
encoding,attention,42.95749549998436,45.97384833404794,22,4,Object_Land_Solid_Large,4,+4,1,0.45710045809391886,,,,,,,,
encoding,fixation,45.9740047090454,46.97919570899103,23,4,Object_Land_Pattern_Small,1,,,,,,,,,,,
encoding,image,46.97930579201784,47.99110587500036,23,4,Object_Land_Pattern_Small,1,,,,,,,,,,,
encoding,value,47.991289792000316,54.00324949994683,23,4,Object_Land_Pattern_Small,1,,,,,,,,,,,
encoding,attention,54.00338145904243,57.02113050001208,23,4,Object_Land_Pattern_Small,1,+1,1,1.3988529170164838,,,,,,,,
encoding,fixation,57.02128600003198,57.77918887499254,24,4,Animal_Land_Pattern_Small,-6,,,,,,,,,,,
encoding,image,57.779311749967746,58.79026379203424,24,4,Animal_Land_Pattern_Small,-6,,,,,,,,,,,
encoding,value,58.79040924995206,64.80181237496436,24,4,Animal_Land_Pattern_Small,-6,,,,,,,,,,,
encoding,attention,64.8019253340317,67.81894925003871,24,4,Animal_Land_Pattern_Small,-6,-4,0,1.9163123330799863,,,,,,,,
n-back,,,,91,4,,,,0,None,C,True,None,,,,,
n-back,,,,92,4,,,,1,None,C,False,None,,,,,
n-back,,,,93,4,,,,1,None,X,False,None,,,,,
n-back,,,,94,4,,,,1,1.0167110830079764,C,True,1,,,,,
n-back,,,,95,4,,,,0,None,X,True,None,,,,,
n-back,,,,96,4,,,,1,0.9949688330525532,C,True,1,,,,,
n-back,,,,97,4,,,,1,0.8437255000462756,X,True,1,,,,,
n-back,,,,98,4,,,,1,None,V,False,None,,,,,
n-back,,,,99,4,,,,0,None,X,True,None,,,,,
n-back,,,,100,4,,,,1,None,C,False,None,,,,,
n-back,,,,101,4,,,,1,None,B,False,None,,,,,
n-back,,,,102,4,,,,1,None,X,False,None,,,,,
n-back,,,,103,4,,,,1,0.5355443339794874,B,True,1,,,,,
n-back,,,,104,4,,,,1,None,Z,False,None,,,,,
n-back,,,,105,4,,,,1,None,Z,False,None,,,,,
n-back,,,,106,4,,,,1,None,N,False,None,,,,,
n-back,,,,107,4,,,,1,None,B,False,None,,,,,
n-back,,,,108,4,,,,1,None,X,False,None,,,,,
n-back,,,,109,4,,,,0,None,B,True,None,,,,,
n-back,,,,110,4,,,,1,None,Z,False,None,,,,,
n-back,,,,111,4,,,,1,None,X,False,None,,,,,
n-back,,,,112,4,,,,0,None,Z,True,None,,,,,
n-back,,,,113,4,,,,1,None,B,False,None,,,,,
n-back,,,,114,4,,,,0,0.6213338749948889,X,False,1,,,,,
n-back,,,,115,4,,,,1,None,C,False,None,,,,,
n-back,,,,116,4,,,,1,None,C,False,None,,,,,
n-back,,,,117,4,,,,0,None,C,True,None,,,,,
n-back,,,,118,4,,,,1,None,V,False,None,,,,,
n-back,,,,119,4,,,,1,None,Z,False,None,,,,,
n-back,,,,120,4,,,,0,0.6745765829691663,C,False,1,,,,,
choice,fixation,146.3252417499898,147.82890974998008,25,4,,,,,,,,,Large,,,,
choice,option,147.83711154200137,148.8656239999691,25,4,,,,,,,,,Large,,,,
choice,choice,148.86581945896614,169.86946537496988,25,4,,,1,1,19.99227895902004,,,,Large,,,,
choice,fixation,169.8695916669676,170.37471891695168,26,4,,,,,,,,,Small,,,,
choice,option,170.38349295896478,171.41052095894702,26,4,,,,,,,,,Small,,,,
choice,choice,171.4106321670115,182.91856691695284,26,4,,,2,1,10.496484915958717,,,,Small,,,,
choice,fixation,182.91870979196392,184.42363229196053,27,4,,,,,,,,,Land,,,,
choice,option,184.4322604170302,185.45984829205554,27,4,,,,,,,,,Land,,,,
choice,choice,185.45996783406008,208.18997341697104,27,4,,,2,1,21.719300207914785,,,,Land,,,,
choice,fixation,208.19011058402248,209.69521491695195,28,4,,,,,,,,,Object,,,,
choice,option,209.7046120839659,210.73089520900976,28,4,,,,,,,,,Object,,,,
choice,choice,210.7310027499916,220.5821489590453,28,4,,,2,1,8.840685790986754,,,,Object,,,,
choice,fixation,220.58227608399466,221.5872429170413,29,4,,,,,,,,,Solid,,,,
choice,option,221.5968842500588,222.62397820898332,29,4,,,,,,,,,Solid,,,,
choice,choice,222.62408733402845,241.5861774169607,29,4,,,1,1,17.951579749933444,,,,Solid,,,,
choice,fixation,241.58630837500095,242.34138458396774,30,4,,,,,,,,,Animal,,,,
choice,option,242.35055720899254,243.37874908396043,30,4,,,,,,,,,Animal,,,,
choice,choice,243.37893241702113,252.55609483399894,30,4,,,1,1,8.166923791985027,,,,Animal,,,,
choice,fixation,252.55622962501366,253.06108150002547,31,4,,,,,,,,,Sea,,,,
choice,option,253.0695571670076,254.09586062503513,31,4,,,,,,,,,Sea,,,,
choice,choice,254.09596770897042,272.0781916669803,31,4,,,2,1,16.97128237504512,,,,Sea,,,,
choice,fixation,272.0783939169487,272.58365116699133,32,4,,,,,,,,,Pattern,,,,
choice,option,272.5927789170528,273.6197544169845,32,4,,,,,,,,,Pattern,,,,
choice,choice,273.61990937497467,280.91598420904484,32,4,,,2,1,6.2863810419803485,,,,Pattern,,,,
memory,free_recall,297.6140207919525,305.8002417089883,18,4,,,,,,,,,,,,,
memory,value_recall,310.77507745905314,313.7627741670003,19,4,Animal_Sea_Solid_Large,,,,2.983704625046812,,,,,6,,,
memory,value_recall,315.31013970903587,318.23153708397876,20,4,Object_Land_Solid_Large,,,,2.917245874996297,,,,,4,,,
memory,value_recall,319.77862029196694,321.2316544170026,21,4,Object_Land_Pattern_Small,,,,1.4490341249620542,,,,,1,,,
memory,value_recall,322.5276192500023,324.24407954199705,22,4,Animal_Sea_Pattern_Small,,,,1.7118988329311833,,,,,1,,,
memory,value_recall,325.7897903750418,327.2801979170181,23,4,Animal_Land_Pattern_Small,,,,1.4861743749352172,,,,,-6,,,
memory,value_recall,328.3168095840374,330.48838250001427,24,4,Object_Sea_Solid_Large,,,,2.1681564170867205,,,,,-8,,,
memory,spatial_recall,335.1691244590329,337.58085016696714,24,4,Object_Land_Solid_Large,,,1,2.408563624951057,,,,,,"[-329, 190]","[-329, 190]",
memory,spatial_recall,339.1424209170509,341.6677880840143,24,4,Object_Sea_Solid_Large,,,1,2.521231208113022,,,,,,"[329, 189]","[329, 189]",
memory,spatial_recall,343.48257362504955,344.46475775004365,24,4,Animal_Sea_Pattern_Small,,,1,0.9782440410926938,,,,,,"[329, -190]","[329, -190]",
memory,spatial_recall,346.27303587505594,348.33037733403035,24,4,Animal_Sea_Solid_Large,,,1,2.053515166975558,,,,,,"[0, 380]","[0, 380]",
memory,spatial_recall,349.6362268340308,350.8184188749874,24,4,Animal_Land_Pattern_Small,,,1,1.1782740419730544,,,,,,"[0, -380]","[0, -380]",
memory,spatial_recall,352.1195198750356,353.0181688340381,24,4,Object_Land_Pattern_Small,,,1,0.8945734170265496,,,,,,"[-329, -190]","[-329, -190]",
encoding,fixation,6.1465801250888035,6.901827375055291,25,5,Animal_Land_Solid_Small,-1,,,,,,,,,,,
encoding,image,6.901949375052936,7.912802375038154,25,5,Animal_Land_Solid_Small,-1,,,,,,,,,,,
encoding,value,7.9129177500726655,13.92652475007344,25,5,Animal_Land_Solid_Small,-1,,,,,,,,,,,
encoding,attention,13.92667212500237,16.943926417035982,25,5,Animal_Land_Solid_Small,-1,-1,1,0.7672579999780282,,,,,,,,
encoding,fixation,16.944123291992582,18.449372375034727,26,5,Object_Sea_Pattern_Large,2,,,,,,,,,,,
encoding,image,18.449491500039585,19.460815958096646,26,5,Object_Sea_Pattern_Large,2,,,,,,,,,,,
encoding,value,19.460932875052094,25.47329020802863,26,5,Object_Sea_Pattern_Large,2,,,,,,,,,,,
encoding,attention,25.473408750025555,28.490182667039335,26,5,Object_Sea_Pattern_Large,2,+2,1,0.6371513330377638,,,,,,,,
encoding,fixation,28.49033587507438,29.246707167010754,27,5,Animal_Sea_Pattern_Large,-9,,,,,,,,,,,
encoding,image,29.24681845807936,30.257266625063494,27,5,Animal_Sea_Pattern_Large,-9,,,,,,,,,,,
encoding,value,30.257424207986332,36.26822129206266,27,5,Animal_Sea_Pattern_Large,-9,,,,,,,,,,,
encoding,attention,36.26834462501574,39.28714645805303,27,5,Animal_Sea_Pattern_Large,-9,-9,1,1.1208899170160294,,,,,,,,
encoding,fixation,39.28730845800601,39.79269412509166,28,5,Animal_Sea_Solid_Small,9,,,,,,,,,,,
encoding,image,39.79280833306257,40.80374462506734,28,5,Animal_Sea_Solid_Small,9,,,,,,,,,,,
encoding,value,40.80392750003375,46.81558350007981,28,5,Animal_Sea_Solid_Small,9,,,,,,,,,,,
encoding,attention,46.81570620799903,49.837042000028305,28,5,Animal_Sea_Solid_Small,9,+9,1,1.273353833006695,,,,,,,,
encoding,fixation,49.83723387506325,51.34262933302671,29,5,Object_Land_Pattern_Large,6,,,,,,,,,,,
encoding,image,51.34274687501602,52.354639791999944,29,5,Object_Land_Pattern_Large,6,,,,,,,,,,,
encoding,value,52.354748749989085,58.36749550001696,29,5,Object_Land_Pattern_Large,6,,,,,,,,,,,
encoding,attention,58.36762187501881,61.385692583047785,29,5,Object_Land_Pattern_Large,6,+6,1,0.6291696249973029,,,,,,,,
encoding,fixation,61.38584266707767,62.8914622500306,30,5,Object_Land_Solid_Small,-6,,,,,,,,,,,
encoding,image,62.89162683300674,63.90322195808403,30,5,Object_Land_Solid_Small,-6,,,,,,,,,,,
encoding,value,63.903377417009324,69.9146129169967,30,5,Object_Land_Solid_Small,-6,,,,,,,,,,,
encoding,attention,69.91475716698915,72.93438862508629,30,5,Object_Land_Solid_Small,-6,-6,1,0.5476461249636486,,,,,,,,
n-back,,,,121,5,,,,1,None,V,False,None,,,,,
n-back,,,,122,5,,,,1,None,Z,False,None,,,,,
n-back,,,,123,5,,,,1,0.8573532920563594,V,True,1,,,,,
n-back,,,,124,5,,,,1,None,X,False,None,,,,,
n-back,,,,125,5,,,,1,None,X,False,None,,,,,
n-back,,,,126,5,,,,1,0.8171800000127405,X,True,1,,,,,
n-back,,,,127,5,,,,0,None,X,True,None,,,,,
n-back,,,,128,5,,,,1,None,Z,False,None,,,,,
n-back,,,,129,5,,,,1,None,Z,False,None,,,,,
n-back,,,,130,5,,,,1,0.8271690000547096,Z,True,1,,,,,
n-back,,,,131,5,,,,1,None,V,False,None,,,,,
n-back,,,,132,5,,,,0,None,Z,True,None,,,,,
n-back,,,,133,5,,,,1,None,B,False,None,,,,,
n-back,,,,134,5,,,,1,None,X,False,None,,,,,
n-back,,,,135,5,,,,0,None,B,True,None,,,,,
n-back,,,,136,5,,,,1,None,V,False,None,,,,,
n-back,,,,137,5,,,,1,None,C,False,None,,,,,
n-back,,,,138,5,,,,1,None,C,False,None,,,,,
n-back,,,,139,5,,,,1,None,N,False,None,,,,,
n-back,,,,140,5,,,,1,0.6202635830268264,C,True,1,,,,,
n-back,,,,141,5,,,,1,None,X,False,None,,,,,
n-back,,,,142,5,,,,1,None,X,False,None,,,,,
n-back,,,,143,5,,,,1,None,V,False,None,,,,,
n-back,,,,144,5,,,,1,0.5713326659752056,X,True,1,,,,,
n-back,,,,145,5,,,,0,None,V,True,None,,,,,
n-back,,,,146,5,,,,1,None,B,False,None,,,,,
n-back,,,,147,5,,,,1,None,Z,False,None,,,,,
n-back,,,,148,5,,,,1,0.7969829170033336,B,True,1,,,,,
n-back,,,,149,5,,,,1,None,X,False,None,,,,,
n-back,,,,150,5,,,,1,None,N,False,None,,,,,
choice,fixation,144.45443225000054,145.4576397080673,33,5,,,,,,,,,Small,,,,
choice,option,145.46638983301818,146.49468775000423,33,5,,,,,,,,,Small,,,,
choice,choice,146.49480987503193,200.1686827080557,33,5,,,2,0,52.66230141709093,,,,Small,,,,
choice,fixation,200.16880870808382,200.67373458307702,34,5,,,,,,,,,Animal,,,,
choice,option,200.68300508300308,201.71121450001374,34,5,,,,,,,,,Animal,,,,
choice,choice,201.71131829207297,214.9431936669862,34,5,,,2,1,12.221284125000238,,,,Animal,,,,
choice,fixation,214.9433134170249,215.44821062509436,35,5,,,,,,,,,Sea,,,,
choice,option,215.4569093750324,216.48442941706162,35,5,,,,,,,,,Sea,,,,
choice,choice,216.48455866705626,231.16986725002062,35,5,,,1,1,13.674698290997185,,,,Sea,,,,
choice,fixation,231.16999675007537,232.42501150001772,36,5,,,,,,,,,Pattern,,,,
choice,option,232.4341676250333,233.46096887509339,36,5,,,,,,,,,Pattern,,,,
choice,choice,233.4610821250826,252.08249475003686,36,5,,,2,1,17.609696416999213,,,,Pattern,,,,
choice,fixation,252.08270700008143,253.5876386250602,37,5,,,,,,,,,Land,,,,
choice,option,253.59642104199156,254.62439862499014,37,5,,,,,,,,,Land,,,,
choice,choice,254.62453020806424,266.66539637499955,37,5,,,2,1,11.02774637506809,,,,Land,,,,
choice,fixation,266.66554950003047,267.4207736670505,38,5,,,,,,,,,Large,,,,
choice,option,267.4295662920922,268.455565250013,38,5,,,,,,,,,Large,,,,
choice,choice,268.45570758299436,291.76146729208995,38,5,,,1,0,22.29440200002864,,,,Large,,,,
choice,fixation,291.7616002080031,292.7666418750305,39,5,,,,,,,,,Object,,,,
choice,option,292.7760811250191,293.8025084170513,39,5,,,,,,,,,Object,,,,
choice,choice,293.80262683308683,301.5921485830331,39,5,,,1,1,6.7792512079468,,,,Object,,,,
choice,fixation,301.5923045000527,302.84799441706855,40,5,,,,,,,,,Solid,,,,
choice,option,302.8575187079841,303.8848395830719,40,5,,,,,,,,,Solid,,,,
choice,choice,303.8849568750011,314.93645675003063,40,5,,,1,1,10.040977333090268,,,,Solid,,,,
memory,free_recall,323.2289541250793,333.58705775009,24,5,,,,,,,,,,,,,
memory,value_recall,337.5573918330483,341.4898258750327,25,5,Animal_Sea_Solid_Small,,,,3.925875167013146,,,,,9,,,
memory,value_recall,342.7853799170116,347.03067400003783,26,5,Object_Land_Solid_Small,,,,4.241044916096143,,,,,-6,,,
memory,value_recall,349.07738241704646,351.91475429199636,27,5,Object_Land_Pattern_Large,,,,2.8332367499824613,,,,,6,,,
memory,value_recall,353.9602574170567,358.43388675001916,28,5,Object_Sea_Pattern_Large,,,,4.469254084047861,,,,,2,,,
memory,value_recall,359.9801490000682,365.2745320420945,29,5,Animal_Sea_Pattern_Large,,,,5.290235499967821,,,,,-9,,,
memory,value_recall,367.32026975008193,368.89812612498645,30,5,Animal_Land_Solid_Small,,,,1.573819333105348,,,,,-1,,,
memory,spatial_recall,372.02506108302623,375.43424991704524,30,5,Animal_Land_Solid_Small,,,1,3.4047981669427827,,,,,,"[-329, 190]","[-329, 190]",
memory,spatial_recall,377.4952746250201,379.6147175000515,30,5,Object_Land_Solid_Small,,,1,2.115402500028722,,,,,,"[329, -190]","[329, -190]",
memory,spatial_recall,381.6706909170607,383.00516250007786,30,5,Object_Sea_Pattern_Large,,,1,1.3301639589481056,,,,,,"[-329, -190]","[-329, -190]",
memory,spatial_recall,384.81481725000776,387.41750525007956,30,5,Animal_Sea_Pattern_Large,,,1,2.5986885839374736,,,,,,"[0, -380]","[0, -380]",
memory,spatial_recall,388.7241021670634,389.80055541708134,30,5,Animal_Sea_Solid_Small,,,1,1.0716463329736143,,,,,,"[329, 189]","[329, 189]",
memory,spatial_recall,391.8613274580566,393.9653129579965,30,5,Object_Land_Pattern_Large,,,1,2.0999425830086693,,,,,,"[0, 380]","[0, 380]",
encoding,fixation,3.4574078749865294,4.21244991698768,31,6,Object_Sea_Solid_Small,-1,,,,,,,,,,,
encoding,image,4.212561541935429,5.226903041941114,31,6,Object_Sea_Solid_Small,-1,,,,,,,,,,,
encoding,value,5.227041374891996,11.2392660418991,31,6,Object_Sea_Solid_Small,-1,,,,,,,,,,,
encoding,attention,11.239441041951068,14.257434583967552,31,6,Object_Sea_Solid_Small,-1,-1,1,1.2449387080268934,,,,,,,,
encoding,fixation,14.257599166943692,15.763238958898,32,6,Animal_Land_Solid_Small,8,,,,,,,,,,,
encoding,image,15.7633519169176,16.775231209001504,32,6,Animal_Land_Solid_Small,8,,,,,,,,,,,
encoding,value,16.77534133393783,22.787569416919723,32,6,Animal_Land_Solid_Small,8,,,,,,,,,,,
encoding,attention,22.787688624928705,25.805411791894585,32,6,Animal_Land_Solid_Small,8,+8,1,0.7276287080021575,,,,,,,,
encoding,fixation,25.80558399995789,27.310634541907348,33,6,Object_Sea_Pattern_Large,7,,,,,,,,,,,
encoding,image,27.310770999989472,28.321967166964896,33,6,Object_Sea_Pattern_Large,7,,,,,,,,,,,
encoding,value,28.3221154169878,34.3346337499097,33,6,Object_Sea_Pattern_Large,7,,,,,,,,,,,
encoding,attention,34.33477687498089,37.352475916966796,33,6,Object_Sea_Pattern_Large,7,+7,1,0.7578026249539107,,,,,,,,
encoding,fixation,37.35262362495996,38.358399708988145,34,6,Object_Sea_Pattern_Small,-3,,,,,,,,,,,
encoding,image,38.35857737495098,39.3693991668988,34,6,Object_Sea_Pattern_Small,-3,,,,,,,,,,,
encoding,value,39.36951087496709,45.38064641691744,34,6,Object_Sea_Pattern_Small,-3,,,,,,,,,,,
encoding,attention,45.38079199998174,48.398514749947935,34,6,Object_Sea_Pattern_Small,-3,-3,1,0.5590462089749053,,,,,,,,
encoding,fixation,48.39867612498347,49.15372841688804,35,6,Animal_Land_Solid_Large,8,,,,,,,,,,,
encoding,image,49.15383895894047,50.165443249978125,35,6,Animal_Land_Solid_Large,8,,,,,,,,,,,
encoding,value,50.16554991691373,56.17706504196394,35,6,Animal_Land_Solid_Large,8,,,,,,,,,,,
encoding,attention,56.17719624994788,59.19380354194436,35,6,Animal_Land_Solid_Large,8,+8,1,0.6888306250330061,,,,,,,,
encoding,fixation,59.19395229197107,60.19902354199439,36,6,Animal_Land_Pattern_Large,-8,,,,,,,,,,,
encoding,image,60.19912862498313,61.21017983392812,36,6,Animal_Land_Pattern_Large,-8,,,,,,,,,,,
encoding,value,61.210290249902755,67.22163387492765,36,6,Animal_Land_Pattern_Large,-8,,,,,,,,,,,
encoding,attention,67.22177729196846,70.23894716694485,36,6,Animal_Land_Pattern_Large,-8,-8,1,0.5602147500030696,,,,,,,,
n-back,,,,151,6,,,,1,None,B,False,None,,,,,
n-back,,,,152,6,,,,1,None,C,False,None,,,,,
n-back,,,,153,6,,,,1,None,N,False,None,,,,,
n-back,,,,154,6,,,,1,None,X,False,None,,,,,
n-back,,,,155,6,,,,1,0.8319647919852287,N,True,1,,,,,
n-back,,,,156,6,,,,1,None,N,False,None,,,,,
n-back,,,,157,6,,,,1,None,X,False,None,,,,,
n-back,,,,158,6,,,,1,0.6662221250589937,N,True,1,,,,,
n-back,,,,159,6,,,,1,None,V,False,None,,,,,
n-back,,,,160,6,,,,1,None,X,False,None,,,,,
n-back,,,,161,6,,,,1,None,Z,False,None,,,,,
n-back,,,,162,6,,,,1,None,Z,False,None,,,,,
n-back,,,,163,6,,,,1,None,N,False,None,,,,,
n-back,,,,164,6,,,,1,None,V,False,None,,,,,
n-back,,,,165,6,,,,1,None,V,False,None,,,,,
n-back,,,,166,6,,,,1,None,B,False,None,,,,,
n-back,,,,167,6,,,,1,None,B,False,None,,,,,
n-back,,,,168,6,,,,1,0.7108190420549363,B,True,1,,,,,
n-back,,,,169,6,,,,0,None,B,True,None,,,,,
n-back,,,,170,6,,,,1,0.45887479197699577,B,True,1,,,,,
n-back,,,,171,6,,,,0,None,B,True,None,,,,,
n-back,,,,172,6,,,,0,None,B,True,None,,,,,
n-back,,,,173,6,,,,1,None,N,False,None,,,,,
n-back,,,,174,6,,,,1,None,C,False,None,,,,,
n-back,,,,175,6,,,,1,None,X,False,None,,,,,
n-back,,,,176,6,,,,0,None,C,True,None,,,,,
n-back,,,,177,6,,,,1,None,C,False,None,,,,,
n-back,,,,178,6,,,,1,0.6860892080003396,C,True,1,,,,,
n-back,,,,179,6,,,,1,None,B,False,None,,,,,
n-back,,,,180,6,,,,1,1.2126579999458045,C,True,1,,,,,
choice,fixation,138.75344945897814,140.00675591698382,41,6,,,,,,,,,Small,,,,
choice,option,140.01528699998744,141.04320345888846,41,6,,,,,,,,,Small,,,,
choice,choice,141.04332658392377,172.75173033389729,41,6,,,2,0,30.69722933298908,,,,Small,,,,
choice,fixation,172.75189324992243,173.26009304192849,42,6,,,,,,,,,Pattern,,,,
choice,option,173.26892579195555,174.29591424996033,42,6,,,,,,,,,Pattern,,,,
choice,choice,174.29603591689374,182.79950466693845,42,6,,,1,0,7.4935419170651585,,,,Pattern,,,,
choice,fixation,182.7996438749833,183.80460279190447,43,6,,,,,,,,,Solid,,,,
choice,option,183.81400529190432,184.84115616697818,43,6,,,,,,,,,Solid,,,,
choice,choice,184.8413603339577,196.15774949989282,43,6,,,1,1,10.306168082985096,,,,Solid,,,,
choice,fixation,196.15793141699396,197.16293762496207,44,6,,,,,,,,,Animal,,,,
choice,option,197.17208487493917,198.198914958979,44,6,,,,,,,,,Animal,,,,
choice,choice,198.19904591690283,204.54406074993312,44,6,,,2,0,5.335200542001985,,,,Animal,,,,
choice,fixation,204.54419024998788,205.799104042002,45,6,,,,,,,,,Sea,,,,
choice,option,205.8074084589025,206.83343008393422,45,6,,,,,,,,,Sea,,,,
choice,choice,206.8335473749321,215.69427654193714,45,6,,,1,1,7.8510034589562565,,,,Sea,,,,
choice,fixation,215.69441045890562,216.94927479198668,46,6,,,,,,,,,Land,,,,
choice,option,216.9579112919746,217.98500554193743,46,6,,,,,,,,,Land,,,,
choice,choice,217.98511079198215,229.81449920893647,46,6,,,1,1,10.818780583911575,,,,Land,,,,
choice,fixation,229.81463029189035,230.31966058397666,47,6,,,,,,,,,Large,,,,
choice,option,230.32831929193344,231.35563216696028,47,6,,,,,,,,,Large,,,,
choice,choice,231.355741291889,236.5657205838943,47,6,,,2,0,4.2004309999756515,,,,Large,,,,
choice,fixation,236.56585754198022,237.07111508399248,48,6,,,,,,,,,Object,,,,
choice,option,237.08128570893314,238.10955174989067,48,6,,,,,,,,,Object,,,,
choice,choice,238.10969670896884,245.5196567919338,48,6,,,1,1,6.400084082968533,,,,Object,,,,
memory,free_recall,254.7453641250031,264.4243928749347,30,6,,,,,,,,,,,,,
memory,value_recall,268.4425559999654,271.1459760419093,31,6,Object_Sea_Solid_Small,,,,2.6990764159709215,,,,,-1,,,
memory,value_recall,273.19213479198515,276.14553208393045,32,6,Animal_Land_Solid_Large,,,,2.9491482080193236,,,,,8,,,
memory,value_recall,277.1910577919334,280.54418920900207,33,6,Animal_Land_Solid_Small,,,,3.3504889579489827,,,,,8,,,
memory,value_recall,281.58937608392444,285.6890797918895,34,6,Object_Sea_Pattern_Large,,,,4.096394457970746,,,,,7,,,
memory,value_recall,287.2346189589007,290.2567568339873,35,6,Object_Sea_Pattern_Small,,,,3.015206416021101,,,,,-3,,,
memory,value_recall,292.3025062918896,295.4082110419404,36,6,Animal_Land_Pattern_Large,,,,3.1014894580002874,,,,,-8,,,
memory,spatial_recall,302.6755190419499,305.71608041692525,36,6,Animal_Land_Solid_Small,,,1,3.03661870805081,,,,,,"[-329, 190]","[-329, 190]",
memory,spatial_recall,307.28172720898874,308.3472607919248,36,6,Object_Sea_Pattern_Small,,,1,1.0614374580327421,,,,,,"[0, -380]","[0, -380]",
memory,spatial_recall,309.6489178339252,311.43063612491824,36,6,Animal_Land_Pattern_Large,,,1,1.7774667090270668,,,,,,"[329, 189]","[329, 189]",
memory,spatial_recall,312.99151841690764,315.03181941690855,36,6,Object_Sea_Solid_Small,,,1,2.0362794590182602,,,,,,"[329, -190]","[329, -190]",
memory,spatial_recall,316.34545054193586,317.92837316694204,36,6,Object_Sea_Pattern_Large,,,1,1.5787382500711828,,,,,,"[-329, -190]","[-329, -190]",
memory,spatial_recall,318.97866804199293,320.4622523339931,36,6,Animal_Land_Solid_Large,,,1,1.4811972500756383,,,,,,"[0, 380]","[0, 380]",
encoding,fixation,2.566169874975458,3.0717273749178275,37,7,Animal_Land_Pattern_Small,2,,,,,,,,,,,
encoding,image,3.07184862496797,4.083001124905422,37,7,Animal_Land_Pattern_Small,2,,,,,,,,,,,
encoding,value,4.083132750005461,10.096331916982308,37,7,Animal_Land_Pattern_Small,2,,,,,,,,,,,
encoding,attention,10.096453082980588,13.11315983289387,37,7,Animal_Land_Pattern_Small,2,+2,1,0.9356537499697879,,,,,,,,
encoding,fixation,13.113318832940422,14.118400124949403,38,7,Animal_Sea_Pattern_Small,-7,,,,,,,,,,,
encoding,image,14.118511916953139,15.13114237494301,38,7,Animal_Sea_Pattern_Small,-7,,,,,,,,,,,
encoding,value,15.131250291946344,21.143425124930218,38,7,Animal_Sea_Pattern_Small,-7,,,,,,,,,,,
encoding,attention,21.143542166915722,24.16371224995237,38,7,Animal_Sea_Pattern_Small,-7,-7,1,0.6220705829327926,,,,,,,,
encoding,fixation,24.163870749995112,25.418624582933262,39,7,Object_Sea_Solid_Large,-1,,,,,,,,,,,
encoding,image,25.418744207941927,26.430304541951045,39,7,Object_Sea_Solid_Large,-1,,,,,,,,,,,
encoding,value,26.43049474991858,32.44253391691018,39,7,Object_Sea_Solid_Large,-1,,,,,,,,,,,
encoding,attention,32.44266408297699,35.45935224997811,39,7,Object_Sea_Solid_Large,-1,-1,1,0.6884160829940811,,,,,,,,
encoding,fixation,35.45949454198126,35.964809375000186,40,7,Animal_Sea_Solid_Large,7,,,,,,,,,,,
encoding,image,35.96494224993512,36.976297957939096,40,7,Animal_Sea_Solid_Large,7,,,,,,,,,,,
encoding,value,36.97641412494704,42.98847829189617,40,7,Animal_Sea_Solid_Large,7,,,,,,,,,,,
encoding,attention,42.988611791981384,46.005889499909244,40,7,Animal_Sea_Solid_Large,7,+7,1,0.4691639580996707,,,,,,,,
encoding,fixation,46.00604270794429,47.26135058293585,41,7,Object_Land_Solid_Large,-2,,,,,,,,,,,
encoding,image,47.261471541947685,48.27149783296045,41,7,Object_Land_Solid_Large,-2,,,,,,,,,,,
encoding,value,48.27163616695907,54.28190029191319,41,7,Object_Land_Solid_Large,-2,,,,,,,,,,,
encoding,attention,54.2820417919429,57.30237604200374,41,7,Object_Land_Solid_Large,-2,-2,1,1.590914582950063,,,,,,,,
encoding,fixation,57.30253562494181,57.80857662495691,42,7,Object_Land_Pattern_Small,1,,,,,,,,,,,
encoding,image,57.80869045795407,58.8203035419574,42,7,Object_Land_Pattern_Small,1,,,,,,,,,,,
encoding,value,58.820426957914606,64.83210024994332,42,7,Object_Land_Pattern_Small,1,,,,,,,,,,,
encoding,attention,64.83221974992193,67.85068224999122,42,7,Object_Land_Pattern_Small,1,+1,1,2.400076208054088,,,,,,,,
n-back,,,,181,7,,,,1,None,X,False,None,,,,,
n-back,,,,182,7,,,,1,None,N,False,None,,,,,
n-back,,,,183,7,,,,1,0.8252320000901818,X,True,1,,,,,
n-back,,,,184,7,,,,1,None,V,False,None,,,,,
n-back,,,,185,7,,,,0,None,X,True,None,,,,,
n-back,,,,186,7,,,,1,0.6818793750135228,V,True,1,,,,,
n-back,,,,187,7,,,,1,1.2027572919614613,X,True,1,,,,,
n-back,,,,188,7,,,,1,None,B,False,None,,,,,
n-back,,,,189,7,,,,1,None,B,False,None,,,,,
n-back,,,,190,7,,,,0,None,B,True,None,,,,,
n-back,,,,191,7,,,,1,None,Z,False,None,,,,,
n-back,,,,192,7,,,,1,None,X,False,None,,,,,
n-back,,,,193,7,,,,1,None,C,False,None,,,,,
n-back,,,,194,7,,,,1,0.6534194170963019,X,True,1,,,,,
n-back,,,,195,7,,,,1,None,N,False,None,,,,,
n-back,,,,196,7,,,,1,None,N,False,None,,,,,
n-back,,,,197,7,,,,1,None,B,False,None,,,,,
n-back,,,,198,7,,,,0,0.925085958908312,X,False,1,,,,,
n-back,,,,199,7,,,,0,None,B,True,None,,,,,
n-back,,,,200,7,,,,0,None,X,True,None,,,,,
n-back,,,,201,7,,,,1,None,X,False,None,,,,,
n-back,,,,202,7,,,,0,None,X,True,None,,,,,
n-back,,,,203,7,,,,1,None,B,False,None,,,,,
n-back,,,,204,7,,,,1,0.6153823750792071,X,True,1,,,,,
n-back,,,,205,7,,,,1,None,X,False,None,,,,,
n-back,,,,206,7,,,,0,0.6537137500708923,B,False,1,,,,,
n-back,,,,207,7,,,,1,None,N,False,None,,,,,
n-back,,,,208,7,,,,1,None,V,False,None,,,,,
n-back,,,,209,7,,,,1,None,Z,False,None,,,,,
n-back,,,,210,7,,,,1,None,X,False,None,,,,,
choice,fixation,136.72593379195314,137.97938099992462,49,7,,,,,,,,,Pattern,,,,
choice,option,138.04933295794763,139.07782358292025,49,7,,,,,,,,,Pattern,,,,
choice,choice,139.07794904196635,182.05105608294252,49,7,,,1,0,41.96226291696075,,,,Pattern,,,,
choice,fixation,182.05118504189886,183.55741204193328,50,7,,,,,,,,,Large,,,,
choice,option,183.5662874999689,184.59370658290572,50,7,,,,,,,,,Large,,,,
choice,choice,184.59382387495134,191.86678133299574,50,7,,,1,1,6.2632605829276145,,,,Large,,,,
choice,fixation,191.866913249949,192.62205808295403,51,7,,,,,,,,,Small,,,,
choice,option,192.6312088749837,193.6588841669727,51,7,,,,,,,,,Small,,,,
choice,choice,193.65899887494743,206.90801124996506,51,7,,,2,1,12.238361000083387,,,,Small,,,,
choice,fixation,206.90814862493426,207.66316195798572,52,7,,,,,,,,,Object,,,,
choice,option,207.67278374999296,208.69907404191326,52,7,,,,,,,,,Object,,,,
choice,choice,208.69918920798227,233.5865788749652,52,7,,,1,0,23.87651770899538,,,,Object,,,,
choice,fixation,233.58672145789023,234.8417877079919,53,7,,,,,,,,,Land,,,,
choice,option,234.85049362492282,235.87701062497217,53,7,,,,,,,,,Land,,,,
choice,choice,235.8771311249584,239.1554413329577,53,7,,,1,1,2.2686958339763805,,,,Land,,,,
choice,fixation,239.15559508290607,239.660502291983,54,7,,,,,,,,,Animal,,,,
choice,option,239.66984266694635,240.69690441689454,54,7,,,,,,,,,Animal,,,,
choice,choice,240.6970264168922,247.9322728329571,54,7,,,2,0,6.2246718750102445,,,,Animal,,,,
choice,fixation,247.93240062496625,248.68729212495964,55,7,,,,,,,,,Solid,,,,
choice,option,248.69646304193884,249.72394829196855,55,7,,,,,,,,,Solid,,,,
choice,choice,249.7240529579576,255.67442366690375,55,7,,,1,1,4.939910541987047,,,,Solid,,,,
choice,fixation,255.67455820797477,256.1794037919026,56,7,,,,,,,,,Sea,,,,
choice,option,256.18744599993806,257.2143513329793,56,7,,,,,,,,,Sea,,,,
choice,choice,257.2144662499195,269.92468166700564,56,7,,,2,1,11.69796449993737,,,,Sea,,,,
memory,free_recall,280.917762249941,293.9928843328962,36,7,,,,,,,,,,,,,
memory,value_recall,296.56063358299434,308.5319952919381,37,7,Object_Land_Solid_Large,,,,11.967088583041914,,,,,-2,,,
memory,value_recall,310.57777520793024,311.5816331669921,38,7,Object_Land_Pattern_Small,,,,0.9998402079800144,,,,,1,,,
memory,value_recall,313.1166972499341,314.0383655829355,39,7,Animal_Land_Pattern_Small,,,,0.9174379999749362,,,,,2,,,
memory,value_recall,315.82586441689637,318.2362540829927,40,7,Animal_Sea_Pattern_Small,,,,2.4057946249376982,,,,,-7,,,
memory,value_recall,320.03358008293435,323.14362470794003,41,7,Object_Sea_Solid_Large,,,,3.1059851669706404,,,,,-1,,,
memory,value_recall,324.689037916949,327.10216458293144,42,7,Animal_Sea_Solid_Large,,,,2.408818249939941,,,,,7,,,
memory,spatial_recall,332.50983083294705,337.4328472079942,42,7,Animal_Sea_Pattern_Small,,,1,4.918895874987356,,,,,,"[329, -190]","[329, -190]",
memory,spatial_recall,339.2480742499465,340.2150611249963,42,7,Object_Land_Pattern_Small,,,1,0.9627116660121828,,,,,,"[-329, -190]","[-329, -190]",
memory,spatial_recall,341.2723784169648,342.298039416899,42,7,Animal_Land_Pattern_Small,,,1,1.0216231669764966,,,,,,"[0, -380]","[0, -380]",
memory,spatial_recall,343.35225608292967,345.3640187080018,42,7,Object_Sea_Solid_Large,,,1,2.00872679206077,,,,,,"[329, 189]","[329, 189]",
memory,spatial_recall,346.92521254194435,348.095433749957,42,7,Object_Land_Solid_Large,,,1,1.1654189169639722,,,,,,"[-329, 190]","[-329, 190]",
memory,spatial_recall,349.4095105419401,350.6284605829278,42,7,Animal_Sea_Solid_Large,,,1,1.2149912499589846,,,,,,"[0, 380]","[0, 380]",
