subject,phase,event,trial_number,game,option,choice,rt,roi_content,item_index,is_relevant,fix_start,fix_end,fix_duration_bounded
108,choice,choice,1,1.0,Solid,1.0,4.162718583014794,Animal_Sea_Solid_Large,0,1,10055165.0,10055506.0,341.0
108,choice,choice,1,1.0,Solid,1.0,4.162718583014794,Object_Land_Pattern_Small,1,0,10057137.0,10057486.0,349.0
108,choice,choice,2,1.0,Small,1.0,31.21846983302385,Animal_Sea_Solid_Large,0,0,10063081.0,10064488.0,1407.0
108,choice,choice,2,1.0,Small,1.0,31.21846983302385,Animal_Sea_Pattern_Small,2,1,10069881.0,10070369.0,488.0
108,choice,choice,2,1.0,Small,1.0,31.21846983302385,Animal_Land_Pattern_Small,3,1,10070392.0,10071197.0,805.0
108,choice,choice,2,1.0,Small,1.0,31.21846983302385,Animal_Sea_Pattern_Small,2,1,10071353.0,10072441.0,1088.0
108,choice,choice,2,1.0,Small,1.0,31.21846983302385,Object_Sea_Solid_Large,4,0,10073241.0,10073400.0,159.0
108,choice,choice,2,1.0,Small,1.0,31.21846983302385,Object_Land_Solid_Large,5,0,10077905.0,10078055.0,150.0
108,choice,choice,2,1.0,Small,1.0,31.21846983302385,Animal_Sea_Pattern_Small,2,1,10080784.0,10082858.0,2074.0
108,choice,choice,2,1.0,Small,1.0,31.21846983302385,Object_Land_Solid_Large,5,0,10082929.0,10083222.0,293.0
108,choice,choice,2,1.0,Small,1.0,31.21846983302385,Object_Land_Pattern_Small,1,1,10083262.0,10083505.0,243.0
108,choice,choice,2,1.0,Small,1.0,31.21846983302385,Animal_Land_Pattern_Small,3,1,10083530.0,10084223.0,693.0
108,choice,choice,2,1.0,Small,1.0,31.21846983302385,Object_Sea_Solid_Large,4,0,10084266.0,10085131.0,865.0
108,choice,choice,2,1.0,Small,1.0,31.21846983302385,Animal_Sea_Pattern_Small,2,1,10086022.0,10086495.0,473.0
108,choice,choice,2,1.0,Small,1.0,31.21846983302385,Object_Land_Pattern_Small,1,1,10086541.0,10087195.0,654.0
108,choice,choice,2,1.0,Small,1.0,31.21846983302385,Animal_Land_Pattern_Small,3,1,10087245.0,10087447.0,202.0
108,choice,choice,2,1.0,Small,1.0,31.21846983302385,Animal_Sea_Solid_Large,0,0,10088300.0,10090500.0,2200.0
108,choice,choice,2,1.0,Small,1.0,31.21846983302385,Animal_Land_Pattern_Small,3,1,10091666.0,10092850.0,1184.0
108,choice,choice,2,1.0,Small,1.0,31.21846983302385,Animal_Sea_Pattern_Small,2,1,10093322.0,10093507.0,185.0
108,choice,choice,3,1.0,Animal,2.0,11.440919917076826,Animal_Land_Pattern_Small,3,1,10097733.0,10097915.0,182.0
108,choice,choice,3,1.0,Animal,2.0,11.440919917076826,Animal_Sea_Solid_Large,0,1,10097972.0,10099970.0,1998.0
108,choice,choice,3,1.0,Animal,2.0,11.440919917076826,Animal_Land_Pattern_Small,3,1,10100222.0,10101560.0,1338.0
108,choice,choice,3,1.0,Animal,2.0,11.440919917076826,Animal_Sea_Solid_Large,0,1,10101733.0,10102510.0,777.0
108,choice,choice,3,1.0,Animal,2.0,11.440919917076826,Object_Sea_Solid_Large,4,0,10102535.0,10103131.0,596.0
108,choice,choice,3,1.0,Animal,2.0,11.440919917076826,Animal_Sea_Pattern_Small,2,1,10103177.0,10103864.0,687.0
108,choice,choice,3,1.0,Animal,2.0,11.440919917076826,Animal_Land_Pattern_Small,3,1,10104073.0,10107298.0,3225.0
108,choice,choice,3,1.0,Animal,2.0,11.440919917076826,Animal_Sea_Pattern_Small,2,1,10107738.0,10107756.0,18.0
108,choice,choice,4,1.0,Sea,1.0,8.766483458108269,Object_Land_Solid_Large,5,0,10110990.0,10111363.0,373.0
108,choice,choice,4,1.0,Sea,1.0,8.766483458108269,Animal_Sea_Solid_Large,0,1,10111388.0,10111596.0,208.0
108,choice,choice,4,1.0,Sea,1.0,8.766483458108269,Object_Land_Solid_Large,5,0,10111772.0,10112170.0,398.0
108,choice,choice,4,1.0,Sea,1.0,8.766483458108269,Animal_Sea_Pattern_Small,2,1,10113913.0,10114589.0,676.0
108,choice,choice,4,1.0,Sea,1.0,8.766483458108269,Object_Sea_Solid_Large,4,1,10114619.0,10115471.0,852.0
108,choice,choice,4,1.0,Sea,1.0,8.766483458108269,Animal_Sea_Solid_Large,0,1,10115510.0,10116275.0,765.0
108,choice,choice,4,1.0,Sea,1.0,8.766483458108269,Object_Land_Pattern_Small,1,0,10118770.0,10119304.0,534.0
108,choice,choice,5,1.0,Large,1.0,20.06888000003528,Object_Land_Pattern_Small,1,0,10122628.0,10123283.0,655.0
108,choice,choice,5,1.0,Large,1.0,20.06888000003528,Animal_Land_Pattern_Small,3,0,10123342.0,10123640.0,298.0
108,choice,choice,5,1.0,Large,1.0,20.06888000003528,Object_Land_Pattern_Small,1,0,10123656.0,10125204.0,1548.0
108,choice,choice,5,1.0,Large,1.0,20.06888000003528,Object_Land_Solid_Large,5,1,10125457.0,10126861.0,1404.0
108,choice,choice,5,1.0,Large,1.0,20.06888000003528,Object_Land_Pattern_Small,1,0,10126900.0,10129433.0,2533.0
108,choice,choice,5,1.0,Large,1.0,20.06888000003528,Object_Land_Solid_Large,5,1,10129640.0,10130128.0,488.0
108,choice,choice,5,1.0,Large,1.0,20.06888000003528,Animal_Sea_Solid_Large,0,1,10130153.0,10130237.0,84.0
108,choice,choice,5,1.0,Large,1.0,20.06888000003528,Object_Sea_Solid_Large,4,1,10131422.0,10132284.0,862.0
108,choice,choice,5,1.0,Large,1.0,20.06888000003528,Animal_Sea_Solid_Large,0,1,10134106.0,10135016.0,910.0
108,choice,choice,5,1.0,Large,1.0,20.06888000003528,Object_Sea_Solid_Large,4,1,10135092.0,10135355.0,263.0
108,choice,choice,5,1.0,Large,1.0,20.06888000003528,Animal_Sea_Pattern_Small,2,0,10135379.0,10135977.0,598.0
108,choice,choice,5,1.0,Large,1.0,20.06888000003528,Object_Land_Pattern_Small,1,0,10136030.0,10136922.0,892.0
108,choice,choice,5,1.0,Large,1.0,20.06888000003528,Object_Sea_Solid_Large,4,1,10138202.0,10139359.0,1157.0
108,choice,choice,5,1.0,Large,1.0,20.06888000003528,Object_Land_Solid_Large,5,1,10139997.0,10140303.0,306.0
108,choice,choice,5,1.0,Large,1.0,20.06888000003528,Animal_Sea_Solid_Large,0,1,10140842.0,10141283.0,441.0
108,choice,choice,5,1.0,Large,1.0,20.06888000003528,Animal_Land_Pattern_Small,3,0,10141311.0,10142039.0,728.0
108,choice,choice,5,1.0,Large,1.0,20.06888000003528,Object_Land_Pattern_Small,1,0,10142085.0,10142196.0,111.0
108,choice,choice,6,1.0,Pattern,2.0,2.0861965420190245,Animal_Land_Pattern_Small,3,1,10147196.0,10147614.0,418.0
108,choice,choice,7,1.0,Object,2.0,6.953980624908581,Object_Land_Pattern_Small,1,1,10152009.0,10153116.0,1107.0
108,choice,choice,7,1.0,Object,2.0,6.953980624908581,Object_Land_Solid_Large,5,1,10153194.0,10153592.0,398.0
108,choice,choice,7,1.0,Object,2.0,6.953980624908581,Animal_Sea_Solid_Large,0,0,10153620.0,10153804.0,184.0
108,choice,choice,7,1.0,Object,2.0,6.953980624908581,Object_Sea_Solid_Large,4,1,10154012.0,10155486.0,1474.0
108,choice,choice,7,1.0,Object,2.0,6.953980624908581,Animal_Sea_Solid_Large,0,0,10155583.0,10155926.0,343.0
108,choice,choice,7,1.0,Object,2.0,6.953980624908581,Object_Land_Solid_Large,5,1,10155946.0,10157177.0,1231.0
108,choice,choice,8,1.0,Land,2.0,8.064403916941956,Object_Land_Solid_Large,5,1,10161382.0,10161667.0,285.0
108,choice,choice,8,1.0,Land,2.0,8.064403916941956,Animal_Sea_Pattern_Small,2,0,10161699.0,10161964.0,265.0
108,choice,choice,8,1.0,Land,2.0,8.064403916941956,Object_Land_Solid_Large,5,1,10162443.0,10163261.0,818.0
108,choice,choice,8,1.0,Land,2.0,8.064403916941956,Animal_Sea_Pattern_Small,2,0,10163317.0,10164591.0,1274.0
108,choice,choice,8,1.0,Land,2.0,8.064403916941956,Object_Land_Pattern_Small,1,1,10164944.0,10165797.0,853.0
108,choice,choice,8,1.0,Land,2.0,8.064403916941956,Animal_Land_Pattern_Small,3,1,10165865.0,10167121.0,1256.0
108,choice,choice,8,1.0,Land,2.0,8.064403916941956,Object_Land_Pattern_Small,1,1,10167504.0,10167816.0,312.0
108,choice,choice,9,2.0,Pattern,1.0,39.49294575001113,Object_Land_Solid_Small,0,0,10536579.0,10538589.0,2010.0
108,choice,choice,9,2.0,Pattern,1.0,39.49294575001113,Object_Land_Pattern_Large,1,1,10539065.0,10540249.0,1184.0
108,choice,choice,9,2.0,Pattern,1.0,39.49294575001113,Object_Land_Solid_Small,0,0,10540322.0,10541691.0,1369.0
108,choice,choice,9,2.0,Pattern,1.0,39.49294575001113,Object_Land_Pattern_Large,1,1,10541774.0,10543136.0,1362.0
108,choice,choice,9,2.0,Pattern,1.0,39.49294575001113,Animal_Sea_Pattern_Large,2,1,10543201.0,10544853.0,1652.0
108,choice,choice,9,2.0,Pattern,1.0,39.49294575001113,Object_Land_Pattern_Large,1,1,10545114.0,10545702.0,588.0
108,choice,choice,9,2.0,Pattern,1.0,39.49294575001113,Animal_Sea_Solid_Small,3,0,10545936.0,10548682.0,2746.0
108,choice,choice,9,2.0,Pattern,1.0,39.49294575001113,Object_Land_Pattern_Large,1,1,10549885.0,10550072.0,187.0
108,choice,choice,9,2.0,Pattern,1.0,39.49294575001113,Animal_Sea_Solid_Small,3,0,10550095.0,10551825.0,1730.0
108,choice,choice,9,2.0,Pattern,1.0,39.49294575001113,Object_Sea_Pattern_Large,4,1,10553114.0,10556178.0,3064.0
108,choice,choice,9,2.0,Pattern,1.0,39.49294575001113,Object_Land_Pattern_Large,1,1,10556846.0,10557617.0,771.0
108,choice,choice,9,2.0,Pattern,1.0,39.49294575001113,Animal_Sea_Pattern_Large,2,1,10557867.0,10558575.0,708.0
108,choice,choice,9,2.0,Pattern,1.0,39.49294575001113,Object_Sea_Pattern_Large,4,1,10558608.0,10559328.0,720.0
108,choice,choice,9,2.0,Pattern,1.0,39.49294575001113,Object_Land_Pattern_Large,1,1,10559391.0,10559892.0,501.0
108,choice,choice,9,2.0,Pattern,1.0,39.49294575001113,Object_Land_Solid_Small,0,0,10559974.0,10561396.0,1422.0
108,choice,choice,9,2.0,Pattern,1.0,39.49294575001113,Animal_Sea_Solid_Small,3,0,10561436.0,10561971.0,535.0
108,choice,choice,9,2.0,Pattern,1.0,39.49294575001113,Animal_Land_Solid_Small,5,0,10562175.0,10563474.0,1299.0
108,choice,choice,9,2.0,Pattern,1.0,39.49294575001113,Object_Sea_Pattern_Large,4,1,10563566.0,10566803.0,3237.0
108,choice,choice,9,2.0,Pattern,1.0,39.49294575001113,Animal_Land_Solid_Small,5,0,10567299.0,10568122.0,823.0
108,choice,choice,9,2.0,Pattern,1.0,39.49294575001113,Animal_Sea_Solid_Small,3,0,10568191.0,10568453.0,262.0
108,choice,choice,9,2.0,Pattern,1.0,39.49294575001113,Object_Land_Solid_Small,0,0,10568494.0,10569946.0,1452.0
108,choice,choice,9,2.0,Pattern,1.0,39.49294575001113,Object_Sea_Pattern_Large,4,1,10570164.0,10571718.0,1554.0
108,choice,choice,9,2.0,Pattern,1.0,39.49294575001113,Animal_Land_Solid_Small,5,0,10573102.0,10573263.0,161.0
108,choice,choice,9,2.0,Pattern,1.0,39.49294575001113,Object_Land_Pattern_Large,1,1,10573279.0,10573849.0,570.0
108,choice,choice,9,2.0,Pattern,1.0,39.49294575001113,Animal_Land_Solid_Small,5,0,10573881.0,10574397.0,516.0
108,choice,choice,9,2.0,Pattern,1.0,39.49294575001113,Animal_Sea_Pattern_Large,2,1,10574422.0,10574664.0,242.0
108,choice,choice,10,2.0,Sea,2.0,24.572769084014,Object_Sea_Pattern_Large,4,1,10579607.0,10580967.0,1360.0
108,choice,choice,10,2.0,Sea,2.0,24.572769084014,Object_Land_Pattern_Large,1,0,10582189.0,10583155.0,966.0
108,choice,choice,10,2.0,Sea,2.0,24.572769084014,Animal_Land_Solid_Small,5,0,10584801.0,10584927.0,126.0
108,choice,choice,10,2.0,Sea,2.0,24.572769084014,Object_Land_Pattern_Large,1,0,10584941.0,10585184.0,243.0
108,choice,choice,10,2.0,Sea,2.0,24.572769084014,Animal_Sea_Solid_Small,3,1,10585387.0,10585798.0,411.0
108,choice,choice,10,2.0,Sea,2.0,24.572769084014,Object_Land_Pattern_Large,1,0,10586027.0,10586634.0,607.0
108,choice,choice,10,2.0,Sea,2.0,24.572769084014,Animal_Land_Solid_Small,5,0,10586696.0,10586930.0,234.0
108,choice,choice,10,2.0,Sea,2.0,24.572769084014,Object_Land_Pattern_Large,1,0,10586957.0,10587908.0,951.0
108,choice,choice,10,2.0,Sea,2.0,24.572769084014,Object_Sea_Pattern_Large,4,1,10587970.0,10588206.0,236.0
108,choice,choice,10,2.0,Sea,2.0,24.572769084014,Object_Land_Pattern_Large,1,0,10588368.0,10589312.0,944.0
108,choice,choice,10,2.0,Sea,2.0,24.572769084014,Animal_Sea_Solid_Small,3,1,10589937.0,10590060.0,123.0
108,choice,choice,10,2.0,Sea,2.0,24.572769084014,Object_Land_Solid_Small,0,0,10592074.0,10594154.0,2080.0
108,choice,choice,10,2.0,Sea,2.0,24.572769084014,Animal_Sea_Solid_Small,3,1,10594176.0,10595499.0,1323.0
108,choice,choice,10,2.0,Sea,2.0,24.572769084014,Object_Land_Pattern_Large,1,0,10595577.0,10595599.0,22.0
108,choice,choice,10,2.0,Sea,2.0,24.572769084014,Animal_Sea_Solid_Small,3,1,10595760.0,10596411.0,651.0
108,choice,choice,10,2.0,Sea,2.0,24.572769084014,Animal_Land_Solid_Small,5,0,10596618.0,10597964.0,1346.0
108,choice,choice,10,2.0,Sea,2.0,24.572769084014,Object_Land_Pattern_Large,1,0,10598172.0,10599048.0,876.0
108,choice,choice,10,2.0,Sea,2.0,24.572769084014,Animal_Land_Solid_Small,5,0,10599111.0,10600933.0,1822.0
108,choice,choice,10,2.0,Sea,2.0,24.572769084014,Animal_Sea_Pattern_Large,2,1,10602357.0,10603416.0,1059.0
108,choice,choice,10,2.0,Sea,2.0,24.572769084014,Object_Sea_Pattern_Large,4,1,10603458.0,10603768.0,310.0
108,choice,choice,11,2.0,Land,1.0,8.126673542079516,Object_Land_Pattern_Large,1,1,10607285.0,10610063.0,2778.0
108,choice,choice,11,2.0,Land,1.0,8.126673542079516,Object_Land_Solid_Small,0,1,10610445.0,10611969.0,1524.0
108,choice,choice,11,2.0,Land,1.0,8.126673542079516,Object_Land_Pattern_Large,1,1,10612014.0,10613108.0,1094.0
108,choice,choice,11,2.0,Land,1.0,8.126673542079516,Object_Sea_Pattern_Large,4,0,10613775.0,10614021.0,246.0
108,choice,choice,12,2.0,Solid,2.0,23.351438875077292,Object_Land_Solid_Small,0,1,10618638.0,10619018.0,380.0
108,choice,choice,12,2.0,Solid,2.0,23.351438875077292,Animal_Land_Solid_Small,5,1,10619071.0,10619989.0,918.0
108,choice,choice,12,2.0,Solid,2.0,23.351438875077292,Animal_Sea_Pattern_Large,2,0,10620069.0,10620306.0,237.0
108,choice,choice,12,2.0,Solid,2.0,23.351438875077292,Animal_Land_Solid_Small,5,1,10620617.0,10623232.0,2615.0
108,choice,choice,12,2.0,Solid,2.0,23.351438875077292,Object_Land_Pattern_Large,1,0,10624671.0,10625104.0,433.0
108,choice,choice,12,2.0,Solid,2.0,23.351438875077292,Object_Land_Solid_Small,0,1,10625432.0,10627238.0,1806.0
108,choice,choice,12,2.0,Solid,2.0,23.351438875077292,Animal_Sea_Solid_Small,3,1,10627305.0,10629643.0,2338.0
108,choice,choice,12,2.0,Solid,2.0,23.351438875077292,Object_Land_Solid_Small,0,1,10629699.0,10630101.0,402.0
108,choice,choice,12,2.0,Solid,2.0,23.351438875077292,Animal_Sea_Solid_Small,3,1,10630131.0,10631966.0,1835.0
108,choice,choice,12,2.0,Solid,2.0,23.351438875077292,Animal_Land_Solid_Small,5,1,10632801.0,10634444.0,1643.0
108,choice,choice,12,2.0,Solid,2.0,23.351438875077292,Object_Sea_Pattern_Large,4,0,10634519.0,10634997.0,478.0
108,choice,choice,12,2.0,Solid,2.0,23.351438875077292,Animal_Sea_Pattern_Large,2,0,10635028.0,10635862.0,834.0
108,choice,choice,12,2.0,Solid,2.0,23.351438875077292,Object_Sea_Pattern_Large,4,0,10636062.0,10636301.0,239.0
108,choice,choice,12,2.0,Solid,2.0,23.351438875077292,Animal_Land_Solid_Small,5,1,10636710.0,10637636.0,926.0
108,choice,choice,12,2.0,Solid,2.0,23.351438875077292,Object_Land_Pattern_Large,1,0,10637849.0,10638025.0,176.0
108,choice,choice,12,2.0,Solid,2.0,23.351438875077292,Object_Land_Solid_Small,0,1,10638073.0,10641071.0,2998.0
108,choice,choice,13,2.0,Large,2.0,14.330751167028213,Animal_Sea_Solid_Small,3,0,10645621.0,10645990.0,369.0
108,choice,choice,13,2.0,Large,2.0,14.330751167028213,Object_Sea_Pattern_Large,4,1,10646762.0,10647429.0,667.0
108,choice,choice,13,2.0,Large,2.0,14.330751167028213,Animal_Sea_Pattern_Large,2,1,10647469.0,10647804.0,335.0
108,choice,choice,13,2.0,Large,2.0,14.330751167028213,Object_Land_Pattern_Large,1,1,10647957.0,10648558.0,601.0
108,choice,choice,13,2.0,Large,2.0,14.330751167028213,Animal_Sea_Pattern_Large,2,1,10648634.0,10649023.0,389.0
108,choice,choice,13,2.0,Large,2.0,14.330751167028213,Object_Sea_Pattern_Large,4,1,10649049.0,10650958.0,1909.0
108,choice,choice,13,2.0,Large,2.0,14.330751167028213,Animal_Land_Solid_Small,5,0,10651565.0,10651718.0,153.0
108,choice,choice,13,2.0,Large,2.0,14.330751167028213,Object_Sea_Pattern_Large,4,1,10652464.0,10655745.0,3281.0
108,choice,choice,14,2.0,Animal,2.0,4.227787292096764,Animal_Sea_Pattern_Large,2,1,10664862.0,10666534.0,1672.0
108,choice,choice,14,2.0,Animal,2.0,4.227787292096764,Object_Sea_Pattern_Large,4,0,10666730.0,10666913.0,183.0
108,choice,choice,15,2.0,Object,1.0,1.5534402909688652,Object_Sea_Pattern_Large,4,1,10670921.0,10671132.0,211.0
108,choice,choice,16,2.0,Small,1.0,3.038086959044449,Object_Sea_Pattern_Large,4,0,10674849.0,10676024.0,1175.0
108,choice,choice,16,2.0,Small,1.0,3.038086959044449,Animal_Sea_Solid_Small,3,1,10676577.0,10677171.0,594.0
108,choice,choice,17,3.0,Land,2.0,20.462851708987728,Animal_Land_Solid_Large,0,1,10934146.0,10934219.0,73.0
108,choice,choice,17,3.0,Land,2.0,20.462851708987728,Animal_Land_Pattern_Large,1,1,10934404.0,10934514.0,110.0
108,choice,choice,17,3.0,Land,2.0,20.462851708987728,Object_Sea_Solid_Small,2,0,10934689.0,10936174.0,1485.0
108,choice,choice,17,3.0,Land,2.0,20.462851708987728,Animal_Land_Solid_Large,0,1,10936567.0,10938632.0,2065.0
108,choice,choice,17,3.0,Land,2.0,20.462851708987728,Animal_Land_Solid_Small,3,1,10939192.0,10942404.0,3212.0
108,choice,choice,17,3.0,Land,2.0,20.462851708987728,Animal_Land_Solid_Large,0,1,10942712.0,10942863.0,151.0
108,choice,choice,17,3.0,Land,2.0,20.462851708987728,Animal_Land_Pattern_Large,1,1,10942885.0,10946754.0,3869.0
108,choice,choice,17,3.0,Land,2.0,20.462851708987728,Object_Sea_Pattern_Large,4,0,10947074.0,10949239.0,2165.0
108,choice,choice,17,3.0,Land,2.0,20.462851708987728,Object_Sea_Solid_Small,2,0,10950367.0,10951646.0,1279.0
108,choice,choice,17,3.0,Land,2.0,20.462851708987728,Object_Sea_Pattern_Large,4,0,10952525.0,10952871.0,346.0
108,choice,choice,17,3.0,Land,2.0,20.462851708987728,Animal_Land_Solid_Small,3,1,10953848.0,10953975.0,127.0
108,choice,choice,18,3.0,Pattern,1.0,16.090838625095785,Animal_Land_Solid_Small,3,0,10958734.0,10960604.0,1870.0
108,choice,choice,18,3.0,Pattern,1.0,16.090838625095785,Object_Sea_Pattern_Large,4,1,10960648.0,10962128.0,1480.0
108,choice,choice,18,3.0,Pattern,1.0,16.090838625095785,Animal_Land_Pattern_Large,1,1,10962344.0,10962995.0,651.0
108,choice,choice,18,3.0,Pattern,1.0,16.090838625095785,Object_Sea_Pattern_Small,5,1,10963553.0,10966850.0,3297.0
108,choice,choice,18,3.0,Pattern,1.0,16.090838625095785,Object_Sea_Pattern_Large,4,1,10968232.0,10968424.0,192.0
108,choice,choice,18,3.0,Pattern,1.0,16.090838625095785,Object_Sea_Solid_Small,2,0,10969539.0,10969758.0,219.0
108,choice,choice,18,3.0,Pattern,1.0,16.090838625095785,Object_Sea_Pattern_Small,5,1,10969785.0,10970584.0,799.0
108,choice,choice,18,3.0,Pattern,1.0,16.090838625095785,Object_Sea_Pattern_Large,4,1,10970611.0,10971057.0,446.0
108,choice,choice,18,3.0,Pattern,1.0,16.090838625095785,Object_Sea_Solid_Small,2,0,10971094.0,10972683.0,1589.0
108,choice,choice,18,3.0,Pattern,1.0,16.090838625095785,Object_Sea_Pattern_Large,4,1,10972889.0,10973347.0,458.0
108,choice,choice,19,3.0,Animal,2.0,4.992626124992967,Animal_Land_Solid_Large,0,1,10977040.0,10979554.0,2514.0
108,choice,choice,19,3.0,Animal,2.0,4.992626124992967,Animal_Land_Pattern_Large,1,1,10979821.0,10980240.0,419.0
108,choice,choice,19,3.0,Animal,2.0,4.992626124992967,Object_Sea_Pattern_Large,4,0,10980291.0,10980900.0,609.0
108,choice,choice,20,3.0,Object,1.0,11.15167383395601,Animal_Land_Solid_Large,0,0,10984922.0,10985320.0,398.0
108,choice,choice,20,3.0,Object,1.0,11.15167383395601,Object_Sea_Pattern_Small,5,1,10985675.0,10986174.0,499.0
108,choice,choice,20,3.0,Object,1.0,11.15167383395601,Animal_Land_Solid_Large,0,0,10986344.0,10986728.0,384.0
108,choice,choice,20,3.0,Object,1.0,11.15167383395601,Object_Sea_Pattern_Small,5,1,10987592.0,10988245.0,653.0
108,choice,choice,20,3.0,Object,1.0,11.15167383395601,Animal_Land_Solid_Small,3,0,10988636.0,10988857.0,221.0
108,choice,choice,20,3.0,Object,1.0,11.15167383395601,Object_Sea_Pattern_Large,4,1,10988887.0,10989261.0,374.0
108,choice,choice,20,3.0,Object,1.0,11.15167383395601,Object_Sea_Solid_Small,2,1,10989316.0,10990589.0,1273.0
108,choice,choice,20,3.0,Object,1.0,11.15167383395601,Object_Sea_Pattern_Large,4,1,10990781.0,10991924.0,1143.0
108,choice,choice,21,3.0,Sea,1.0,10.574085791013204,Object_Sea_Pattern_Small,5,1,11004242.0,11005175.0,933.0
108,choice,choice,21,3.0,Sea,1.0,10.574085791013204,Animal_Land_Solid_Small,3,0,11005952.0,11006423.0,471.0
108,choice,choice,21,3.0,Sea,1.0,10.574085791013204,Animal_Land_Pattern_Large,1,0,11007582.0,11007924.0,342.0
108,choice,choice,22,3.0,Large,1.0,13.171709959045984,Animal_Land_Solid_Large,0,1,11014557.0,11017168.0,2611.0
108,choice,choice,22,3.0,Large,1.0,13.171709959045984,Animal_Land_Solid_Small,3,0,11018591.0,11018733.0,142.0
108,choice,choice,22,3.0,Large,1.0,13.171709959045984,Animal_Land_Solid_Large,0,1,11018759.0,11019357.0,598.0
108,choice,choice,22,3.0,Large,1.0,13.171709959045984,Animal_Land_Solid_Small,3,0,11019381.0,11020099.0,718.0
108,choice,choice,22,3.0,Large,1.0,13.171709959045984,Animal_Land_Pattern_Large,1,1,11020179.0,11022236.0,2057.0
108,choice,choice,22,3.0,Large,1.0,13.171709959045984,Animal_Land_Solid_Large,0,1,11023702.0,11024188.0,486.0
108,choice,choice,22,3.0,Large,1.0,13.171709959045984,Object_Sea_Pattern_Large,4,1,11024971.0,11026140.0,1169.0
108,choice,choice,23,3.0,Small,1.0,13.431264540995471,Animal_Land_Pattern_Large,1,0,11030471.0,11030608.0,137.0
108,choice,choice,23,3.0,Small,1.0,13.431264540995471,Animal_Land_Solid_Large,0,0,11030651.0,11030910.0,259.0
108,choice,choice,23,3.0,Small,1.0,13.431264540995471,Animal_Land_Solid_Small,3,1,11030935.0,11031979.0,1044.0
108,choice,choice,23,3.0,Small,1.0,13.431264540995471,Animal_Land_Pattern_Large,1,0,11033193.0,11034409.0,1216.0
108,choice,choice,23,3.0,Small,1.0,13.431264540995471,Animal_Land_Solid_Small,3,1,11034640.0,11035913.0,1273.0
108,choice,choice,23,3.0,Small,1.0,13.431264540995471,Object_Sea_Pattern_Small,5,1,11036490.0,11037896.0,1406.0
108,choice,choice,23,3.0,Small,1.0,13.431264540995471,Animal_Land_Solid_Large,0,0,11038096.0,11038337.0,241.0
108,choice,choice,23,3.0,Small,1.0,13.431264540995471,Animal_Land_Solid_Small,3,1,11038362.0,11038954.0,592.0
108,choice,choice,23,3.0,Small,1.0,13.431264540995471,Animal_Land_Pattern_Large,1,0,11039011.0,11039439.0,428.0
108,choice,choice,23,3.0,Small,1.0,13.431264540995471,Animal_Land_Solid_Large,0,0,11039455.0,11039714.0,259.0
108,choice,choice,23,3.0,Small,1.0,13.431264540995471,Object_Sea_Pattern_Small,5,1,11040542.0,11041074.0,532.0
108,choice,choice,23,3.0,Small,1.0,13.431264540995471,Animal_Land_Solid_Small,3,1,11041144.0,11041743.0,599.0
108,choice,choice,23,3.0,Small,1.0,13.431264540995471,Animal_Land_Solid_Large,0,0,11041769.0,11042314.0,545.0
108,choice,choice,23,3.0,Small,1.0,13.431264540995471,Object_Sea_Pattern_Large,4,0,11043225.0,11043459.0,234.0
108,choice,choice,24,3.0,Solid,1.0,17.56397070805542,Animal_Land_Solid_Large,0,1,11047192.0,11048940.0,1748.0
108,choice,choice,24,3.0,Solid,1.0,17.56397070805542,Object_Sea_Pattern_Small,5,0,11050322.0,11052175.0,1853.0
108,choice,choice,24,3.0,Solid,1.0,17.56397070805542,Animal_Land_Solid_Large,0,1,11052365.0,11053516.0,1151.0
108,choice,choice,24,3.0,Solid,1.0,17.56397070805542,Animal_Land_Pattern_Large,1,0,11053590.0,11053850.0,260.0
108,choice,choice,24,3.0,Solid,1.0,17.56397070805542,Animal_Land_Solid_Large,0,1,11053887.0,11054159.0,272.0
108,choice,choice,24,3.0,Solid,1.0,17.56397070805542,Animal_Land_Solid_Small,3,1,11054199.0,11055972.0,1773.0
108,choice,choice,24,3.0,Solid,1.0,17.56397070805542,Object_Sea_Pattern_Large,4,0,11056201.0,11058668.0,2467.0
108,choice,choice,24,3.0,Solid,1.0,17.56397070805542,Object_Sea_Pattern_Small,5,0,11058962.0,11059723.0,761.0
108,choice,choice,24,3.0,Solid,1.0,17.56397070805542,Object_Sea_Solid_Small,2,1,11059746.0,11062840.0,3094.0
108,choice,choice,24,3.0,Solid,1.0,17.56397070805542,Animal_Land_Pattern_Large,1,0,11063236.0,11063652.0,416.0
108,choice,choice,25,4.0,Large,1.0,19.99227895902004,Animal_Sea_Pattern_Small,0,0,11307702.0,11307921.0,219.0
108,choice,choice,25,4.0,Large,1.0,19.99227895902004,Object_Sea_Solid_Large,1,1,11308141.0,11310586.0,2445.0
108,choice,choice,25,4.0,Large,1.0,19.99227895902004,Animal_Sea_Solid_Large,2,1,11311413.0,11312640.0,1227.0
108,choice,choice,25,4.0,Large,1.0,19.99227895902004,Object_Land_Solid_Large,3,1,11312873.0,11313511.0,638.0
108,choice,choice,25,4.0,Large,1.0,19.99227895902004,Animal_Sea_Solid_Large,2,1,11313765.0,11313960.0,195.0
108,choice,choice,25,4.0,Large,1.0,19.99227895902004,Object_Sea_Solid_Large,1,1,11314228.0,11314632.0,404.0
108,choice,choice,25,4.0,Large,1.0,19.99227895902004,Animal_Sea_Solid_Large,2,1,11314815.0,11315547.0,732.0
108,choice,choice,25,4.0,Large,1.0,19.99227895902004,Animal_Sea_Pattern_Small,0,0,11315835.0,11316115.0,280.0
108,choice,choice,25,4.0,Large,1.0,19.99227895902004,Object_Land_Pattern_Small,4,0,11316311.0,11316457.0,146.0
108,choice,choice,25,4.0,Large,1.0,19.99227895902004,Animal_Sea_Solid_Large,2,1,11316482.0,11317767.0,1285.0
108,choice,choice,25,4.0,Large,1.0,19.99227895902004,Object_Land_Solid_Large,3,1,11318646.0,11319346.0,700.0
108,choice,choice,25,4.0,Large,1.0,19.99227895902004,Animal_Sea_Solid_Large,2,1,11319382.0,11319590.0,208.0
108,choice,choice,25,4.0,Large,1.0,19.99227895902004,Object_Sea_Solid_Large,1,1,11320450.0,11320731.0,281.0
108,choice,choice,25,4.0,Large,1.0,19.99227895902004,Object_Land_Solid_Large,3,1,11320753.0,11321290.0,537.0
108,choice,choice,25,4.0,Large,1.0,19.99227895902004,Object_Sea_Solid_Large,1,1,11321312.0,11321611.0,299.0
108,choice,choice,25,4.0,Large,1.0,19.99227895902004,Object_Land_Solid_Large,3,1,11321638.0,11321981.0,343.0
108,choice,choice,25,4.0,Large,1.0,19.99227895902004,Object_Land_Pattern_Small,4,0,11322022.0,11323071.0,1049.0
108,choice,choice,25,4.0,Large,1.0,19.99227895902004,Animal_Land_Pattern_Small,5,0,11324200.0,11325401.0,1201.0
108,choice,choice,25,4.0,Large,1.0,19.99227895902004,Object_Land_Pattern_Small,4,0,11325631.0,11326556.0,925.0
108,choice,choice,25,4.0,Large,1.0,19.99227895902004,Animal_Sea_Pattern_Small,0,0,11326600.0,11326825.0,225.0
108,choice,choice,25,4.0,Large,1.0,19.99227895902004,Object_Land_Pattern_Small,4,0,11327036.0,11327210.0,174.0
108,choice,choice,26,4.0,Small,2.0,10.496484915958716,Animal_Sea_Pattern_Small,0,1,11330137.0,11331142.0,1005.0
108,choice,choice,26,4.0,Small,2.0,10.496484915958716,Animal_Land_Pattern_Small,5,1,11331594.0,11332043.0,449.0
108,choice,choice,26,4.0,Small,2.0,10.496484915958716,Animal_Sea_Pattern_Small,0,1,11332232.0,11333853.0,1621.0
108,choice,choice,26,4.0,Small,2.0,10.496484915958716,Object_Land_Pattern_Small,4,1,11333903.0,11335063.0,1160.0
108,choice,choice,26,4.0,Small,2.0,10.496484915958716,Animal_Land_Pattern_Small,5,1,11335274.0,11335787.0,513.0
108,choice,choice,26,4.0,Small,2.0,10.496484915958716,Animal_Sea_Solid_Large,2,0,11336259.0,11337026.0,767.0
108,choice,choice,26,4.0,Small,2.0,10.496484915958716,Object_Sea_Solid_Large,1,0,11337083.0,11337943.0,860.0
108,choice,choice,26,4.0,Small,2.0,10.496484915958716,Animal_Sea_Solid_Large,2,0,11337963.0,11338808.0,845.0
108,choice,choice,26,4.0,Small,2.0,10.496484915958716,Object_Land_Solid_Large,3,0,11338858.0,11339751.0,893.0
108,choice,choice,27,4.0,Land,2.0,21.719300207914785,Animal_Sea_Pattern_Small,0,0,11344261.0,11344621.0,360.0
108,choice,choice,27,4.0,Land,2.0,21.719300207914785,Animal_Land_Pattern_Small,5,1,11344821.0,11345684.0,863.0
108,choice,choice,27,4.0,Land,2.0,21.719300207914785,Animal_Sea_Pattern_Small,0,0,11345754.0,11346004.0,250.0
108,choice,choice,27,4.0,Land,2.0,21.719300207914785,Object_Sea_Solid_Large,1,0,11346188.0,11346547.0,359.0
108,choice,choice,27,4.0,Land,2.0,21.719300207914785,Animal_Sea_Pattern_Small,0,0,11346585.0,11347264.0,679.0
108,choice,choice,27,4.0,Land,2.0,21.719300207914785,Object_Land_Pattern_Small,4,1,11347309.0,11347638.0,329.0
108,choice,choice,27,4.0,Land,2.0,21.719300207914785,Object_Land_Solid_Large,3,1,11347851.0,11348096.0,245.0
108,choice,choice,27,4.0,Land,2.0,21.719300207914785,Object_Land_Pattern_Small,4,1,11348122.0,11349374.0,1252.0
108,choice,choice,27,4.0,Land,2.0,21.719300207914785,Object_Land_Solid_Large,3,1,11349456.0,11349745.0,289.0
108,choice,choice,27,4.0,Land,2.0,21.719300207914785,Animal_Sea_Solid_Large,2,0,11349931.0,11350180.0,249.0
108,choice,choice,27,4.0,Land,2.0,21.719300207914785,Object_Land_Solid_Large,3,1,11350516.0,11351974.0,1458.0
108,choice,choice,27,4.0,Land,2.0,21.719300207914785,Animal_Sea_Solid_Large,2,0,11352271.0,11352798.0,527.0
108,choice,choice,27,4.0,Land,2.0,21.719300207914785,Object_Land_Solid_Large,3,1,11352825.0,11353914.0,1089.0
108,choice,choice,27,4.0,Land,2.0,21.719300207914785,Animal_Sea_Solid_Large,2,0,11354131.0,11356534.0,2403.0
108,choice,choice,27,4.0,Land,2.0,21.719300207914785,Object_Sea_Solid_Large,1,0,11359879.0,11360091.0,212.0
108,choice,choice,27,4.0,Land,2.0,21.719300207914785,Animal_Sea_Pattern_Small,0,0,11360114.0,11360685.0,571.0
108,choice,choice,27,4.0,Land,2.0,21.719300207914785,Object_Sea_Solid_Large,1,0,11360927.0,11363584.0,2657.0
108,choice,choice,27,4.0,Land,2.0,21.719300207914785,Object_Land_Pattern_Small,4,1,11364323.0,11365459.0,1136.0
108,choice,choice,28,4.0,Object,2.0,8.840685790986754,Object_Land_Pattern_Small,4,1,11369500.0,11369820.0,320.0
108,choice,choice,28,4.0,Object,2.0,8.840685790986754,Animal_Land_Pattern_Small,5,0,11370036.0,11370484.0,448.0
108,choice,choice,28,4.0,Object,2.0,8.840685790986754,Object_Land_Pattern_Small,4,1,11370507.0,11370983.0,476.0
108,choice,choice,28,4.0,Object,2.0,8.840685790986754,Object_Land_Solid_Large,3,1,11371010.0,11371458.0,448.0
108,choice,choice,28,4.0,Object,2.0,8.840685790986754,Object_Sea_Solid_Large,1,1,11371505.0,11372553.0,1048.0
108,choice,choice,28,4.0,Object,2.0,8.840685790986754,Object_Land_Solid_Large,3,1,11372616.0,11373061.0,445.0
108,choice,choice,28,4.0,Object,2.0,8.840685790986754,Animal_Sea_Pattern_Small,0,0,11373089.0,11373366.0,277.0
108,choice,choice,28,4.0,Object,2.0,8.840685790986754,Object_Land_Solid_Large,3,1,11373410.0,11373949.0,539.0
108,choice,choice,28,4.0,Object,2.0,8.840685790986754,Animal_Sea_Solid_Large,2,0,11373983.0,11374241.0,258.0
108,choice,choice,28,4.0,Object,2.0,8.840685790986754,Object_Land_Solid_Large,3,1,11374259.0,11375156.0,897.0
108,choice,choice,28,4.0,Object,2.0,8.840685790986754,Object_Sea_Solid_Large,1,1,11375210.0,11375339.0,129.0
108,choice,choice,28,4.0,Object,2.0,8.840685790986754,Animal_Sea_Pattern_Small,0,0,11375934.0,11377438.0,1504.0
108,choice,choice,28,4.0,Object,2.0,8.840685790986754,Animal_Land_Pattern_Small,5,0,11377551.0,11377847.0,296.0
108,choice,choice,28,4.0,Object,2.0,8.840685790986754,Object_Land_Pattern_Small,4,1,11377901.0,11378019.0,118.0
108,choice,choice,29,4.0,Solid,1.0,17.951579749933444,Animal_Sea_Pattern_Small,0,0,11381538.0,11382089.0,551.0
108,choice,choice,29,4.0,Solid,1.0,17.951579749933444,Object_Land_Solid_Large,3,1,11382597.0,11384031.0,1434.0
108,choice,choice,29,4.0,Solid,1.0,17.951579749933444,Animal_Sea_Solid_Large,2,1,11384090.0,11384980.0,890.0
108,choice,choice,29,4.0,Solid,1.0,17.951579749933444,Object_Sea_Solid_Large,1,1,11385044.0,11385441.0,397.0
108,choice,choice,29,4.0,Solid,1.0,17.951579749933444,Object_Land_Pattern_Small,4,0,11385478.0,11385921.0,443.0
108,choice,choice,29,4.0,Solid,1.0,17.951579749933444,Object_Sea_Solid_Large,1,1,11385953.0,11387217.0,1264.0
108,choice,choice,29,4.0,Solid,1.0,17.951579749933444,Object_Land_Pattern_Small,4,0,11387465.0,11392533.0,5068.0
108,choice,choice,29,4.0,Solid,1.0,17.951579749933444,Animal_Land_Pattern_Small,5,0,11392803.0,11394178.0,1375.0
108,choice,choice,29,4.0,Solid,1.0,17.951579749933444,Animal_Sea_Solid_Large,2,1,11394235.0,11396187.0,1952.0
108,choice,choice,29,4.0,Solid,1.0,17.951579749933444,Object_Sea_Solid_Large,1,1,11396272.0,11396619.0,347.0
108,choice,choice,29,4.0,Solid,1.0,17.951579749933444,Animal_Sea_Pattern_Small,0,0,11396637.0,11397040.0,403.0
108,choice,choice,29,4.0,Solid,1.0,17.951579749933444,Animal_Land_Pattern_Small,5,0,11397064.0,11397380.0,316.0
108,choice,choice,29,4.0,Solid,1.0,17.951579749933444,Animal_Sea_Pattern_Small,0,0,11397405.0,11398825.0,1420.0
108,choice,choice,30,4.0,Animal,1.0,8.166923791985027,Animal_Sea_Solid_Large,2,1,11402062.0,11402838.0,776.0
108,choice,choice,30,4.0,Animal,1.0,8.166923791985027,Object_Sea_Solid_Large,1,0,11403062.0,11403355.0,293.0
108,choice,choice,30,4.0,Animal,1.0,8.166923791985027,Animal_Sea_Pattern_Small,0,1,11403396.0,11404643.0,1247.0
108,choice,choice,30,4.0,Animal,1.0,8.166923791985027,Object_Land_Solid_Large,3,0,11404846.0,11405561.0,715.0
108,choice,choice,30,4.0,Animal,1.0,8.166923791985027,Object_Land_Pattern_Small,4,0,11405633.0,11406075.0,442.0
108,choice,choice,30,4.0,Animal,1.0,8.166923791985027,Animal_Land_Pattern_Small,5,1,11406091.0,11406352.0,261.0
108,choice,choice,30,4.0,Animal,1.0,8.166923791985027,Object_Land_Pattern_Small,4,0,11406395.0,11407398.0,1003.0
108,choice,choice,30,4.0,Animal,1.0,8.166923791985027,Object_Land_Solid_Large,3,0,11407452.0,11407614.0,162.0
108,choice,choice,30,4.0,Animal,1.0,8.166923791985027,Object_Land_Pattern_Small,4,0,11408011.0,11408598.0,587.0
108,choice,choice,31,4.0,Sea,2.0,16.97128237504512,Animal_Sea_Solid_Large,2,1,11412985.0,11413155.0,170.0
108,choice,choice,31,4.0,Sea,2.0,16.97128237504512,Object_Sea_Solid_Large,1,1,11413177.0,11413827.0,650.0
108,choice,choice,31,4.0,Sea,2.0,16.97128237504512,Animal_Sea_Solid_Large,2,1,11413852.0,11415440.0,1588.0
108,choice,choice,31,4.0,Sea,2.0,16.97128237504512,Object_Sea_Solid_Large,1,1,11415764.0,11415946.0,182.0
108,choice,choice,31,4.0,Sea,2.0,16.97128237504512,Object_Land_Solid_Large,3,0,11415974.0,11416210.0,236.0
108,choice,choice,31,4.0,Sea,2.0,16.97128237504512,Animal_Sea_Pattern_Small,0,1,11416628.0,11417455.0,827.0
108,choice,choice,31,4.0,Sea,2.0,16.97128237504512,Object_Sea_Solid_Large,1,1,11417651.0,11417852.0,201.0
108,choice,choice,31,4.0,Sea,2.0,16.97128237504512,Object_Land_Pattern_Small,4,0,11418442.0,11421931.0,3489.0
108,choice,choice,31,4.0,Sea,2.0,16.97128237504512,Object_Land_Solid_Large,3,0,11424358.0,11424533.0,175.0
108,choice,choice,31,4.0,Sea,2.0,16.97128237504512,Animal_Sea_Solid_Large,2,1,11424548.0,11424810.0,262.0
108,choice,choice,31,4.0,Sea,2.0,16.97128237504512,Object_Land_Pattern_Small,4,0,11425307.0,11426690.0,1383.0
108,choice,choice,31,4.0,Sea,2.0,16.97128237504512,Object_Sea_Solid_Large,1,1,11426950.0,11427449.0,499.0
108,choice,choice,31,4.0,Sea,2.0,16.97128237504512,Animal_Sea_Solid_Large,2,1,11427459.0,11427977.0,518.0
108,choice,choice,31,4.0,Sea,2.0,16.97128237504512,Object_Sea_Solid_Large,1,1,11428010.0,11429030.0,1020.0
108,choice,choice,31,4.0,Sea,2.0,16.97128237504512,Animal_Sea_Solid_Large,2,1,11429073.0,11429342.0,269.0
108,choice,choice,32,4.0,Pattern,2.0,6.2863810419803485,Object_Land_Pattern_Small,4,1,11432285.0,11432873.0,588.0
108,choice,choice,32,4.0,Pattern,2.0,6.2863810419803485,Animal_Land_Pattern_Small,5,1,11433093.0,11434389.0,1296.0
108,choice,choice,32,4.0,Pattern,2.0,6.2863810419803485,Object_Land_Solid_Large,3,0,11434574.0,11436749.0,2175.0
108,choice,choice,32,4.0,Pattern,2.0,6.2863810419803485,Animal_Sea_Pattern_Small,0,1,11436849.0,11438253.0,1404.0
108,choice,choice,33,5.0,Small,2.0,52.66230141709093,Animal_Sea_Solid_Small,0,1,11679357.0,11690154.0,10797.0
108,choice,choice,33,5.0,Small,2.0,52.66230141709093,Object_Land_Solid_Small,1,1,11691171.0,11691687.0,516.0
108,choice,choice,33,5.0,Small,2.0,52.66230141709093,Animal_Sea_Solid_Small,0,1,11692213.0,11693300.0,1087.0
108,choice,choice,33,5.0,Small,2.0,52.66230141709093,Object_Land_Pattern_Large,2,0,11693937.0,11694124.0,187.0
108,choice,choice,33,5.0,Small,2.0,52.66230141709093,Animal_Sea_Pattern_Large,3,0,11694166.0,11697325.0,3159.0
108,choice,choice,33,5.0,Small,2.0,52.66230141709093,Object_Sea_Pattern_Large,4,0,11698096.0,11698598.0,502.0
108,choice,choice,33,5.0,Small,2.0,52.66230141709093,Animal_Sea_Pattern_Large,3,0,11698615.0,11700250.0,1635.0
108,choice,choice,33,5.0,Small,2.0,52.66230141709093,Animal_Sea_Solid_Small,0,1,11700487.0,11703752.0,3265.0
108,choice,choice,33,5.0,Small,2.0,52.66230141709093,Object_Land_Pattern_Large,2,0,11703985.0,11704744.0,759.0
108,choice,choice,33,5.0,Small,2.0,52.66230141709093,Animal_Land_Solid_Small,5,1,11704962.0,11706120.0,1158.0
108,choice,choice,33,5.0,Small,2.0,52.66230141709093,Object_Sea_Pattern_Large,4,0,11706384.0,11706921.0,537.0
108,choice,choice,33,5.0,Small,2.0,52.66230141709093,Object_Land_Pattern_Large,2,0,11706992.0,11709222.0,2230.0
108,choice,choice,33,5.0,Small,2.0,52.66230141709093,Animal_Sea_Pattern_Large,3,0,11712066.0,11712803.0,737.0
108,choice,choice,33,5.0,Small,2.0,52.66230141709093,Object_Land_Solid_Small,1,1,11712858.0,11713724.0,866.0
108,choice,choice,33,5.0,Small,2.0,52.66230141709093,Animal_Sea_Solid_Small,0,1,11713907.0,11715742.0,1835.0
108,choice,choice,33,5.0,Small,2.0,52.66230141709093,Object_Land_Pattern_Large,2,0,11715931.0,11716228.0,297.0
108,choice,choice,33,5.0,Small,2.0,52.66230141709093,Animal_Sea_Solid_Small,0,1,11716243.0,11718432.0,2189.0
108,choice,choice,33,5.0,Small,2.0,52.66230141709093,Object_Land_Pattern_Large,2,0,11718646.0,11719834.0,1188.0
108,choice,choice,33,5.0,Small,2.0,52.66230141709093,Animal_Land_Solid_Small,5,1,11720280.0,11722635.0,2355.0
108,choice,choice,33,5.0,Small,2.0,52.66230141709093,Object_Sea_Pattern_Large,4,0,11722944.0,11724916.0,1972.0
108,choice,choice,33,5.0,Small,2.0,52.66230141709093,Object_Land_Solid_Small,1,1,11725562.0,11727222.0,1660.0
108,choice,choice,33,5.0,Small,2.0,52.66230141709093,Animal_Sea_Pattern_Large,3,0,11727272.0,11727793.0,521.0
108,choice,choice,33,5.0,Small,2.0,52.66230141709093,Object_Land_Solid_Small,1,1,11727816.0,11728067.0,251.0
108,choice,choice,33,5.0,Small,2.0,52.66230141709093,Animal_Sea_Solid_Small,0,1,11728091.0,11728918.0,827.0
108,choice,choice,33,5.0,Small,2.0,52.66230141709093,Object_Land_Solid_Small,1,1,11728935.0,11730186.0,1251.0
108,choice,choice,33,5.0,Small,2.0,52.66230141709093,Animal_Sea_Solid_Small,0,1,11730232.0,11730448.0,216.0
108,choice,choice,33,5.0,Small,2.0,52.66230141709093,Object_Land_Pattern_Large,2,0,11730458.0,11730734.0,276.0
108,choice,choice,33,5.0,Small,2.0,52.66230141709093,Object_Land_Solid_Small,1,1,11730912.0,11731502.0,590.0
108,choice,choice,34,5.0,Animal,2.0,12.221284125000238,Animal_Sea_Pattern_Large,3,1,11734608.0,11734841.0,233.0
108,choice,choice,34,5.0,Animal,2.0,12.221284125000238,Animal_Land_Solid_Small,5,1,11735028.0,11735420.0,392.0
108,choice,choice,34,5.0,Animal,2.0,12.221284125000238,Object_Sea_Pattern_Large,4,0,11735641.0,11735784.0,143.0
108,choice,choice,34,5.0,Animal,2.0,12.221284125000238,Animal_Sea_Pattern_Large,3,1,11735827.0,11738030.0,2203.0
108,choice,choice,34,5.0,Animal,2.0,12.221284125000238,Animal_Sea_Solid_Small,0,1,11740072.0,11740886.0,814.0
108,choice,choice,34,5.0,Animal,2.0,12.221284125000238,Animal_Sea_Pattern_Large,3,1,11741225.0,11742221.0,996.0
108,choice,choice,34,5.0,Animal,2.0,12.221284125000238,Object_Sea_Pattern_Large,4,0,11742491.0,11742951.0,460.0
108,choice,choice,34,5.0,Animal,2.0,12.221284125000238,Object_Land_Solid_Small,1,0,11744289.0,11744611.0,322.0
108,choice,choice,34,5.0,Animal,2.0,12.221284125000238,Object_Sea_Pattern_Large,4,0,11744810.0,11745547.0,737.0
108,choice,choice,35,5.0,Sea,1.0,13.674698290997185,Object_Sea_Pattern_Large,4,1,11749383.0,11749700.0,317.0
108,choice,choice,35,5.0,Sea,1.0,13.674698290997185,Animal_Sea_Pattern_Large,3,1,11749725.0,11750146.0,421.0
108,choice,choice,35,5.0,Sea,1.0,13.674698290997185,Object_Sea_Pattern_Large,4,1,11750169.0,11751498.0,1329.0
108,choice,choice,35,5.0,Sea,1.0,13.674698290997185,Animal_Sea_Pattern_Large,3,1,11752394.0,11752544.0,150.0
108,choice,choice,35,5.0,Sea,1.0,13.674698290997185,Object_Sea_Pattern_Large,4,1,11752571.0,11752860.0,289.0
108,choice,choice,35,5.0,Sea,1.0,13.674698290997185,Object_Land_Pattern_Large,2,0,11752905.0,11753154.0,249.0
108,choice,choice,35,5.0,Sea,1.0,13.674698290997185,Object_Land_Solid_Small,1,0,11753475.0,11753849.0,374.0
108,choice,choice,35,5.0,Sea,1.0,13.674698290997185,Animal_Sea_Solid_Small,0,1,11753871.0,11754386.0,515.0
108,choice,choice,35,5.0,Sea,1.0,13.674698290997185,Object_Land_Pattern_Large,2,0,11754411.0,11755008.0,597.0
108,choice,choice,35,5.0,Sea,1.0,13.674698290997185,Animal_Sea_Solid_Small,0,1,11755049.0,11755478.0,429.0
108,choice,choice,35,5.0,Sea,1.0,13.674698290997185,Object_Land_Solid_Small,1,0,11755668.0,11755925.0,257.0
108,choice,choice,35,5.0,Sea,1.0,13.674698290997185,Animal_Sea_Solid_Small,0,1,11755947.0,11756337.0,390.0
108,choice,choice,35,5.0,Sea,1.0,13.674698290997185,Object_Land_Solid_Small,1,0,11757281.0,11759836.0,2555.0
108,choice,choice,35,5.0,Sea,1.0,13.674698290997185,Object_Land_Pattern_Large,2,0,11761864.0,11762437.0,573.0
108,choice,choice,35,5.0,Sea,1.0,13.674698290997185,Animal_Sea_Solid_Small,0,1,11762477.0,11762637.0,160.0
108,choice,choice,36,5.0,Pattern,2.0,17.609696416999213,Animal_Sea_Solid_Small,0,0,11768822.0,11769483.0,661.0
108,choice,choice,36,5.0,Pattern,2.0,17.609696416999213,Object_Land_Pattern_Large,2,1,11773616.0,11773857.0,241.0
108,choice,choice,36,5.0,Pattern,2.0,17.609696416999213,Animal_Sea_Solid_Small,0,0,11773881.0,11774693.0,812.0
108,choice,choice,36,5.0,Pattern,2.0,17.609696416999213,Object_Land_Solid_Small,1,0,11774746.0,11775761.0,1015.0
108,choice,choice,36,5.0,Pattern,2.0,17.609696416999213,Animal_Sea_Pattern_Large,3,1,11775831.0,11777452.0,1621.0
108,choice,choice,36,5.0,Pattern,2.0,17.609696416999213,Object_Land_Solid_Small,1,0,11777517.0,11778286.0,769.0
108,choice,choice,36,5.0,Pattern,2.0,17.609696416999213,Object_Land_Pattern_Large,2,1,11778542.0,11779200.0,658.0
108,choice,choice,36,5.0,Pattern,2.0,17.609696416999213,Object_Land_Solid_Small,1,0,11779247.0,11779679.0,432.0
108,choice,choice,36,5.0,Pattern,2.0,17.609696416999213,Object_Land_Pattern_Large,2,1,11779730.0,11780551.0,821.0
108,choice,choice,36,5.0,Pattern,2.0,17.609696416999213,Animal_Land_Solid_Small,5,0,11780610.0,11781883.0,1273.0
108,choice,choice,36,5.0,Pattern,2.0,17.609696416999213,Object_Land_Solid_Small,1,0,11782517.0,11783027.0,510.0
108,choice,choice,36,5.0,Pattern,2.0,17.609696416999213,Animal_Land_Solid_Small,5,0,11783107.0,11783481.0,374.0
108,choice,choice,37,5.0,Land,2.0,11.02774637506809,Animal_Land_Solid_Small,5,1,11787559.0,11789223.0,1664.0
108,choice,choice,37,5.0,Land,2.0,11.02774637506809,Object_Land_Pattern_Large,2,1,11790179.0,11791739.0,1560.0
108,choice,choice,37,5.0,Land,2.0,11.02774637506809,Object_Land_Solid_Small,1,1,11792267.0,11792792.0,525.0
108,choice,choice,37,5.0,Land,2.0,11.02774637506809,Animal_Sea_Solid_Small,0,0,11792812.0,11793090.0,278.0
108,choice,choice,37,5.0,Land,2.0,11.02774637506809,Object_Land_Solid_Small,1,1,11793110.0,11794099.0,989.0
108,choice,choice,37,5.0,Land,2.0,11.02774637506809,Animal_Sea_Solid_Small,0,0,11794275.0,11794797.0,522.0
108,choice,choice,37,5.0,Land,2.0,11.02774637506809,Animal_Land_Solid_Small,5,1,11796056.0,11796740.0,684.0
108,choice,choice,37,5.0,Land,2.0,11.02774637506809,Animal_Sea_Pattern_Large,3,0,11797419.0,11797977.0,558.0
108,choice,choice,38,5.0,Large,1.0,22.29440200002864,Animal_Sea_Solid_Small,0,0,11801399.0,11803690.0,2291.0
108,choice,choice,38,5.0,Large,1.0,22.29440200002864,Object_Land_Pattern_Large,2,1,11807249.0,11807569.0,320.0
108,choice,choice,38,5.0,Large,1.0,22.29440200002864,Animal_Sea_Solid_Small,0,0,11807580.0,11807741.0,161.0
108,choice,choice,38,5.0,Large,1.0,22.29440200002864,Object_Land_Pattern_Large,2,1,11808526.0,11808654.0,128.0
108,choice,choice,38,5.0,Large,1.0,22.29440200002864,Animal_Sea_Solid_Small,0,0,11808681.0,11810107.0,1426.0
108,choice,choice,38,5.0,Large,1.0,22.29440200002864,Animal_Sea_Pattern_Large,3,1,11810812.0,11811213.0,401.0
108,choice,choice,38,5.0,Large,1.0,22.29440200002864,Object_Land_Pattern_Large,2,1,11811364.0,11811773.0,409.0
108,choice,choice,38,5.0,Large,1.0,22.29440200002864,Animal_Sea_Solid_Small,0,0,11811789.0,11811998.0,209.0
108,choice,choice,38,5.0,Large,1.0,22.29440200002864,Object_Land_Solid_Small,1,0,11812530.0,11813501.0,971.0
108,choice,choice,38,5.0,Large,1.0,22.29440200002864,Animal_Sea_Solid_Small,0,0,11813549.0,11813784.0,235.0
108,choice,choice,38,5.0,Large,1.0,22.29440200002864,Object_Land_Solid_Small,1,0,11814342.0,11814575.0,233.0
108,choice,choice,38,5.0,Large,1.0,22.29440200002864,Animal_Sea_Solid_Small,0,0,11814938.0,11815099.0,161.0
108,choice,choice,38,5.0,Large,1.0,22.29440200002864,Object_Land_Solid_Small,1,0,11815323.0,11817087.0,1764.0
108,choice,choice,38,5.0,Large,1.0,22.29440200002864,Object_Land_Pattern_Large,2,1,11817557.0,11818562.0,1005.0
108,choice,choice,38,5.0,Large,1.0,22.29440200002864,Animal_Sea_Solid_Small,0,0,11818607.0,11818920.0,313.0
108,choice,choice,38,5.0,Large,1.0,22.29440200002864,Object_Land_Solid_Small,1,0,11818940.0,11819871.0,931.0
108,choice,choice,38,5.0,Large,1.0,22.29440200002864,Object_Land_Pattern_Large,2,1,11820095.0,11821591.0,1496.0
108,choice,choice,38,5.0,Large,1.0,22.29440200002864,Animal_Land_Solid_Small,5,0,11821848.0,11822128.0,280.0
108,choice,choice,38,5.0,Large,1.0,22.29440200002864,Object_Sea_Pattern_Large,4,1,11822162.0,11823231.0,1069.0
108,choice,choice,39,5.0,Object,1.0,6.7792512079468,Animal_Sea_Solid_Small,0,0,11826811.0,11829608.0,2797.0
108,choice,choice,39,5.0,Object,1.0,6.7792512079468,Animal_Sea_Pattern_Large,3,0,11830662.0,11830936.0,274.0
108,choice,choice,39,5.0,Object,1.0,6.7792512079468,Animal_Sea_Solid_Small,0,0,11830982.0,11831451.0,469.0
108,choice,choice,39,5.0,Object,1.0,6.7792512079468,Object_Land_Pattern_Large,2,1,11831475.0,11832394.0,919.0
108,choice,choice,39,5.0,Object,1.0,6.7792512079468,Object_Sea_Pattern_Large,4,1,11832488.0,11832995.0,507.0
108,choice,choice,40,5.0,Solid,1.0,10.040977333090268,Animal_Sea_Solid_Small,0,1,11836803.0,11836934.0,131.0
108,choice,choice,40,5.0,Solid,1.0,10.040977333090268,Object_Land_Solid_Small,1,1,11837705.0,11838986.0,1281.0
108,choice,choice,40,5.0,Solid,1.0,10.040977333090268,Animal_Sea_Solid_Small,0,1,11839425.0,11840283.0,858.0
108,choice,choice,40,5.0,Solid,1.0,10.040977333090268,Animal_Sea_Pattern_Large,3,0,11841396.0,11841841.0,445.0
108,choice,choice,40,5.0,Solid,1.0,10.040977333090268,Animal_Sea_Solid_Small,0,1,11842199.0,11843609.0,1410.0
108,choice,choice,40,5.0,Solid,1.0,10.040977333090268,Animal_Land_Solid_Small,5,1,11843912.0,11845212.0,1300.0
108,choice,choice,40,5.0,Solid,1.0,10.040977333090268,Object_Sea_Pattern_Large,4,0,11845978.0,11846157.0,179.0
108,choice,choice,41,6.0,Small,2.0,30.69722933298908,Object_Sea_Solid_Small,0,1,12100365.0,12101488.0,1123.0
108,choice,choice,41,6.0,Small,2.0,30.69722933298908,Animal_Land_Solid_Small,1,1,12101769.0,12104596.0,2827.0
108,choice,choice,41,6.0,Small,2.0,30.69722933298908,Animal_Land_Solid_Large,2,0,12105070.0,12105249.0,179.0
108,choice,choice,41,6.0,Small,2.0,30.69722933298908,Animal_Land_Solid_Small,1,1,12105586.0,12106378.0,792.0
108,choice,choice,41,6.0,Small,2.0,30.69722933298908,Object_Sea_Pattern_Large,3,0,12106621.0,12109457.0,2836.0
108,choice,choice,41,6.0,Small,2.0,30.69722933298908,Animal_Land_Solid_Small,1,1,12110405.0,12110610.0,205.0
108,choice,choice,41,6.0,Small,2.0,30.69722933298908,Object_Sea_Pattern_Large,3,0,12111459.0,12114920.0,3461.0
108,choice,choice,41,6.0,Small,2.0,30.69722933298908,Animal_Land_Solid_Large,2,0,12117284.0,12117822.0,538.0
108,choice,choice,41,6.0,Small,2.0,30.69722933298908,Animal_Land_Pattern_Large,4,0,12117848.0,12118803.0,955.0
108,choice,choice,41,6.0,Small,2.0,30.69722933298908,Animal_Land_Solid_Large,2,0,12119259.0,12119913.0,654.0
108,choice,choice,41,6.0,Small,2.0,30.69722933298908,Object_Sea_Pattern_Small,5,1,12119997.0,12120855.0,858.0
108,choice,choice,41,6.0,Small,2.0,30.69722933298908,Object_Sea_Pattern_Large,3,0,12120896.0,12121634.0,738.0
108,choice,choice,41,6.0,Small,2.0,30.69722933298908,Object_Sea_Pattern_Small,5,1,12121659.0,12121813.0,154.0
108,choice,choice,41,6.0,Small,2.0,30.69722933298908,Object_Sea_Solid_Small,0,1,12121985.0,12122630.0,645.0
108,choice,choice,41,6.0,Small,2.0,30.69722933298908,Object_Sea_Pattern_Small,5,1,12122653.0,12123529.0,876.0
108,choice,choice,41,6.0,Small,2.0,30.69722933298908,Object_Sea_Pattern_Large,3,0,12123546.0,12123823.0,277.0
108,choice,choice,41,6.0,Small,2.0,30.69722933298908,Object_Sea_Pattern_Small,5,1,12123844.0,12123924.0,80.0
108,choice,choice,41,6.0,Small,2.0,30.69722933298908,Animal_Land_Pattern_Large,4,0,12125038.0,12126771.0,1733.0
108,choice,choice,41,6.0,Small,2.0,30.69722933298908,Object_Sea_Pattern_Small,5,1,12127010.0,12127174.0,164.0
108,choice,choice,41,6.0,Small,2.0,30.69722933298908,Animal_Land_Solid_Large,2,0,12127758.0,12128677.0,919.0
108,choice,choice,41,6.0,Small,2.0,30.69722933298908,Object_Sea_Pattern_Large,3,0,12129157.0,12130421.0,1264.0
108,choice,choice,42,6.0,Pattern,1.0,7.4935419170651585,Object_Sea_Pattern_Small,5,1,12134166.0,12137173.0,3007.0
108,choice,choice,42,6.0,Pattern,1.0,7.4935419170651585,Animal_Land_Solid_Large,2,0,12138076.0,12138784.0,708.0
108,choice,choice,42,6.0,Pattern,1.0,7.4935419170651585,Animal_Land_Pattern_Large,4,1,12138830.0,12139623.0,793.0
108,choice,choice,42,6.0,Pattern,1.0,7.4935419170651585,Animal_Land_Solid_Small,1,0,12140063.0,12140772.0,709.0
108,choice,choice,43,6.0,Solid,1.0,10.306168082985096,Object_Sea_Pattern_Large,3,0,12144248.0,12144824.0,576.0
108,choice,choice,43,6.0,Solid,1.0,10.306168082985096,Object_Sea_Solid_Small,0,1,12145029.0,12146239.0,1210.0
108,choice,choice,43,6.0,Solid,1.0,10.306168082985096,Object_Sea_Pattern_Large,3,0,12146482.0,12146672.0,190.0
108,choice,choice,43,6.0,Solid,1.0,10.306168082985096,Object_Sea_Solid_Small,0,1,12146708.0,12147489.0,781.0
108,choice,choice,43,6.0,Solid,1.0,10.306168082985096,Animal_Land_Solid_Small,1,1,12147711.0,12149499.0,1788.0
108,choice,choice,43,6.0,Solid,1.0,10.306168082985096,Object_Sea_Pattern_Large,3,0,12150058.0,12151053.0,995.0
108,choice,choice,43,6.0,Solid,1.0,10.306168082985096,Animal_Land_Solid_Large,2,1,12151683.0,12152676.0,993.0
108,choice,choice,43,6.0,Solid,1.0,10.306168082985096,Object_Sea_Pattern_Large,3,0,12152889.0,12154104.0,1215.0
108,choice,choice,44,6.0,Animal,2.0,5.335200542001985,Animal_Land_Solid_Large,2,1,12157602.0,12158090.0,488.0
108,choice,choice,44,6.0,Animal,2.0,5.335200542001985,Animal_Land_Pattern_Large,4,1,12158126.0,12159137.0,1011.0
108,choice,choice,44,6.0,Animal,2.0,5.335200542001985,Object_Sea_Pattern_Large,3,0,12160604.0,12160807.0,203.0
108,choice,choice,44,6.0,Animal,2.0,5.335200542001985,Object_Sea_Pattern_Small,5,0,12160831.0,12161102.0,271.0
108,choice,choice,44,6.0,Animal,2.0,5.335200542001985,Object_Sea_Pattern_Large,3,0,12161125.0,12161400.0,275.0
108,choice,choice,44,6.0,Animal,2.0,5.335200542001985,Animal_Land_Solid_Small,1,1,12161446.0,12161804.0,358.0
108,choice,choice,45,6.0,Sea,1.0,7.851003458956256,Object_Sea_Pattern_Large,3,1,12166465.0,12166700.0,235.0
108,choice,choice,45,6.0,Sea,1.0,7.851003458956256,Object_Sea_Solid_Small,0,1,12166740.0,12167399.0,659.0
108,choice,choice,45,6.0,Sea,1.0,7.851003458956256,Animal_Land_Solid_Small,1,0,12167479.0,12167744.0,265.0
108,choice,choice,45,6.0,Sea,1.0,7.851003458956256,Object_Sea_Solid_Small,0,1,12168400.0,12168745.0,345.0
108,choice,choice,45,6.0,Sea,1.0,7.851003458956256,Animal_Land_Pattern_Large,4,0,12168945.0,12169214.0,269.0
108,choice,choice,45,6.0,Sea,1.0,7.851003458956256,Object_Sea_Solid_Small,0,1,12169237.0,12169784.0,547.0
108,choice,choice,45,6.0,Sea,1.0,7.851003458956256,Animal_Land_Pattern_Large,4,0,12169800.0,12170762.0,962.0
108,choice,choice,45,6.0,Sea,1.0,7.851003458956256,Object_Sea_Pattern_Large,3,1,12171034.0,12171875.0,841.0
108,choice,choice,46,6.0,Land,1.0,10.818780583911575,Animal_Land_Solid_Large,2,1,12177657.0,12179130.0,1473.0
108,choice,choice,46,6.0,Land,1.0,10.818780583911575,Animal_Land_Pattern_Large,4,1,12179333.0,12180582.0,1249.0
108,choice,choice,46,6.0,Land,1.0,10.818780583911575,Animal_Land_Solid_Large,2,1,12180787.0,12181291.0,504.0
108,choice,choice,46,6.0,Land,1.0,10.818780583911575,Animal_Land_Solid_Small,1,1,12181340.0,12184232.0,2892.0
108,choice,choice,46,6.0,Land,1.0,10.818780583911575,Object_Sea_Pattern_Large,3,0,12186267.0,12187009.0,742.0
108,choice,choice,46,6.0,Land,1.0,10.818780583911575,Animal_Land_Solid_Small,1,1,12187251.0,12187404.0,153.0
108,choice,choice,47,6.0,Large,2.0,4.2004309999756515,Animal_Land_Solid_Small,1,0,12190620.0,12190976.0,356.0
108,choice,choice,47,6.0,Large,2.0,4.2004309999756515,Object_Sea_Pattern_Large,3,1,12190993.0,12191131.0,138.0
108,choice,choice,47,6.0,Large,2.0,4.2004309999756515,Object_Sea_Pattern_Small,5,0,12191157.0,12191319.0,162.0
108,choice,choice,47,6.0,Large,2.0,4.2004309999756515,Object_Sea_Pattern_Large,3,1,12191518.0,12191745.0,227.0
108,choice,choice,47,6.0,Large,2.0,4.2004309999756515,Object_Sea_Pattern_Small,5,0,12193508.0,12193663.0,155.0
108,choice,choice,48,6.0,Object,1.0,6.400084082968533,Object_Sea_Solid_Small,0,1,12197358.0,12197658.0,300.0
108,choice,choice,48,6.0,Object,1.0,6.400084082968533,Object_Sea_Pattern_Large,3,1,12197710.0,12197896.0,186.0
108,choice,choice,48,6.0,Object,1.0,6.400084082968533,Object_Sea_Pattern_Small,5,1,12198090.0,12198368.0,278.0
108,choice,choice,48,6.0,Object,1.0,6.400084082968533,Animal_Land_Solid_Large,2,0,12198406.0,12198948.0,542.0
108,choice,choice,48,6.0,Object,1.0,6.400084082968533,Animal_Land_Solid_Small,1,0,12199012.0,12199881.0,869.0
108,choice,choice,48,6.0,Object,1.0,6.400084082968533,Object_Sea_Pattern_Small,5,1,12200079.0,12200360.0,281.0
108,choice,choice,48,6.0,Object,1.0,6.400084082968533,Object_Sea_Solid_Small,0,1,12200386.0,12200722.0,336.0
108,choice,choice,48,6.0,Object,1.0,6.400084082968533,Object_Sea_Pattern_Small,5,1,12200752.0,12201167.0,415.0
108,choice,choice,48,6.0,Object,1.0,6.400084082968533,Object_Sea_Pattern_Large,3,1,12201190.0,12202924.0,1734.0
108,choice,choice,49,7.0,Pattern,1.0,41.96226291696075,Animal_Sea_Pattern_Small,0,1,12439049.0,12439997.0,948.0
108,choice,choice,49,7.0,Pattern,1.0,41.96226291696075,Animal_Land_Pattern_Small,1,1,12440234.0,12449755.0,9521.0
108,choice,choice,49,7.0,Pattern,1.0,41.96226291696075,Object_Land_Pattern_Small,2,1,12451141.0,12453101.0,1960.0
108,choice,choice,49,7.0,Pattern,1.0,41.96226291696075,Object_Land_Solid_Large,3,0,12453175.0,12453388.0,213.0
108,choice,choice,49,7.0,Pattern,1.0,41.96226291696075,Animal_Sea_Solid_Large,4,0,12453429.0,12454811.0,1382.0
108,choice,choice,49,7.0,Pattern,1.0,41.96226291696075,Animal_Land_Pattern_Small,1,1,12455469.0,12457050.0,1581.0
108,choice,choice,49,7.0,Pattern,1.0,41.96226291696075,Object_Land_Pattern_Small,2,1,12457302.0,12459587.0,2285.0
108,choice,choice,49,7.0,Pattern,1.0,41.96226291696075,Object_Sea_Solid_Large,5,0,12459691.0,12459947.0,256.0
108,choice,choice,49,7.0,Pattern,1.0,41.96226291696075,Animal_Sea_Pattern_Small,0,1,12459964.0,12460776.0,812.0
108,choice,choice,49,7.0,Pattern,1.0,41.96226291696075,Object_Sea_Solid_Large,5,0,12460819.0,12461100.0,281.0
108,choice,choice,49,7.0,Pattern,1.0,41.96226291696075,Animal_Sea_Pattern_Small,0,1,12461119.0,12462334.0,1215.0
108,choice,choice,49,7.0,Pattern,1.0,41.96226291696075,Object_Sea_Solid_Large,5,0,12462409.0,12465087.0,2678.0
108,choice,choice,49,7.0,Pattern,1.0,41.96226291696075,Animal_Sea_Solid_Large,4,0,12465399.0,12465568.0,169.0
108,choice,choice,49,7.0,Pattern,1.0,41.96226291696075,Object_Sea_Solid_Large,5,0,12465856.0,12466850.0,994.0
108,choice,choice,49,7.0,Pattern,1.0,41.96226291696075,Animal_Sea_Pattern_Small,0,1,12466895.0,12468411.0,1516.0
108,choice,choice,49,7.0,Pattern,1.0,41.96226291696075,Animal_Sea_Solid_Large,4,0,12468781.0,12471138.0,2357.0
108,choice,choice,49,7.0,Pattern,1.0,41.96226291696075,Object_Land_Solid_Large,3,0,12471217.0,12472021.0,804.0
108,choice,choice,49,7.0,Pattern,1.0,41.96226291696075,Animal_Land_Pattern_Small,1,1,12472251.0,12472522.0,271.0
108,choice,choice,49,7.0,Pattern,1.0,41.96226291696075,Object_Land_Solid_Large,3,0,12472570.0,12472973.0,403.0
108,choice,choice,49,7.0,Pattern,1.0,41.96226291696075,Animal_Land_Pattern_Small,1,1,12473037.0,12476823.0,3786.0
108,choice,choice,49,7.0,Pattern,1.0,41.96226291696075,Object_Land_Solid_Large,3,0,12477634.0,12479787.0,2153.0
108,choice,choice,49,7.0,Pattern,1.0,41.96226291696075,Object_Land_Pattern_Small,2,1,12479861.0,12480150.0,289.0
108,choice,choice,50,7.0,Large,1.0,6.2632605829276145,Animal_Land_Pattern_Small,1,0,12484701.0,12484835.0,134.0
108,choice,choice,50,7.0,Large,1.0,6.2632605829276145,Animal_Sea_Pattern_Small,0,0,12484857.0,12486814.0,1957.0
108,choice,choice,50,7.0,Large,1.0,6.2632605829276145,Animal_Sea_Solid_Large,4,1,12487034.0,12487844.0,810.0
108,choice,choice,50,7.0,Large,1.0,6.2632605829276145,Object_Sea_Solid_Large,5,1,12487893.0,12488424.0,531.0
108,choice,choice,50,7.0,Large,1.0,6.2632605829276145,Object_Land_Solid_Large,3,1,12489291.0,12489440.0,149.0
108,choice,choice,50,7.0,Large,1.0,6.2632605829276145,Object_Sea_Solid_Large,5,1,12489815.0,12490517.0,702.0
108,choice,choice,51,7.0,Small,2.0,12.238361000083389,Object_Land_Solid_Large,3,0,12493811.0,12494400.0,589.0
108,choice,choice,51,7.0,Small,2.0,12.238361000083389,Animal_Land_Pattern_Small,1,1,12494453.0,12494780.0,327.0
108,choice,choice,51,7.0,Small,2.0,12.238361000083389,Object_Land_Pattern_Small,2,1,12494803.0,12495916.0,1113.0
108,choice,choice,51,7.0,Small,2.0,12.238361000083389,Animal_Land_Pattern_Small,1,1,12495951.0,12496804.0,853.0
108,choice,choice,51,7.0,Small,2.0,12.238361000083389,Object_Land_Pattern_Small,2,1,12497035.0,12497247.0,212.0
108,choice,choice,51,7.0,Small,2.0,12.238361000083389,Object_Land_Solid_Large,3,0,12497274.0,12497466.0,192.0
108,choice,choice,51,7.0,Small,2.0,12.238361000083389,Object_Sea_Solid_Large,5,0,12497898.0,12498413.0,515.0
108,choice,choice,51,7.0,Small,2.0,12.238361000083389,Animal_Sea_Pattern_Small,0,1,12498456.0,12498668.0,212.0
108,choice,choice,51,7.0,Small,2.0,12.238361000083389,Animal_Land_Pattern_Small,1,1,12498706.0,12499738.0,1032.0
108,choice,choice,51,7.0,Small,2.0,12.238361000083389,Object_Land_Solid_Large,3,0,12499993.0,12501530.0,1537.0
108,choice,choice,51,7.0,Small,2.0,12.238361000083389,Object_Land_Pattern_Small,2,1,12501657.0,12502267.0,610.0
108,choice,choice,51,7.0,Small,2.0,12.238361000083389,Animal_Sea_Pattern_Small,0,1,12502662.0,12504467.0,1805.0
108,choice,choice,51,7.0,Small,2.0,12.238361000083389,Animal_Sea_Solid_Large,4,0,12504987.0,12505273.0,286.0
108,choice,choice,52,7.0,Object,1.0,23.87651770899538,Animal_Sea_Solid_Large,4,0,12508807.0,12509138.0,331.0
108,choice,choice,52,7.0,Object,1.0,23.87651770899538,Object_Sea_Solid_Large,5,1,12509165.0,12509629.0,464.0
108,choice,choice,52,7.0,Object,1.0,23.87651770899538,Animal_Sea_Solid_Large,4,0,12511139.0,12511446.0,307.0
108,choice,choice,52,7.0,Object,1.0,23.87651770899538,Animal_Land_Pattern_Small,1,0,12512555.0,12512816.0,261.0
108,choice,choice,52,7.0,Object,1.0,23.87651770899538,Animal_Sea_Solid_Large,4,0,12513028.0,12515018.0,1990.0
108,choice,choice,52,7.0,Object,1.0,23.87651770899538,Object_Sea_Solid_Large,5,1,12516980.0,12517358.0,378.0
108,choice,choice,52,7.0,Object,1.0,23.87651770899538,Animal_Sea_Solid_Large,4,0,12517399.0,12518702.0,1303.0
108,choice,choice,52,7.0,Object,1.0,23.87651770899538,Animal_Sea_Pattern_Small,0,0,12520089.0,12520414.0,325.0
108,choice,choice,52,7.0,Object,1.0,23.87651770899538,Object_Sea_Solid_Large,5,1,12520445.0,12521957.0,1512.0
108,choice,choice,52,7.0,Object,1.0,23.87651770899538,Animal_Sea_Solid_Large,4,0,12522764.0,12522938.0,174.0
108,choice,choice,52,7.0,Object,1.0,23.87651770899538,Object_Land_Pattern_Small,2,1,12522959.0,12523933.0,974.0
108,choice,choice,52,7.0,Object,1.0,23.87651770899538,Object_Land_Solid_Large,3,1,12524246.0,12525137.0,891.0
108,choice,choice,52,7.0,Object,1.0,23.87651770899538,Animal_Sea_Solid_Large,4,0,12525342.0,12525960.0,618.0
108,choice,choice,52,7.0,Object,1.0,23.87651770899538,Object_Land_Solid_Large,3,1,12525982.0,12526238.0,256.0
108,choice,choice,52,7.0,Object,1.0,23.87651770899538,Animal_Sea_Solid_Large,4,0,12527548.0,12527895.0,347.0
108,choice,choice,52,7.0,Object,1.0,23.87651770899538,Object_Land_Solid_Large,3,1,12528103.0,12528728.0,625.0
108,choice,choice,52,7.0,Object,1.0,23.87651770899538,Animal_Sea_Solid_Large,4,0,12528932.0,12529380.0,448.0
108,choice,choice,52,7.0,Object,1.0,23.87651770899538,Object_Land_Solid_Large,3,1,12530059.0,12530821.0,762.0
108,choice,choice,52,7.0,Object,1.0,23.87651770899538,Object_Land_Pattern_Small,2,1,12531282.0,12531801.0,519.0
108,choice,choice,53,7.0,Land,1.0,2.2686958339763805,Object_Sea_Solid_Large,5,0,12535993.0,12536702.0,709.0
108,choice,choice,53,7.0,Land,1.0,2.2686958339763805,Object_Land_Pattern_Small,2,1,12536896.0,12537578.0,682.0
108,choice,choice,53,7.0,Land,1.0,2.2686958339763805,Object_Land_Solid_Large,3,1,12537638.0,12537830.0,192.0
108,choice,choice,54,7.0,Animal,2.0,6.2246718750102445,Object_Sea_Solid_Large,5,0,12540796.0,12541164.0,368.0
108,choice,choice,54,7.0,Animal,2.0,6.2246718750102445,Animal_Sea_Pattern_Small,0,1,12541183.0,12542539.0,1356.0
108,choice,choice,54,7.0,Animal,2.0,6.2246718750102445,Animal_Land_Pattern_Small,1,1,12543635.0,12543890.0,255.0
108,choice,choice,54,7.0,Animal,2.0,6.2246718750102445,Animal_Sea_Pattern_Small,0,1,12543929.0,12544704.0,775.0
108,choice,choice,54,7.0,Animal,2.0,6.2246718750102445,Object_Sea_Solid_Large,5,0,12544734.0,12545242.0,508.0
108,choice,choice,54,7.0,Animal,2.0,6.2246718750102445,Animal_Sea_Pattern_Small,0,1,12545275.0,12545425.0,150.0
108,choice,choice,54,7.0,Animal,2.0,6.2246718750102445,Object_Land_Solid_Large,3,0,12545809.0,12546435.0,626.0
108,choice,choice,55,7.0,Solid,1.0,4.939910541987047,Animal_Sea_Pattern_Small,0,0,12550335.0,12551298.0,963.0
108,choice,choice,55,7.0,Solid,1.0,4.939910541987047,Object_Sea_Solid_Large,5,1,12551806.0,12552740.0,934.0
108,choice,choice,55,7.0,Solid,1.0,4.939910541987047,Object_Land_Solid_Large,3,1,12553457.0,12553833.0,376.0
108,choice,choice,55,7.0,Solid,1.0,4.939910541987047,Object_Land_Pattern_Small,2,0,12553853.0,12554350.0,497.0
108,choice,choice,56,7.0,Sea,2.0,11.69796449993737,Object_Land_Solid_Large,3,0,12557170.0,12557502.0,332.0
108,choice,choice,56,7.0,Sea,2.0,11.69796449993737,Object_Sea_Solid_Large,5,1,12557557.0,12557966.0,409.0
108,choice,choice,56,7.0,Sea,2.0,11.69796449993737,Animal_Sea_Solid_Large,4,1,12557987.0,12558311.0,324.0
108,choice,choice,56,7.0,Sea,2.0,11.69796449993737,Object_Land_Solid_Large,3,0,12558717.0,12559554.0,837.0
108,choice,choice,56,7.0,Sea,2.0,11.69796449993737,Animal_Land_Pattern_Small,1,0,12560326.0,12560633.0,307.0
108,choice,choice,56,7.0,Sea,2.0,11.69796449993737,Object_Land_Pattern_Small,2,0,12560652.0,12561856.0,1204.0
108,choice,choice,56,7.0,Sea,2.0,11.69796449993737,Object_Land_Solid_Large,3,0,12562283.0,12568082.0,5799.0
