phase,event,trial_number,eyetracker_onset,eyetracker_offset,fix_start,fix_end,fix_duration_full,fix_duration_bounded,fix_x,fix_y,roi_x,roi_y,roi_content,onset,offset,game,image,outcome,choice,correct,rt,letter,match,response,option,true_value,true_position,recalled_position,Unnamed: 18
encoding,fixation,1,9906161,9906922,9906381.0,9906519.0,139.0,139.0,1956.4,1066.1,1920.0,1080.0,fixation,8.936141959042288,9.696943000075407,1.0,Animal_Sea_Solid_Large,2.0,,,,,,,,,,,
encoding,fixation,1,9906161,9906922,9906705.0,9906830.0,126.0,126.0,1903.2,1139.1,1920.0,1080.0,fixation,8.936141959042288,9.696943000075407,1.0,Animal_Sea_Solid_Large,2.0,,,,,,,,,,,
encoding,fixation,1,9906161,9906922,9906866.0,9907790.0,925.0,56.0,1900.9,1534.4,1920.0,700.0,Animal_Sea_Solid_Large,8.936141959042288,9.696943000075407,1.0,Animal_Sea_Solid_Large,2.0,,,,,,,,,,,
encoding,image,1,9906922,9907939,9907833.0,9908036.0,204.0,106.0,1922.1,1103.5,1920.0,1080.0,fixation,9.697065792046487,10.714676875039004,1.0,Animal_Sea_Solid_Large,2.0,,,,,,,,,,,
encoding,value,1,9907939,9913955,9908061.0,9908516.0,456.0,456.0,1924.1,1363.2,1920.0,700.0,Animal_Sea_Solid_Large,10.714786250027828,16.73016945901327,1.0,Animal_Sea_Solid_Large,2.0,,,,,,,,,,,
encoding,value,1,9907939,9913955,9908539.0,9909088.0,550.0,550.0,1918.8,1521.5,1920.0,700.0,Animal_Sea_Solid_Large,10.714786250027828,16.73016945901327,1.0,Animal_Sea_Solid_Large,2.0,,,,,,,,,,,
encoding,value,1,9907939,9913955,9909109.0,9909487.0,379.0,379.0,1919.8,1387.0,1920.0,700.0,Animal_Sea_Solid_Large,10.714786250027828,16.73016945901327,1.0,Animal_Sea_Solid_Large,2.0,,,,,,,,,,,
encoding,value,1,9907939,9913955,9909506.0,9909944.0,439.0,439.0,1900.0,1518.0,1920.0,700.0,Animal_Sea_Solid_Large,10.714786250027828,16.73016945901327,1.0,Animal_Sea_Solid_Large,2.0,,,,,,,,,,,
encoding,value,1,9907939,9913955,9909966.0,9910292.0,327.0,327.0,1921.8,1384.2,1920.0,700.0,Animal_Sea_Solid_Large,10.714786250027828,16.73016945901327,1.0,Animal_Sea_Solid_Large,2.0,,,,,,,,,,,
encoding,value,1,9907939,9913955,9910311.0,9910562.0,252.0,252.0,1905.3,1492.5,1920.0,700.0,Animal_Sea_Solid_Large,10.714786250027828,16.73016945901327,1.0,Animal_Sea_Solid_Large,2.0,,,,,,,,,,,
encoding,value,1,9907939,9913955,9910581.0,9910950.0,370.0,370.0,1932.3,1386.2,1920.0,700.0,Animal_Sea_Solid_Large,10.714786250027828,16.73016945901327,1.0,Animal_Sea_Solid_Large,2.0,,,,,,,,,,,
encoding,value,1,9907939,9913955,9910973.0,9911607.0,635.0,635.0,1912.4,1545.3,1920.0,700.0,Animal_Sea_Solid_Large,10.714786250027828,16.73016945901327,1.0,Animal_Sea_Solid_Large,2.0,,,,,,,,,,,
encoding,value,1,9907939,9913955,9911630.0,9911911.0,282.0,282.0,1937.9,1399.7,1920.0,700.0,Animal_Sea_Solid_Large,10.714786250027828,16.73016945901327,1.0,Animal_Sea_Solid_Large,2.0,,,,,,,,,,,
encoding,value,1,9907939,9913955,9912103.0,9912378.0,276.0,276.0,1935.7,1417.4,1920.0,700.0,Animal_Sea_Solid_Large,10.714786250027828,16.73016945901327,1.0,Animal_Sea_Solid_Large,2.0,,,,,,,,,,,
encoding,value,1,9907939,9913955,9912409.0,9913227.0,819.0,819.0,1949.5,1101.6,1920.0,1080.0,fixation,10.714786250027828,16.73016945901327,1.0,Animal_Sea_Solid_Large,2.0,,,,,,,,,,,
encoding,value,1,9907939,9913955,9913265.0,9914462.0,1198.0,690.0,1939.6,1384.5,1920.0,700.0,Animal_Sea_Solid_Large,10.714786250027828,16.73016945901327,1.0,Animal_Sea_Solid_Large,2.0,,,,,,,,,,,
encoding,attention,1,9913955,9916974,9914470.0,9914686.0,217.0,217.0,1907.1,1375.8,1920.0,700.0,Animal_Sea_Solid_Large,16.730289375060238,19.74852612509858,1.0,Animal_Sea_Solid_Large,2.0,2.0,1.0,1.974790042033419,,,,,,,,
encoding,attention,1,9913955,9916974,9914698.0,9915037.0,340.0,340.0,1977.9,1369.5,1920.0,700.0,Animal_Sea_Solid_Large,16.730289375060238,19.74852612509858,1.0,Animal_Sea_Solid_Large,2.0,2.0,1.0,1.974790042033419,,,,,,,,
encoding,attention,1,9913955,9916974,9915049.0,9915249.0,201.0,201.0,1912.4,1372.0,1920.0,700.0,Animal_Sea_Solid_Large,16.730289375060238,19.74852612509858,1.0,Animal_Sea_Solid_Large,2.0,2.0,1.0,1.974790042033419,,,,,,,,
encoding,attention,1,9913955,9916974,9915259.0,9915461.0,203.0,203.0,1966.2,1383.4,1920.0,700.0,Animal_Sea_Solid_Large,16.730289375060238,19.74852612509858,1.0,Animal_Sea_Solid_Large,2.0,2.0,1.0,1.974790042033419,,,,,,,,
encoding,attention,1,9913955,9916974,9915489.0,9915848.0,360.0,360.0,1906.1,1558.8,1920.0,700.0,Animal_Sea_Solid_Large,16.730289375060238,19.74852612509858,1.0,Animal_Sea_Solid_Large,2.0,2.0,1.0,1.974790042033419,,,,,,,,
encoding,attention,1,9913955,9916974,9915877.0,9916534.0,658.0,658.0,1908.4,1380.3,1920.0,700.0,Animal_Sea_Solid_Large,16.730289375060238,19.74852612509858,1.0,Animal_Sea_Solid_Large,2.0,2.0,1.0,1.974790042033419,,,,,,,,
encoding,attention,1,9913955,9916974,9916730.0,9916963.0,234.0,234.0,1898.7,1475.7,1920.0,700.0,Animal_Sea_Solid_Large,16.730289375060238,19.74852612509858,1.0,Animal_Sea_Solid_Large,2.0,2.0,1.0,1.974790042033419,,,,,,,,
encoding,fixation,2,9916974,9918229,9917201.0,9918398.0,1198.0,1028.0,1952.8,1087.9,1920.0,1080.0,fixation,19.7486985840369,21.003942209063094,1.0,Animal_Land_Pattern_Small,-7.0,,,,,,,,,,,
encoding,image,2,9918229,9919240,9918440.0,9919547.0,1108.0,800.0,1956.3,718.8,1920.0,1460.0,Animal_Land_Pattern_Small,21.004053250071593,22.015297459089197,1.0,Animal_Land_Pattern_Small,-7.0,,,,,,,,,,,
encoding,value,2,9919240,9925253,9919563.0,9919799.0,237.0,237.0,1937.7,619.9000000000001,1920.0,1460.0,Animal_Land_Pattern_Small,22.01541991706472,28.02765325002838,1.0,Animal_Land_Pattern_Small,-7.0,,,,,,,,,,,
encoding,value,2,9919240,9925253,9920009.0,9921258.0,1250.0,1250.0,1936.5,696.0999999999999,1920.0,1460.0,Animal_Land_Pattern_Small,22.01541991706472,28.02765325002838,1.0,Animal_Land_Pattern_Small,-7.0,,,,,,,,,,,
encoding,value,2,9919240,9925253,9921272.0,9924200.0,2929.0,2929.0,1931.1,660.3,1920.0,1460.0,Animal_Land_Pattern_Small,22.01541991706472,28.02765325002838,1.0,Animal_Land_Pattern_Small,-7.0,,,,,,,,,,,
encoding,value,2,9919240,9925253,9924212.0,9924695.0,484.0,484.0,1919.4,649.5999999999999,1920.0,1460.0,Animal_Land_Pattern_Small,22.01541991706472,28.02765325002838,1.0,Animal_Land_Pattern_Small,-7.0,,,,,,,,,,,
encoding,value,2,9919240,9925253,9924711.0,9925492.0,782.0,542.0,1959.7,736.9000000000001,1920.0,1460.0,Animal_Land_Pattern_Small,22.01541991706472,28.02765325002838,1.0,Animal_Land_Pattern_Small,-7.0,,,,,,,,,,,
encoding,attention,2,9925253,9928271,9925510.0,9926010.0,501.0,501.0,1908.1,646.5999999999999,1920.0,1460.0,Animal_Land_Pattern_Small,28.0277640420245,31.045603167032823,1.0,Animal_Land_Pattern_Small,-7.0,-7.0,1.0,0.4832925000227988,,,,,,,,
encoding,attention,2,9925253,9928271,9926205.0,9926762.0,558.0,558.0,1960.8,727.7,1920.0,1460.0,Animal_Land_Pattern_Small,28.0277640420245,31.045603167032823,1.0,Animal_Land_Pattern_Small,-7.0,-7.0,1.0,0.4832925000227988,,,,,,,,
encoding,attention,2,9925253,9928271,9926770.0,9926999.0,230.0,230.0,1914.3,679.5999999999999,1920.0,1460.0,Animal_Land_Pattern_Small,28.0277640420245,31.045603167032823,1.0,Animal_Land_Pattern_Small,-7.0,-7.0,1.0,0.4832925000227988,,,,,,,,
encoding,attention,2,9925253,9928271,9927046.0,9927323.0,278.0,278.0,1936.1,1195.2,1920.0,700.0,Animal_Sea_Solid_Large,28.0277640420245,31.045603167032823,1.0,Animal_Land_Pattern_Small,-7.0,-7.0,1.0,0.4832925000227988,,,,,,,,
encoding,attention,2,9925253,9928271,9927344.0,9927688.0,345.0,345.0,1920.8,1064.7,1920.0,1080.0,fixation,28.0277640420245,31.045603167032823,1.0,Animal_Land_Pattern_Small,-7.0,-7.0,1.0,0.4832925000227988,,,,,,,,
encoding,attention,2,9925253,9928271,9927736.0,9927971.0,236.0,236.0,1899.5,1475.3,1920.0,700.0,Animal_Sea_Solid_Large,28.0277640420245,31.045603167032823,1.0,Animal_Land_Pattern_Small,-7.0,-7.0,1.0,0.4832925000227988,,,,,,,,
encoding,fixation,3,9928271,9929526,9928504.0,9928742.0,239.0,239.0,1931.5,1041.3,1920.0,1080.0,fixation,31.04575954203028,32.300883000018075,1.0,Animal_Sea_Pattern_Small,3.0,,,,,,,,,,,
encoding,fixation,3,9928271,9929526,9928902.0,9929787.0,886.0,624.0,1923.0,1066.7,1920.0,1080.0,fixation,31.04575954203028,32.300883000018075,1.0,Animal_Sea_Pattern_Small,3.0,,,,,,,,,,,
encoding,image,3,9929527,9930538,9929827.0,9931302.0,1476.0,711.0,2267.9,885.0,2249.0,1269.0,Animal_Sea_Pattern_Small,32.30101300007664,33.31255133403465,1.0,Animal_Sea_Pattern_Small,3.0,,,,,,,,,,,
encoding,value,3,9930538,9936551,9931319.0,9932396.0,1078.0,1078.0,2262.0,794.2,2249.0,1269.0,Animal_Sea_Pattern_Small,33.312680250033736,39.32515141705517,1.0,Animal_Sea_Pattern_Small,3.0,,,,,,,,,,,
encoding,value,3,9930538,9936551,9932406.0,9932628.0,223.0,223.0,2267.3,845.9000000000001,2249.0,1269.0,Animal_Sea_Pattern_Small,33.312680250033736,39.32515141705517,1.0,Animal_Sea_Pattern_Small,3.0,,,,,,,,,,,
encoding,value,3,9930538,9936551,9932640.0,9932810.0,171.0,171.0,2330.2,886.8,2249.0,1269.0,Animal_Sea_Pattern_Small,33.312680250033736,39.32515141705517,1.0,Animal_Sea_Pattern_Small,3.0,,,,,,,,,,,
encoding,value,3,9930538,9936551,9932988.0,9933464.0,477.0,477.0,2280.1,879.0,2249.0,1269.0,Animal_Sea_Pattern_Small,33.312680250033736,39.32515141705517,1.0,Animal_Sea_Pattern_Small,3.0,,,,,,,,,,,
encoding,value,3,9930538,9936551,9933481.0,9933937.0,457.0,457.0,2255.8,812.7,2249.0,1269.0,Animal_Sea_Pattern_Small,33.312680250033736,39.32515141705517,1.0,Animal_Sea_Pattern_Small,3.0,,,,,,,,,,,
encoding,value,3,9930538,9936551,9933952.0,9934273.0,322.0,322.0,2269.5,878.7,2249.0,1269.0,Animal_Sea_Pattern_Small,33.312680250033736,39.32515141705517,1.0,Animal_Sea_Pattern_Small,3.0,,,,,,,,,,,
encoding,value,3,9930538,9936551,9934288.0,9935167.0,880.0,880.0,2255.2,785.5999999999999,2249.0,1269.0,Animal_Sea_Pattern_Small,33.312680250033736,39.32515141705517,1.0,Animal_Sea_Pattern_Small,3.0,,,,,,,,,,,
encoding,value,3,9930538,9936551,9935183.0,9935973.0,791.0,791.0,2299.0,861.9000000000001,2249.0,1269.0,Animal_Sea_Pattern_Small,33.312680250033736,39.32515141705517,1.0,Animal_Sea_Pattern_Small,3.0,,,,,,,,,,,
encoding,value,3,9930538,9936551,9935981.0,9937413.0,1433.0,570.0,2265.5,820.0999999999999,2249.0,1269.0,Animal_Sea_Pattern_Small,33.312680250033736,39.32515141705517,1.0,Animal_Sea_Pattern_Small,3.0,,,,,,,,,,,
encoding,attention,3,9936551,9939568,9937603.0,9937888.0,286.0,286.0,2264.4,879.8,2249.0,1269.0,Animal_Sea_Pattern_Small,39.32529258402064,42.342054667067714,1.0,Animal_Sea_Pattern_Small,3.0,3.0,1.0,0.5954086249694228,,,,,,,,
encoding,attention,3,9936551,9939568,9937933.0,9938213.0,281.0,281.0,1934.5,1249.5,1920.0,700.0,Animal_Sea_Solid_Large,39.32529258402064,42.342054667067714,1.0,Animal_Sea_Pattern_Small,3.0,3.0,1.0,0.5954086249694228,,,,,,,,
encoding,attention,3,9936551,9939568,9938237.0,9938934.0,698.0,698.0,1854.1,1470.4,1920.0,700.0,Animal_Sea_Solid_Large,39.32529258402064,42.342054667067714,1.0,Animal_Sea_Pattern_Small,3.0,3.0,1.0,0.5954086249694228,,,,,,,,
encoding,attention,3,9936551,9939568,9939018.0,9939153.0,136.0,136.0,1907.6,548.8,1920.0,1460.0,Animal_Land_Pattern_Small,39.32529258402064,42.342054667067714,1.0,Animal_Sea_Pattern_Small,3.0,3.0,1.0,0.5954086249694228,,,,,,,,
encoding,attention,3,9936551,9939568,9939166.0,9939458.0,293.0,293.0,1912.0,613.9000000000001,1920.0,1460.0,Animal_Land_Pattern_Small,39.32529258402064,42.342054667067714,1.0,Animal_Sea_Pattern_Small,3.0,3.0,1.0,0.5954086249694228,,,,,,,,
encoding,fixation,4,9939568,9940073,9939665.0,9939813.0,149.0,149.0,2231.5,778.9000000000001,2249.0,1269.0,Animal_Sea_Pattern_Small,42.34221416700166,42.84740829200018,1.0,Object_Sea_Solid_Large,-2.0,,,,,,,,,,,
encoding,fixation,4,9939568,9940073,9939852.0,9940601.0,750.0,221.0,1945.3,1073.5,1920.0,1080.0,fixation,42.34221416700166,42.84740829200018,1.0,Object_Sea_Solid_Large,-2.0,,,,,,,,,,,
encoding,image,4,9940074,9941085,9940629.0,9941415.0,787.0,456.0,2229.5,1185.1,2249.0,891.0,Object_Sea_Solid_Large,42.84753120900132,43.859090667101555,1.0,Object_Sea_Solid_Large,-2.0,,,,,,,,,,,
encoding,value,4,9941085,9947097,9941424.0,9941672.0,249.0,249.0,2255.9,1144.0,2249.0,891.0,Object_Sea_Solid_Large,43.859217500081286,49.871063084108755,1.0,Object_Sea_Solid_Large,-2.0,,,,,,,,,,,
encoding,value,4,9941085,9947097,9941871.0,9942146.0,276.0,276.0,2230.0,1217.6,2249.0,891.0,Object_Sea_Solid_Large,43.859217500081286,49.871063084108755,1.0,Object_Sea_Solid_Large,-2.0,,,,,,,,,,,
encoding,value,4,9941085,9947097,9942161.0,9942937.0,777.0,777.0,2271.3,1152.2,2249.0,891.0,Object_Sea_Solid_Large,43.859217500081286,49.871063084108755,1.0,Object_Sea_Solid_Large,-2.0,,,,,,,,,,,
encoding,value,4,9941085,9947097,9942947.0,9943199.0,253.0,253.0,2204.8,1169.0,2249.0,891.0,Object_Sea_Solid_Large,43.859217500081286,49.871063084108755,1.0,Object_Sea_Solid_Large,-2.0,,,,,,,,,,,
encoding,value,4,9941085,9947097,9943214.0,9943474.0,261.0,261.0,2237.0,1131.3,2249.0,891.0,Object_Sea_Solid_Large,43.859217500081286,49.871063084108755,1.0,Object_Sea_Solid_Large,-2.0,,,,,,,,,,,
encoding,value,4,9941085,9947097,9943491.0,9943925.0,435.0,435.0,2233.2,1224.5,2249.0,891.0,Object_Sea_Solid_Large,43.859217500081286,49.871063084108755,1.0,Object_Sea_Solid_Large,-2.0,,,,,,,,,,,
encoding,value,4,9941085,9947097,9943937.0,9944771.0,835.0,835.0,2237.4,1159.5,2249.0,891.0,Object_Sea_Solid_Large,43.859217500081286,49.871063084108755,1.0,Object_Sea_Solid_Large,-2.0,,,,,,,,,,,
encoding,value,4,9941085,9947097,9944800.0,9945256.0,457.0,457.0,1883.1,1291.4,1920.0,700.0,Animal_Sea_Solid_Large,43.859217500081286,49.871063084108755,1.0,Object_Sea_Solid_Large,-2.0,,,,,,,,,,,
encoding,value,4,9941085,9947097,9945288.0,9945421.0,134.0,134.0,2201.7,1186.0,2249.0,891.0,Object_Sea_Solid_Large,43.859217500081286,49.871063084108755,1.0,Object_Sea_Solid_Large,-2.0,,,,,,,,,,,
encoding,value,4,9941085,9947097,9945428.0,9946272.0,845.0,845.0,2228.0,1170.6,2249.0,891.0,Object_Sea_Solid_Large,43.859217500081286,49.871063084108755,1.0,Object_Sea_Solid_Large,-2.0,,,,,,,,,,,
encoding,value,4,9941085,9947097,9946284.0,9946473.0,190.0,190.0,2210.6,1222.5,2249.0,891.0,Object_Sea_Solid_Large,43.859217500081286,49.871063084108755,1.0,Object_Sea_Solid_Large,-2.0,,,,,,,,,,,
encoding,value,4,9941085,9947097,9946485.0,9946657.0,173.0,173.0,2229.2,1174.9,2249.0,891.0,Object_Sea_Solid_Large,43.859217500081286,49.871063084108755,1.0,Object_Sea_Solid_Large,-2.0,,,,,,,,,,,
encoding,value,4,9941085,9947097,9946722.0,9947001.0,280.0,280.0,1793.2,733.9000000000001,1920.0,1460.0,Animal_Land_Pattern_Small,43.859217500081286,49.871063084108755,1.0,Object_Sea_Solid_Large,-2.0,,,,,,,,,,,
encoding,value,4,9941085,9947097,9947014.0,9947280.0,267.0,83.0,1888.6,733.5,1920.0,1460.0,Animal_Land_Pattern_Small,43.859217500081286,49.871063084108755,1.0,Object_Sea_Solid_Large,-2.0,,,,,,,,,,,
encoding,attention,4,9947098,9950115,9947325.0,9947511.0,187.0,187.0,2267.6,1128.9,2249.0,891.0,Object_Sea_Solid_Large,49.871202834066935,52.888469250057824,1.0,Object_Sea_Solid_Large,-2.0,-2.0,1.0,0.8014429159229621,,,,,,,,
encoding,attention,4,9947098,9950115,9947523.0,9947650.0,128.0,128.0,2226.6,1155.6,2249.0,891.0,Object_Sea_Solid_Large,49.871202834066935,52.888469250057824,1.0,Object_Sea_Solid_Large,-2.0,-2.0,1.0,0.8014429159229621,,,,,,,,
encoding,attention,4,9947098,9950115,9947669.0,9948088.0,420.0,420.0,2341.2,1167.0,2249.0,891.0,Object_Sea_Solid_Large,49.871202834066935,52.888469250057824,1.0,Object_Sea_Solid_Large,-2.0,-2.0,1.0,0.8014429159229621,,,,,,,,
encoding,attention,4,9947098,9950115,9948132.0,9948615.0,484.0,484.0,1849.7,675.5999999999999,1920.0,1460.0,Animal_Land_Pattern_Small,49.871202834066935,52.888469250057824,1.0,Object_Sea_Solid_Large,-2.0,-2.0,1.0,0.8014429159229621,,,,,,,,
encoding,attention,4,9947098,9950115,9948651.0,9949073.0,423.0,423.0,2286.9,1003.9000000000001,2249.0,1269.0,Animal_Sea_Pattern_Small,49.871202834066935,52.888469250057824,1.0,Object_Sea_Solid_Large,-2.0,-2.0,1.0,0.8014429159229621,,,,,,,,
encoding,attention,4,9947098,9950115,9949254.0,9949451.0,198.0,198.0,2247.1,1156.9,2249.0,891.0,Object_Sea_Solid_Large,49.871202834066935,52.888469250057824,1.0,Object_Sea_Solid_Large,-2.0,-2.0,1.0,0.8014429159229621,,,,,,,,
encoding,attention,4,9947098,9950115,9949482.0,9950103.0,622.0,622.0,1877.6,1360.2,1920.0,700.0,Animal_Sea_Solid_Large,49.871202834066935,52.888469250057824,1.0,Object_Sea_Solid_Large,-2.0,-2.0,1.0,0.8014429159229621,,,,,,,,
encoding,fixation,5,9950115,9951120,9950138.0,9950543.0,406.0,406.0,2256.1,1148.1,2249.0,891.0,Object_Sea_Solid_Large,52.88861979206558,53.893576417001896,1.0,Object_Land_Solid_Large,-2.0,,,,,,,,,,,
encoding,fixation,5,9950115,9951120,9950595.0,9951474.0,880.0,525.0,1892.7,722.7,1920.0,1460.0,Animal_Land_Pattern_Small,52.88861979206558,53.893576417001896,1.0,Object_Land_Solid_Large,-2.0,,,,,,,,,,,
encoding,image,5,9951120,9952131,9951527.0,9951882.0,356.0,356.0,1577.3,1308.4,1591.0,891.0,Object_Land_Solid_Large,53.89369429205544,54.90401991701219,1.0,Object_Land_Solid_Large,-2.0,,,,,,,,,,,
encoding,image,5,9951120,9952131,9951931.0,9952094.0,164.0,164.0,2060.1,1037.5,2249.0,1269.0,Animal_Sea_Pattern_Small,53.89369429205544,54.90401991701219,1.0,Object_Land_Solid_Large,-2.0,,,,,,,,,,,
encoding,image,5,9951120,9952131,9952119.0,9952364.0,246.0,12.0,2238.6,881.8,2249.0,1269.0,Animal_Sea_Pattern_Small,53.89369429205544,54.90401991701219,1.0,Object_Land_Solid_Large,-2.0,,,,,,,,,,,
encoding,value,5,9952131,9958142,9952417.0,9952780.0,364.0,364.0,1600.2,1168.2,1591.0,891.0,Object_Land_Solid_Large,54.90412962506525,60.91513029206544,1.0,Object_Land_Solid_Large,-2.0,,,,,,,,,,,
encoding,value,5,9952131,9958142,9952964.0,9953178.0,215.0,215.0,1551.0,1298.8,1591.0,891.0,Object_Land_Solid_Large,54.90412962506525,60.91513029206544,1.0,Object_Land_Solid_Large,-2.0,,,,,,,,,,,
encoding,value,5,9952131,9958142,9953203.0,9953771.0,569.0,569.0,1850.8,1489.4,1920.0,700.0,Animal_Sea_Solid_Large,54.90412962506525,60.91513029206544,1.0,Object_Land_Solid_Large,-2.0,,,,,,,,,,,
encoding,value,5,9952131,9958142,9953813.0,9954253.0,441.0,441.0,2220.2,1214.1,2249.0,891.0,Object_Sea_Solid_Large,54.90412962506525,60.91513029206544,1.0,Object_Land_Solid_Large,-2.0,,,,,,,,,,,
encoding,value,5,9952131,9958142,9954299.0,9954431.0,133.0,133.0,1651.0,1151.9,1591.0,891.0,Object_Land_Solid_Large,54.90412962506525,60.91513029206544,1.0,Object_Land_Solid_Large,-2.0,,,,,,,,,,,
encoding,value,5,9952131,9958142,9954442.0,9954851.0,410.0,410.0,1606.5,1143.4,1591.0,891.0,Object_Land_Solid_Large,54.90412962506525,60.91513029206544,1.0,Object_Land_Solid_Large,-2.0,,,,,,,,,,,
encoding,value,5,9952131,9958142,9954903.0,9955212.0,310.0,310.0,2176.8,902.9000000000001,2249.0,1269.0,Animal_Sea_Pattern_Small,54.90412962506525,60.91513029206544,1.0,Object_Land_Solid_Large,-2.0,,,,,,,,,,,
encoding,value,5,9952131,9958142,9955227.0,9955659.0,433.0,433.0,2289.8,872.3,2249.0,1269.0,Animal_Sea_Pattern_Small,54.90412962506525,60.91513029206544,1.0,Object_Land_Solid_Large,-2.0,,,,,,,,,,,
encoding,value,5,9952131,9958142,9955701.0,9956070.0,370.0,370.0,1921.3,743.2,1920.0,1460.0,Animal_Land_Pattern_Small,54.90412962506525,60.91513029206544,1.0,Object_Land_Solid_Large,-2.0,,,,,,,,,,,
encoding,value,5,9952131,9958142,9956088.0,9956429.0,342.0,342.0,1904.4,640.3,1920.0,1460.0,Animal_Land_Pattern_Small,54.90412962506525,60.91513029206544,1.0,Object_Land_Solid_Large,-2.0,,,,,,,,,,,
encoding,value,5,9952131,9958142,9956602.0,9957661.0,1060.0,1060.0,1604.6,1176.6,1591.0,891.0,Object_Land_Solid_Large,54.90412962506525,60.91513029206544,1.0,Object_Land_Solid_Large,-2.0,,,,,,,,,,,
encoding,value,5,9952131,9958142,9957705.0,9958444.0,740.0,437.0,1899.3,677.3,1920.0,1460.0,Animal_Land_Pattern_Small,54.90412962506525,60.91513029206544,1.0,Object_Land_Solid_Large,-2.0,,,,,,,,,,,
encoding,attention,5,9958142,9961196,9958489.0,9958641.0,153.0,153.0,1606.7,1136.5,1591.0,891.0,Object_Land_Solid_Large,60.9152397090802,63.96886625001207,1.0,Object_Land_Solid_Large,-2.0,-2.0,1.0,1.5428308339323848,,,,,,,,
encoding,attention,5,9958142,9961196,9958652.0,9959166.0,515.0,515.0,1558.2,1156.6,1591.0,891.0,Object_Land_Solid_Large,60.9152397090802,63.96886625001207,1.0,Object_Land_Solid_Large,-2.0,-2.0,1.0,1.5428308339323848,,,,,,,,
encoding,attention,5,9958142,9961196,9959183.0,9959953.0,771.0,771.0,1653.8,1170.7,1591.0,891.0,Object_Land_Solid_Large,60.9152397090802,63.96886625001207,1.0,Object_Land_Solid_Large,-2.0,-2.0,1.0,1.5428308339323848,,,,,,,,
encoding,attention,5,9958142,9961196,9960184.0,9960242.0,59.0,59.0,1591.8,1285.1,1591.0,891.0,Object_Land_Solid_Large,60.9152397090802,63.96886625001207,1.0,Object_Land_Solid_Large,-2.0,-2.0,1.0,1.5428308339323848,,,,,,,,
encoding,attention,5,9958142,9961196,9960276.0,9960675.0,400.0,400.0,1918.0,1452.2,1920.0,700.0,Animal_Sea_Solid_Large,60.9152397090802,63.96886625001207,1.0,Object_Land_Solid_Large,-2.0,-2.0,1.0,1.5428308339323848,,,,,,,,
encoding,attention,5,9958142,9961196,9960708.0,9961038.0,331.0,331.0,2208.5,1245.6,2249.0,891.0,Object_Sea_Solid_Large,60.9152397090802,63.96886625001207,1.0,Object_Land_Solid_Large,-2.0,-2.0,1.0,1.5428308339323848,,,,,,,,
encoding,fixation,6,9961196,9962701,9961305.0,9961421.0,117.0,117.0,1650.7,1168.1,1591.0,891.0,Object_Land_Solid_Large,63.969078750000335,65.47402270906605,1.0,Object_Land_Pattern_Small,5.0,,,,,,,,,,,
encoding,fixation,6,9961196,9962701,9961452.0,9961689.0,238.0,238.0,1971.4,1054.0,1920.0,1080.0,fixation,63.969078750000335,65.47402270906605,1.0,Object_Land_Pattern_Small,5.0,,,,,,,,,,,
encoding,fixation,6,9961196,9962701,9961716.0,9962209.0,494.0,494.0,2268.3,933.3,2249.0,1269.0,Animal_Sea_Pattern_Small,63.969078750000335,65.47402270906605,1.0,Object_Land_Pattern_Small,5.0,,,,,,,,,,,
encoding,fixation,6,9961196,9962701,9962253.0,9962706.0,454.0,448.0,1905.2,712.2,1920.0,1460.0,Animal_Land_Pattern_Small,63.969078750000335,65.47402270906605,1.0,Object_Land_Pattern_Small,5.0,,,,,,,,,,,
encoding,image,6,9962701,9963712,9962743.0,9963032.0,290.0,290.0,1957.0,1049.1,1920.0,1080.0,fixation,65.47415204206482,66.48540383402724,1.0,Object_Land_Pattern_Small,5.0,,,,,,,,,,,
encoding,image,6,9962701,9963712,9963057.0,9963151.0,95.0,95.0,1760.6,1016.0999999999999,1591.0,1269.0,Object_Land_Pattern_Small,65.47415204206482,66.48540383402724,1.0,Object_Land_Pattern_Small,5.0,,,,,,,,,,,
encoding,image,6,9962701,9963712,9963353.0,9963484.0,132.0,132.0,1507.9,876.3,1591.0,1269.0,Object_Land_Pattern_Small,65.47415204206482,66.48540383402724,1.0,Object_Land_Pattern_Small,5.0,,,,,,,,,,,
encoding,image,6,9962701,9963712,9963497.0,9964135.0,639.0,215.0,1583.6,884.7,1591.0,1269.0,Object_Land_Pattern_Small,65.47415204206482,66.48540383402724,1.0,Object_Land_Pattern_Small,5.0,,,,,,,,,,,
encoding,value,6,9963712,9969726,9964150.0,9966051.0,1902.0,1902.0,1582.9,791.5999999999999,1591.0,1269.0,Object_Land_Pattern_Small,66.4855227090884,72.49820175010245,1.0,Object_Land_Pattern_Small,5.0,,,,,,,,,,,
encoding,value,6,9963712,9969726,9966072.0,9966472.0,401.0,401.0,1570.8,861.0,1591.0,1269.0,Object_Land_Pattern_Small,66.4855227090884,72.49820175010245,1.0,Object_Land_Pattern_Small,5.0,,,,,,,,,,,
encoding,value,6,9963712,9969726,9966650.0,9967015.0,366.0,366.0,1581.6,776.7,1591.0,1269.0,Object_Land_Pattern_Small,66.4855227090884,72.49820175010245,1.0,Object_Land_Pattern_Small,5.0,,,,,,,,,,,
encoding,value,6,9963712,9969726,9967036.0,9967314.0,279.0,279.0,1573.2,899.4000000000001,1591.0,1269.0,Object_Land_Pattern_Small,66.4855227090884,72.49820175010245,1.0,Object_Land_Pattern_Small,5.0,,,,,,,,,,,
encoding,value,6,9963712,9969726,9967363.0,9967565.0,203.0,203.0,1892.5,1320.3,1920.0,700.0,Animal_Sea_Solid_Large,66.4855227090884,72.49820175010245,1.0,Object_Land_Pattern_Small,5.0,,,,,,,,,,,
encoding,value,6,9963712,9969726,9967589.0,9967923.0,335.0,335.0,1923.0,1549.8,1920.0,700.0,Animal_Sea_Solid_Large,66.4855227090884,72.49820175010245,1.0,Object_Land_Pattern_Small,5.0,,,,,,,,,,,
encoding,value,6,9963712,9969726,9967980.0,9968217.0,238.0,238.0,1862.3,874.5,1920.0,1460.0,Animal_Land_Pattern_Small,66.4855227090884,72.49820175010245,1.0,Object_Land_Pattern_Small,5.0,,,,,,,,,,,
encoding,value,6,9963712,9969726,9968239.0,9968985.0,747.0,747.0,1888.2,711.2,1920.0,1460.0,Animal_Land_Pattern_Small,66.4855227090884,72.49820175010245,1.0,Object_Land_Pattern_Small,5.0,,,,,,,,,,,
encoding,value,6,9963712,9969726,9969027.0,9969543.0,517.0,517.0,2195.2,872.7,2249.0,1269.0,Animal_Sea_Pattern_Small,66.4855227090884,72.49820175010245,1.0,Object_Land_Pattern_Small,5.0,,,,,,,,,,,
encoding,value,6,9963712,9969726,9969596.0,9970177.0,582.0,130.0,1593.6,771.8,1591.0,1269.0,Object_Land_Pattern_Small,66.4855227090884,72.49820175010245,1.0,Object_Land_Pattern_Small,5.0,,,,,,,,,,,
encoding,attention,6,9969726,9972744,9970194.0,9970558.0,365.0,365.0,1657.0,805.2,1591.0,1269.0,Object_Land_Pattern_Small,72.49831825005822,75.51626829209272,1.0,Object_Land_Pattern_Small,5.0,5.0,1.0,0.6268358340021223,,,,,,,,
encoding,attention,6,9969726,9972744,9970615.0,9971083.0,469.0,469.0,1912.2,1390.2,1920.0,700.0,Animal_Sea_Solid_Large,72.49831825005822,75.51626829209272,1.0,Object_Land_Pattern_Small,5.0,5.0,1.0,0.6268358340021223,,,,,,,,
encoding,attention,6,9969726,9972744,9971138.0,9971503.0,366.0,366.0,2253.9,863.2,2249.0,1269.0,Animal_Sea_Pattern_Small,72.49831825005822,75.51626829209272,1.0,Object_Land_Pattern_Small,5.0,5.0,1.0,0.6268358340021223,,,,,,,,
encoding,attention,6,9969726,9972744,9971550.0,9971760.0,211.0,211.0,1559.9,803.0,1591.0,1269.0,Object_Land_Pattern_Small,72.49831825005822,75.51626829209272,1.0,Object_Land_Pattern_Small,5.0,5.0,1.0,0.6268358340021223,,,,,,,,
encoding,attention,6,9969726,9972744,9971775.0,9971951.0,177.0,177.0,1660.8,796.2,1591.0,1269.0,Object_Land_Pattern_Small,72.49831825005822,75.51626829209272,1.0,Object_Land_Pattern_Small,5.0,5.0,1.0,0.6268358340021223,,,,,,,,
encoding,attention,6,9969726,9972744,9972003.0,9972314.0,312.0,312.0,1885.6,1493.5,1920.0,700.0,Animal_Sea_Solid_Large,72.49831825005822,75.51626829209272,1.0,Object_Land_Pattern_Small,5.0,5.0,1.0,0.6268358340021223,,,,,,,,
encoding,attention,6,9969726,9972744,9972366.0,9972612.0,247.0,247.0,2170.8,814.5,2249.0,1269.0,Animal_Sea_Pattern_Small,72.49831825005822,75.51626829209272,1.0,Object_Land_Pattern_Small,5.0,5.0,1.0,0.6268358340021223,,,,,,,,
encoding,fixation,7,10391201,10392706,10391657.0,10392903.0,1247.0,1049.0,1930.4,1084.2,1920.0,1080.0,fixation,8.684533249936067,10.189763124915771,2.0,Object_Land_Solid_Small,-9.0,,,,,,,,,,,
encoding,image,7,10392706,10393718,10392940.0,10393927.0,988.0,778.0,2245.8,907.5,2249.0,1269.0,Object_Land_Solid_Small,10.189882541890256,11.201442666933872,2.0,Object_Land_Solid_Small,-9.0,,,,,,,,,,,
encoding,value,7,10393718,10399731,10393944.0,10394080.0,137.0,137.0,2253.0,811.4000000000001,2249.0,1269.0,Object_Land_Solid_Small,11.20155654195696,17.2147610419197,2.0,Object_Land_Solid_Small,-9.0,,,,,,,,,,,
encoding,value,7,10393718,10399731,10394256.0,10394807.0,552.0,552.0,2255.2,797.3,2249.0,1269.0,Object_Land_Solid_Small,11.20155654195696,17.2147610419197,2.0,Object_Land_Solid_Small,-9.0,,,,,,,,,,,
encoding,value,7,10393718,10399731,10394824.0,10395256.0,433.0,433.0,2230.3,879.0,2249.0,1269.0,Object_Land_Solid_Small,11.20155654195696,17.2147610419197,2.0,Object_Land_Solid_Small,-9.0,,,,,,,,,,,
encoding,value,7,10393718,10399731,10395271.0,10395699.0,429.0,429.0,2231.1,816.9000000000001,2249.0,1269.0,Object_Land_Solid_Small,11.20155654195696,17.2147610419197,2.0,Object_Land_Solid_Small,-9.0,,,,,,,,,,,
encoding,value,7,10393718,10399731,10395713.0,10396415.0,703.0,703.0,2252.0,888.0999999999999,2249.0,1269.0,Object_Land_Solid_Small,11.20155654195696,17.2147610419197,2.0,Object_Land_Solid_Small,-9.0,,,,,,,,,,,
encoding,value,7,10393718,10399731,10396428.0,10396874.0,447.0,447.0,2249.0,827.5,2249.0,1269.0,Object_Land_Solid_Small,11.20155654195696,17.2147610419197,2.0,Object_Land_Solid_Small,-9.0,,,,,,,,,,,
encoding,value,7,10393718,10399731,10396889.0,10397576.0,688.0,688.0,2256.7,895.0999999999999,2249.0,1269.0,Object_Land_Solid_Small,11.20155654195696,17.2147610419197,2.0,Object_Land_Solid_Small,-9.0,,,,,,,,,,,
encoding,value,7,10393718,10399731,10397592.0,10398100.0,509.0,509.0,2249.7,811.0999999999999,2249.0,1269.0,Object_Land_Solid_Small,11.20155654195696,17.2147610419197,2.0,Object_Land_Solid_Small,-9.0,,,,,,,,,,,
encoding,value,7,10393718,10399731,10398109.0,10399186.0,1078.0,1078.0,2248.3,884.7,2249.0,1269.0,Object_Land_Solid_Small,11.20155654195696,17.2147610419197,2.0,Object_Land_Solid_Small,-9.0,,,,,,,,,,,
encoding,value,7,10393718,10399731,10399201.0,10399440.0,240.0,240.0,2262.7,811.3,2249.0,1269.0,Object_Land_Solid_Small,11.20155654195696,17.2147610419197,2.0,Object_Land_Solid_Small,-9.0,,,,,,,,,,,
encoding,value,7,10393718,10399731,10399605.0,10399811.0,207.0,126.0,2261.7,806.7,2249.0,1269.0,Object_Land_Solid_Small,11.20155654195696,17.2147610419197,2.0,Object_Land_Solid_Small,-9.0,,,,,,,,,,,
encoding,attention,7,10399731,10402749,10399830.0,10400045.0,216.0,216.0,2244.7,903.5999999999999,2249.0,1269.0,Object_Land_Solid_Small,17.214898583944887,20.23213320889045,2.0,Object_Land_Solid_Small,-9.0,-9.0,1.0,0.8165788749465719,,,,,,,,
encoding,attention,7,10399731,10402749,10400060.0,10400198.0,139.0,139.0,2244.8,816.0,2249.0,1269.0,Object_Land_Solid_Small,17.214898583944887,20.23213320889045,2.0,Object_Land_Solid_Small,-9.0,-9.0,1.0,0.8165788749465719,,,,,,,,
encoding,attention,7,10399731,10402749,10400207.0,10400783.0,577.0,577.0,2290.1,804.3,2249.0,1269.0,Object_Land_Solid_Small,17.214898583944887,20.23213320889045,2.0,Object_Land_Solid_Small,-9.0,-9.0,1.0,0.8165788749465719,,,,,,,,
encoding,attention,7,10399731,10402749,10400963.0,10401582.0,620.0,620.0,2229.7,908.5999999999999,2249.0,1269.0,Object_Land_Solid_Small,17.214898583944887,20.23213320889045,2.0,Object_Land_Solid_Small,-9.0,-9.0,1.0,0.8165788749465719,,,,,,,,
encoding,attention,7,10399731,10402749,10401617.0,10401784.0,168.0,168.0,1888.9,1169.0,1920.0,700.0,Object_Land_Pattern_Large,17.214898583944887,20.23213320889045,2.0,Object_Land_Solid_Small,-9.0,-9.0,1.0,0.8165788749465719,,,,,,,,
encoding,attention,7,10399731,10402749,10401805.0,10402379.0,575.0,575.0,1917.7,1079.6,1920.0,1080.0,fixation,17.214898583944887,20.23213320889045,2.0,Object_Land_Solid_Small,-9.0,-9.0,1.0,0.8165788749465719,,,,,,,,
encoding,attention,7,10399731,10402749,10402423.0,10402596.0,174.0,174.0,2266.9,889.7,2249.0,1269.0,Object_Land_Solid_Small,17.214898583944887,20.23213320889045,2.0,Object_Land_Solid_Small,-9.0,-9.0,1.0,0.8165788749465719,,,,,,,,
encoding,fixation,8,10402749,10403504,10402757.0,10402929.0,173.0,173.0,2247.7,924.3,2249.0,1269.0,Object_Land_Solid_Small,20.232291499967687,20.98763354192488,2.0,Animal_Sea_Solid_Small,1.0,,,,,,,,,,,
encoding,fixation,8,10402749,10403504,10402963.0,10403730.0,768.0,541.0,1923.7,1080.3,1920.0,1080.0,fixation,20.232291499967687,20.98763354192488,2.0,Animal_Sea_Solid_Small,1.0,,,,,,,,,,,
encoding,image,8,10403504,10404515,10403773.0,10404703.0,931.0,742.0,2239.8,1264.9,2249.0,891.0,Animal_Sea_Solid_Small,20.98774395894725,21.998321041930467,2.0,Animal_Sea_Solid_Small,1.0,,,,,,,,,,,
encoding,value,8,10404515,10410529,10404723.0,10405064.0,342.0,342.0,2261.0,1152.2,2249.0,891.0,Animal_Sea_Solid_Small,21.998432541964576,28.01201266690623,2.0,Animal_Sea_Solid_Small,1.0,,,,,,,,,,,
encoding,value,8,10404515,10410529,10405236.0,10405431.0,196.0,196.0,2239.9,1174.0,2249.0,891.0,Animal_Sea_Solid_Small,21.998432541964576,28.01201266690623,2.0,Animal_Sea_Solid_Small,1.0,,,,,,,,,,,
encoding,value,8,10404515,10410529,10405448.0,10405931.0,484.0,484.0,2243.9,1244.8,2249.0,891.0,Animal_Sea_Solid_Small,21.998432541964576,28.01201266690623,2.0,Animal_Sea_Solid_Small,1.0,,,,,,,,,,,
encoding,value,8,10404515,10410529,10405948.0,10406288.0,341.0,341.0,2256.7,1141.9,2249.0,891.0,Animal_Sea_Solid_Small,21.998432541964576,28.01201266690623,2.0,Animal_Sea_Solid_Small,1.0,,,,,,,,,,,
encoding,value,8,10404515,10410529,10406306.0,10406528.0,223.0,223.0,2223.7,1233.1,2249.0,891.0,Animal_Sea_Solid_Small,21.998432541964576,28.01201266690623,2.0,Animal_Sea_Solid_Small,1.0,,,,,,,,,,,
encoding,value,8,10404515,10410529,10406536.0,10406954.0,419.0,419.0,2241.5,1255.8,2249.0,891.0,Animal_Sea_Solid_Small,21.998432541964576,28.01201266690623,2.0,Animal_Sea_Solid_Small,1.0,,,,,,,,,,,
encoding,value,8,10404515,10410529,10406976.0,10407552.0,577.0,577.0,2242.6,1151.3,2249.0,891.0,Animal_Sea_Solid_Small,21.998432541964576,28.01201266690623,2.0,Animal_Sea_Solid_Small,1.0,,,,,,,,,,,
encoding,value,8,10404515,10410529,10407571.0,10408194.0,624.0,624.0,2235.3,1268.9,2249.0,891.0,Animal_Sea_Solid_Small,21.998432541964576,28.01201266690623,2.0,Animal_Sea_Solid_Small,1.0,,,,,,,,,,,
encoding,value,8,10404515,10410529,10408211.0,10408729.0,519.0,519.0,2242.1,1170.0,2249.0,891.0,Animal_Sea_Solid_Small,21.998432541964576,28.01201266690623,2.0,Animal_Sea_Solid_Small,1.0,,,,,,,,,,,
encoding,value,8,10404515,10410529,10408907.0,10409103.0,197.0,197.0,2250.2,1153.8,2249.0,891.0,Animal_Sea_Solid_Small,21.998432541964576,28.01201266690623,2.0,Animal_Sea_Solid_Small,1.0,,,,,,,,,,,
encoding,value,8,10404515,10410529,10409121.0,10409520.0,400.0,400.0,2236.5,1246.8,2249.0,891.0,Animal_Sea_Solid_Small,21.998432541964576,28.01201266690623,2.0,Animal_Sea_Solid_Small,1.0,,,,,,,,,,,
encoding,value,8,10404515,10410529,10409529.0,10409837.0,309.0,309.0,2240.8,1195.0,2249.0,891.0,Animal_Sea_Solid_Small,21.998432541964576,28.01201266690623,2.0,Animal_Sea_Solid_Small,1.0,,,,,,,,,,,
encoding,value,8,10404515,10410529,10409849.0,10410322.0,474.0,474.0,2234.5,1258.2,2249.0,891.0,Animal_Sea_Solid_Small,21.998432541964576,28.01201266690623,2.0,Animal_Sea_Solid_Small,1.0,,,,,,,,,,,
encoding,value,8,10404515,10410529,10410340.0,10411191.0,852.0,189.0,2223.3,1159.9,2249.0,891.0,Animal_Sea_Solid_Small,21.998432541964576,28.01201266690623,2.0,Animal_Sea_Solid_Small,1.0,,,,,,,,,,,
encoding,attention,8,10410529,10413547,10411204.0,10411655.0,452.0,452.0,2292.8,1170.2,2249.0,891.0,Animal_Sea_Solid_Small,28.012128416914493,31.0301977499621,2.0,Animal_Sea_Solid_Small,1.0,1.0,1.0,0.8826759580988437,,,,,,,,
encoding,attention,8,10410529,10413547,10411855.0,10412007.0,153.0,153.0,2211.2,1238.7,2249.0,891.0,Animal_Sea_Solid_Small,28.012128416914493,31.0301977499621,2.0,Animal_Sea_Solid_Small,1.0,1.0,1.0,0.8826759580988437,,,,,,,,
encoding,attention,8,10410529,10413547,10412026.0,10412206.0,181.0,181.0,2283.2,1153.1,2249.0,891.0,Animal_Sea_Solid_Small,28.012128416914493,31.0301977499621,2.0,Animal_Sea_Solid_Small,1.0,1.0,1.0,0.8826759580988437,,,,,,,,
encoding,attention,8,10410529,10413547,10412245.0,10412770.0,526.0,526.0,2250.5,881.4000000000001,2249.0,1269.0,Object_Land_Solid_Small,28.012128416914493,31.0301977499621,2.0,Animal_Sea_Solid_Small,1.0,1.0,1.0,0.8826759580988437,,,,,,,,
encoding,attention,8,10410529,10413547,10412809.0,10413270.0,462.0,462.0,2249.2,1238.3,2249.0,891.0,Animal_Sea_Solid_Small,28.012128416914493,31.0301977499621,2.0,Animal_Sea_Solid_Small,1.0,1.0,1.0,0.8826759580988437,,,,,,,,
encoding,fixation,9,10413547,10415053,10413631.0,10413964.0,334.0,334.0,2249.0,1196.1,2249.0,891.0,Animal_Sea_Solid_Small,31.030344416969456,32.53553429199383,2.0,Object_Land_Pattern_Large,9.0,,,,,,,,,,,
encoding,fixation,9,10413547,10415053,10413989.0,10415300.0,1312.0,1064.0,1924.4,1066.8,1920.0,1080.0,fixation,31.030344416969456,32.53553429199383,2.0,Object_Land_Pattern_Large,9.0,,,,,,,,,,,
encoding,image,9,10415053,10416064,10415338.0,10415858.0,521.0,521.0,1899.6,1476.4,1920.0,700.0,Object_Land_Pattern_Large,32.53565491689369,33.54692520899698,2.0,Object_Land_Pattern_Large,9.0,,,,,,,,,,,
encoding,image,9,10415053,10416064,10415921.0,10416270.0,350.0,143.0,2192.5,854.3,2249.0,1269.0,Object_Land_Solid_Small,32.53565491689369,33.54692520899698,2.0,Object_Land_Pattern_Large,9.0,,,,,,,,,,,
encoding,value,9,10416064,10422076,10416318.0,10416742.0,425.0,425.0,2212.6,1331.2,2249.0,891.0,Animal_Sea_Solid_Small,33.54703974991571,39.55891191691626,2.0,Object_Land_Pattern_Large,9.0,,,,,,,,,,,
encoding,value,9,10416064,10422076,10416768.0,10418194.0,1427.0,1427.0,1918.9,1369.3,1920.0,700.0,Object_Land_Pattern_Large,33.54703974991571,39.55891191691626,2.0,Object_Land_Pattern_Large,9.0,,,,,,,,,,,
encoding,value,9,10416064,10422076,10418347.0,10419873.0,1527.0,1527.0,1926.0,1377.0,1920.0,700.0,Object_Land_Pattern_Large,33.54703974991571,39.55891191691626,2.0,Object_Land_Pattern_Large,9.0,,,,,,,,,,,
encoding,value,9,10416064,10422076,10419891.0,10420213.0,323.0,323.0,1955.2,1302.0,1920.0,700.0,Object_Land_Pattern_Large,33.54703974991571,39.55891191691626,2.0,Object_Land_Pattern_Large,9.0,,,,,,,,,,,
encoding,value,9,10416064,10422076,10420370.0,10421030.0,661.0,661.0,1941.6,1373.8,1920.0,700.0,Object_Land_Pattern_Large,33.54703974991571,39.55891191691626,2.0,Object_Land_Pattern_Large,9.0,,,,,,,,,,,
encoding,value,9,10416064,10422076,10421038.0,10421952.0,915.0,915.0,1918.2,1382.2,1920.0,700.0,Object_Land_Pattern_Large,33.54703974991571,39.55891191691626,2.0,Object_Land_Pattern_Large,9.0,,,,,,,,,,,
encoding,value,9,10416064,10422076,10421961.0,10422145.0,185.0,115.0,1889.3,1383.8,1920.0,700.0,Object_Land_Pattern_Large,33.54703974991571,39.55891191691626,2.0,Object_Land_Pattern_Large,9.0,,,,,,,,,,,
encoding,attention,9,10422077,10425096,10422154.0,10422464.0,311.0,311.0,1917.1,1381.8,1920.0,700.0,Object_Land_Pattern_Large,39.55902991699986,42.57819537492469,2.0,Object_Land_Pattern_Large,9.0,9.0,1.0,0.7189148749457672,,,,,,,,
encoding,attention,9,10422077,10425096,10422479.0,10423082.0,604.0,604.0,1975.3,1373.4,1920.0,700.0,Object_Land_Pattern_Large,39.55902991699986,42.57819537492469,2.0,Object_Land_Pattern_Large,9.0,9.0,1.0,0.7189148749457672,,,,,,,,
encoding,attention,9,10422077,10425096,10423224.0,10423545.0,322.0,322.0,2212.5,942.7,2249.0,1269.0,Object_Land_Solid_Small,39.55902991699986,42.57819537492469,2.0,Object_Land_Pattern_Large,9.0,9.0,1.0,0.7189148749457672,,,,,,,,
encoding,attention,9,10422077,10425096,10423594.0,10423758.0,165.0,165.0,1915.6,1451.9,1920.0,700.0,Object_Land_Pattern_Large,39.55902991699986,42.57819537492469,2.0,Object_Land_Pattern_Large,9.0,9.0,1.0,0.7189148749457672,,,,,,,,
encoding,attention,9,10422077,10425096,10423769.0,10424930.0,1162.0,1162.0,1910.1,1524.6,1920.0,700.0,Object_Land_Pattern_Large,39.55902991699986,42.57819537492469,2.0,Object_Land_Pattern_Large,9.0,9.0,1.0,0.7189148749457672,,,,,,,,
encoding,fixation,10,10425096,10426101,10425732.0,10425914.0,183.0,183.0,2307.4,1367.0,2249.0,891.0,Animal_Sea_Solid_Small,42.578479958930984,43.583600624930114,2.0,Animal_Land_Solid_Small,1.0,,,,,,,,,,,
encoding,fixation,10,10425096,10426101,10425957.0,10426535.0,579.0,144.0,1963.2,1119.9,1920.0,1080.0,fixation,42.578479958930984,43.583600624930114,2.0,Animal_Land_Solid_Small,1.0,,,,,,,,,,,
encoding,image,10,10426101,10427112,10426576.0,10426657.0,82.0,82.0,1636.2,1327.3,1591.0,891.0,Animal_Land_Solid_Small,43.58371091692243,44.59441804199014,2.0,Animal_Land_Solid_Small,1.0,,,,,,,,,,,
encoding,image,10,10426101,10427112,10426852.0,10427604.0,753.0,260.0,1620.5,1349.5,1591.0,891.0,Animal_Land_Solid_Small,43.58371091692243,44.59441804199014,2.0,Animal_Land_Solid_Small,1.0,,,,,,,,,,,
encoding,value,10,10427112,10433124,10427626.0,10427968.0,343.0,343.0,1605.4,1225.8,1591.0,891.0,Animal_Land_Solid_Small,44.59453191689681,50.605733749922365,2.0,Animal_Land_Solid_Small,1.0,,,,,,,,,,,
encoding,value,10,10427112,10433124,10427987.0,10428391.0,405.0,405.0,1638.7,1304.8,1591.0,891.0,Animal_Land_Solid_Small,44.59453191689681,50.605733749922365,2.0,Animal_Land_Solid_Small,1.0,,,,,,,,,,,
encoding,value,10,10427112,10433124,10428406.0,10429311.0,906.0,906.0,1622.7,1228.7,1591.0,891.0,Animal_Land_Solid_Small,44.59453191689681,50.605733749922365,2.0,Animal_Land_Solid_Small,1.0,,,,,,,,,,,
encoding,value,10,10427112,10433124,10429329.0,10429632.0,304.0,304.0,1608.3,1321.2,1591.0,891.0,Animal_Land_Solid_Small,44.59453191689681,50.605733749922365,2.0,Animal_Land_Solid_Small,1.0,,,,,,,,,,,
encoding,value,10,10427112,10433124,10429651.0,10429775.0,125.0,125.0,1617.0,1221.0,1591.0,891.0,Animal_Land_Solid_Small,44.59453191689681,50.605733749922365,2.0,Animal_Land_Solid_Small,1.0,,,,,,,,,,,
encoding,value,10,10427112,10433124,10429981.0,10430072.0,92.0,92.0,1613.5,1208.2,1591.0,891.0,Animal_Land_Solid_Small,44.59453191689681,50.605733749922365,2.0,Animal_Land_Solid_Small,1.0,,,,,,,,,,,
encoding,value,10,10427112,10433124,10430120.0,10430877.0,758.0,758.0,2190.8,1225.3,2249.0,891.0,Animal_Sea_Solid_Small,44.59453191689681,50.605733749922365,2.0,Animal_Land_Solid_Small,1.0,,,,,,,,,,,
encoding,value,10,10427112,10433124,10430911.0,10431060.0,150.0,150.0,1666.6,1209.8,1591.0,891.0,Animal_Land_Solid_Small,44.59453191689681,50.605733749922365,2.0,Animal_Land_Solid_Small,1.0,,,,,,,,,,,
encoding,value,10,10427112,10433124,10431067.0,10431341.0,275.0,275.0,1622.5,1208.0,1591.0,891.0,Animal_Land_Solid_Small,44.59453191689681,50.605733749922365,2.0,Animal_Land_Solid_Small,1.0,,,,,,,,,,,
encoding,value,10,10427112,10433124,10431363.0,10432000.0,638.0,638.0,1632.1,1351.0,1591.0,891.0,Animal_Land_Solid_Small,44.59453191689681,50.605733749922365,2.0,Animal_Land_Solid_Small,1.0,,,,,,,,,,,
encoding,value,10,10427112,10433124,10432023.0,10432175.0,153.0,153.0,1617.4,1237.3,1591.0,891.0,Animal_Land_Solid_Small,44.59453191689681,50.605733749922365,2.0,Animal_Land_Solid_Small,1.0,,,,,,,,,,,
encoding,value,10,10427112,10433124,10432359.0,10432943.0,585.0,585.0,1613.8,1240.0,1591.0,891.0,Animal_Land_Solid_Small,44.59453191689681,50.605733749922365,2.0,Animal_Land_Solid_Small,1.0,,,,,,,,,,,
encoding,value,10,10427112,10433124,10432968.0,10433331.0,364.0,156.0,1638.0,1388.7,1591.0,891.0,Animal_Land_Solid_Small,44.59453191689681,50.605733749922365,2.0,Animal_Land_Solid_Small,1.0,,,,,,,,,,,
encoding,attention,10,10433124,10436142,10433357.0,10433509.0,153.0,153.0,1668.9,1226.7,1591.0,891.0,Animal_Land_Solid_Small,50.60592720890418,53.62374895892572,2.0,Animal_Land_Solid_Small,1.0,1.0,1.0,0.7774475420592353,,,,,,,,
encoding,attention,10,10433124,10436142,10433527.0,10434151.0,625.0,625.0,1587.5,1233.1,1591.0,891.0,Animal_Land_Solid_Small,50.60592720890418,53.62374895892572,2.0,Animal_Land_Solid_Small,1.0,1.0,1.0,0.7774475420592353,,,,,,,,
encoding,attention,10,10433124,10436142,10434318.0,10434613.0,296.0,296.0,2102.5,1272.4,2249.0,891.0,Animal_Sea_Solid_Small,50.60592720890418,53.62374895892572,2.0,Animal_Land_Solid_Small,1.0,1.0,1.0,0.7774475420592353,,,,,,,,
encoding,fixation,11,10436142,10436897,10436464.0,10436544.0,81.0,81.0,2002.2,1205.9,2249.0,891.0,Animal_Sea_Solid_Small,53.623896042001434,54.37896037497558,2.0,Object_Sea_Pattern_Large,-7.0,,,,,,,,,,,
encoding,fixation,11,10436142,10436897,10436727.0,10437096.0,370.0,170.0,1964.8,1115.8,1920.0,1080.0,fixation,53.623896042001434,54.37896037497558,2.0,Object_Sea_Pattern_Large,-7.0,,,,,,,,,,,
encoding,image,11,10436897,10437909,10437333.0,10437375.0,43.0,43.0,1602.4,961.8,1591.0,1269.0,Object_Sea_Pattern_Large,54.37907220888883,55.39053241699003,2.0,Object_Sea_Pattern_Large,-7.0,,,,,,,,,,,
encoding,image,11,10436897,10437909,10437624.0,10437762.0,139.0,139.0,1623.7,930.7,1591.0,1269.0,Object_Sea_Pattern_Large,54.37907220888883,55.39053241699003,2.0,Object_Sea_Pattern_Large,-7.0,,,,,,,,,,,
encoding,image,11,10436897,10437909,10437802.0,10437882.0,81.0,81.0,1940.5,1114.4,1920.0,1080.0,fixation,54.37907220888883,55.39053241699003,2.0,Object_Sea_Pattern_Large,-7.0,,,,,,,,,,,
encoding,value,11,10437909,10443921,10438132.0,10438388.0,257.0,257.0,1604.0,905.0999999999999,1591.0,1269.0,Object_Sea_Pattern_Large,55.390682916971855,61.40277295897249,2.0,Object_Sea_Pattern_Large,-7.0,,,,,,,,,,,
encoding,value,11,10437909,10443921,10438396.0,10438533.0,138.0,138.0,1604.6,854.8,1591.0,1269.0,Object_Sea_Pattern_Large,55.390682916971855,61.40277295897249,2.0,Object_Sea_Pattern_Large,-7.0,,,,,,,,,,,
encoding,value,11,10437909,10443921,10438740.0,10438956.0,217.0,217.0,1602.7,875.5999999999999,1591.0,1269.0,Object_Sea_Pattern_Large,55.390682916971855,61.40277295897249,2.0,Object_Sea_Pattern_Large,-7.0,,,,,,,,,,,
encoding,value,11,10437909,10443921,10438984.0,10439693.0,710.0,710.0,1950.6,1131.4,1920.0,1080.0,fixation,55.390682916971855,61.40277295897249,2.0,Object_Sea_Pattern_Large,-7.0,,,,,,,,,,,
encoding,value,11,10437909,10443921,10439710.0,10439876.0,167.0,167.0,1876.7,1094.9,1920.0,1080.0,fixation,55.390682916971855,61.40277295897249,2.0,Object_Sea_Pattern_Large,-7.0,,,,,,,,,,,
encoding,value,11,10437909,10443921,10439903.0,10440082.0,180.0,180.0,1644.3,883.8,1591.0,1269.0,Object_Sea_Pattern_Large,55.390682916971855,61.40277295897249,2.0,Object_Sea_Pattern_Large,-7.0,,,,,,,,,,,
encoding,value,11,10437909,10443921,10440318.0,10440638.0,321.0,321.0,1586.2,853.5,1591.0,1269.0,Object_Sea_Pattern_Large,55.390682916971855,61.40277295897249,2.0,Object_Sea_Pattern_Large,-7.0,,,,,,,,,,,
encoding,value,11,10437909,10443921,10440678.0,10440979.0,302.0,302.0,2107.2,1036.8,2249.0,1269.0,Object_Land_Solid_Small,55.390682916971855,61.40277295897249,2.0,Object_Sea_Pattern_Large,-7.0,,,,,,,,,,,
encoding,value,11,10437909,10443921,10440999.0,10441512.0,514.0,514.0,2305.1,980.0999999999999,2249.0,1269.0,Object_Land_Solid_Small,55.390682916971855,61.40277295897249,2.0,Object_Sea_Pattern_Large,-7.0,,,,,,,,,,,
encoding,value,11,10437909,10443921,10441544.0,10441724.0,181.0,181.0,1958.3,1131.6,1920.0,1080.0,fixation,55.390682916971855,61.40277295897249,2.0,Object_Sea_Pattern_Large,-7.0,,,,,,,,,,,
encoding,value,11,10437909,10443921,10441754.0,10442340.0,587.0,587.0,1871.8,1494.8,1920.0,700.0,Object_Land_Pattern_Large,55.390682916971855,61.40277295897249,2.0,Object_Sea_Pattern_Large,-7.0,,,,,,,,,,,
encoding,value,11,10437909,10443921,10442383.0,10442854.0,472.0,472.0,1544.7,1269.6,1591.0,891.0,Animal_Land_Solid_Small,55.390682916971855,61.40277295897249,2.0,Object_Sea_Pattern_Large,-7.0,,,,,,,,,,,
encoding,value,11,10437909,10443921,10442903.0,10443299.0,397.0,397.0,1636.9,872.9000000000001,1591.0,1269.0,Object_Sea_Pattern_Large,55.390682916971855,61.40277295897249,2.0,Object_Sea_Pattern_Large,-7.0,,,,,,,,,,,
encoding,value,11,10437909,10443921,10443309.0,10443770.0,462.0,462.0,1633.4,903.0,1591.0,1269.0,Object_Sea_Pattern_Large,55.390682916971855,61.40277295897249,2.0,Object_Sea_Pattern_Large,-7.0,,,,,,,,,,,
encoding,value,11,10437909,10443921,10443782.0,10444268.0,487.0,139.0,1616.8,846.0999999999999,1591.0,1269.0,Object_Sea_Pattern_Large,55.390682916971855,61.40277295897249,2.0,Object_Sea_Pattern_Large,-7.0,,,,,,,,,,,
encoding,attention,11,10443921,10446939,10444282.0,10444780.0,499.0,499.0,1674.0,831.0,1591.0,1269.0,Object_Sea_Pattern_Large,61.40290012490004,64.4204171668971,2.0,Object_Sea_Pattern_Large,-7.0,-7.0,1.0,0.5972836249275133,,,,,,,,
encoding,attention,11,10443921,10446939,10444977.0,10445570.0,594.0,594.0,2225.9,933.0999999999999,2249.0,1269.0,Object_Land_Solid_Small,61.40290012490004,64.4204171668971,2.0,Object_Sea_Pattern_Large,-7.0,-7.0,1.0,0.5972836249275133,,,,,,,,
encoding,attention,11,10443921,10446939,10445613.0,10446320.0,708.0,708.0,1903.2,1389.7,1920.0,700.0,Object_Land_Pattern_Large,61.40290012490004,64.4204171668971,2.0,Object_Sea_Pattern_Large,-7.0,-7.0,1.0,0.5972836249275133,,,,,,,,
encoding,attention,11,10443921,10446939,10446352.0,10446735.0,384.0,384.0,1553.9,1241.5,1591.0,891.0,Animal_Land_Solid_Small,61.40290012490004,64.4204171668971,2.0,Object_Sea_Pattern_Large,-7.0,-7.0,1.0,0.5972836249275133,,,,,,,,
encoding,fixation,12,10446939,10448444,10447447.0,10447855.0,409.0,409.0,1607.0,1259.3,1591.0,891.0,Animal_Land_Solid_Small,64.42057858395856,65.92570829193573,2.0,Animal_Sea_Pattern_Large,-8.0,,,,,,,,,,,
encoding,fixation,12,10446939,10448444,10447896.0,10448553.0,658.0,548.0,1635.7,847.8,1591.0,1269.0,Object_Sea_Pattern_Large,64.42057858395856,65.92570829193573,2.0,Animal_Sea_Pattern_Large,-8.0,,,,,,,,,,,
encoding,image,12,10448444,10449455,10448595.0,10449572.0,978.0,860.0,1946.6,1081.4,1920.0,1080.0,fixation,65.92583024990745,66.93617066694424,2.0,Animal_Sea_Pattern_Large,-8.0,,,,,,,,,,,
encoding,value,12,10449455,10455466,10449614.0,10449884.0,271.0,271.0,1903.7,791.7,1920.0,1460.0,Animal_Sea_Pattern_Large,66.93635129195172,72.94713866699021,2.0,Animal_Sea_Pattern_Large,-8.0,,,,,,,,,,,
encoding,value,12,10449455,10455466,10450105.0,10450382.0,278.0,278.0,1910.6,689.5999999999999,1920.0,1460.0,Animal_Sea_Pattern_Large,66.93635129195172,72.94713866699021,2.0,Animal_Sea_Pattern_Large,-8.0,,,,,,,,,,,
encoding,value,12,10449455,10455466,10450598.0,10450920.0,323.0,323.0,1882.8,749.7,1920.0,1460.0,Animal_Sea_Pattern_Large,66.93635129195172,72.94713866699021,2.0,Animal_Sea_Pattern_Large,-8.0,,,,,,,,,,,
encoding,value,12,10449455,10455466,10450937.0,10451121.0,185.0,185.0,1912.3,655.5999999999999,1920.0,1460.0,Animal_Sea_Pattern_Large,66.93635129195172,72.94713866699021,2.0,Animal_Sea_Pattern_Large,-8.0,,,,,,,,,,,
encoding,value,12,10449455,10455466,10451170.0,10451375.0,206.0,206.0,2056.7,1187.5,2249.0,891.0,Animal_Sea_Solid_Small,66.93635129195172,72.94713866699021,2.0,Animal_Sea_Pattern_Large,-8.0,,,,,,,,,,,
encoding,value,12,10449455,10455466,10451399.0,10451994.0,596.0,596.0,2284.4,1306.8,2249.0,891.0,Animal_Sea_Solid_Small,66.93635129195172,72.94713866699021,2.0,Animal_Sea_Pattern_Large,-8.0,,,,,,,,,,,
encoding,value,12,10449455,10455466,10452034.0,10452496.0,463.0,463.0,2054.7,1166.1,2249.0,891.0,Animal_Sea_Solid_Small,66.93635129195172,72.94713866699021,2.0,Animal_Sea_Pattern_Large,-8.0,,,,,,,,,,,
encoding,value,12,10449455,10455466,10452521.0,10452941.0,421.0,421.0,2269.3,1284.7,2249.0,891.0,Animal_Sea_Solid_Small,66.93635129195172,72.94713866699021,2.0,Animal_Sea_Pattern_Large,-8.0,,,,,,,,,,,
encoding,value,12,10449455,10455466,10452999.0,10453129.0,131.0,131.0,1558.8,1229.3,1591.0,891.0,Animal_Land_Solid_Small,66.93635129195172,72.94713866699021,2.0,Animal_Sea_Pattern_Large,-8.0,,,,,,,,,,,
encoding,value,12,10449455,10455466,10453326.0,10453628.0,303.0,303.0,1942.8,648.0,1920.0,1460.0,Animal_Sea_Pattern_Large,66.93635129195172,72.94713866699021,2.0,Animal_Sea_Pattern_Large,-8.0,,,,,,,,,,,
encoding,value,12,10449455,10455466,10453642.0,10453928.0,287.0,287.0,1916.5,715.0,1920.0,1460.0,Animal_Sea_Pattern_Large,66.93635129195172,72.94713866699021,2.0,Animal_Sea_Pattern_Large,-8.0,,,,,,,,,,,
encoding,value,12,10449455,10455466,10453978.0,10454361.0,384.0,384.0,2198.1,1258.5,2249.0,891.0,Animal_Sea_Solid_Small,66.93635129195172,72.94713866699021,2.0,Animal_Sea_Pattern_Large,-8.0,,,,,,,,,,,
encoding,value,12,10449455,10455466,10454397.0,10454769.0,373.0,373.0,1964.3,1085.7,1920.0,1080.0,fixation,66.93635129195172,72.94713866699021,2.0,Animal_Sea_Pattern_Large,-8.0,,,,,,,,,,,
encoding,value,12,10449455,10455466,10454819.0,10455203.0,385.0,385.0,1914.2,630.0999999999999,1920.0,1460.0,Animal_Sea_Pattern_Large,66.93635129195172,72.94713866699021,2.0,Animal_Sea_Pattern_Large,-8.0,,,,,,,,,,,
encoding,value,12,10449455,10455466,10455217.0,10455678.0,462.0,249.0,1909.8,735.4000000000001,1920.0,1460.0,Animal_Sea_Pattern_Large,66.93635129195172,72.94713866699021,2.0,Animal_Sea_Pattern_Large,-8.0,,,,,,,,,,,
encoding,attention,12,10455466,10458487,10455693.0,10455856.0,164.0,164.0,1934.0,669.4000000000001,1920.0,1460.0,Animal_Sea_Pattern_Large,72.94726204196922,75.96774166694377,2.0,Animal_Sea_Pattern_Large,-8.0,-8.0,1.0,0.62424649996683,,,,,,,,
encoding,attention,12,10455466,10458487,10455866.0,10456332.0,467.0,467.0,1882.8,651.0,1920.0,1460.0,Animal_Sea_Pattern_Large,72.94726204196922,75.96774166694377,2.0,Animal_Sea_Pattern_Large,-8.0,-8.0,1.0,0.62424649996683,,,,,,,,
encoding,attention,12,10455466,10458487,10456541.0,10456795.0,255.0,255.0,1970.6,686.9000000000001,1920.0,1460.0,Animal_Sea_Pattern_Large,72.94726204196922,75.96774166694377,2.0,Animal_Sea_Pattern_Large,-8.0,-8.0,1.0,0.62424649996683,,,,,,,,
encoding,attention,12,10455466,10458487,10456810.0,10456941.0,132.0,132.0,1906.2,727.4000000000001,1920.0,1460.0,Animal_Sea_Pattern_Large,72.94726204196922,75.96774166694377,2.0,Animal_Sea_Pattern_Large,-8.0,-8.0,1.0,0.62424649996683,,,,,,,,
encoding,attention,12,10455466,10458487,10457152.0,10457392.0,241.0,241.0,2188.9,1258.6,2249.0,891.0,Animal_Sea_Solid_Small,72.94726204196922,75.96774166694377,2.0,Animal_Sea_Pattern_Large,-8.0,-8.0,1.0,0.62424649996683,,,,,,,,
encoding,fixation,13,10792513,10794019,10792739.0,10792800.0,62.0,62.0,1924.7,1078.9,1920.0,1080.0,fixation,6.166306499973871,7.671712624956854,3.0,Animal_Land_Solid_Small,-6.0,,,,,,,,,,,
encoding,fixation,13,10792513,10794019,10792985.0,10794223.0,1239.0,1034.0,1931.1,1072.9,1920.0,1080.0,fixation,6.166306499973871,7.671712624956854,3.0,Animal_Land_Solid_Small,-6.0,,,,,,,,,,,
encoding,image,13,10794019,10795030,10794473.0,10794567.0,95.0,95.0,1554.6,1348.8,1591.0,891.0,Animal_Land_Solid_Small,7.67183791694697,8.682706541963853,3.0,Animal_Land_Solid_Small,-6.0,,,,,,,,,,,
encoding,image,13,10794019,10795030,10794579.0,10795205.0,627.0,451.0,1612.8,1321.9,1591.0,891.0,Animal_Land_Solid_Small,7.67183791694697,8.682706541963853,3.0,Animal_Land_Solid_Small,-6.0,,,,,,,,,,,
encoding,value,13,10795030,10801043,10795226.0,10795403.0,178.0,178.0,1588.6,1200.1,1591.0,891.0,Animal_Land_Solid_Small,8.682822291972116,14.695483083021829,3.0,Animal_Land_Solid_Small,-6.0,,,,,,,,,,,
encoding,value,13,10795030,10801043,10795598.0,10795765.0,168.0,168.0,1596.8,1177.2,1591.0,891.0,Animal_Land_Solid_Small,8.682822291972116,14.695483083021829,3.0,Animal_Land_Solid_Small,-6.0,,,,,,,,,,,
encoding,value,13,10795030,10801043,10795783.0,10796283.0,501.0,501.0,1613.2,1307.9,1591.0,891.0,Animal_Land_Solid_Small,8.682822291972116,14.695483083021829,3.0,Animal_Land_Solid_Small,-6.0,,,,,,,,,,,
encoding,value,13,10795030,10801043,10796303.0,10796768.0,466.0,466.0,1594.7,1190.9,1591.0,891.0,Animal_Land_Solid_Small,8.682822291972116,14.695483083021829,3.0,Animal_Land_Solid_Small,-6.0,,,,,,,,,,,
encoding,value,13,10795030,10801043,10796794.0,10797322.0,529.0,529.0,1616.6,1339.3,1591.0,891.0,Animal_Land_Solid_Small,8.682822291972116,14.695483083021829,3.0,Animal_Land_Solid_Small,-6.0,,,,,,,,,,,
encoding,value,13,10795030,10801043,10797344.0,10797471.0,128.0,128.0,1608.8,1183.1,1591.0,891.0,Animal_Land_Solid_Small,8.682822291972116,14.695483083021829,3.0,Animal_Land_Solid_Small,-6.0,,,,,,,,,,,
encoding,value,13,10795030,10801043,10797665.0,10797806.0,142.0,142.0,1577.1,1244.7,1591.0,891.0,Animal_Land_Solid_Small,8.682822291972116,14.695483083021829,3.0,Animal_Land_Solid_Small,-6.0,,,,,,,,,,,
encoding,value,13,10795030,10801043,10797824.0,10798528.0,705.0,705.0,1609.8,1333.7,1591.0,891.0,Animal_Land_Solid_Small,8.682822291972116,14.695483083021829,3.0,Animal_Land_Solid_Small,-6.0,,,,,,,,,,,
encoding,value,13,10795030,10801043,10798548.0,10798974.0,427.0,427.0,1598.0,1175.1,1591.0,891.0,Animal_Land_Solid_Small,8.682822291972116,14.695483083021829,3.0,Animal_Land_Solid_Small,-6.0,,,,,,,,,,,
encoding,value,13,10795030,10801043,10799164.0,10799457.0,294.0,294.0,1598.3,1270.8,1591.0,891.0,Animal_Land_Solid_Small,8.682822291972116,14.695483083021829,3.0,Animal_Land_Solid_Small,-6.0,,,,,,,,,,,
encoding,value,13,10795030,10801043,10799468.0,10799791.0,324.0,324.0,1613.6,1236.8,1591.0,891.0,Animal_Land_Solid_Small,8.682822291972116,14.695483083021829,3.0,Animal_Land_Solid_Small,-6.0,,,,,,,,,,,
encoding,value,13,10795030,10801043,10799804.0,10800066.0,263.0,263.0,1594.4,1187.8,1591.0,891.0,Animal_Land_Solid_Small,8.682822291972116,14.695483083021829,3.0,Animal_Land_Solid_Small,-6.0,,,,,,,,,,,
encoding,value,13,10795030,10801043,10800087.0,10800582.0,496.0,496.0,1604.1,1348.6,1591.0,891.0,Animal_Land_Solid_Small,8.682822291972116,14.695483083021829,3.0,Animal_Land_Solid_Small,-6.0,,,,,,,,,,,
encoding,value,13,10795030,10801043,10800602.0,10800923.0,322.0,322.0,1606.1,1217.3,1591.0,891.0,Animal_Land_Solid_Small,8.682822291972116,14.695483083021829,3.0,Animal_Land_Solid_Small,-6.0,,,,,,,,,,,
encoding,attention,13,10801043,10804061,10801090.0,10801228.0,139.0,139.0,1942.6,1091.3,1920.0,1080.0,fixation,14.695600042003209,17.71368666703347,3.0,Animal_Land_Solid_Small,-6.0,-6.0,1.0,0.8814739170484245,,,,,,,,
encoding,attention,13,10801043,10804061,10801255.0,10802618.0,1364.0,1364.0,1622.8,1171.5,1591.0,891.0,Animal_Land_Solid_Small,14.695600042003209,17.71368666703347,3.0,Animal_Land_Solid_Small,-6.0,-6.0,1.0,0.8814739170484245,,,,,,,,
encoding,attention,13,10801043,10804061,10802823.0,10803300.0,478.0,478.0,1625.5,1275.2,1591.0,891.0,Animal_Land_Solid_Small,14.695600042003209,17.71368666703347,3.0,Animal_Land_Solid_Small,-6.0,-6.0,1.0,0.8814739170484245,,,,,,,,
encoding,attention,13,10801043,10804061,10803309.0,10803432.0,124.0,124.0,1602.2,1233.9,1591.0,891.0,Animal_Land_Solid_Small,14.695600042003209,17.71368666703347,3.0,Animal_Land_Solid_Small,-6.0,-6.0,1.0,0.8814739170484245,,,,,,,,
encoding,fixation,14,10804062,10805567,10804281.0,10804569.0,289.0,289.0,1942.3,1086.7,1920.0,1080.0,fixation,17.71386616700329,19.2188721250277,3.0,Object_Sea_Pattern_Large,-1.0,,,,,,,,,,,
encoding,fixation,14,10804062,10805567,10804766.0,10805748.0,983.0,801.0,1925.1,1066.0,1920.0,1080.0,fixation,17.71386616700329,19.2188721250277,3.0,Object_Sea_Pattern_Large,-1.0,,,,,,,,,,,
encoding,image,14,10805567,10806579,10805774.0,10805967.0,194.0,194.0,1619.2,924.0999999999999,1591.0,1269.0,Object_Sea_Pattern_Large,19.219001916935667,20.23121433297638,3.0,Object_Sea_Pattern_Large,-1.0,,,,,,,,,,,
encoding,image,14,10805567,10806579,10805976.0,10806223.0,248.0,248.0,1579.9,888.0999999999999,1591.0,1269.0,Object_Sea_Pattern_Large,19.219001916935667,20.23121433297638,3.0,Object_Sea_Pattern_Large,-1.0,,,,,,,,,,,
encoding,image,14,10805567,10806579,10806418.0,10806615.0,198.0,161.0,1613.6,1243.0,1591.0,891.0,Animal_Land_Solid_Small,19.219001916935667,20.23121433297638,3.0,Object_Sea_Pattern_Large,-1.0,,,,,,,,,,,
encoding,value,14,10806579,10812592,10806624.0,10806844.0,221.0,221.0,1577.9,1282.1,1591.0,891.0,Animal_Land_Solid_Small,20.23133424995467,26.24394937499892,3.0,Object_Sea_Pattern_Large,-1.0,,,,,,,,,,,
encoding,value,14,10806579,10812592,10806888.0,10807089.0,202.0,202.0,1612.4,877.3,1591.0,1269.0,Object_Sea_Pattern_Large,20.23133424995467,26.24394937499892,3.0,Object_Sea_Pattern_Large,-1.0,,,,,,,,,,,
encoding,value,14,10806579,10812592,10807099.0,10807488.0,390.0,390.0,1595.9,832.5999999999999,1591.0,1269.0,Object_Sea_Pattern_Large,20.23133424995467,26.24394937499892,3.0,Object_Sea_Pattern_Large,-1.0,,,,,,,,,,,
encoding,value,14,10806579,10812592,10807700.0,10807863.0,164.0,164.0,1607.0,836.2,1591.0,1269.0,Object_Sea_Pattern_Large,20.23133424995467,26.24394937499892,3.0,Object_Sea_Pattern_Large,-1.0,,,,,,,,,,,
encoding,value,14,10806579,10812592,10807904.0,10808165.0,262.0,262.0,1646.3,1288.9,1591.0,891.0,Animal_Land_Solid_Small,20.23133424995467,26.24394937499892,3.0,Object_Sea_Pattern_Large,-1.0,,,,,,,,,,,
encoding,value,14,10806579,10812592,10808211.0,10808425.0,215.0,215.0,1599.5,830.5999999999999,1591.0,1269.0,Object_Sea_Pattern_Large,20.23133424995467,26.24394937499892,3.0,Object_Sea_Pattern_Large,-1.0,,,,,,,,,,,
encoding,value,14,10806579,10812592,10808659.0,10809519.0,861.0,861.0,1576.1,851.8,1591.0,1269.0,Object_Sea_Pattern_Large,20.23133424995467,26.24394937499892,3.0,Object_Sea_Pattern_Large,-1.0,,,,,,,,,,,
encoding,value,14,10806579,10812592,10809746.0,10811579.0,1834.0,1834.0,1595.2,839.9000000000001,1591.0,1269.0,Object_Sea_Pattern_Large,20.23133424995467,26.24394937499892,3.0,Object_Sea_Pattern_Large,-1.0,,,,,,,,,,,
encoding,value,14,10806579,10812592,10811609.0,10811795.0,187.0,187.0,1886.0,1075.5,1920.0,1080.0,fixation,20.23133424995467,26.24394937499892,3.0,Object_Sea_Pattern_Large,-1.0,,,,,,,,,,,
encoding,value,14,10806579,10812592,10811804.0,10812294.0,491.0,491.0,1920.2,1073.2,1920.0,1080.0,fixation,20.23133424995467,26.24394937499892,3.0,Object_Sea_Pattern_Large,-1.0,,,,,,,,,,,
encoding,value,14,10806579,10812592,10812325.0,10813437.0,1113.0,267.0,1603.9,804.7,1591.0,1269.0,Object_Sea_Pattern_Large,20.23133424995467,26.24394937499892,3.0,Object_Sea_Pattern_Large,-1.0,,,,,,,,,,,
encoding,attention,14,10812592,10815610,10813626.0,10813760.0,135.0,135.0,1560.4,1260.2,1591.0,891.0,Animal_Land_Solid_Small,26.244120207964443,29.26130770798773,3.0,Object_Sea_Pattern_Large,-1.0,-1.0,1.0,0.6055094160838053,,,,,,,,
encoding,attention,14,10812592,10815610,10813777.0,10814124.0,348.0,348.0,1654.8,1187.3,1591.0,891.0,Animal_Land_Solid_Small,26.244120207964443,29.26130770798773,3.0,Object_Sea_Pattern_Large,-1.0,-1.0,1.0,0.6055094160838053,,,,,,,,
encoding,attention,14,10812592,10815610,10814140.0,10814319.0,180.0,180.0,1616.1,1239.4,1591.0,891.0,Animal_Land_Solid_Small,26.244120207964443,29.26130770798773,3.0,Object_Sea_Pattern_Large,-1.0,-1.0,1.0,0.6055094160838053,,,,,,,,
encoding,attention,14,10812592,10815610,10814359.0,10814923.0,565.0,565.0,1614.1,848.5,1591.0,1269.0,Object_Sea_Pattern_Large,26.244120207964443,29.26130770798773,3.0,Object_Sea_Pattern_Large,-1.0,-1.0,1.0,0.6055094160838053,,,,,,,,
encoding,attention,14,10812592,10815610,10814968.0,10815521.0,554.0,554.0,1616.2,1306.4,1591.0,891.0,Animal_Land_Solid_Small,26.244120207964443,29.26130770798773,3.0,Object_Sea_Pattern_Large,-1.0,-1.0,1.0,0.6055094160838053,,,,,,,,
encoding,fixation,15,10815610,10816365,10815870.0,10815926.0,57.0,57.0,1909.3,1046.5,1920.0,1080.0,fixation,29.26144929195289,30.016366166993976,3.0,Animal_Land_Pattern_Large,-6.0,,,,,,,,,,,
encoding,fixation,15,10815610,10816365,10816113.0,10816578.0,466.0,252.0,1943.0,1076.1,1920.0,1080.0,fixation,29.26144929195289,30.016366166993976,3.0,Animal_Land_Pattern_Large,-6.0,,,,,,,,,,,
encoding,image,15,10816365,10817376,10816615.0,10817077.0,463.0,463.0,2219.7,1262.7,2249.0,891.0,Animal_Land_Pattern_Large,30.01647937495727,31.027740749996156,3.0,Animal_Land_Pattern_Large,-6.0,,,,,,,,,,,
encoding,image,15,10816365,10817376,10817275.0,10817575.0,301.0,101.0,2210.9,1243.8,2249.0,891.0,Animal_Land_Pattern_Large,30.01647937495727,31.027740749996156,3.0,Animal_Land_Pattern_Large,-6.0,,,,,,,,,,,
encoding,value,15,10817376,10823387,10817595.0,10817938.0,344.0,344.0,2249.2,1152.1,2249.0,891.0,Animal_Land_Pattern_Large,31.027852250030264,37.03878483292647,3.0,Animal_Land_Pattern_Large,-6.0,,,,,,,,,,,
encoding,value,15,10817376,10823387,10817959.0,10818437.0,479.0,479.0,2209.8,1261.6,2249.0,891.0,Animal_Land_Pattern_Large,31.027852250030264,37.03878483292647,3.0,Animal_Land_Pattern_Large,-6.0,,,,,,,,,,,
encoding,value,15,10817376,10823387,10818615.0,10818940.0,326.0,326.0,2234.1,1130.3,2249.0,891.0,Animal_Land_Pattern_Large,31.027852250030264,37.03878483292647,3.0,Animal_Land_Pattern_Large,-6.0,,,,,,,,,,,
encoding,value,15,10817376,10823387,10818947.0,10819168.0,222.0,222.0,2219.1,1171.4,2249.0,891.0,Animal_Land_Pattern_Large,31.027852250030264,37.03878483292647,3.0,Animal_Land_Pattern_Large,-6.0,,,,,,,,,,,
encoding,value,15,10817376,10823387,10819187.0,10819515.0,329.0,329.0,2193.0,1253.9,2249.0,891.0,Animal_Land_Pattern_Large,31.027852250030264,37.03878483292647,3.0,Animal_Land_Pattern_Large,-6.0,,,,,,,,,,,
encoding,value,15,10817376,10823387,10819573.0,10820309.0,737.0,737.0,1580.1,1242.4,1591.0,891.0,Animal_Land_Solid_Small,31.027852250030264,37.03878483292647,3.0,Animal_Land_Pattern_Large,-6.0,,,,,,,,,,,
encoding,value,15,10817376,10823387,10820359.0,10820505.0,147.0,147.0,2203.5,1163.2,2249.0,891.0,Animal_Land_Pattern_Large,31.027852250030264,37.03878483292647,3.0,Animal_Land_Pattern_Large,-6.0,,,,,,,,,,,
encoding,value,15,10817376,10823387,10820513.0,10820826.0,314.0,314.0,2245.2,1148.3,2249.0,891.0,Animal_Land_Pattern_Large,31.027852250030264,37.03878483292647,3.0,Animal_Land_Pattern_Large,-6.0,,,,,,,,,,,
encoding,value,15,10817376,10823387,10820870.0,10821320.0,451.0,451.0,1611.6,957.0,1591.0,1269.0,Object_Sea_Pattern_Large,31.027852250030264,37.03878483292647,3.0,Animal_Land_Pattern_Large,-6.0,,,,,,,,,,,
encoding,value,15,10817376,10823387,10821371.0,10821506.0,136.0,136.0,2212.3,1109.8,2249.0,891.0,Animal_Land_Pattern_Large,31.027852250030264,37.03878483292647,3.0,Animal_Land_Pattern_Large,-6.0,,,,,,,,,,,
encoding,value,15,10817376,10823387,10821518.0,10822150.0,633.0,633.0,2245.6,1153.1,2249.0,891.0,Animal_Land_Pattern_Large,31.027852250030264,37.03878483292647,3.0,Animal_Land_Pattern_Large,-6.0,,,,,,,,,,,
encoding,value,15,10817376,10823387,10822330.0,10822591.0,262.0,262.0,1572.0,1301.7,1591.0,891.0,Animal_Land_Solid_Small,31.027852250030264,37.03878483292647,3.0,Animal_Land_Pattern_Large,-6.0,,,,,,,,,,,
encoding,value,15,10817376,10823387,10822639.0,10822810.0,172.0,172.0,2184.0,1234.8,2249.0,891.0,Animal_Land_Pattern_Large,31.027852250030264,37.03878483292647,3.0,Animal_Land_Pattern_Large,-6.0,,,,,,,,,,,
encoding,value,15,10817376,10823387,10822818.0,10823028.0,211.0,211.0,2204.3,1262.6,2249.0,891.0,Animal_Land_Pattern_Large,31.027852250030264,37.03878483292647,3.0,Animal_Land_Pattern_Large,-6.0,,,,,,,,,,,
encoding,value,15,10817376,10823387,10823086.0,10823427.0,342.0,301.0,1537.9,975.8,1591.0,1269.0,Object_Sea_Pattern_Large,31.027852250030264,37.03878483292647,3.0,Animal_Land_Pattern_Large,-6.0,,,,,,,,,,,
encoding,attention,15,10823387,10826405,10823480.0,10823735.0,256.0,256.0,2221.0,1162.8,2249.0,891.0,Animal_Land_Pattern_Large,37.03889874997549,40.05617437500041,3.0,Animal_Land_Pattern_Large,-6.0,-6.0,1.0,0.5628633330343291,,,,,,,,
encoding,attention,15,10823387,10826405,10823747.0,10824141.0,395.0,395.0,2282.4,1164.9,2249.0,891.0,Animal_Land_Pattern_Large,37.03889874997549,40.05617437500041,3.0,Animal_Land_Pattern_Large,-6.0,-6.0,1.0,0.5628633330343291,,,,,,,,
encoding,attention,15,10823387,10826405,10824194.0,10824601.0,408.0,408.0,1567.6,1285.7,1591.0,891.0,Animal_Land_Solid_Small,37.03889874997549,40.05617437500041,3.0,Animal_Land_Pattern_Large,-6.0,-6.0,1.0,0.5628633330343291,,,,,,,,
encoding,attention,15,10823387,10826405,10824653.0,10825015.0,363.0,363.0,2252.9,1267.3,2249.0,891.0,Animal_Land_Pattern_Large,37.03889874997549,40.05617437500041,3.0,Animal_Land_Pattern_Large,-6.0,-6.0,1.0,0.5628633330343291,,,,,,,,
encoding,attention,15,10823387,10826405,10825072.0,10825475.0,404.0,404.0,1584.3,959.5,1591.0,1269.0,Object_Sea_Pattern_Large,37.03889874997549,40.05617437500041,3.0,Animal_Land_Pattern_Large,-6.0,-6.0,1.0,0.5628633330343291,,,,,,,,
encoding,attention,15,10823387,10826405,10825503.0,10826138.0,636.0,636.0,1586.4,1265.5,1591.0,891.0,Animal_Land_Solid_Small,37.03889874997549,40.05617437500041,3.0,Animal_Land_Pattern_Large,-6.0,-6.0,1.0,0.5628633330343291,,,,,,,,
encoding,fixation,16,10826405,10827660,10826493.0,10826790.0,298.0,298.0,2206.0,1247.7,2249.0,891.0,Animal_Land_Pattern_Large,40.05638670793269,41.31143516697921,3.0,Object_Sea_Pattern_Small,9.0,,,,,,,,,,,
encoding,fixation,16,10826405,10827660,10826993.0,10827509.0,517.0,517.0,1583.4,1228.0,1591.0,891.0,Animal_Land_Solid_Small,40.05638670793269,41.31143516697921,3.0,Object_Sea_Pattern_Small,9.0,,,,,,,,,,,
encoding,fixation,16,10826405,10827660,10827560.0,10827935.0,376.0,100.0,2254.8,1304.1,2249.0,891.0,Animal_Land_Pattern_Large,40.05638670793269,41.31143516697921,3.0,Object_Sea_Pattern_Small,9.0,,,,,,,,,,,
encoding,image,16,10827660,10828673,10827987.0,10828154.0,168.0,168.0,1945.5,743.8,1920.0,1460.0,Object_Sea_Pattern_Small,41.31156820803881,42.32404187496286,3.0,Object_Sea_Pattern_Small,9.0,,,,,,,,,,,
encoding,image,16,10827660,10828673,10828164.0,10828342.0,179.0,179.0,1902.7,721.0999999999999,1920.0,1460.0,Object_Sea_Pattern_Small,41.31156820803881,42.32404187496286,3.0,Object_Sea_Pattern_Small,9.0,,,,,,,,,,,
encoding,image,16,10827660,10828673,10828369.0,10828836.0,468.0,304.0,1556.4,811.0999999999999,1591.0,1269.0,Object_Sea_Pattern_Large,41.31156820803881,42.32404187496286,3.0,Object_Sea_Pattern_Small,9.0,,,,,,,,,,,
encoding,value,16,10828673,10834685,10828869.0,10829048.0,180.0,180.0,1895.5,686.8,1920.0,1460.0,Object_Sea_Pattern_Small,42.32423266698606,48.33583875000477,3.0,Object_Sea_Pattern_Small,9.0,,,,,,,,,,,
encoding,value,16,10828673,10834685,10829057.0,10829204.0,148.0,148.0,1917.7,643.8,1920.0,1460.0,Object_Sea_Pattern_Small,42.32423266698606,48.33583875000477,3.0,Object_Sea_Pattern_Small,9.0,,,,,,,,,,,
encoding,value,16,10828673,10834685,10829423.0,10829810.0,388.0,388.0,1882.5,727.7,1920.0,1460.0,Object_Sea_Pattern_Small,42.32423266698606,48.33583875000477,3.0,Object_Sea_Pattern_Small,9.0,,,,,,,,,,,
encoding,value,16,10828673,10834685,10829854.0,10830105.0,252.0,252.0,1935.1,1063.1,1920.0,1080.0,fixation,42.32423266698606,48.33583875000477,3.0,Object_Sea_Pattern_Small,9.0,,,,,,,,,,,
encoding,value,16,10828673,10834685,10830136.0,10830459.0,324.0,324.0,1625.7,1191.2,1591.0,891.0,Animal_Land_Solid_Small,42.32423266698606,48.33583875000477,3.0,Object_Sea_Pattern_Small,9.0,,,,,,,,,,,
encoding,value,16,10828673,10834685,10830509.0,10830747.0,239.0,239.0,2162.7,1201.8,2249.0,891.0,Animal_Land_Pattern_Large,42.32423266698606,48.33583875000477,3.0,Object_Sea_Pattern_Small,9.0,,,,,,,,,,,
encoding,value,16,10828673,10834685,10830798.0,10830953.0,156.0,156.0,1609.7,1049.1,1591.0,1269.0,Object_Sea_Pattern_Large,42.32423266698606,48.33583875000477,3.0,Object_Sea_Pattern_Small,9.0,,,,,,,,,,,
encoding,value,16,10828673,10834685,10830982.0,10831353.0,372.0,372.0,1490.3,770.2,1591.0,1269.0,Object_Sea_Pattern_Large,42.32423266698606,48.33583875000477,3.0,Object_Sea_Pattern_Small,9.0,,,,,,,,,,,
encoding,value,16,10828673,10834685,10831393.0,10831505.0,113.0,113.0,1938.0,659.3,1920.0,1460.0,Object_Sea_Pattern_Small,42.32423266698606,48.33583875000477,3.0,Object_Sea_Pattern_Small,9.0,,,,,,,,,,,
encoding,value,16,10828673,10834685,10831698.0,10832082.0,385.0,385.0,1891.5,674.0999999999999,1920.0,1460.0,Object_Sea_Pattern_Small,42.32423266698606,48.33583875000477,3.0,Object_Sea_Pattern_Small,9.0,,,,,,,,,,,
encoding,value,16,10828673,10834685,10832126.0,10832468.0,343.0,343.0,1573.0,1211.7,1591.0,891.0,Animal_Land_Solid_Small,42.32423266698606,48.33583875000477,3.0,Object_Sea_Pattern_Small,9.0,,,,,,,,,,,
encoding,value,16,10828673,10834685,10832521.0,10832852.0,332.0,332.0,2195.3,1225.4,2249.0,891.0,Animal_Land_Pattern_Large,42.32423266698606,48.33583875000477,3.0,Object_Sea_Pattern_Small,9.0,,,,,,,,,,,
encoding,value,16,10828673,10834685,10832907.0,10833447.0,541.0,541.0,1587.5,918.7,1591.0,1269.0,Object_Sea_Pattern_Large,42.32423266698606,48.33583875000477,3.0,Object_Sea_Pattern_Small,9.0,,,,,,,,,,,
encoding,value,16,10828673,10834685,10833476.0,10833674.0,199.0,199.0,1908.5,665.5,1920.0,1460.0,Object_Sea_Pattern_Small,42.32423266698606,48.33583875000477,3.0,Object_Sea_Pattern_Small,9.0,,,,,,,,,,,
encoding,value,16,10828673,10834685,10833881.0,10834254.0,374.0,374.0,1890.3,663.5999999999999,1920.0,1460.0,Object_Sea_Pattern_Small,42.32423266698606,48.33583875000477,3.0,Object_Sea_Pattern_Small,9.0,,,,,,,,,,,
encoding,value,16,10828673,10834685,10834317.0,10834674.0,358.0,358.0,1586.8,1240.3,1591.0,891.0,Animal_Land_Solid_Small,42.32423266698606,48.33583875000477,3.0,Object_Sea_Pattern_Small,9.0,,,,,,,,,,,
encoding,attention,16,10834685,10837704,10834715.0,10834980.0,266.0,266.0,2157.6,1185.4,2249.0,891.0,Animal_Land_Pattern_Large,48.335961333010346,51.35446549998596,3.0,Object_Sea_Pattern_Small,9.0,9.0,1.0,1.1138367919484151,,,,,,,,
encoding,attention,16,10834685,10837704,10835026.0,10835227.0,202.0,202.0,1625.5,1012.5,1591.0,1269.0,Object_Sea_Pattern_Large,48.335961333010346,51.35446549998596,3.0,Object_Sea_Pattern_Small,9.0,9.0,1.0,1.1138367919484151,,,,,,,,
encoding,attention,16,10834685,10837704,10835261.0,10836043.0,783.0,783.0,1877.6,637.3,1920.0,1460.0,Object_Sea_Pattern_Small,48.335961333010346,51.35446549998596,3.0,Object_Sea_Pattern_Small,9.0,9.0,1.0,1.1138367919484151,,,,,,,,
encoding,attention,16,10834685,10837704,10836110.0,10836663.0,554.0,554.0,1570.1,1233.6,1591.0,891.0,Animal_Land_Solid_Small,48.335961333010346,51.35446549998596,3.0,Object_Sea_Pattern_Small,9.0,9.0,1.0,1.1138367919484151,,,,,,,,
encoding,attention,16,10834685,10837704,10836721.0,10837096.0,376.0,376.0,2260.9,1181.2,2249.0,891.0,Animal_Land_Pattern_Large,48.335961333010346,51.35446549998596,3.0,Object_Sea_Pattern_Small,9.0,9.0,1.0,1.1138367919484151,,,,,,,,
encoding,attention,16,10834685,10837704,10837143.0,10837691.0,549.0,549.0,1580.7,945.8,1591.0,1269.0,Object_Sea_Pattern_Large,48.335961333010346,51.35446549998596,3.0,Object_Sea_Pattern_Small,9.0,9.0,1.0,1.1138367919484151,,,,,,,,
encoding,fixation,17,10837704,10838459,10837729.0,10837987.0,259.0,259.0,1866.3,651.2,1920.0,1460.0,Object_Sea_Pattern_Small,51.3546235000249,52.10965300002135,3.0,Object_Sea_Solid_Small,-1.0,,,,,,,,,,,
encoding,fixation,17,10837704,10838459,10838162.0,10838673.0,512.0,297.0,1937.9,1104.3,1920.0,1080.0,fixation,51.3546235000249,52.10965300002135,3.0,Object_Sea_Solid_Small,-1.0,,,,,,,,,,,
encoding,image,17,10838459,10839469,10838702.0,10839182.0,481.0,481.0,2255.6,917.3,2249.0,1269.0,Object_Sea_Solid_Small,52.10978375002742,53.11978695797734,3.0,Object_Sea_Solid_Small,-1.0,,,,,,,,,,,
encoding,image,17,10838459,10839469,10839209.0,10839557.0,349.0,260.0,2157.5,1184.0,2249.0,891.0,Animal_Land_Pattern_Large,52.10978375002742,53.11978695797734,3.0,Object_Sea_Solid_Small,-1.0,,,,,,,,,,,
encoding,value,17,10839469,10845480,10839603.0,10839759.0,157.0,157.0,1779.1,975.0999999999999,1591.0,1269.0,Object_Sea_Pattern_Large,53.11990670801606,59.13054375001229,3.0,Object_Sea_Solid_Small,-1.0,,,,,,,,,,,
encoding,value,17,10839469,10845480,10839803.0,10840449.0,647.0,647.0,2239.7,846.0,2249.0,1269.0,Object_Sea_Solid_Small,53.11990670801606,59.13054375001229,3.0,Object_Sea_Solid_Small,-1.0,,,,,,,,,,,
encoding,value,17,10839469,10845480,10840637.0,10841005.0,369.0,369.0,2221.1,817.9000000000001,2249.0,1269.0,Object_Sea_Solid_Small,53.11990670801606,59.13054375001229,3.0,Object_Sea_Solid_Small,-1.0,,,,,,,,,,,
encoding,value,17,10839469,10845480,10841061.0,10841282.0,222.0,222.0,1741.1,1181.4,1591.0,891.0,Animal_Land_Solid_Small,53.11990670801606,59.13054375001229,3.0,Object_Sea_Solid_Small,-1.0,,,,,,,,,,,
encoding,value,17,10839469,10845480,10841306.0,10841592.0,287.0,287.0,1577.0,1298.6,1591.0,891.0,Animal_Land_Solid_Small,53.11990670801606,59.13054375001229,3.0,Object_Sea_Solid_Small,-1.0,,,,,,,,,,,
encoding,value,17,10839469,10845480,10841640.0,10841973.0,334.0,334.0,2110.3,1248.2,2249.0,891.0,Animal_Land_Pattern_Large,53.11990670801606,59.13054375001229,3.0,Object_Sea_Solid_Small,-1.0,,,,,,,,,,,
encoding,value,17,10839469,10845480,10842023.0,10842300.0,278.0,278.0,1752.3,998.2,1591.0,1269.0,Object_Sea_Pattern_Large,53.11990670801606,59.13054375001229,3.0,Object_Sea_Solid_Small,-1.0,,,,,,,,,,,
encoding,value,17,10839469,10845480,10842326.0,10842519.0,194.0,194.0,1615.1,809.3,1591.0,1269.0,Object_Sea_Pattern_Large,53.11990670801606,59.13054375001229,3.0,Object_Sea_Solid_Small,-1.0,,,,,,,,,,,
encoding,value,17,10839469,10845480,10842569.0,10842835.0,267.0,267.0,2226.8,840.5,2249.0,1269.0,Object_Sea_Solid_Small,53.11990670801606,59.13054375001229,3.0,Object_Sea_Solid_Small,-1.0,,,,,,,,,,,
encoding,value,17,10839469,10845480,10843004.0,10843183.0,180.0,180.0,2222.9,861.3,2249.0,1269.0,Object_Sea_Solid_Small,53.11990670801606,59.13054375001229,3.0,Object_Sea_Solid_Small,-1.0,,,,,,,,,,,
encoding,value,17,10839469,10845480,10843239.0,10843618.0,380.0,380.0,1732.2,1172.3,1591.0,891.0,Animal_Land_Solid_Small,53.11990670801606,59.13054375001229,3.0,Object_Sea_Solid_Small,-1.0,,,,,,,,,,,
encoding,value,17,10839469,10845480,10843642.0,10844035.0,394.0,394.0,1952.2,1109.3,1920.0,1080.0,fixation,53.11990670801606,59.13054375001229,3.0,Object_Sea_Solid_Small,-1.0,,,,,,,,,,,
encoding,value,17,10839469,10845480,10844067.0,10844817.0,751.0,751.0,2241.1,918.4000000000001,2249.0,1269.0,Object_Sea_Solid_Small,53.11990670801606,59.13054375001229,3.0,Object_Sea_Solid_Small,-1.0,,,,,,,,,,,
encoding,value,17,10839469,10845480,10844982.0,10845465.0,484.0,484.0,2231.8,842.5999999999999,2249.0,1269.0,Object_Sea_Solid_Small,53.11990670801606,59.13054375001229,3.0,Object_Sea_Solid_Small,-1.0,,,,,,,,,,,
encoding,value,17,10839469,10845480,10845479.0,10845728.0,250.0,1.0,2235.2,917.4000000000001,2249.0,1269.0,Object_Sea_Solid_Small,53.11990670801606,59.13054375001229,3.0,Object_Sea_Solid_Small,-1.0,,,,,,,,,,,
encoding,attention,17,10845480,10848496,10845740.0,10845922.0,183.0,183.0,2262.8,861.5,2249.0,1269.0,Object_Sea_Solid_Small,59.13066391693428,62.14656445803121,3.0,Object_Sea_Solid_Small,-1.0,-1.0,1.0,0.6256367919268087,,,,,,,,
encoding,attention,17,10845480,10848496,10845931.0,10846363.0,433.0,433.0,2224.5,856.0,2249.0,1269.0,Object_Sea_Solid_Small,59.13066391693428,62.14656445803121,3.0,Object_Sea_Solid_Small,-1.0,-1.0,1.0,0.6256367919268087,,,,,,,,
encoding,attention,17,10845480,10848496,10846562.0,10847062.0,501.0,501.0,1611.9,1291.6,1591.0,891.0,Animal_Land_Solid_Small,59.13066391693428,62.14656445803121,3.0,Object_Sea_Solid_Small,-1.0,-1.0,1.0,0.6256367919268087,,,,,,,,
encoding,attention,17,10845480,10848496,10847103.0,10847568.0,466.0,466.0,2191.4,1230.6,2249.0,891.0,Animal_Land_Pattern_Large,59.13066391693428,62.14656445803121,3.0,Object_Sea_Solid_Small,-1.0,-1.0,1.0,0.6256367919268087,,,,,,,,
encoding,attention,17,10845480,10848496,10847625.0,10848069.0,445.0,445.0,1596.9,919.8,1591.0,1269.0,Object_Sea_Pattern_Large,59.13066391693428,62.14656445803121,3.0,Object_Sea_Solid_Small,-1.0,-1.0,1.0,0.6256367919268087,,,,,,,,
encoding,attention,17,10845480,10848496,10848120.0,10848369.0,250.0,250.0,2192.4,834.8,2249.0,1269.0,Object_Sea_Solid_Small,59.13066391693428,62.14656445803121,3.0,Object_Sea_Solid_Small,-1.0,-1.0,1.0,0.6256367919268087,,,,,,,,
encoding,attention,17,10845480,10848496,10848380.0,10848474.0,95.0,95.0,2224.9,876.5999999999999,2249.0,1269.0,Object_Sea_Solid_Small,59.13066391693428,62.14656445803121,3.0,Object_Sea_Solid_Small,-1.0,-1.0,1.0,0.6256367919268087,,,,,,,,
encoding,fixation,18,10848496,10849501,10848660.0,10848829.0,170.0,170.0,2224.2,872.5,2249.0,1269.0,Object_Sea_Solid_Small,62.14671229198575,63.15172637498472,3.0,Animal_Land_Solid_Large,8.0,,,,,,,,,,,
encoding,fixation,18,10848496,10849501,10848858.0,10849254.0,397.0,397.0,1928.1,1042.6,1920.0,1080.0,fixation,62.14671229198575,63.15172637498472,3.0,Animal_Land_Solid_Large,8.0,,,,,,,,,,,
encoding,fixation,18,10848496,10849501,10849450.0,10849674.0,225.0,51.0,1930.5,1107.4,1920.0,1080.0,fixation,62.14671229198575,63.15172637498472,3.0,Animal_Land_Solid_Large,8.0,,,,,,,,,,,
encoding,image,18,10849502,10850515,10849724.0,10850101.0,378.0,378.0,1896.0,1519.4,1920.0,700.0,Animal_Land_Solid_Large,63.15183204202913,64.16510341700632,3.0,Animal_Land_Solid_Large,8.0,,,,,,,,,,,
encoding,image,18,10849502,10850515,10850141.0,10850449.0,309.0,309.0,1902.4,1114.9,1920.0,1080.0,fixation,63.15183204202913,64.16510341700632,3.0,Animal_Land_Solid_Large,8.0,,,,,,,,,,,
encoding,image,18,10849502,10850515,10850476.0,10850961.0,486.0,39.0,1891.2,1378.2,1920.0,700.0,Animal_Land_Solid_Large,63.15183204202913,64.16510341700632,3.0,Animal_Land_Solid_Large,8.0,,,,,,,,,,,
encoding,value,18,10850515,10856528,10851178.0,10851467.0,290.0,290.0,1916.0,1529.2,1920.0,700.0,Animal_Land_Solid_Large,64.16525358299259,70.17797279194929,3.0,Animal_Land_Solid_Large,8.0,,,,,,,,,,,
encoding,value,18,10850515,10856528,10851520.0,10851913.0,394.0,394.0,1842.3,966.2,1591.0,1269.0,Object_Sea_Pattern_Large,64.16525358299259,70.17797279194929,3.0,Animal_Land_Solid_Large,8.0,,,,,,,,,,,
encoding,value,18,10850515,10856528,10851934.0,10852275.0,342.0,342.0,1980.0,825.0,1920.0,1460.0,Object_Sea_Pattern_Small,64.16525358299259,70.17797279194929,3.0,Animal_Land_Solid_Large,8.0,,,,,,,,,,,
encoding,value,18,10850515,10856528,10852324.0,10852495.0,172.0,172.0,1965.2,1178.3,1920.0,700.0,Animal_Land_Solid_Large,64.16525358299259,70.17797279194929,3.0,Animal_Land_Solid_Large,8.0,,,,,,,,,,,
encoding,value,18,10850515,10856528,10852652.0,10853001.0,350.0,350.0,1934.6,1346.4,1920.0,700.0,Animal_Land_Solid_Large,64.16525358299259,70.17797279194929,3.0,Animal_Land_Solid_Large,8.0,,,,,,,,,,,
encoding,value,18,10850515,10856528,10853042.0,10853249.0,208.0,208.0,1600.6,1199.0,1591.0,891.0,Animal_Land_Solid_Small,64.16525358299259,70.17797279194929,3.0,Animal_Land_Solid_Large,8.0,,,,,,,,,,,
encoding,value,18,10850515,10856528,10853292.0,10853540.0,249.0,249.0,1945.9,1368.2,1920.0,700.0,Animal_Land_Solid_Large,64.16525358299259,70.17797279194929,3.0,Animal_Land_Solid_Large,8.0,,,,,,,,,,,
encoding,value,18,10850515,10856528,10853551.0,10853730.0,180.0,180.0,1944.9,1410.9,1920.0,700.0,Animal_Land_Solid_Large,64.16525358299259,70.17797279194929,3.0,Animal_Land_Solid_Large,8.0,,,,,,,,,,,
encoding,value,18,10850515,10856528,10853751.0,10854396.0,646.0,646.0,1950.2,1515.7,1920.0,700.0,Animal_Land_Solid_Large,64.16525358299259,70.17797279194929,3.0,Animal_Land_Solid_Large,8.0,,,,,,,,,,,
encoding,value,18,10850515,10856528,10854413.0,10856051.0,1639.0,1639.0,1946.5,1396.3,1920.0,700.0,Animal_Land_Solid_Large,64.16525358299259,70.17797279194929,3.0,Animal_Land_Solid_Large,8.0,,,,,,,,,,,
encoding,value,18,10850515,10856528,10856248.0,10856788.0,541.0,280.0,1923.1,1416.1,1920.0,700.0,Animal_Land_Solid_Large,64.16525358299259,70.17797279194929,3.0,Animal_Land_Solid_Large,8.0,,,,,,,,,,,
encoding,attention,18,10856528,10859546,10856798.0,10857608.0,811.0,811.0,1974.5,1389.7,1920.0,700.0,Animal_Land_Solid_Large,70.17822408303618,73.19540500000585,3.0,Animal_Land_Solid_Large,8.0,8.0,1.0,1.1226244589779526,,,,,,,,
encoding,attention,18,10856528,10859546,10857631.0,10857860.0,230.0,230.0,1765.5,1344.9,1591.0,891.0,Animal_Land_Solid_Small,70.17822408303618,73.19540500000585,3.0,Animal_Land_Solid_Large,8.0,8.0,1.0,1.1226244589779526,,,,,,,,
encoding,attention,18,10856528,10859546,10857882.0,10858328.0,447.0,447.0,1981.7,1400.3,1920.0,700.0,Animal_Land_Solid_Large,70.17822408303618,73.19540500000585,3.0,Animal_Land_Solid_Large,8.0,8.0,1.0,1.1226244589779526,,,,,,,,
encoding,attention,18,10856528,10859546,10858349.0,10858763.0,415.0,415.0,1925.3,1525.1,1920.0,700.0,Animal_Land_Solid_Large,70.17822408303618,73.19540500000585,3.0,Animal_Land_Solid_Large,8.0,8.0,1.0,1.1226244589779526,,,,,,,,
encoding,attention,18,10856528,10859546,10858796.0,10859157.0,362.0,362.0,1618.1,1316.5,1591.0,891.0,Animal_Land_Solid_Small,70.17822408303618,73.19540500000585,3.0,Animal_Land_Solid_Large,8.0,8.0,1.0,1.1226244589779526,,,,,,,,
encoding,fixation,19,11160970,11161975,11160995.0,11161174.0,180.0,180.0,1888.1,1289.3,1920.0,700.0,Animal_Sea_Solid_Large,2.535712708951906,3.540873166988604,4.0,Animal_Sea_Pattern_Small,1.0,,,,,,,,,,,
encoding,fixation,19,11160970,11161975,11161201.0,11161567.0,367.0,367.0,1918.4,1094.4,1920.0,1080.0,fixation,2.535712708951906,3.540873166988604,4.0,Animal_Sea_Pattern_Small,1.0,,,,,,,,,,,
encoding,fixation,19,11160970,11161975,11161746.0,11162151.0,406.0,229.0,1923.5,1080.4,1920.0,1080.0,fixation,2.535712708951906,3.540873166988604,4.0,Animal_Sea_Pattern_Small,1.0,,,,,,,,,,,
encoding,image,19,11161975,11162986,11162181.0,11162919.0,739.0,739.0,2255.3,905.7,2249.0,1269.0,Animal_Sea_Pattern_Small,3.540999084012583,4.552710958989337,4.0,Animal_Sea_Pattern_Small,1.0,,,,,,,,,,,
encoding,value,19,11162987,11169000,11163084.0,11163245.0,162.0,162.0,2288.6,908.8,2249.0,1269.0,Animal_Sea_Pattern_Small,4.552819791948423,10.56610666704364,4.0,Animal_Sea_Pattern_Small,1.0,,,,,,,,,,,
encoding,value,19,11162987,11169000,11163259.0,11163879.0,621.0,621.0,2248.3,829.9000000000001,2249.0,1269.0,Animal_Sea_Pattern_Small,4.552819791948423,10.56610666704364,4.0,Animal_Sea_Pattern_Small,1.0,,,,,,,,,,,
encoding,value,19,11162987,11169000,11163898.0,11164232.0,335.0,335.0,2250.0,904.5,2249.0,1269.0,Animal_Sea_Pattern_Small,4.552819791948423,10.56610666704364,4.0,Animal_Sea_Pattern_Small,1.0,,,,,,,,,,,
encoding,value,19,11162987,11169000,11164246.0,11164606.0,361.0,361.0,2221.9,836.7,2249.0,1269.0,Animal_Sea_Pattern_Small,4.552819791948423,10.56610666704364,4.0,Animal_Sea_Pattern_Small,1.0,,,,,,,,,,,
encoding,value,19,11162987,11169000,11164623.0,11166281.0,1659.0,1659.0,2267.7,930.2,2249.0,1269.0,Animal_Sea_Pattern_Small,4.552819791948423,10.56610666704364,4.0,Animal_Sea_Pattern_Small,1.0,,,,,,,,,,,
encoding,value,19,11162987,11169000,11166299.0,11167069.0,771.0,771.0,2242.3,873.7,2249.0,1269.0,Animal_Sea_Pattern_Small,4.552819791948423,10.56610666704364,4.0,Animal_Sea_Pattern_Small,1.0,,,,,,,,,,,
encoding,value,19,11162987,11169000,11167078.0,11167791.0,714.0,714.0,2225.9,852.3,2249.0,1269.0,Animal_Sea_Pattern_Small,4.552819791948423,10.56610666704364,4.0,Animal_Sea_Pattern_Small,1.0,,,,,,,,,,,
encoding,value,19,11162987,11169000,11167804.0,11168644.0,841.0,841.0,2252.9,916.4000000000001,2249.0,1269.0,Animal_Sea_Pattern_Small,4.552819791948423,10.56610666704364,4.0,Animal_Sea_Pattern_Small,1.0,,,,,,,,,,,
encoding,value,19,11162987,11169000,11168660.0,11169464.0,805.0,340.0,2224.6,837.0,2249.0,1269.0,Animal_Sea_Pattern_Small,4.552819791948423,10.56610666704364,4.0,Animal_Sea_Pattern_Small,1.0,,,,,,,,,,,
encoding,attention,19,11169000,11172017,11169656.0,11170055.0,400.0,400.0,2253.6,836.9000000000001,2249.0,1269.0,Animal_Sea_Pattern_Small,10.566250375006348,13.583269500057211,4.0,Animal_Sea_Pattern_Small,1.0,1.0,1.0,0.8002709579886869,,,,,,,,
encoding,attention,19,11169000,11172017,11170266.0,11170491.0,226.0,226.0,2259.9,879.3,2249.0,1269.0,Animal_Sea_Pattern_Small,10.566250375006348,13.583269500057211,4.0,Animal_Sea_Pattern_Small,1.0,1.0,1.0,0.8002709579886869,,,,,,,,
encoding,attention,19,11169000,11172017,11170503.0,11171077.0,575.0,575.0,2246.3,906.8,2249.0,1269.0,Animal_Sea_Pattern_Small,10.566250375006348,13.583269500057211,4.0,Animal_Sea_Pattern_Small,1.0,1.0,1.0,0.8002709579886869,,,,,,,,
encoding,attention,19,11169000,11172017,11171086.0,11171379.0,294.0,294.0,2284.0,913.3,2249.0,1269.0,Animal_Sea_Pattern_Small,10.566250375006348,13.583269500057211,4.0,Animal_Sea_Pattern_Small,1.0,1.0,1.0,0.8002709579886869,,,,,,,,
encoding,attention,19,11169000,11172017,11171406.0,11171607.0,202.0,202.0,1957.1,1032.4,1920.0,1080.0,fixation,10.566250375006348,13.583269500057211,4.0,Animal_Sea_Pattern_Small,1.0,1.0,1.0,0.8002709579886869,,,,,,,,
encoding,attention,19,11169000,11172017,11171632.0,11171900.0,269.0,269.0,2218.4,893.5,2249.0,1269.0,Animal_Sea_Pattern_Small,10.566250375006348,13.583269500057211,4.0,Animal_Sea_Pattern_Small,1.0,1.0,1.0,0.8002709579886869,,,,,,,,
encoding,fixation,20,11172018,11172773,11172105.0,11172274.0,170.0,170.0,2248.0,921.5999999999999,2249.0,1269.0,Animal_Sea_Pattern_Small,13.58343508397229,14.338479959056713,4.0,Animal_Sea_Solid_Large,6.0,,,,,,,,,,,
encoding,fixation,20,11172018,11172773,11172312.0,11172710.0,399.0,399.0,1907.6,1089.3,1920.0,1080.0,fixation,13.58343508397229,14.338479959056713,4.0,Animal_Sea_Solid_Large,6.0,,,,,,,,,,,
encoding,fixation,20,11172018,11172773,11172752.0,11173011.0,260.0,21.0,2334.6,944.9000000000001,2249.0,1269.0,Animal_Sea_Pattern_Small,13.58343508397229,14.338479959056713,4.0,Animal_Sea_Solid_Large,6.0,,,,,,,,,,,
encoding,image,20,11172773,11173785,11173060.0,11173261.0,202.0,202.0,1901.4,1471.1,1920.0,700.0,Animal_Sea_Solid_Large,14.338601666968316,15.350278833997436,4.0,Animal_Sea_Solid_Large,6.0,,,,,,,,,,,
encoding,image,20,11172773,11173785,11173270.0,11173415.0,146.0,146.0,1891.3,1511.9,1920.0,700.0,Animal_Sea_Solid_Large,14.338601666968316,15.350278833997436,4.0,Animal_Sea_Solid_Large,6.0,,,,,,,,,,,
encoding,image,20,11172773,11173785,11173581.0,11173947.0,367.0,204.0,1888.0,1519.6,1920.0,700.0,Animal_Sea_Solid_Large,14.338601666968316,15.350278833997436,4.0,Animal_Sea_Solid_Large,6.0,,,,,,,,,,,
encoding,value,20,11173785,11179797,11173972.0,11174517.0,546.0,546.0,1907.4,1372.1,1920.0,700.0,Animal_Sea_Solid_Large,15.350410916958936,21.3621505839983,4.0,Animal_Sea_Solid_Large,6.0,,,,,,,,,,,
encoding,value,20,11173785,11179797,11174570.0,11174902.0,333.0,333.0,2217.0,964.3,2249.0,1269.0,Animal_Sea_Pattern_Small,15.350410916958936,21.3621505839983,4.0,Animal_Sea_Solid_Large,6.0,,,,,,,,,,,
encoding,value,20,11173785,11179797,11174918.0,11175285.0,368.0,368.0,2327.4,951.4000000000001,2249.0,1269.0,Animal_Sea_Pattern_Small,15.350410916958936,21.3621505839983,4.0,Animal_Sea_Solid_Large,6.0,,,,,,,,,,,
encoding,value,20,11173785,11179797,11175434.0,11175865.0,432.0,432.0,1913.2,1403.6,1920.0,700.0,Animal_Sea_Solid_Large,15.350410916958936,21.3621505839983,4.0,Animal_Sea_Solid_Large,6.0,,,,,,,,,,,
encoding,value,20,11173785,11179797,11175889.0,11176141.0,253.0,253.0,1895.6,1570.0,1920.0,700.0,Animal_Sea_Solid_Large,15.350410916958936,21.3621505839983,4.0,Animal_Sea_Solid_Large,6.0,,,,,,,,,,,
encoding,value,20,11173785,11179797,11176196.0,11176578.0,383.0,383.0,2270.0,917.8,2249.0,1269.0,Animal_Sea_Pattern_Small,15.350410916958936,21.3621505839983,4.0,Animal_Sea_Solid_Large,6.0,,,,,,,,,,,
encoding,value,20,11173785,11179797,11176618.0,11176808.0,191.0,191.0,1937.4,1226.5,1920.0,700.0,Animal_Sea_Solid_Large,15.350410916958936,21.3621505839983,4.0,Animal_Sea_Solid_Large,6.0,,,,,,,,,,,
encoding,value,20,11173785,11179797,11176827.0,11177421.0,595.0,595.0,1923.6,1335.9,1920.0,700.0,Animal_Sea_Solid_Large,15.350410916958936,21.3621505839983,4.0,Animal_Sea_Solid_Large,6.0,,,,,,,,,,,
encoding,value,20,11173785,11179797,11177488.0,11177852.0,365.0,365.0,2340.9,912.2,2249.0,1269.0,Animal_Sea_Pattern_Small,15.350410916958936,21.3621505839983,4.0,Animal_Sea_Solid_Large,6.0,,,,,,,,,,,
encoding,value,20,11173785,11179797,11177869.0,11178188.0,320.0,320.0,2232.6,914.0,2249.0,1269.0,Animal_Sea_Pattern_Small,15.350410916958936,21.3621505839983,4.0,Animal_Sea_Solid_Large,6.0,,,,,,,,,,,
encoding,value,20,11173785,11179797,11178236.0,11178389.0,154.0,154.0,1915.2,1416.5,1920.0,700.0,Animal_Sea_Solid_Large,15.350410916958936,21.3621505839983,4.0,Animal_Sea_Solid_Large,6.0,,,,,,,,,,,
encoding,value,20,11173785,11179797,11178406.0,11178686.0,281.0,281.0,1905.2,1515.2,1920.0,700.0,Animal_Sea_Solid_Large,15.350410916958936,21.3621505839983,4.0,Animal_Sea_Solid_Large,6.0,,,,,,,,,,,
encoding,value,20,11173785,11179797,11178735.0,11179113.0,379.0,379.0,2229.4,913.5,2249.0,1269.0,Animal_Sea_Pattern_Small,15.350410916958936,21.3621505839983,4.0,Animal_Sea_Solid_Large,6.0,,,,,,,,,,,
encoding,value,20,11173785,11179797,11179277.0,11179512.0,236.0,236.0,1907.8,1424.4,1920.0,700.0,Animal_Sea_Solid_Large,15.350410916958936,21.3621505839983,4.0,Animal_Sea_Solid_Large,6.0,,,,,,,,,,,
encoding,value,20,11173785,11179797,11179533.0,11179764.0,232.0,232.0,1901.2,1544.2,1920.0,700.0,Animal_Sea_Solid_Large,15.350410916958936,21.3621505839983,4.0,Animal_Sea_Solid_Large,6.0,,,,,,,,,,,
encoding,attention,20,11179797,11182814,11179815.0,11179952.0,138.0,138.0,2430.2,941.2,2249.0,1269.0,Animal_Sea_Pattern_Small,21.36226441699546,24.379020208958536,4.0,Animal_Sea_Solid_Large,6.0,6.0,1.0,1.3055866250069812,,,,,,,,
encoding,attention,20,11179797,11182814,11179971.0,11180177.0,207.0,207.0,2257.6,950.8,2249.0,1269.0,Animal_Sea_Pattern_Small,21.36226441699546,24.379020208958536,4.0,Animal_Sea_Solid_Large,6.0,6.0,1.0,1.3055866250069812,,,,,,,,
encoding,attention,20,11179797,11182814,11180230.0,11180483.0,254.0,254.0,1919.5,1438.2,1920.0,700.0,Animal_Sea_Solid_Large,21.36226441699546,24.379020208958536,4.0,Animal_Sea_Solid_Large,6.0,6.0,1.0,1.3055866250069812,,,,,,,,
encoding,attention,20,11179797,11182814,11180495.0,11180761.0,267.0,267.0,1962.7,1389.6,1920.0,700.0,Animal_Sea_Solid_Large,21.36226441699546,24.379020208958536,4.0,Animal_Sea_Solid_Large,6.0,6.0,1.0,1.3055866250069812,,,,,,,,
encoding,attention,20,11179797,11182814,11180778.0,11181313.0,536.0,536.0,1870.8,1383.0,1920.0,700.0,Animal_Sea_Solid_Large,21.36226441699546,24.379020208958536,4.0,Animal_Sea_Solid_Large,6.0,6.0,1.0,1.3055866250069812,,,,,,,,
encoding,attention,20,11179797,11182814,11181361.0,11181940.0,580.0,580.0,2232.2,912.8,2249.0,1269.0,Animal_Sea_Pattern_Small,21.36226441699546,24.379020208958536,4.0,Animal_Sea_Solid_Large,6.0,6.0,1.0,1.3055866250069812,,,,,,,,
encoding,attention,20,11179797,11182814,11182075.0,11182200.0,126.0,126.0,1868.2,1446.5,1920.0,700.0,Animal_Sea_Solid_Large,21.36226441699546,24.379020208958536,4.0,Animal_Sea_Solid_Large,6.0,6.0,1.0,1.3055866250069812,,,,,,,,
encoding,attention,20,11179797,11182814,11182220.0,11182709.0,490.0,490.0,1908.2,1550.6,1920.0,700.0,Animal_Sea_Solid_Large,21.36226441699546,24.379020208958536,4.0,Animal_Sea_Solid_Large,6.0,6.0,1.0,1.3055866250069812,,,,,,,,
encoding,fixation,21,11182814,11183569,11183269.0,11183641.0,373.0,300.0,1895.6,1460.6,1920.0,700.0,Animal_Sea_Solid_Large,24.379305709037,25.134707999997772,4.0,Object_Sea_Solid_Large,-8.0,,,,,,,,,,,
encoding,image,21,11183569,11184581,11183684.0,11184098.0,415.0,415.0,2196.8,927.0999999999999,2249.0,1269.0,Animal_Sea_Pattern_Small,25.134822917054407,26.14653475000523,4.0,Object_Sea_Solid_Large,-8.0,,,,,,,,,,,
encoding,image,21,11183569,11184581,11184147.0,11184408.0,262.0,262.0,1915.7,1434.4,1920.0,700.0,Animal_Sea_Solid_Large,25.134822917054407,26.14653475000523,4.0,Object_Sea_Solid_Large,-8.0,,,,,,,,,,,
encoding,image,21,11183569,11184581,11184436.0,11184759.0,324.0,145.0,2232.5,1232.7,2249.0,891.0,Object_Sea_Solid_Large,25.134822917054407,26.14653475000523,4.0,Object_Sea_Solid_Large,-8.0,,,,,,,,,,,
encoding,value,21,11184581,11190595,11184771.0,11185097.0,327.0,327.0,2260.0,1176.9,2249.0,891.0,Object_Sea_Solid_Large,26.146643458982,32.15962045895867,4.0,Object_Sea_Solid_Large,-8.0,,,,,,,,,,,
encoding,value,21,11184581,11190595,11185282.0,11185430.0,149.0,149.0,2231.8,1183.1,2249.0,891.0,Object_Sea_Solid_Large,26.146643458982,32.15962045895867,4.0,Object_Sea_Solid_Large,-8.0,,,,,,,,,,,
encoding,value,21,11184581,11190595,11185453.0,11185873.0,421.0,421.0,2245.9,1341.9,2249.0,891.0,Object_Sea_Solid_Large,26.146643458982,32.15962045895867,4.0,Object_Sea_Solid_Large,-8.0,,,,,,,,,,,
encoding,value,21,11184581,11190595,11185882.0,11185928.0,47.0,47.0,2273.2,1207.1,2249.0,891.0,Object_Sea_Solid_Large,26.146643458982,32.15962045895867,4.0,Object_Sea_Solid_Large,-8.0,,,,,,,,,,,
encoding,value,21,11184581,11190595,11185957.0,11186731.0,775.0,775.0,2228.4,847.2,2249.0,1269.0,Animal_Sea_Pattern_Small,26.146643458982,32.15962045895867,4.0,Object_Sea_Solid_Large,-8.0,,,,,,,,,,,
encoding,value,21,11184581,11190595,11186779.0,11187134.0,356.0,356.0,1970.5,1302.9,1920.0,700.0,Animal_Sea_Solid_Large,26.146643458982,32.15962045895867,4.0,Object_Sea_Solid_Large,-8.0,,,,,,,,,,,
encoding,value,21,11184581,11190595,11187153.0,11187395.0,243.0,243.0,1840.4,1404.1,1920.0,700.0,Animal_Sea_Solid_Large,26.146643458982,32.15962045895867,4.0,Object_Sea_Solid_Large,-8.0,,,,,,,,,,,
encoding,value,21,11184581,11190595,11187429.0,11188722.0,1294.0,1294.0,2240.8,1172.4,2249.0,891.0,Object_Sea_Solid_Large,26.146643458982,32.15962045895867,4.0,Object_Sea_Solid_Large,-8.0,,,,,,,,,,,
encoding,value,21,11184581,11190595,11188766.0,11189022.0,257.0,257.0,2219.6,916.5,2249.0,1269.0,Animal_Sea_Pattern_Small,26.146643458982,32.15962045895867,4.0,Object_Sea_Solid_Large,-8.0,,,,,,,,,,,
encoding,value,21,11184581,11190595,11189070.0,11189362.0,293.0,293.0,1979.4,1273.6,1920.0,700.0,Animal_Sea_Solid_Large,26.146643458982,32.15962045895867,4.0,Object_Sea_Solid_Large,-8.0,,,,,,,,,,,
encoding,value,21,11184581,11190595,11189391.0,11190362.0,972.0,972.0,2257.5,1171.0,2249.0,891.0,Object_Sea_Solid_Large,26.146643458982,32.15962045895867,4.0,Object_Sea_Solid_Large,-8.0,,,,,,,,,,,
encoding,value,21,11184581,11190595,11190531.0,11190822.0,292.0,64.0,2253.0,1169.9,2249.0,891.0,Object_Sea_Solid_Large,26.146643458982,32.15962045895867,4.0,Object_Sea_Solid_Large,-8.0,,,,,,,,,,,
encoding,attention,21,11190595,11193612,11190830.0,11191073.0,244.0,244.0,2215.0,1154.5,2249.0,891.0,Object_Sea_Solid_Large,32.159748291946016,35.176801791996695,4.0,Object_Sea_Solid_Large,-8.0,-8.0,1.0,0.655835916986689,,,,,,,,
encoding,attention,21,11190595,11193612,11191089.0,11191673.0,585.0,585.0,2310.5,1146.3,2249.0,891.0,Object_Sea_Solid_Large,32.159748291946016,35.176801791996695,4.0,Object_Sea_Solid_Large,-8.0,-8.0,1.0,0.655835916986689,,,,,,,,
encoding,attention,21,11190595,11193612,11191709.0,11192034.0,326.0,326.0,2155.2,899.5,2249.0,1269.0,Animal_Sea_Pattern_Small,32.159748291946016,35.176801791996695,4.0,Object_Sea_Solid_Large,-8.0,-8.0,1.0,0.655835916986689,,,,,,,,
encoding,attention,21,11190595,11193612,11192046.0,11192344.0,299.0,299.0,2215.3,926.9000000000001,2249.0,1269.0,Animal_Sea_Pattern_Small,32.159748291946016,35.176801791996695,4.0,Object_Sea_Solid_Large,-8.0,-8.0,1.0,0.655835916986689,,,,,,,,
encoding,attention,21,11190595,11193612,11192393.0,11192793.0,401.0,401.0,1865.5,1388.5,1920.0,700.0,Animal_Sea_Solid_Large,32.159748291946016,35.176801791996695,4.0,Object_Sea_Solid_Large,-8.0,-8.0,1.0,0.655835916986689,,,,,,,,
encoding,attention,21,11190595,11193612,11192833.0,11193130.0,298.0,298.0,2292.1,1173.1,2249.0,891.0,Object_Sea_Solid_Large,32.159748291946016,35.176801791996695,4.0,Object_Sea_Solid_Large,-8.0,-8.0,1.0,0.655835916986689,,,,,,,,
encoding,fixation,22,11193612,11194368,11193672.0,11193961.0,290.0,290.0,1866.8,1481.7,1920.0,700.0,Animal_Sea_Solid_Large,35.177020916948095,35.932337249978445,4.0,Object_Land_Solid_Large,4.0,,,,,,,,,,,
encoding,fixation,22,11193612,11194368,11194140.0,11194348.0,209.0,209.0,2231.2,1167.9,2249.0,891.0,Object_Sea_Solid_Large,35.177020916948095,35.932337249978445,4.0,Object_Land_Solid_Large,4.0,,,,,,,,,,,
encoding,image,22,11194368,11195381,11194369.0,11194599.0,231.0,231.0,2365.8,1157.0,2249.0,891.0,Object_Sea_Solid_Large,35.93243845901452,36.94542108394671,4.0,Object_Land_Solid_Large,4.0,,,,,,,,,,,
encoding,image,22,11194368,11195381,11194660.0,11194787.0,128.0,128.0,1741.9,1168.9,1591.0,891.0,Object_Land_Solid_Large,35.93243845901452,36.94542108394671,4.0,Object_Land_Solid_Large,4.0,,,,,,,,,,,
encoding,image,22,11194368,11195381,11194811.0,11194947.0,137.0,137.0,1606.6,1310.5,1591.0,891.0,Object_Land_Solid_Large,35.93243845901452,36.94542108394671,4.0,Object_Land_Solid_Large,4.0,,,,,,,,,,,
encoding,image,22,11194368,11195381,11194991.0,11195219.0,229.0,229.0,2026.1,1402.2,1920.0,700.0,Animal_Sea_Solid_Large,35.93243845901452,36.94542108394671,4.0,Object_Land_Solid_Large,4.0,,,,,,,,,,,
encoding,image,22,11194368,11195381,11195246.0,11195470.0,225.0,135.0,2315.3,1309.9,2249.0,891.0,Object_Sea_Solid_Large,35.93243845901452,36.94542108394671,4.0,Object_Land_Solid_Large,4.0,,,,,,,,,,,
encoding,value,22,11195381,11201393,11195530.0,11195719.0,190.0,190.0,1615.7,1282.3,1591.0,891.0,Object_Land_Solid_Large,36.94553066696972,42.95732908404898,4.0,Object_Land_Solid_Large,4.0,,,,,,,,,,,
encoding,value,22,11195381,11201393,11195735.0,11195983.0,249.0,249.0,1630.9,1183.7,1591.0,891.0,Object_Land_Solid_Large,36.94553066696972,42.95732908404898,4.0,Object_Land_Solid_Large,4.0,,,,,,,,,,,
encoding,value,22,11195381,11201393,11196196.0,11196726.0,531.0,531.0,1904.7,1225.8,1920.0,700.0,Animal_Sea_Solid_Large,36.94553066696972,42.95732908404898,4.0,Object_Land_Solid_Large,4.0,,,,,,,,,,,
encoding,value,22,11195381,11201393,11196751.0,11197227.0,477.0,477.0,1623.3,1192.6,1591.0,891.0,Object_Land_Solid_Large,36.94553066696972,42.95732908404898,4.0,Object_Land_Solid_Large,4.0,,,,,,,,,,,
encoding,value,22,11195381,11201393,11197254.0,11197628.0,375.0,375.0,1969.8,1212.4,1920.0,700.0,Animal_Sea_Solid_Large,36.94553066696972,42.95732908404898,4.0,Object_Land_Solid_Large,4.0,,,,,,,,,,,
encoding,value,22,11195381,11201393,11197656.0,11198079.0,424.0,424.0,1862.5,1485.2,1920.0,700.0,Animal_Sea_Solid_Large,36.94553066696972,42.95732908404898,4.0,Object_Land_Solid_Large,4.0,,,,,,,,,,,
encoding,value,22,11195381,11201393,11198124.0,11198499.0,376.0,376.0,1594.9,1189.2,1591.0,891.0,Object_Land_Solid_Large,36.94553066696972,42.95732908404898,4.0,Object_Land_Solid_Large,4.0,,,,,,,,,,,
encoding,value,22,11195381,11201393,11198543.0,11198724.0,182.0,182.0,2110.2,1210.3,2249.0,891.0,Object_Sea_Solid_Large,36.94553066696972,42.95732908404898,4.0,Object_Land_Solid_Large,4.0,,,,,,,,,,,
