phase,event,trial_number,eyetracker_onset,eyetracker_offset,fix_start,fix_end,fix_duration_full,fix_duration_bounded,fix_x,fix_y,roi_x,roi_y,roi_content,onset,offset,game,image,outcome,choice,correct,rt,letter,match,response,option,true_value,true_position,recalled_position,Unnamed: 18
encoding,fixation,1,2961185,2962449,2961417.0,2962499.0,1083.0,1032.0,1869.1,1150.7,1591.0,891.0,Object_Land_Solid_Large,6.785940000001574,8.050319832982495,1.0,Object_Sea_Pattern_Large,-8.0,,,,,,,,,,,
encoding,image,1,2962449,2963470,2962507.0,2962681.0,175.0,175.0,1877.5,1098.3,1920.0,1080.0,fixation,8.050459833000787,9.070846624992557,1.0,Object_Sea_Pattern_Large,-8.0,,,,,,,,,,,
encoding,image,1,2962449,2963470,2962719.0,2963089.0,371.0,371.0,2212.0,1256.8,2249.0,891.0,Object_Sea_Pattern_Large,8.050459833000787,9.070846624992557,1.0,Object_Sea_Pattern_Large,-8.0,,,,,,,,,,,
encoding,image,1,2962449,2963470,2963272.0,2963603.0,332.0,198.0,2181.5,1221.6,2249.0,891.0,Object_Sea_Pattern_Large,8.050459833000787,9.070846624992557,1.0,Object_Sea_Pattern_Large,-8.0,,,,,,,,,,,
encoding,value,1,2963470,2969485,2963610.0,2964091.0,482.0,482.0,2169.7,1165.9,2249.0,891.0,Object_Sea_Pattern_Large,9.0709744579799,15.085846082976786,1.0,Object_Sea_Pattern_Large,-8.0,,,,,,,,,,,
encoding,value,1,2963470,2969485,2964332.0,2967358.0,3027.0,3027.0,2176.5,1229.5,2249.0,891.0,Object_Sea_Pattern_Large,9.0709744579799,15.085846082976786,1.0,Object_Sea_Pattern_Large,-8.0,,,,,,,,,,,
encoding,value,1,2963470,2969485,2967796.0,2967834.0,39.0,39.0,2202.1,1348.5,2249.0,891.0,Object_Sea_Pattern_Large,9.0709744579799,15.085846082976786,1.0,Object_Sea_Pattern_Large,-8.0,,,,,,,,,,,
encoding,value,1,2963470,2969485,2967868.0,2968394.0,527.0,527.0,2202.3,1252.3,2249.0,891.0,Object_Sea_Pattern_Large,9.0709744579799,15.085846082976786,1.0,Object_Sea_Pattern_Large,-8.0,,,,,,,,,,,
encoding,value,1,2963470,2969485,2968410.0,2968529.0,120.0,120.0,2157.1,1182.3,2249.0,891.0,Object_Sea_Pattern_Large,9.0709744579799,15.085846082976786,1.0,Object_Sea_Pattern_Large,-8.0,,,,,,,,,,,
encoding,value,1,2963470,2969485,2968537.0,2968975.0,439.0,439.0,2200.1,1165.4,2249.0,891.0,Object_Sea_Pattern_Large,9.0709744579799,15.085846082976786,1.0,Object_Sea_Pattern_Large,-8.0,,,,,,,,,,,
encoding,value,1,2963470,2969485,2968984.0,2970048.0,1065.0,501.0,2199.9,1209.2,2249.0,891.0,Object_Sea_Pattern_Large,9.0709744579799,15.085846082976786,1.0,Object_Sea_Pattern_Large,-8.0,,,,,,,,,,,
encoding,attention,1,2969485,2972504,2970055.0,2970662.0,608.0,608.0,2145.3,1183.4,2249.0,891.0,Object_Sea_Pattern_Large,15.085954582988052,18.104464749980252,1.0,Object_Sea_Pattern_Large,-8.0,-8.0,1.0,2.3208540409978013,,,,,,,,
encoding,attention,1,2969485,2972504,2970837.0,2970864.0,28.0,28.0,2137.6,1301.0,2249.0,891.0,Object_Sea_Pattern_Large,15.085954582988052,18.104464749980252,1.0,Object_Sea_Pattern_Large,-8.0,-8.0,1.0,2.3208540409978013,,,,,,,,
encoding,attention,1,2969485,2972504,2970889.0,2972462.0,1574.0,1574.0,2149.1,1191.9,2249.0,891.0,Object_Sea_Pattern_Large,15.085954582988052,18.104464749980252,1.0,Object_Sea_Pattern_Large,-8.0,-8.0,1.0,2.3208540409978013,,,,,,,,
encoding,fixation,2,2972504,2974009,2972656.0,2972685.0,30.0,30.0,2209.3,1349.8,2249.0,891.0,Object_Sea_Pattern_Large,18.104621999984374,19.609526499989443,1.0,Animal_Land_Solid_Small,-2.0,,,,,,,,,,,
encoding,fixation,2,2972504,2974009,2972702.0,2972836.0,135.0,135.0,2202.2,1277.1,2249.0,891.0,Object_Sea_Pattern_Large,18.104621999984374,19.609526499989443,1.0,Animal_Land_Solid_Small,-2.0,,,,,,,,,,,
encoding,fixation,2,2972504,2974009,2972862.0,2974297.0,1436.0,1147.0,1890.5,1131.2,1920.0,1080.0,fixation,18.104621999984374,19.609526499989443,1.0,Animal_Land_Solid_Small,-2.0,,,,,,,,,,,
encoding,image,2,2974009,2975021,2974317.0,2974344.0,28.0,28.0,1866.0,1218.2,1920.0,700.0,Animal_Land_Solid_Small,19.609641791001195,20.621110207983293,1.0,Animal_Land_Solid_Small,-2.0,,,,,,,,,,,
encoding,image,2,2974009,2975021,2974375.0,2974529.0,155.0,155.0,1873.4,1493.7,1920.0,700.0,Animal_Land_Solid_Small,19.609641791001195,20.621110207983293,1.0,Animal_Land_Solid_Small,-2.0,,,,,,,,,,,
encoding,image,2,2974009,2975021,2974537.0,2975184.0,648.0,484.0,1926.3,1471.8,1920.0,700.0,Animal_Land_Solid_Small,19.609641791001195,20.621110207983293,1.0,Animal_Land_Solid_Small,-2.0,,,,,,,,,,,
encoding,value,2,2975021,2981033,2975204.0,2975659.0,456.0,456.0,1881.7,1334.4,1920.0,700.0,Animal_Land_Solid_Small,20.621222999994643,26.63330600000336,1.0,Animal_Land_Solid_Small,-2.0,,,,,,,,,,,
encoding,value,2,2975021,2981033,2975862.0,2975882.0,21.0,21.0,1803.1,1609.9,1920.0,700.0,Animal_Land_Solid_Small,20.621222999994643,26.63330600000336,1.0,Animal_Land_Solid_Small,-2.0,,,,,,,,,,,
encoding,value,2,2975021,2981033,2976224.0,2976569.0,346.0,346.0,1914.5,1534.3,1920.0,700.0,Animal_Land_Solid_Small,20.621222999994643,26.63330600000336,1.0,Animal_Land_Solid_Small,-2.0,,,,,,,,,,,
encoding,value,2,2975021,2981033,2976862.0,2980608.0,3747.0,3747.0,1896.2,1378.3,1920.0,700.0,Animal_Land_Solid_Small,20.621222999994643,26.63330600000336,1.0,Animal_Land_Solid_Small,-2.0,,,,,,,,,,,
encoding,value,2,2975021,2981033,2980783.0,2980815.0,33.0,33.0,1936.8,1520.2,1920.0,700.0,Animal_Land_Solid_Small,20.621222999994643,26.63330600000336,1.0,Animal_Land_Solid_Small,-2.0,,,,,,,,,,,
encoding,value,2,2975021,2981033,2980845.0,2981478.0,634.0,188.0,1944.0,1388.2,1920.0,700.0,Animal_Land_Solid_Small,20.621222999994643,26.63330600000336,1.0,Animal_Land_Solid_Small,-2.0,,,,,,,,,,,
encoding,attention,2,2981033,2984055,2981489.0,2981674.0,186.0,186.0,1882.9,1361.2,1920.0,700.0,Animal_Land_Solid_Small,26.63342170798569,29.655264290980995,1.0,Animal_Land_Solid_Small,-2.0,-2.0,1.0,0.9702641670010052,,,,,,,,
encoding,attention,2,2981033,2984055,2981687.0,2982351.0,665.0,665.0,1969.2,1365.7,1920.0,700.0,Animal_Land_Solid_Small,26.63342170798569,29.655264290980995,1.0,Animal_Land_Solid_Small,-2.0,-2.0,1.0,0.9702641670010052,,,,,,,,
encoding,attention,2,2981033,2984055,2982358.0,2982449.0,92.0,92.0,1943.8,1328.1,1920.0,700.0,Animal_Land_Solid_Small,26.63342170798569,29.655264290980995,1.0,Animal_Land_Solid_Small,-2.0,-2.0,1.0,0.9702641670010052,,,,,,,,
encoding,attention,2,2981033,2984055,2982479.0,2982612.0,134.0,134.0,1863.6,1038.8,1920.0,1080.0,fixation,26.63342170798569,29.655264290980995,1.0,Animal_Land_Solid_Small,-2.0,-2.0,1.0,0.9702641670010052,,,,,,,,
encoding,fixation,3,2984055,2985061,,,,,,,,,none,29.655418582988204,30.660718290979275,1.0,Animal_Sea_Pattern_Small,5.0,,,,,,,,,,,
encoding,image,3,2985061,2986073,2985395.0,2985532.0,138.0,138.0,2110.4,939.0,2249.0,1269.0,Animal_Sea_Pattern_Small,30.660825540981023,31.67238995799562,1.0,Animal_Sea_Pattern_Small,5.0,,,,,,,,,,,
encoding,image,3,2985061,2986073,2985543.0,2985718.0,176.0,176.0,2174.2,907.7,2249.0,1269.0,Animal_Sea_Pattern_Small,30.660825540981023,31.67238995799562,1.0,Animal_Sea_Pattern_Small,5.0,,,,,,,,,,,
encoding,image,3,2985061,2986073,2985947.0,2986014.0,68.0,68.0,2174.5,963.9000000000001,2249.0,1269.0,Animal_Sea_Pattern_Small,30.660825540981023,31.67238995799562,1.0,Animal_Sea_Pattern_Small,5.0,,,,,,,,,,,
encoding,image,3,2985061,2986073,2986038.0,2986271.0,234.0,35.0,2176.5,916.0999999999999,2249.0,1269.0,Animal_Sea_Pattern_Small,30.660825540981023,31.67238995799562,1.0,Animal_Sea_Pattern_Small,5.0,,,,,,,,,,,
encoding,value,3,2986073,2992085,2986288.0,2986816.0,529.0,529.0,2180.8,826.5999999999999,2249.0,1269.0,Animal_Sea_Pattern_Small,31.672500249987937,37.684715915995184,1.0,Animal_Sea_Pattern_Small,5.0,,,,,,,,,,,
encoding,value,3,2986073,2992085,2987548.0,2987587.0,40.0,40.0,2105.7,1081.1,2249.0,891.0,Object_Sea_Pattern_Large,31.672500249987937,37.684715915995184,1.0,Animal_Sea_Pattern_Small,5.0,,,,,,,,,,,
encoding,value,3,2986073,2992085,2987884.0,2988051.0,168.0,168.0,2232.6,1176.6,2249.0,891.0,Object_Sea_Pattern_Large,31.672500249987937,37.684715915995184,1.0,Animal_Sea_Pattern_Small,5.0,,,,,,,,,,,
encoding,value,3,2986073,2992085,2988062.0,2989846.0,1785.0,1785.0,2207.6,1044.7,2249.0,1269.0,Animal_Sea_Pattern_Small,31.672500249987937,37.684715915995184,1.0,Animal_Sea_Pattern_Small,5.0,,,,,,,,,,,
encoding,value,3,2986073,2992085,2990190.0,2990227.0,38.0,38.0,2088.9,303.0999999999999,,,none,31.672500249987937,37.684715915995184,1.0,Animal_Sea_Pattern_Small,5.0,,,,,,,,,,,
encoding,value,3,2986073,2992085,2990450.0,2990495.0,46.0,46.0,2081.1,589.9000000000001,1920.0,1460.0,Animal_Sea_Solid_Large,31.672500249987937,37.684715915995184,1.0,Animal_Sea_Pattern_Small,5.0,,,,,,,,,,,
encoding,value,3,2986073,2992085,2990771.0,2990837.0,67.0,67.0,2211.4,1169.8,2249.0,891.0,Object_Sea_Pattern_Large,31.672500249987937,37.684715915995184,1.0,Animal_Sea_Pattern_Small,5.0,,,,,,,,,,,
encoding,value,3,2986073,2992085,2991093.0,2991230.0,138.0,138.0,2210.7,1217.0,2249.0,891.0,Object_Sea_Pattern_Large,31.672500249987937,37.684715915995184,1.0,Animal_Sea_Pattern_Small,5.0,,,,,,,,,,,
encoding,value,3,2986073,2992085,2991247.0,2991841.0,595.0,595.0,2196.5,1141.0,2249.0,891.0,Object_Sea_Pattern_Large,31.672500249987937,37.684715915995184,1.0,Animal_Sea_Pattern_Small,5.0,,,,,,,,,,,
encoding,value,3,2986073,2992085,2991863.0,2992265.0,403.0,222.0,2218.8,1041.5,2249.0,1269.0,Animal_Sea_Pattern_Small,31.672500249987937,37.684715915995184,1.0,Animal_Sea_Pattern_Small,5.0,,,,,,,,,,,
encoding,attention,3,2992085,2995105,2992285.0,2992475.0,191.0,191.0,2165.9,930.3,2249.0,1269.0,Animal_Sea_Pattern_Small,37.68481474998407,40.70479604098364,1.0,Animal_Sea_Pattern_Small,5.0,5.0,1.0,0.6512268329970539,,,,,,,,
encoding,attention,3,2992085,2995105,2992485.0,2993042.0,558.0,558.0,2232.5,892.8,2249.0,1269.0,Animal_Sea_Pattern_Small,37.68481474998407,40.70479604098364,1.0,Animal_Sea_Pattern_Small,5.0,5.0,1.0,0.6512268329970539,,,,,,,,
encoding,attention,3,2992085,2995105,2993088.0,2993197.0,110.0,110.0,1896.8,1163.5,1920.0,700.0,Animal_Land_Solid_Small,37.68481474998407,40.70479604098364,1.0,Animal_Sea_Pattern_Small,5.0,5.0,1.0,0.6512268329970539,,,,,,,,
encoding,attention,3,2992085,2995105,2993472.0,2993500.0,29.0,29.0,1954.4,1249.4,1920.0,700.0,Animal_Land_Solid_Small,37.68481474998407,40.70479604098364,1.0,Animal_Sea_Pattern_Small,5.0,5.0,1.0,0.6512268329970539,,,,,,,,
encoding,fixation,4,2995106,2995611,,,,,,,,,none,40.704953374981415,41.210160374990664,1.0,Object_Land_Solid_Large,8.0,,,,,,,,,,,
encoding,image,4,2995611,2996621,2995889.0,2996174.0,286.0,286.0,1505.1,1282.7,1591.0,891.0,Object_Land_Solid_Large,41.21025775000453,42.22090987500269,1.0,Object_Land_Solid_Large,8.0,,,,,,,,,,,
encoding,image,4,2995611,2996621,2996605.0,2996768.0,164.0,16.0,1597.7,1278.2,1591.0,891.0,Object_Land_Solid_Large,41.21025775000453,42.22090987500269,1.0,Object_Land_Solid_Large,8.0,,,,,,,,,,,
encoding,value,4,2996622,3002633,2996780.0,2997250.0,471.0,471.0,1543.8,1235.3,1591.0,891.0,Object_Land_Solid_Large,42.22102837500279,48.2320146659913,1.0,Object_Land_Solid_Large,8.0,,,,,,,,,,,
encoding,value,4,2996622,3002633,2997298.0,2997409.0,112.0,112.0,1990.2,1298.1,1920.0,700.0,Animal_Land_Solid_Small,42.22102837500279,48.2320146659913,1.0,Object_Land_Solid_Large,8.0,,,,,,,,,,,
encoding,value,4,2996622,3002633,2998314.0,2998604.0,291.0,291.0,1879.6,1379.4,1920.0,700.0,Animal_Land_Solid_Small,42.22102837500279,48.2320146659913,1.0,Object_Land_Solid_Large,8.0,,,,,,,,,,,
encoding,value,4,2996622,3002633,2998626.0,2999196.0,571.0,571.0,2180.2,1376.7,2249.0,891.0,Object_Sea_Pattern_Large,42.22102837500279,48.2320146659913,1.0,Object_Land_Solid_Large,8.0,,,,,,,,,,,
encoding,value,4,2996622,3002633,2999224.0,2999630.0,407.0,407.0,2551.2,1405.5,,,none,42.22102837500279,48.2320146659913,1.0,Object_Land_Solid_Large,8.0,,,,,,,,,,,
encoding,value,4,2996622,3002633,2999695.0,2999975.0,281.0,281.0,1646.5,1239.5,1591.0,891.0,Object_Land_Solid_Large,42.22102837500279,48.2320146659913,1.0,Object_Land_Solid_Large,8.0,,,,,,,,,,,
encoding,value,4,2996622,3002633,2999989.0,3000211.0,223.0,223.0,1556.7,1252.7,1591.0,891.0,Object_Land_Solid_Large,42.22102837500279,48.2320146659913,1.0,Object_Land_Solid_Large,8.0,,,,,,,,,,,
encoding,value,4,2996622,3002633,3000574.0,3000781.0,208.0,208.0,2643.8,1600.9,,,none,42.22102837500279,48.2320146659913,1.0,Object_Land_Solid_Large,8.0,,,,,,,,,,,
encoding,value,4,2996622,3002633,3000847.0,3002541.0,1695.0,1695.0,1539.0,1264.3,1591.0,891.0,Object_Land_Solid_Large,42.22102837500279,48.2320146659913,1.0,Object_Land_Solid_Large,8.0,,,,,,,,,,,
encoding,attention,4,3002633,3005650,3002757.0,3002796.0,40.0,40.0,1525.2,1399.7,1591.0,891.0,Object_Land_Solid_Large,48.23214245800045,51.24911449998035,1.0,Object_Land_Solid_Large,8.0,8.0,1.0,1.159436749992892,,,,,,,,
encoding,attention,4,3002633,3005650,3002845.0,3002970.0,126.0,126.0,1539.8,1253.3,1591.0,891.0,Object_Land_Solid_Large,48.23214245800045,51.24911449998035,1.0,Object_Land_Solid_Large,8.0,8.0,1.0,1.159436749992892,,,,,,,,
encoding,attention,4,3002633,3005650,3003190.0,3003255.0,66.0,66.0,1545.3,1383.2,1591.0,891.0,Object_Land_Solid_Large,48.23214245800045,51.24911449998035,1.0,Object_Land_Solid_Large,8.0,8.0,1.0,1.159436749992892,,,,,,,,
encoding,attention,4,3002633,3005650,3003476.0,3003518.0,43.0,43.0,1536.4,1417.0,1591.0,891.0,Object_Land_Solid_Large,48.23214245800045,51.24911449998035,1.0,Object_Land_Solid_Large,8.0,8.0,1.0,1.159436749992892,,,,,,,,
encoding,attention,4,3002633,3005650,3003634.0,3004053.0,420.0,420.0,1567.1,1261.9,1591.0,891.0,Object_Land_Solid_Large,48.23214245800045,51.24911449998035,1.0,Object_Land_Solid_Large,8.0,8.0,1.0,1.159436749992892,,,,,,,,
encoding,attention,4,3002633,3005650,3004628.0,3004656.0,29.0,29.0,1627.1,1466.1,1591.0,891.0,Object_Land_Solid_Large,48.23214245800045,51.24911449998035,1.0,Object_Land_Solid_Large,8.0,8.0,1.0,1.159436749992892,,,,,,,,
encoding,attention,4,3002633,3005650,3004735.0,3004798.0,64.0,64.0,1634.4,1344.0,1591.0,891.0,Object_Land_Solid_Large,48.23214245800045,51.24911449998035,1.0,Object_Land_Solid_Large,8.0,8.0,1.0,1.159436749992892,,,,,,,,
encoding,fixation,5,3005650,3006405,3005873.0,3006733.0,861.0,532.0,1837.9,1160.7,1591.0,891.0,Object_Land_Solid_Large,51.249263915990014,52.00429083299241,1.0,Animal_Sea_Solid_Large,-5.0,,,,,,,,,,,
encoding,image,5,3006405,3007417,3006772.0,3007604.0,833.0,645.0,1822.0,753.8,1920.0,1460.0,Animal_Sea_Solid_Large,52.00439754099352,53.01562583298073,1.0,Animal_Sea_Solid_Large,-5.0,,,,,,,,,,,
encoding,value,5,3007417,3013429,3007619.0,3008030.0,412.0,412.0,1845.8,652.0999999999999,1920.0,1460.0,Animal_Sea_Solid_Large,53.015756290988065,59.027308332995744,1.0,Animal_Sea_Solid_Large,-5.0,,,,,,,,,,,
encoding,value,5,3007417,3013429,3008277.0,3008323.0,47.0,47.0,1826.6,963.5999999999999,1591.0,1269.0,Object_Land_Pattern_Small,53.015756290988065,59.027308332995744,1.0,Animal_Sea_Solid_Large,-5.0,,,,,,,,,,,
encoding,value,5,3007417,3013429,3008350.0,3008380.0,31.0,31.0,1834.0,958.5,1591.0,1269.0,Object_Land_Pattern_Small,53.015756290988065,59.027308332995744,1.0,Animal_Sea_Solid_Large,-5.0,,,,,,,,,,,
encoding,value,5,3007417,3013429,3008402.0,3008753.0,352.0,352.0,1841.6,825.9000000000001,1920.0,1460.0,Animal_Sea_Solid_Large,53.015756290988065,59.027308332995744,1.0,Animal_Sea_Solid_Large,-5.0,,,,,,,,,,,
encoding,value,5,3007417,3013429,3009291.0,3009334.0,44.0,44.0,2041.7,1152.2,2249.0,891.0,Object_Sea_Pattern_Large,53.015756290988065,59.027308332995744,1.0,Animal_Sea_Solid_Large,-5.0,,,,,,,,,,,
encoding,value,5,3007417,3013429,3009389.0,3009626.0,238.0,238.0,2034.9,1070.6,2249.0,1269.0,Animal_Sea_Pattern_Small,53.015756290988065,59.027308332995744,1.0,Animal_Sea_Solid_Large,-5.0,,,,,,,,,,,
encoding,value,5,3007417,3013429,3009662.0,3013855.0,4194.0,3767.0,1830.6,751.0999999999999,1920.0,1460.0,Animal_Sea_Solid_Large,53.015756290988065,59.027308332995744,1.0,Animal_Sea_Solid_Large,-5.0,,,,,,,,,,,
encoding,attention,5,3013429,3016502,3014095.0,3014159.0,65.0,65.0,1798.7,902.5,1591.0,1269.0,Object_Land_Pattern_Small,59.027515833004145,62.10026487498544,1.0,Animal_Sea_Solid_Large,-5.0,-5.0,1.0,1.7813516250171233,,,,,,,,
encoding,attention,5,3013429,3016502,3014178.0,3014243.0,66.0,66.0,1799.6,865.5,1920.0,1460.0,Animal_Sea_Solid_Large,59.027515833004145,62.10026487498544,1.0,Animal_Sea_Solid_Large,-5.0,-5.0,1.0,1.7813516250171233,,,,,,,,
encoding,attention,5,3013429,3016502,3014303.0,3014454.0,152.0,152.0,1888.7,634.5,1920.0,1460.0,Animal_Sea_Solid_Large,59.027515833004145,62.10026487498544,1.0,Animal_Sea_Solid_Large,-5.0,-5.0,1.0,1.7813516250171233,,,,,,,,
encoding,attention,5,3013429,3016502,3014742.0,3014824.0,83.0,83.0,1830.5,863.0999999999999,1920.0,1460.0,Animal_Sea_Solid_Large,59.027515833004145,62.10026487498544,1.0,Animal_Sea_Solid_Large,-5.0,-5.0,1.0,1.7813516250171233,,,,,,,,
encoding,attention,5,3013429,3016502,3014845.0,3014887.0,43.0,43.0,1842.9,819.3,1920.0,1460.0,Animal_Sea_Solid_Large,59.027515833004145,62.10026487498544,1.0,Animal_Sea_Solid_Large,-5.0,-5.0,1.0,1.7813516250171233,,,,,,,,
encoding,attention,5,3013429,3016502,3014920.0,3016448.0,1529.0,1529.0,1851.1,746.0999999999999,1920.0,1460.0,Animal_Sea_Solid_Large,59.027515833004145,62.10026487498544,1.0,Animal_Sea_Solid_Large,-5.0,-5.0,1.0,1.7813516250171233,,,,,,,,
encoding,fixation,6,3016502,3017257,3016724.0,3016769.0,46.0,46.0,1855.6,1041.9,1591.0,1269.0,Object_Land_Pattern_Small,62.10040416600532,62.8554782079882,1.0,Object_Land_Pattern_Small,2.0,,,,,,,,,,,
encoding,image,6,3017257,3018268,3017522.0,3017591.0,70.0,70.0,2113.4,1320.1,2249.0,891.0,Object_Sea_Pattern_Large,62.85559849999845,63.86695487500401,1.0,Object_Land_Pattern_Small,2.0,,,,,,,,,,,
encoding,image,6,3017257,3018268,3017639.0,3017767.0,129.0,129.0,1654.9,1040.2,1591.0,1269.0,Object_Land_Pattern_Small,62.85559849999845,63.86695487500401,1.0,Object_Land_Pattern_Small,2.0,,,,,,,,,,,
encoding,image,6,3017257,3018268,3017789.0,3018435.0,647.0,479.0,1548.3,935.5,1591.0,1269.0,Object_Land_Pattern_Small,62.85559849999845,63.86695487500401,1.0,Object_Land_Pattern_Small,2.0,,,,,,,,,,,
encoding,value,6,3018269,3024281,3018451.0,3018773.0,323.0,323.0,1537.2,827.5,1591.0,1269.0,Object_Land_Pattern_Small,63.867146332981065,69.8786528329947,1.0,Object_Land_Pattern_Small,2.0,,,,,,,,,,,
encoding,value,6,3018269,3024281,3018800.0,3018928.0,129.0,129.0,1830.5,1053.0,1591.0,1269.0,Object_Land_Pattern_Small,63.867146332981065,69.8786528329947,1.0,Object_Land_Pattern_Small,2.0,,,,,,,,,,,
encoding,value,6,3018269,3024281,3019243.0,3019267.0,25.0,25.0,1789.4,1286.5,1591.0,891.0,Object_Land_Solid_Large,63.867146332981065,69.8786528329947,1.0,Object_Land_Pattern_Small,2.0,,,,,,,,,,,
encoding,value,6,3018269,3024281,3019274.0,3019294.0,21.0,21.0,1787.8,1342.2,1920.0,700.0,Animal_Land_Solid_Small,63.867146332981065,69.8786528329947,1.0,Object_Land_Pattern_Small,2.0,,,,,,,,,,,
encoding,value,6,3018269,3024281,3019608.0,3019648.0,41.0,41.0,1970.2,1419.8,1920.0,700.0,Animal_Land_Solid_Small,63.867146332981065,69.8786528329947,1.0,Object_Land_Pattern_Small,2.0,,,,,,,,,,,
encoding,value,6,3018269,3024281,3019698.0,3019896.0,199.0,199.0,1647.3,1066.4,1591.0,1269.0,Object_Land_Pattern_Small,63.867146332981065,69.8786528329947,1.0,Object_Land_Pattern_Small,2.0,,,,,,,,,,,
encoding,value,6,3018269,3024281,3019914.0,3020196.0,283.0,283.0,1548.1,943.0,1591.0,1269.0,Object_Land_Pattern_Small,63.867146332981065,69.8786528329947,1.0,Object_Land_Pattern_Small,2.0,,,,,,,,,,,
encoding,value,6,3018269,3024281,3020207.0,3020944.0,738.0,738.0,1511.6,874.5,1591.0,1269.0,Object_Land_Pattern_Small,63.867146332981065,69.8786528329947,1.0,Object_Land_Pattern_Small,2.0,,,,,,,,,,,
encoding,value,6,3018269,3024281,3020984.0,3021357.0,374.0,374.0,1791.2,1078.0,1591.0,1269.0,Object_Land_Pattern_Small,63.867146332981065,69.8786528329947,1.0,Object_Land_Pattern_Small,2.0,,,,,,,,,,,
encoding,value,6,3018269,3024281,3021745.0,3022057.0,313.0,313.0,1557.0,936.5999999999999,1591.0,1269.0,Object_Land_Pattern_Small,63.867146332981065,69.8786528329947,1.0,Object_Land_Pattern_Small,2.0,,,,,,,,,,,
encoding,value,6,3018269,3024281,3022065.0,3024594.0,2530.0,2216.0,1516.3,894.5999999999999,1591.0,1269.0,Object_Land_Pattern_Small,63.867146332981065,69.8786528329947,1.0,Object_Land_Pattern_Small,2.0,,,,,,,,,,,
encoding,attention,6,3024281,3027298,3024609.0,3024783.0,175.0,175.0,1559.0,824.8,1591.0,1269.0,Object_Land_Pattern_Small,69.87880883298931,72.89573620798183,1.0,Object_Land_Pattern_Small,2.0,2.0,1.0,1.690164708008524,,,,,,,,
encoding,attention,6,3024281,3027298,3025301.0,3025347.0,47.0,47.0,1508.4,1040.4,1591.0,1269.0,Object_Land_Pattern_Small,69.87880883298931,72.89573620798183,1.0,Object_Land_Pattern_Small,2.0,2.0,1.0,1.690164708008524,,,,,,,,
encoding,attention,6,3024281,3027298,3025453.0,3025677.0,225.0,225.0,1509.8,924.0,1591.0,1269.0,Object_Land_Pattern_Small,69.87880883298931,72.89573620798183,1.0,Object_Land_Pattern_Small,2.0,2.0,1.0,1.690164708008524,,,,,,,,
encoding,attention,6,3024281,3027298,3025696.0,3026657.0,962.0,962.0,1570.5,830.0999999999999,1591.0,1269.0,Object_Land_Pattern_Small,69.87880883298931,72.89573620798183,1.0,Object_Land_Pattern_Small,2.0,2.0,1.0,1.690164708008524,,,,,,,,
encoding,fixation,7,3478330,3478837,3478580.0,3478765.0,186.0,186.0,1866.8,1125.7,1591.0,891.0,Object_Land_Solid_Large,10.889481582998997,11.396404500002973,2.0,Object_Sea_Solid_Small,9.0,,,,,,,,,,,
encoding,image,7,3478837,3479847,3479017.0,3479084.0,68.0,68.0,1850.1,1177.3,1591.0,891.0,Object_Land_Solid_Large,11.396531791018788,12.406767916021636,2.0,Object_Sea_Solid_Small,9.0,,,,,,,,,,,
encoding,image,7,3478837,3479847,3479105.0,3479153.0,49.0,49.0,1874.0,1332.3,1920.0,700.0,Object_Sea_Solid_Small,11.396531791018788,12.406767916021636,2.0,Object_Sea_Solid_Small,9.0,,,,,,,,,,,
encoding,image,7,3478837,3479847,3479177.0,3480028.0,852.0,670.0,1893.0,1488.4,1920.0,700.0,Object_Sea_Solid_Small,11.396531791018788,12.406767916021636,2.0,Object_Sea_Solid_Small,9.0,,,,,,,,,,,
encoding,value,7,3479847,3485859,3480048.0,3480351.0,304.0,304.0,1875.3,1344.8,1920.0,700.0,Object_Sea_Solid_Small,12.40688616601983,18.41870891599683,2.0,Object_Sea_Solid_Small,9.0,,,,,,,,,,,
encoding,value,7,3479847,3485859,3480597.0,3480621.0,25.0,25.0,1871.4,1569.2,1920.0,700.0,Object_Sea_Solid_Small,12.40688616601983,18.41870891599683,2.0,Object_Sea_Solid_Small,9.0,,,,,,,,,,,
encoding,value,7,3479847,3485859,3480655.0,3481260.0,606.0,606.0,1877.7,1443.2,1920.0,700.0,Object_Sea_Solid_Small,12.40688616601983,18.41870891599683,2.0,Object_Sea_Solid_Small,9.0,,,,,,,,,,,
encoding,value,7,3479847,3485859,3481275.0,3481850.0,576.0,576.0,1885.1,1364.6,1920.0,700.0,Object_Sea_Solid_Small,12.40688616601983,18.41870891599683,2.0,Object_Sea_Solid_Small,9.0,,,,,,,,,,,
encoding,value,7,3479847,3485859,3482121.0,3482286.0,166.0,166.0,1867.5,1472.0,1920.0,700.0,Object_Sea_Solid_Small,12.40688616601983,18.41870891599683,2.0,Object_Sea_Solid_Small,9.0,,,,,,,,,,,
encoding,value,7,3479847,3485859,3482309.0,3483176.0,868.0,868.0,1879.0,1353.3,1920.0,700.0,Object_Sea_Solid_Small,12.40688616601983,18.41870891599683,2.0,Object_Sea_Solid_Small,9.0,,,,,,,,,,,
encoding,value,7,3479847,3485859,3483397.0,3483432.0,36.0,36.0,1871.8,1460.2,1920.0,700.0,Object_Sea_Solid_Small,12.40688616601983,18.41870891599683,2.0,Object_Sea_Solid_Small,9.0,,,,,,,,,,,
encoding,value,7,3479847,3485859,3483692.0,3484324.0,633.0,633.0,1896.3,1410.0,1920.0,700.0,Object_Sea_Solid_Small,12.40688616601983,18.41870891599683,2.0,Object_Sea_Solid_Small,9.0,,,,,,,,,,,
encoding,value,7,3479847,3485859,3484335.0,3484805.0,471.0,471.0,1884.6,1479.6,1920.0,700.0,Object_Sea_Solid_Small,12.40688616601983,18.41870891599683,2.0,Object_Sea_Solid_Small,9.0,,,,,,,,,,,
encoding,value,7,3479847,3485859,3484826.0,3485308.0,483.0,483.0,1903.3,1322.8,1920.0,700.0,Object_Sea_Solid_Small,12.40688616601983,18.41870891599683,2.0,Object_Sea_Solid_Small,9.0,,,,,,,,,,,
encoding,value,7,3479847,3485859,3485316.0,3488059.0,2744.0,543.0,1880.8,1344.9,1920.0,700.0,Object_Sea_Solid_Small,12.40688616601983,18.41870891599683,2.0,Object_Sea_Solid_Small,9.0,,,,,,,,,,,
encoding,attention,7,3485859,3488877,3488085.0,3488345.0,261.0,261.0,1850.5,1156.2,1591.0,891.0,Object_Land_Solid_Large,18.418838790996233,21.436508333019447,2.0,Object_Sea_Solid_Small,9.0,9.0,1.0,0.9058670839876868,,,,,,,,
encoding,fixation,8,3488877,3490383,3489979.0,3490015.0,37.0,37.0,1858.1,1206.6,1920.0,700.0,Object_Sea_Solid_Small,21.436668041016674,22.941759250010364,2.0,Animal_Sea_Pattern_Large,-3.0,,,,,,,,,,,
encoding,fixation,8,3488877,3490383,3490059.0,3490655.0,597.0,324.0,1855.5,1093.8,1920.0,1080.0,fixation,21.436668041016674,22.941759250010364,2.0,Animal_Sea_Pattern_Large,-3.0,,,,,,,,,,,
encoding,image,8,3490383,3491393,3490690.0,3490849.0,160.0,160.0,1817.9,739.0999999999999,1920.0,1460.0,Animal_Sea_Pattern_Large,22.941873625008157,23.95238062500721,2.0,Animal_Sea_Pattern_Large,-3.0,,,,,,,,,,,
encoding,image,8,3490383,3491393,3490858.0,3491551.0,694.0,535.0,1817.7,672.9000000000001,1920.0,1460.0,Animal_Sea_Pattern_Large,22.941873625008157,23.95238062500721,2.0,Animal_Sea_Pattern_Large,-3.0,,,,,,,,,,,
encoding,value,8,3491393,3497406,3491566.0,3491868.0,303.0,303.0,1857.0,571.2,1920.0,1460.0,Animal_Sea_Pattern_Large,23.95249579101801,29.964797249995172,2.0,Animal_Sea_Pattern_Large,-3.0,,,,,,,,,,,
encoding,value,8,3491393,3497406,3492160.0,3492196.0,37.0,37.0,1764.0,849.0,1591.0,1269.0,Object_Land_Pattern_Small,23.95249579101801,29.964797249995172,2.0,Animal_Sea_Pattern_Large,-3.0,,,,,,,,,,,
encoding,value,8,3491393,3497406,3492534.0,3492570.0,37.0,37.0,1773.1,840.8,1591.0,1269.0,Object_Land_Pattern_Small,23.95249579101801,29.964797249995172,2.0,Animal_Sea_Pattern_Large,-3.0,,,,,,,,,,,
encoding,value,8,3491393,3497406,3492835.0,3492914.0,80.0,80.0,1772.6,889.0,1591.0,1269.0,Object_Land_Pattern_Small,23.95249579101801,29.964797249995172,2.0,Animal_Sea_Pattern_Large,-3.0,,,,,,,,,,,
encoding,value,8,3491393,3497406,3492966.0,3494653.0,1688.0,1688.0,1790.7,760.0,1920.0,1460.0,Animal_Sea_Pattern_Large,23.95249579101801,29.964797249995172,2.0,Animal_Sea_Pattern_Large,-3.0,,,,,,,,,,,
encoding,value,8,3491393,3497406,3494914.0,3494949.0,36.0,36.0,1752.7,776.5999999999999,1920.0,1460.0,Animal_Sea_Pattern_Large,23.95249579101801,29.964797249995172,2.0,Animal_Sea_Pattern_Large,-3.0,,,,,,,,,,,
encoding,value,8,3491393,3497406,3495173.0,3495200.0,28.0,28.0,1720.6,788.2,1591.0,1269.0,Object_Land_Pattern_Small,23.95249579101801,29.964797249995172,2.0,Animal_Sea_Pattern_Large,-3.0,,,,,,,,,,,
encoding,value,8,3491393,3497406,3495219.0,3495291.0,73.0,73.0,1762.0,924.3,1591.0,1269.0,Object_Land_Pattern_Small,23.95249579101801,29.964797249995172,2.0,Animal_Sea_Pattern_Large,-3.0,,,,,,,,,,,
encoding,value,8,3491393,3497406,3495318.0,3495383.0,66.0,66.0,1769.1,873.5999999999999,1591.0,1269.0,Object_Land_Pattern_Small,23.95249579101801,29.964797249995172,2.0,Animal_Sea_Pattern_Large,-3.0,,,,,,,,,,,
encoding,value,8,3491393,3497406,3495412.0,3495900.0,489.0,489.0,1774.1,782.7,1920.0,1460.0,Animal_Sea_Pattern_Large,23.95249579101801,29.964797249995172,2.0,Animal_Sea_Pattern_Large,-3.0,,,,,,,,,,,
encoding,value,8,3491393,3497406,3495924.0,3496115.0,192.0,192.0,1862.1,832.2,1920.0,1460.0,Animal_Sea_Pattern_Large,23.95249579101801,29.964797249995172,2.0,Animal_Sea_Pattern_Large,-3.0,,,,,,,,,,,
encoding,value,8,3491393,3497406,3496126.0,3497596.0,1471.0,1280.0,1790.6,799.9000000000001,1920.0,1460.0,Animal_Sea_Pattern_Large,23.95249579101801,29.964797249995172,2.0,Animal_Sea_Pattern_Large,-3.0,,,,,,,,,,,
encoding,attention,8,3497406,3500426,3497608.0,3497822.0,215.0,215.0,1782.6,675.2,1920.0,1460.0,Animal_Sea_Pattern_Large,29.964907540997956,32.98458600000595,2.0,Animal_Sea_Pattern_Large,-3.0,-3.0,1.0,0.9978501249861438,,,,,,,,
encoding,attention,8,3497406,3500426,3497833.0,3497974.0,142.0,142.0,1867.1,659.2,1920.0,1460.0,Animal_Sea_Pattern_Large,29.964907540997956,32.98458600000595,2.0,Animal_Sea_Pattern_Large,-3.0,-3.0,1.0,0.9978501249861438,,,,,,,,
encoding,attention,8,3497406,3500426,3498221.0,3498283.0,63.0,63.0,1761.0,597.2,1920.0,1460.0,Animal_Sea_Pattern_Large,29.964907540997956,32.98458600000595,2.0,Animal_Sea_Pattern_Large,-3.0,-3.0,1.0,0.9978501249861438,,,,,,,,
encoding,attention,8,3497406,3500426,3498292.0,3498331.0,40.0,40.0,1764.8,582.0,1920.0,1460.0,Animal_Sea_Pattern_Large,29.964907540997956,32.98458600000595,2.0,Animal_Sea_Pattern_Large,-3.0,-3.0,1.0,0.9978501249861438,,,,,,,,
encoding,attention,8,3497406,3500426,3498398.0,3498496.0,99.0,99.0,1812.5,889.4000000000001,1920.0,1460.0,Animal_Sea_Pattern_Large,29.964907540997956,32.98458600000595,2.0,Animal_Sea_Pattern_Large,-3.0,-3.0,1.0,0.9978501249861438,,,,,,,,
encoding,attention,8,3497406,3500426,3498526.0,3498602.0,77.0,77.0,1825.7,829.4000000000001,1920.0,1460.0,Animal_Sea_Pattern_Large,29.964907540997956,32.98458600000595,2.0,Animal_Sea_Pattern_Large,-3.0,-3.0,1.0,0.9978501249861438,,,,,,,,
encoding,attention,8,3497406,3500426,3499539.0,3499577.0,39.0,39.0,1811.9,1127.8,1591.0,891.0,Object_Land_Solid_Large,29.964907540997956,32.98458600000595,2.0,Animal_Sea_Pattern_Large,-3.0,-3.0,1.0,0.9978501249861438,,,,,,,,
encoding,attention,8,3497406,3500426,3499596.0,3499690.0,95.0,95.0,1825.1,1082.3,1591.0,891.0,Object_Land_Solid_Large,29.964907540997956,32.98458600000595,2.0,Animal_Sea_Pattern_Large,-3.0,-3.0,1.0,0.9978501249861438,,,,,,,,
encoding,attention,8,3497406,3500426,3499702.0,3499739.0,38.0,38.0,1824.1,1054.0,1591.0,1269.0,Object_Land_Pattern_Small,29.964907540997956,32.98458600000595,2.0,Animal_Sea_Pattern_Large,-3.0,-3.0,1.0,0.9978501249861438,,,,,,,,
encoding,attention,8,3497406,3500426,3499757.0,3499813.0,57.0,57.0,1818.5,999.4000000000001,1591.0,1269.0,Object_Land_Pattern_Small,29.964907540997956,32.98458600000595,2.0,Animal_Sea_Pattern_Large,-3.0,-3.0,1.0,0.9978501249861438,,,,,,,,
encoding,attention,8,3497406,3500426,3499863.0,3499886.0,24.0,24.0,2193.8,1340.8,2249.0,891.0,Animal_Sea_Solid_Small,29.964907540997956,32.98458600000595,2.0,Animal_Sea_Pattern_Large,-3.0,-3.0,1.0,0.9978501249861438,,,,,,,,
encoding,attention,8,3497406,3500426,3499904.0,3500238.0,335.0,335.0,2188.4,1246.7,2249.0,891.0,Animal_Sea_Solid_Small,29.964907540997956,32.98458600000595,2.0,Animal_Sea_Pattern_Large,-3.0,-3.0,1.0,0.9978501249861438,,,,,,,,
encoding,fixation,9,3500426,3501431,3500504.0,3500776.0,273.0,273.0,1897.7,1148.8,1920.0,700.0,Object_Sea_Solid_Small,32.98472383301123,33.98976600001333,2.0,Animal_Land_Pattern_Large,9.0,,,,,,,,,,,
encoding,fixation,9,3500426,3501431,3501401.0,3501434.0,34.0,30.0,1861.1,1322.7,1920.0,700.0,Object_Sea_Solid_Small,32.98472383301123,33.98976600001333,2.0,Animal_Land_Pattern_Large,9.0,,,,,,,,,,,
encoding,image,9,3501431,3502443,3501451.0,3501514.0,64.0,64.0,1868.6,1285.7,1920.0,700.0,Object_Sea_Solid_Small,33.98987108300207,35.00146795800538,2.0,Animal_Land_Pattern_Large,9.0,,,,,,,,,,,
encoding,image,9,3501431,3502443,3501533.0,3501697.0,165.0,165.0,1861.2,1212.0,1920.0,700.0,Object_Sea_Solid_Small,33.98987108300207,35.00146795800538,2.0,Animal_Land_Pattern_Large,9.0,,,,,,,,,,,
encoding,image,9,3501431,3502443,3501725.0,3502550.0,826.0,718.0,2116.3,955.2,2249.0,1269.0,Animal_Land_Pattern_Large,33.98987108300207,35.00146795800538,2.0,Animal_Land_Pattern_Large,9.0,,,,,,,,,,,
encoding,value,9,3502443,3508454,3502574.0,3503142.0,569.0,569.0,2153.9,801.4000000000001,2249.0,1269.0,Animal_Land_Pattern_Large,35.00157954101451,41.01280162500916,2.0,Animal_Land_Pattern_Large,9.0,,,,,,,,,,,
encoding,value,9,3502443,3508454,3503367.0,3503446.0,80.0,80.0,2133.8,956.5999999999999,2249.0,1269.0,Animal_Land_Pattern_Large,35.00157954101451,41.01280162500916,2.0,Animal_Land_Pattern_Large,9.0,,,,,,,,,,,
encoding,value,9,3502443,3508454,3503455.0,3503483.0,29.0,29.0,2121.5,913.4000000000001,2249.0,1269.0,Animal_Land_Pattern_Large,35.00157954101451,41.01280162500916,2.0,Animal_Land_Pattern_Large,9.0,,,,,,,,,,,
encoding,value,9,3502443,3508454,3503710.0,3503739.0,30.0,30.0,2107.7,1050.4,2249.0,1269.0,Animal_Land_Pattern_Large,35.00157954101451,41.01280162500916,2.0,Animal_Land_Pattern_Large,9.0,,,,,,,,,,,
encoding,value,9,3502443,3508454,3503788.0,3505625.0,1838.0,1838.0,2088.4,970.4000000000001,2249.0,1269.0,Animal_Land_Pattern_Large,35.00157954101451,41.01280162500916,2.0,Animal_Land_Pattern_Large,9.0,,,,,,,,,,,
encoding,value,9,3502443,3508454,3505643.0,3506390.0,748.0,748.0,2121.4,908.5,2249.0,1269.0,Animal_Land_Pattern_Large,35.00157954101451,41.01280162500916,2.0,Animal_Land_Pattern_Large,9.0,,,,,,,,,,,
encoding,value,9,3502443,3508454,3506408.0,3508669.0,2262.0,2046.0,2101.6,962.0999999999999,2249.0,1269.0,Animal_Land_Pattern_Large,35.00157954101451,41.01280162500916,2.0,Animal_Land_Pattern_Large,9.0,,,,,,,,,,,
encoding,attention,9,3508454,3511473,3508686.0,3508834.0,149.0,149.0,2144.1,844.0,2249.0,1269.0,Animal_Land_Pattern_Large,41.0129308750038,44.030866790999426,2.0,Animal_Land_Pattern_Large,9.0,9.0,1.0,1.358822708018124,,,,,,,,
encoding,attention,9,3508454,3511473,3509095.0,3509165.0,71.0,71.0,2095.6,917.5,2249.0,1269.0,Animal_Land_Pattern_Large,41.0129308750038,44.030866790999426,2.0,Animal_Land_Pattern_Large,9.0,9.0,1.0,1.358822708018124,,,,,,,,
encoding,attention,9,3508454,3511473,3509171.0,3510551.0,1381.0,1381.0,2119.3,897.8,2249.0,1269.0,Animal_Land_Pattern_Large,41.0129308750038,44.030866790999426,2.0,Animal_Land_Pattern_Large,9.0,9.0,1.0,1.358822708018124,,,,,,,,
encoding,attention,9,3508454,3511473,3510823.0,3510856.0,34.0,34.0,2068.3,1092.8,2249.0,891.0,Animal_Sea_Solid_Small,41.0129308750038,44.030866790999426,2.0,Animal_Land_Pattern_Large,9.0,9.0,1.0,1.358822708018124,,,,,,,,
encoding,attention,9,3508454,3511473,3510891.0,3510940.0,50.0,50.0,2056.9,1008.0,2249.0,1269.0,Animal_Land_Pattern_Large,41.0129308750038,44.030866790999426,2.0,Animal_Land_Pattern_Large,9.0,9.0,1.0,1.358822708018124,,,,,,,,
encoding,attention,9,3508454,3511473,3511239.0,3511310.0,72.0,72.0,2094.4,1045.7,2249.0,1269.0,Animal_Land_Pattern_Large,41.0129308750038,44.030866790999426,2.0,Animal_Land_Pattern_Large,9.0,9.0,1.0,1.358822708018124,,,,,,,,
encoding,fixation,10,3511473,3512728,3511794.0,3512959.0,1166.0,934.0,1854.6,1149.6,1591.0,891.0,Object_Land_Solid_Large,44.0310222080152,45.285967375006294,2.0,Animal_Sea_Solid_Small,-1.0,,,,,,,,,,,
encoding,image,10,3512728,3513739,3512993.0,3513397.0,405.0,405.0,2203.7,1290.8,2249.0,891.0,Animal_Sea_Solid_Small,45.28607312499662,46.29706216600607,2.0,Animal_Sea_Solid_Small,-1.0,,,,,,,,,,,
encoding,image,10,3512728,3513739,3513415.0,3513973.0,559.0,324.0,2165.6,1202.6,2249.0,891.0,Animal_Sea_Solid_Small,45.28607312499662,46.29706216600607,2.0,Animal_Sea_Solid_Small,-1.0,,,,,,,,,,,
encoding,value,10,3513739,3519751,3513982.0,3514241.0,260.0,260.0,2187.1,1231.2,2249.0,891.0,Animal_Sea_Solid_Small,46.29717720800545,52.308739208005136,2.0,Animal_Sea_Solid_Small,-1.0,,,,,,,,,,,
encoding,value,10,3513739,3519751,3514480.0,3514500.0,21.0,21.0,2194.9,1293.7,2249.0,891.0,Animal_Sea_Solid_Small,46.29717720800545,52.308739208005136,2.0,Animal_Sea_Solid_Small,-1.0,,,,,,,,,,,
encoding,value,10,3513739,3519751,3514524.0,3514602.0,79.0,79.0,2177.5,1215.2,2249.0,891.0,Animal_Sea_Solid_Small,46.29717720800545,52.308739208005136,2.0,Animal_Sea_Solid_Small,-1.0,,,,,,,,,,,
encoding,value,10,3513739,3519751,3514873.0,3514914.0,42.0,42.0,2188.5,1311.3,2249.0,891.0,Animal_Sea_Solid_Small,46.29717720800545,52.308739208005136,2.0,Animal_Sea_Solid_Small,-1.0,,,,,,,,,,,
encoding,value,10,3513739,3519751,3515139.0,3515162.0,24.0,24.0,2199.8,1374.8,2249.0,891.0,Animal_Sea_Solid_Small,46.29717720800545,52.308739208005136,2.0,Animal_Sea_Solid_Small,-1.0,,,,,,,,,,,
encoding,value,10,3513739,3519751,3515189.0,3515755.0,567.0,567.0,2200.6,1311.2,2249.0,891.0,Animal_Sea_Solid_Small,46.29717720800545,52.308739208005136,2.0,Animal_Sea_Solid_Small,-1.0,,,,,,,,,,,
encoding,value,10,3513739,3519751,3515772.0,3516001.0,230.0,230.0,2095.6,1226.1,2249.0,891.0,Animal_Sea_Solid_Small,46.29717720800545,52.308739208005136,2.0,Animal_Sea_Solid_Small,-1.0,,,,,,,,,,,
encoding,value,10,3513739,3519751,3516015.0,3516529.0,515.0,515.0,2214.4,1282.3,2249.0,891.0,Animal_Sea_Solid_Small,46.29717720800545,52.308739208005136,2.0,Animal_Sea_Solid_Small,-1.0,,,,,,,,,,,
encoding,value,10,3513739,3519751,3516542.0,3517252.0,711.0,711.0,2142.1,1228.3,2249.0,891.0,Animal_Sea_Solid_Small,46.29717720800545,52.308739208005136,2.0,Animal_Sea_Solid_Small,-1.0,,,,,,,,,,,
encoding,value,10,3513739,3519751,3517263.0,3517812.0,550.0,550.0,2195.3,1202.6,2249.0,891.0,Animal_Sea_Solid_Small,46.29717720800545,52.308739208005136,2.0,Animal_Sea_Solid_Small,-1.0,,,,,,,,,,,
encoding,value,10,3513739,3519751,3518046.0,3518092.0,47.0,47.0,2198.7,1312.6,2249.0,891.0,Animal_Sea_Solid_Small,46.29717720800545,52.308739208005136,2.0,Animal_Sea_Solid_Small,-1.0,,,,,,,,,,,
encoding,value,10,3513739,3519751,3518115.0,3518822.0,708.0,708.0,2191.5,1219.2,2249.0,891.0,Animal_Sea_Solid_Small,46.29717720800545,52.308739208005136,2.0,Animal_Sea_Solid_Small,-1.0,,,,,,,,,,,
encoding,value,10,3513739,3519751,3518830.0,3520062.0,1233.0,921.0,2195.8,1274.9,2249.0,891.0,Animal_Sea_Solid_Small,46.29717720800545,52.308739208005136,2.0,Animal_Sea_Solid_Small,-1.0,,,,,,,,,,,
encoding,attention,10,3519751,3522768,3520072.0,3520312.0,241.0,241.0,2159.7,1206.8,2249.0,891.0,Animal_Sea_Solid_Small,52.30885758300428,55.32596633301,2.0,Animal_Sea_Solid_Small,-1.0,-1.0,1.0,1.3368587080040015,,,,,,,,
encoding,attention,10,3519751,3522768,3520789.0,3520825.0,37.0,37.0,2156.1,1321.5,2249.0,891.0,Animal_Sea_Solid_Small,52.30885758300428,55.32596633301,2.0,Animal_Sea_Solid_Small,-1.0,-1.0,1.0,1.3368587080040015,,,,,,,,
encoding,attention,10,3519751,3522768,3520855.0,3521392.0,538.0,538.0,2144.8,1240.8,2249.0,891.0,Animal_Sea_Solid_Small,52.30885758300428,55.32596633301,2.0,Animal_Sea_Solid_Small,-1.0,-1.0,1.0,1.3368587080040015,,,,,,,,
encoding,attention,10,3519751,3522768,3521411.0,3521867.0,457.0,457.0,1967.6,1202.4,1920.0,700.0,Object_Sea_Solid_Small,52.30885758300428,55.32596633301,2.0,Animal_Sea_Solid_Small,-1.0,-1.0,1.0,1.3368587080040015,,,,,,,,
encoding,attention,10,3519751,3522768,3521881.0,3522055.0,175.0,175.0,2092.3,1183.3,2249.0,891.0,Animal_Sea_Solid_Small,52.30885758300428,55.32596633301,2.0,Animal_Sea_Solid_Small,-1.0,-1.0,1.0,1.3368587080040015,,,,,,,,
encoding,attention,10,3519751,3522768,3522062.0,3522374.0,313.0,313.0,2138.2,1181.4,2249.0,891.0,Animal_Sea_Solid_Small,52.30885758300428,55.32596633301,2.0,Animal_Sea_Solid_Small,-1.0,-1.0,1.0,1.3368587080040015,,,,,,,,
encoding,attention,10,3519751,3522768,3522397.0,3522695.0,299.0,299.0,1955.6,1100.3,1920.0,1080.0,fixation,52.30885758300428,55.32596633301,2.0,Animal_Sea_Solid_Small,-1.0,-1.0,1.0,1.3368587080040015,,,,,,,,
encoding,fixation,11,3522768,3523274,,,,,,,,,none,55.3261421660136,55.83150312499493,2.0,Object_Land_Pattern_Small,-9.0,,,,,,,,,,,
encoding,image,11,3523274,3524284,3523343.0,3524198.0,856.0,856.0,1876.6,1076.6,1920.0,1080.0,fixation,55.83160829101689,56.84171354101272,2.0,Object_Land_Pattern_Small,-9.0,,,,,,,,,,,
encoding,image,11,3523274,3524284,3524207.0,3524496.0,290.0,77.0,1809.7,1051.7,1591.0,1269.0,Object_Land_Pattern_Small,55.83160829101689,56.84171354101272,2.0,Object_Land_Pattern_Small,-9.0,,,,,,,,,,,
encoding,value,11,3524284,3530296,3524526.0,3525036.0,511.0,511.0,1520.6,796.9000000000001,1591.0,1269.0,Object_Land_Pattern_Small,56.841827166004805,62.853207791020395,2.0,Object_Land_Pattern_Small,-9.0,,,,,,,,,,,
encoding,value,11,3524284,3530296,3525277.0,3525325.0,49.0,49.0,1522.3,934.5999999999999,1591.0,1269.0,Object_Land_Pattern_Small,56.841827166004805,62.853207791020395,2.0,Object_Land_Pattern_Small,-9.0,,,,,,,,,,,
encoding,value,11,3524284,3530296,3525348.0,3525828.0,481.0,481.0,1544.7,849.0999999999999,1591.0,1269.0,Object_Land_Pattern_Small,56.841827166004805,62.853207791020395,2.0,Object_Land_Pattern_Small,-9.0,,,,,,,,,,,
encoding,value,11,3524284,3530296,3525840.0,3527435.0,1596.0,1596.0,1507.2,771.5999999999999,1591.0,1269.0,Object_Land_Pattern_Small,56.841827166004805,62.853207791020395,2.0,Object_Land_Pattern_Small,-9.0,,,,,,,,,,,
encoding,value,11,3524284,3530296,3527962.0,3528057.0,96.0,96.0,1570.7,984.3,1591.0,1269.0,Object_Land_Pattern_Small,56.841827166004805,62.853207791020395,2.0,Object_Land_Pattern_Small,-9.0,,,,,,,,,,,
encoding,value,11,3524284,3530296,3528105.0,3528135.0,31.0,31.0,1850.3,1156.8,1591.0,891.0,Object_Land_Solid_Large,56.841827166004805,62.853207791020395,2.0,Object_Land_Pattern_Small,-9.0,,,,,,,,,,,
encoding,value,11,3524284,3530296,3528163.0,3528856.0,694.0,694.0,1859.4,1058.9,1920.0,1080.0,fixation,56.841827166004805,62.853207791020395,2.0,Object_Land_Pattern_Small,-9.0,,,,,,,,,,,
encoding,value,11,3524284,3530296,3528880.0,3529047.0,168.0,168.0,1623.1,922.5,1591.0,1269.0,Object_Land_Pattern_Small,56.841827166004805,62.853207791020395,2.0,Object_Land_Pattern_Small,-9.0,,,,,,,,,,,
encoding,value,11,3524284,3530296,3529067.0,3530668.0,1602.0,1229.0,1529.9,788.5,1591.0,1269.0,Object_Land_Pattern_Small,56.841827166004805,62.853207791020395,2.0,Object_Land_Pattern_Small,-9.0,,,,,,,,,,,
encoding,attention,11,3530296,3533314,3530966.0,3531059.0,94.0,94.0,1473.5,915.5999999999999,1591.0,1269.0,Object_Land_Pattern_Small,62.853322375012795,65.87092395802028,2.0,Object_Land_Pattern_Small,-9.0,-9.0,1.0,1.031811375025427,,,,,,,,
encoding,attention,11,3530296,3533314,3531078.0,3531651.0,574.0,574.0,1502.0,807.0999999999999,1591.0,1269.0,Object_Land_Pattern_Small,62.853322375012795,65.87092395802028,2.0,Object_Land_Pattern_Small,-9.0,-9.0,1.0,1.031811375025427,,,,,,,,
encoding,attention,11,3530296,3533314,3531702.0,3532006.0,305.0,305.0,1825.6,1137.2,1591.0,891.0,Object_Land_Solid_Large,62.853322375012795,65.87092395802028,2.0,Object_Land_Pattern_Small,-9.0,-9.0,1.0,1.031811375025427,,,,,,,,
encoding,attention,11,3530296,3533314,3532192.0,3532213.0,22.0,22.0,1906.2,1201.5,1920.0,700.0,Object_Sea_Solid_Small,62.853322375012795,65.87092395802028,2.0,Object_Land_Pattern_Small,-9.0,-9.0,1.0,1.031811375025427,,,,,,,,
encoding,attention,11,3530296,3533314,3532269.0,3533027.0,759.0,759.0,1897.1,1065.2,1920.0,1080.0,fixation,62.853322375012795,65.87092395802028,2.0,Object_Land_Pattern_Small,-9.0,-9.0,1.0,1.031811375025427,,,,,,,,
encoding,fixation,12,3533314,3534069,3533783.0,3533804.0,22.0,22.0,1834.2,976.0,1591.0,1269.0,Object_Land_Pattern_Small,65.87109862500802,66.62626370802172,2.0,Object_Land_Solid_Large,4.0,,,,,,,,,,,
encoding,fixation,12,3533314,3534069,3534021.0,3534047.0,27.0,27.0,1912.2,1309.0,1920.0,700.0,Object_Sea_Solid_Small,65.87109862500802,66.62626370802172,2.0,Object_Land_Solid_Large,4.0,,,,,,,,,,,
encoding,fixation,12,3533314,3534069,3534065.0,3534090.0,26.0,4.0,1911.3,1267.3,1920.0,700.0,Object_Sea_Solid_Small,65.87109862500802,66.62626370802172,2.0,Object_Land_Solid_Large,4.0,,,,,,,,,,,
encoding,image,12,3534069,3535079,3534115.0,3534635.0,521.0,521.0,1908.8,1168.5,1920.0,700.0,Object_Sea_Solid_Small,66.6263785000192,67.63658783299616,2.0,Object_Land_Solid_Large,4.0,,,,,,,,,,,
encoding,image,12,3534069,3535079,3534873.0,3534928.0,56.0,56.0,1713.2,1325.9,1591.0,891.0,Object_Land_Solid_Large,66.6263785000192,67.63658783299616,2.0,Object_Land_Solid_Large,4.0,,,,,,,,,,,
encoding,image,12,3534069,3535079,3534974.0,3535180.0,207.0,105.0,1719.4,1211.3,1591.0,891.0,Object_Land_Solid_Large,66.6263785000192,67.63658783299616,2.0,Object_Land_Solid_Large,4.0,,,,,,,,,,,
encoding,value,12,3535080,3541091,3535205.0,3535717.0,513.0,513.0,1517.3,1175.0,1591.0,891.0,Object_Land_Solid_Large,67.63677595800254,73.64775154102244,2.0,Object_Land_Solid_Large,4.0,,,,,,,,,,,
encoding,value,12,3535080,3541091,3536183.0,3536227.0,45.0,45.0,1538.7,1376.3,1591.0,891.0,Object_Land_Solid_Large,67.63677595800254,73.64775154102244,2.0,Object_Land_Solid_Large,4.0,,,,,,,,,,,
encoding,value,12,3535080,3541091,3536238.0,3536279.0,42.0,42.0,1526.0,1393.2,1591.0,891.0,Object_Land_Solid_Large,67.63677595800254,73.64775154102244,2.0,Object_Land_Solid_Large,4.0,,,,,,,,,,,
encoding,value,12,3535080,3541091,3536499.0,3536544.0,46.0,46.0,1537.5,1361.0,1591.0,891.0,Object_Land_Solid_Large,67.63677595800254,73.64775154102244,2.0,Object_Land_Solid_Large,4.0,,,,,,,,,,,
encoding,value,12,3535080,3541091,3536591.0,3537395.0,805.0,805.0,1528.7,1263.4,1591.0,891.0,Object_Land_Solid_Large,67.63677595800254,73.64775154102244,2.0,Object_Land_Solid_Large,4.0,,,,,,,,,,,
encoding,value,12,3535080,3541091,3537925.0,3537969.0,45.0,45.0,1613.0,1431.8,1591.0,891.0,Object_Land_Solid_Large,67.63677595800254,73.64775154102244,2.0,Object_Land_Solid_Large,4.0,,,,,,,,,,,
encoding,value,12,3535080,3541091,3538030.0,3538284.0,255.0,255.0,1618.8,1320.8,1591.0,891.0,Object_Land_Solid_Large,67.63677595800254,73.64775154102244,2.0,Object_Land_Solid_Large,4.0,,,,,,,,,,,
encoding,value,12,3535080,3541091,3538300.0,3539146.0,847.0,847.0,1523.9,1274.1,1591.0,891.0,Object_Land_Solid_Large,67.63677595800254,73.64775154102244,2.0,Object_Land_Solid_Large,4.0,,,,,,,,,,,
encoding,value,12,3535080,3541091,3539156.0,3541309.0,2154.0,1935.0,1527.4,1171.7,1591.0,891.0,Object_Land_Solid_Large,67.63677595800254,73.64775154102244,2.0,Object_Land_Solid_Large,4.0,,,,,,,,,,,
encoding,attention,12,3541091,3544107,3541316.0,3541380.0,65.0,65.0,1591.3,1158.6,1591.0,891.0,Object_Land_Solid_Large,73.6478537080111,76.6640803750197,2.0,Object_Land_Solid_Large,4.0,4.0,1.0,0.6700669999991078,,,,,,,,
encoding,attention,12,3541091,3544107,3541714.0,3541764.0,51.0,51.0,1528.2,1363.1,1591.0,891.0,Object_Land_Solid_Large,73.6478537080111,76.6640803750197,2.0,Object_Land_Solid_Large,4.0,4.0,1.0,0.6700669999991078,,,,,,,,
encoding,attention,12,3541091,3544107,3541856.0,3541997.0,142.0,142.0,1530.8,1272.4,1591.0,891.0,Object_Land_Solid_Large,73.6478537080111,76.6640803750197,2.0,Object_Land_Solid_Large,4.0,4.0,1.0,0.6700669999991078,,,,,,,,
encoding,attention,12,3541091,3544107,3542024.0,3542328.0,305.0,305.0,1867.2,1114.0,1920.0,1080.0,fixation,73.6478537080111,76.6640803750197,2.0,Object_Land_Solid_Large,4.0,4.0,1.0,0.6700669999991078,,,,,,,,
encoding,attention,12,3541091,3544107,3542827.0,3542865.0,39.0,39.0,1885.5,1221.2,1920.0,700.0,Object_Sea_Solid_Small,73.6478537080111,76.6640803750197,2.0,Object_Land_Solid_Large,4.0,4.0,1.0,0.6700669999991078,,,,,,,,
encoding,attention,12,3541091,3544107,3542872.0,3542899.0,28.0,28.0,1886.4,1188.5,1920.0,700.0,Object_Sea_Solid_Small,73.6478537080111,76.6640803750197,2.0,Object_Land_Solid_Large,4.0,4.0,1.0,0.6700669999991078,,,,,,,,
encoding,attention,12,3541091,3544107,3542934.0,3543629.0,696.0,696.0,1882.3,1092.4,1920.0,1080.0,fixation,73.6478537080111,76.6640803750197,2.0,Object_Land_Solid_Large,4.0,4.0,1.0,0.6700669999991078,,,,,,,,
encoding,attention,12,3541091,3544107,3543636.0,3543993.0,358.0,358.0,1831.6,1080.3,1591.0,891.0,Object_Land_Solid_Large,73.6478537080111,76.6640803750197,2.0,Object_Land_Solid_Large,4.0,4.0,1.0,0.6700669999991078,,,,,,,,
encoding,fixation,13,3886530,3887038,3886559.0,3886679.0,121.0,121.0,1836.9,1234.0,1920.0,700.0,Object_Sea_Solid_Small,3.86711504199775,4.375045624998165,3.0,Animal_Land_Pattern_Large,-6.0,,,,,,,,,,,
encoding,fixation,13,3886530,3887038,3886696.0,3886821.0,126.0,126.0,1824.3,1173.1,1591.0,891.0,Animal_Land_Pattern_Small,3.86711504199775,4.375045624998165,3.0,Animal_Land_Pattern_Large,-6.0,,,,,,,,,,,
encoding,image,13,3887038,3888049,3887112.0,3887146.0,35.0,35.0,1720.8,1447.8,1920.0,700.0,Object_Sea_Solid_Small,4.37515429200721,5.386224624991883,3.0,Animal_Land_Pattern_Large,-6.0,,,,,,,,,,,
encoding,image,13,3887038,3888049,3887249.0,3887364.0,116.0,116.0,2058.9,1144.9,2249.0,891.0,Animal_Sea_Solid_Small,4.37515429200721,5.386224624991883,3.0,Animal_Land_Pattern_Large,-6.0,,,,,,,,,,,
encoding,image,13,3887038,3888049,3887385.0,3888032.0,648.0,648.0,2145.8,1006.7,2249.0,1269.0,Animal_Land_Pattern_Large,4.37515429200721,5.386224624991883,3.0,Animal_Land_Pattern_Large,-6.0,,,,,,,,,,,
encoding,value,13,3888049,3894062,3888316.0,3888339.0,24.0,24.0,1879.2,1340.1,1920.0,700.0,Object_Sea_Solid_Small,5.386328458000207,11.39924791699741,3.0,Animal_Land_Pattern_Large,-6.0,,,,,,,,,,,
encoding,value,13,3888049,3894062,3888357.0,3888421.0,65.0,65.0,1882.6,1278.1,1920.0,700.0,Object_Sea_Solid_Small,5.386328458000207,11.39924791699741,3.0,Animal_Land_Pattern_Large,-6.0,,,,,,,,,,,
encoding,value,13,3888049,3894062,3888475.0,3889035.0,561.0,561.0,2152.2,887.2,2249.0,1269.0,Animal_Land_Pattern_Large,5.386328458000207,11.39924791699741,3.0,Animal_Land_Pattern_Large,-6.0,,,,,,,,,,,
encoding,value,13,3888049,3894062,3889270.0,3889472.0,203.0,203.0,2128.4,1015.9000000000001,2249.0,1269.0,Animal_Land_Pattern_Large,5.386328458000207,11.39924791699741,3.0,Animal_Land_Pattern_Large,-6.0,,,,,,,,,,,
encoding,value,13,3888049,3894062,3889485.0,3889699.0,215.0,215.0,2127.1,950.7,2249.0,1269.0,Animal_Land_Pattern_Large,5.386328458000207,11.39924791699741,3.0,Animal_Land_Pattern_Large,-6.0,,,,,,,,,,,
encoding,value,13,3888049,3894062,3889989.0,3890012.0,24.0,24.0,2091.7,1158.9,2249.0,891.0,Animal_Sea_Solid_Small,5.386328458000207,11.39924791699741,3.0,Animal_Land_Pattern_Large,-6.0,,,,,,,,,,,
encoding,value,13,3888049,3894062,3890304.0,3890348.0,45.0,45.0,1952.3,1371.5,1920.0,700.0,Object_Sea_Solid_Small,5.386328458000207,11.39924791699741,3.0,Animal_Land_Pattern_Large,-6.0,,,,,,,,,,,
encoding,value,13,3888049,3894062,3890381.0,3890728.0,348.0,348.0,1939.4,1266.0,1920.0,700.0,Object_Sea_Solid_Small,5.386328458000207,11.39924791699741,3.0,Animal_Land_Pattern_Large,-6.0,,,,,,,,,,,
encoding,value,13,3888049,3894062,3890740.0,3891047.0,308.0,308.0,1850.6,1214.2,1920.0,700.0,Object_Sea_Solid_Small,5.386328458000207,11.39924791699741,3.0,Animal_Land_Pattern_Large,-6.0,,,,,,,,,,,
encoding,value,13,3888049,3894062,3891063.0,3891437.0,375.0,375.0,1940.9,1167.1,1920.0,700.0,Object_Sea_Solid_Small,5.386328458000207,11.39924791699741,3.0,Animal_Land_Pattern_Large,-6.0,,,,,,,,,,,
encoding,value,13,3888049,3894062,3891684.0,3891713.0,30.0,30.0,1902.7,1383.1,1920.0,700.0,Object_Sea_Solid_Small,5.386328458000207,11.39924791699741,3.0,Animal_Land_Pattern_Large,-6.0,,,,,,,,,,,
encoding,value,13,3888049,3894062,3891725.0,3891777.0,53.0,53.0,1902.7,1348.1,1920.0,700.0,Object_Sea_Solid_Small,5.386328458000207,11.39924791699741,3.0,Animal_Land_Pattern_Large,-6.0,,,,,,,,,,,
encoding,value,13,3888049,3894062,3891793.0,3892126.0,334.0,334.0,1893.0,1251.5,1920.0,700.0,Object_Sea_Solid_Small,5.386328458000207,11.39924791699741,3.0,Animal_Land_Pattern_Large,-6.0,,,,,,,,,,,
encoding,value,13,3888049,3894062,3892153.0,3892432.0,280.0,280.0,2096.7,1110.1,2249.0,891.0,Animal_Sea_Solid_Small,5.386328458000207,11.39924791699741,3.0,Animal_Land_Pattern_Large,-6.0,,,,,,,,,,,
encoding,value,13,3888049,3894062,3892447.0,3892653.0,207.0,207.0,1942.1,1139.7,1920.0,1080.0,fixation,5.386328458000207,11.39924791699741,3.0,Animal_Land_Pattern_Large,-6.0,,,,,,,,,,,
encoding,value,13,3888049,3894062,3892904.0,3892936.0,33.0,33.0,1994.8,1225.5,1920.0,700.0,Object_Sea_Solid_Small,5.386328458000207,11.39924791699741,3.0,Animal_Land_Pattern_Large,-6.0,,,,,,,,,,,
encoding,value,13,3888049,3894062,3892954.0,3893841.0,888.0,888.0,1999.0,1140.2,2249.0,891.0,Animal_Sea_Solid_Small,5.386328458000207,11.39924791699741,3.0,Animal_Land_Pattern_Large,-6.0,,,,,,,,,,,
encoding,attention,13,3894062,3897080,3894094.0,3894152.0,59.0,59.0,2116.2,1192.5,2249.0,891.0,Animal_Sea_Solid_Small,11.399382833013078,14.417167292005615,3.0,Animal_Land_Pattern_Large,-6.0,-6.0,1.0,1.3952416669926606,,,,,,,,
encoding,attention,13,3894062,3897080,3894179.0,3894347.0,169.0,169.0,2109.7,1116.6,2249.0,891.0,Animal_Sea_Solid_Small,11.399382833013078,14.417167292005615,3.0,Animal_Land_Pattern_Large,-6.0,-6.0,1.0,1.3952416669926606,,,,,,,,
encoding,attention,13,3894062,3897080,3894374.0,3894650.0,277.0,277.0,2119.1,858.5,2249.0,1269.0,Animal_Land_Pattern_Large,11.399382833013078,14.417167292005615,3.0,Animal_Land_Pattern_Large,-6.0,-6.0,1.0,1.3952416669926606,,,,,,,,
encoding,attention,13,3894062,3897080,3894660.0,3894826.0,167.0,167.0,2214.7,857.7,2249.0,1269.0,Animal_Land_Pattern_Large,11.399382833013078,14.417167292005615,3.0,Animal_Land_Pattern_Large,-6.0,-6.0,1.0,1.3952416669926606,,,,,,,,
encoding,attention,13,3894062,3897080,3895077.0,3895227.0,151.0,151.0,2181.8,919.5999999999999,2249.0,1269.0,Animal_Land_Pattern_Large,11.399382833013078,14.417167292005615,3.0,Animal_Land_Pattern_Large,-6.0,-6.0,1.0,1.3952416669926606,,,,,,,,
encoding,attention,13,3894062,3897080,3895237.0,3895291.0,55.0,55.0,2182.1,882.5,2249.0,1269.0,Animal_Land_Pattern_Large,11.399382833013078,14.417167292005615,3.0,Animal_Land_Pattern_Large,-6.0,-6.0,1.0,1.3952416669926606,,,,,,,,
encoding,attention,13,3894062,3897080,3895341.0,3895745.0,405.0,405.0,2148.5,974.0,2249.0,1269.0,Animal_Land_Pattern_Large,11.399382833013078,14.417167292005615,3.0,Animal_Land_Pattern_Large,-6.0,-6.0,1.0,1.3952416669926606,,,,,,,,
encoding,attention,13,3894062,3897080,3895761.0,3895981.0,221.0,221.0,2043.5,1025.2,2249.0,1269.0,Animal_Land_Pattern_Large,11.399382833013078,14.417167292005615,3.0,Animal_Land_Pattern_Large,-6.0,-6.0,1.0,1.3952416669926606,,,,,,,,
encoding,attention,13,3894062,3897080,3896564.0,3896628.0,65.0,65.0,2004.4,1307.6,1920.0,700.0,Object_Sea_Solid_Small,11.399382833013078,14.417167292005615,3.0,Animal_Land_Pattern_Large,-6.0,-6.0,1.0,1.3952416669926606,,,,,,,,
encoding,attention,13,3894062,3897080,3896644.0,3896857.0,214.0,214.0,1996.7,1212.1,2249.0,891.0,Animal_Sea_Solid_Small,11.399382833013078,14.417167292005615,3.0,Animal_Land_Pattern_Large,-6.0,-6.0,1.0,1.3952416669926606,,,,,,,,
encoding,fixation,14,3897080,3898336,3897186.0,3897362.0,177.0,177.0,2008.9,1152.1,2249.0,891.0,Animal_Sea_Solid_Small,14.417317457991883,15.67280575001496,3.0,Object_Land_Pattern_Large,6.0,,,,,,,,,,,
encoding,fixation,14,3897080,3898336,3897378.0,3897445.0,68.0,68.0,1879.5,1135.4,1920.0,1080.0,fixation,14.417317457991883,15.67280575001496,3.0,Object_Land_Pattern_Large,6.0,,,,,,,,,,,
encoding,fixation,14,3897080,3898336,3897803.0,3897843.0,41.0,41.0,1924.8,1251.7,1920.0,700.0,Object_Sea_Solid_Small,14.417317457991883,15.67280575001496,3.0,Object_Land_Pattern_Large,6.0,,,,,,,,,,,
encoding,fixation,14,3897080,3898336,3897881.0,3898591.0,711.0,455.0,1871.0,1141.8,1591.0,891.0,Animal_Land_Pattern_Small,14.417317457991883,15.67280575001496,3.0,Object_Land_Pattern_Large,6.0,,,,,,,,,,,
encoding,image,14,3898336,3899348,3898622.0,3898768.0,147.0,147.0,1827.9,796.5999999999999,1920.0,1460.0,Object_Land_Pattern_Large,15.672899708006298,16.684808207995957,3.0,Object_Land_Pattern_Large,6.0,,,,,,,,,,,
encoding,image,14,3898336,3899348,3898778.0,3899274.0,497.0,497.0,1845.7,740.7,1920.0,1460.0,Object_Land_Pattern_Large,15.672899708006298,16.684808207995957,3.0,Object_Land_Pattern_Large,6.0,,,,,,,,,,,
encoding,value,14,3899348,3905361,3899501.0,3899594.0,94.0,94.0,1837.0,865.4000000000001,1920.0,1460.0,Object_Land_Pattern_Large,16.684917875012616,22.697520999994595,3.0,Object_Land_Pattern_Large,6.0,,,,,,,,,,,
encoding,value,14,3899348,3905361,3899621.0,3899658.0,38.0,38.0,1856.7,754.4000000000001,1920.0,1460.0,Object_Land_Pattern_Large,16.684917875012616,22.697520999994595,3.0,Object_Land_Pattern_Large,6.0,,,,,,,,,,,
encoding,value,14,3899348,3905361,3899684.0,3899754.0,71.0,71.0,1861.1,763.9000000000001,1920.0,1460.0,Object_Land_Pattern_Large,16.684917875012616,22.697520999994595,3.0,Object_Land_Pattern_Large,6.0,,,,,,,,,,,
encoding,value,14,3899348,3905361,3899772.0,3900289.0,518.0,518.0,1850.4,681.4000000000001,1920.0,1460.0,Object_Land_Pattern_Large,16.684917875012616,22.697520999994595,3.0,Object_Land_Pattern_Large,6.0,,,,,,,,,,,
encoding,value,14,3899348,3905361,3900604.0,3900666.0,63.0,63.0,2033.1,1090.6,2249.0,891.0,Animal_Sea_Solid_Small,16.684917875012616,22.697520999994595,3.0,Object_Land_Pattern_Large,6.0,,,,,,,,,,,
encoding,value,14,3899348,3905361,3900747.0,3901166.0,420.0,420.0,1842.0,896.5999999999999,1920.0,1460.0,Object_Land_Pattern_Large,16.684917875012616,22.697520999994595,3.0,Object_Land_Pattern_Large,6.0,,,,,,,,,,,
encoding,value,14,3899348,3905361,3901174.0,3901568.0,395.0,395.0,1861.8,979.8,1591.0,1269.0,Object_Sea_Solid_Large,16.684917875012616,22.697520999994595,3.0,Object_Land_Pattern_Large,6.0,,,,,,,,,,,
encoding,value,14,3899348,3905361,3901587.0,3901704.0,118.0,118.0,1862.7,1096.4,1920.0,1080.0,fixation,16.684917875012616,22.697520999994595,3.0,Object_Land_Pattern_Large,6.0,,,,,,,,,,,
encoding,value,14,3899348,3905361,3901956.0,3901998.0,43.0,43.0,1869.1,1251.8,1920.0,700.0,Object_Sea_Solid_Small,16.684917875012616,22.697520999994595,3.0,Object_Land_Pattern_Large,6.0,,,,,,,,,,,
encoding,value,14,3899348,3905361,3902016.0,3902055.0,40.0,40.0,1868.9,1198.8,1920.0,700.0,Object_Sea_Solid_Small,16.684917875012616,22.697520999994595,3.0,Object_Land_Pattern_Large,6.0,,,,,,,,,,,
encoding,value,14,3899348,3905361,3902115.0,3902142.0,28.0,28.0,1868.9,1186.2,1920.0,700.0,Object_Sea_Solid_Small,16.684917875012616,22.697520999994595,3.0,Object_Land_Pattern_Large,6.0,,,,,,,,,,,
encoding,value,14,3899348,3905361,3902153.0,3903841.0,1689.0,1689.0,1858.1,1097.7,1920.0,1080.0,fixation,16.684917875012616,22.697520999994595,3.0,Object_Land_Pattern_Large,6.0,,,,,,,,,,,
encoding,value,14,3899348,3905361,3904072.0,3904120.0,49.0,49.0,1853.4,1206.7,1920.0,700.0,Object_Sea_Solid_Small,16.684917875012616,22.697520999994595,3.0,Object_Land_Pattern_Large,6.0,,,,,,,,,,,
encoding,value,14,3899348,3905361,3904163.0,3904197.0,35.0,35.0,1861.4,1184.2,1920.0,700.0,Object_Sea_Solid_Small,16.684917875012616,22.697520999994595,3.0,Object_Land_Pattern_Large,6.0,,,,,,,,,,,
encoding,value,14,3899348,3905361,3904219.0,3904832.0,614.0,614.0,1871.1,1082.7,1920.0,1080.0,fixation,16.684917875012616,22.697520999994595,3.0,Object_Land_Pattern_Large,6.0,,,,,,,,,,,
encoding,value,14,3899348,3905361,3904842.0,3905331.0,490.0,490.0,1864.3,969.4000000000001,1920.0,1460.0,Object_Land_Pattern_Large,16.684917875012616,22.697520999994595,3.0,Object_Land_Pattern_Large,6.0,,,,,,,,,,,
encoding,value,14,3899348,3905361,3905353.0,3905554.0,202.0,8.0,1844.7,824.8,1920.0,1460.0,Object_Land_Pattern_Large,16.684917875012616,22.697520999994595,3.0,Object_Land_Pattern_Large,6.0,,,,,,,,,,,
encoding,attention,14,3905361,3908380,3905575.0,3905780.0,206.0,206.0,1845.3,633.5,1920.0,1460.0,Object_Land_Pattern_Large,22.697635916993026,25.716390499990663,3.0,Object_Land_Pattern_Large,6.0,6.0,1.0,0.8998129579995293,,,,,,,,
encoding,attention,14,3905361,3908380,3906116.0,3906262.0,147.0,147.0,1883.0,955.5,1920.0,1460.0,Object_Land_Pattern_Large,22.697635916993026,25.716390499990663,3.0,Object_Land_Pattern_Large,6.0,6.0,1.0,0.8998129579995293,,,,,,,,
encoding,attention,14,3905361,3908380,3906279.0,3906531.0,253.0,253.0,1893.5,862.8,1920.0,1460.0,Object_Land_Pattern_Large,22.697635916993026,25.716390499990663,3.0,Object_Land_Pattern_Large,6.0,6.0,1.0,0.8998129579995293,,,,,,,,
encoding,attention,14,3905361,3908380,3906847.0,3906930.0,84.0,84.0,1890.6,1103.8,1920.0,1080.0,fixation,22.697635916993026,25.716390499990663,3.0,Object_Land_Pattern_Large,6.0,6.0,1.0,0.8998129579995293,,,,,,,,
encoding,fixation,15,3908380,3908886,3908577.0,3908695.0,119.0,119.0,1865.0,1100.3,1920.0,1080.0,fixation,25.716536207997702,26.22178474999964,3.0,Object_Sea_Solid_Large,-9.0,,,,,,,,,,,
encoding,image,15,3908886,3909897,3909012.0,3909070.0,59.0,59.0,1863.8,1252.2,1920.0,700.0,Object_Sea_Solid_Small,26.22189420799259,27.23345841700211,3.0,Object_Sea_Solid_Large,-9.0,,,,,,,,,,,
encoding,image,15,3908886,3909897,3909085.0,3909224.0,140.0,140.0,1874.3,1206.1,1920.0,700.0,Object_Sea_Solid_Small,26.22189420799259,27.23345841700211,3.0,Object_Sea_Solid_Large,-9.0,,,,,,,,,,,
encoding,image,15,3908886,3909897,3909258.0,3909422.0,165.0,165.0,1528.9,1043.1,1591.0,1269.0,Object_Sea_Solid_Large,26.22189420799259,27.23345841700211,3.0,Object_Sea_Solid_Large,-9.0,,,,,,,,,,,
encoding,image,15,3908886,3909897,3909509.0,3909592.0,84.0,84.0,1542.8,999.5,1591.0,1269.0,Object_Sea_Solid_Large,26.22189420799259,27.23345841700211,3.0,Object_Sea_Solid_Large,-9.0,,,,,,,,,,,
encoding,image,15,3908886,3909897,3909619.0,3909767.0,149.0,149.0,1539.8,922.2,1591.0,1269.0,Object_Sea_Solid_Large,26.22189420799259,27.23345841700211,3.0,Object_Sea_Solid_Large,-9.0,,,,,,,,,,,
encoding,image,15,3908886,3909897,3909775.0,3909948.0,174.0,122.0,1538.5,876.3,1591.0,1269.0,Object_Sea_Solid_Large,26.22189420799259,27.23345841700211,3.0,Object_Sea_Solid_Large,-9.0,,,,,,,,,,,
encoding,value,15,3909897,3915909,3909966.0,3910523.0,558.0,558.0,1551.0,782.8,1591.0,1269.0,Object_Sea_Solid_Large,27.233558792009717,33.245483542006696,3.0,Object_Sea_Solid_Large,-9.0,,,,,,,,,,,
encoding,value,15,3909897,3915909,3910530.0,3910633.0,104.0,104.0,1558.7,879.5999999999999,1591.0,1269.0,Object_Sea_Solid_Large,27.233558792009717,33.245483542006696,3.0,Object_Sea_Solid_Large,-9.0,,,,,,,,,,,
encoding,value,15,3909897,3915909,3910945.0,3910998.0,54.0,54.0,1827.4,1130.7,1591.0,891.0,Animal_Land_Pattern_Small,27.233558792009717,33.245483542006696,3.0,Object_Sea_Solid_Large,-9.0,,,,,,,,,,,
encoding,value,15,3909897,3915909,3911014.0,3911104.0,91.0,91.0,1827.9,1093.2,1591.0,891.0,Animal_Land_Pattern_Small,27.233558792009717,33.245483542006696,3.0,Object_Sea_Solid_Large,-9.0,,,,,,,,,,,
encoding,value,15,3909897,3915909,3911137.0,3911725.0,589.0,589.0,1824.3,1001.5,1591.0,1269.0,Object_Sea_Solid_Large,27.233558792009717,33.245483542006696,3.0,Object_Sea_Solid_Large,-9.0,,,,,,,,,,,
encoding,value,15,3909897,3915909,3911748.0,3911975.0,228.0,228.0,1998.3,1017.0999999999999,2249.0,1269.0,Animal_Land_Pattern_Large,27.233558792009717,33.245483542006696,3.0,Object_Sea_Solid_Large,-9.0,,,,,,,,,,,
encoding,value,15,3909897,3915909,3911990.0,3912623.0,634.0,634.0,1862.2,977.0999999999999,1920.0,1460.0,Object_Land_Pattern_Large,27.233558792009717,33.245483542006696,3.0,Object_Sea_Solid_Large,-9.0,,,,,,,,,,,
encoding,value,15,3909897,3915909,3912651.0,3915385.0,2735.0,2735.0,1554.1,845.3,1591.0,1269.0,Object_Sea_Solid_Large,27.233558792009717,33.245483542006696,3.0,Object_Sea_Solid_Large,-9.0,,,,,,,,,,,
encoding,value,15,3909897,3915909,3915709.0,3915798.0,90.0,90.0,1536.4,919.8,1591.0,1269.0,Object_Sea_Solid_Large,27.233558792009717,33.245483542006696,3.0,Object_Sea_Solid_Large,-9.0,,,,,,,,,,,
encoding,attention,15,3915909,3918928,3915913.0,3917301.0,1389.0,1389.0,1519.1,799.5999999999999,1591.0,1269.0,Object_Sea_Solid_Large,33.24561387501308,36.26356141699944,3.0,Object_Sea_Solid_Large,-9.0,-9.0,1.0,1.4337044580024667,,,,,,,,
encoding,attention,15,3915909,3918928,3917331.0,3917615.0,285.0,285.0,1837.4,1040.8,1591.0,1269.0,Object_Sea_Solid_Large,33.24561387501308,36.26356141699944,3.0,Object_Sea_Solid_Large,-9.0,-9.0,1.0,1.4337044580024667,,,,,,,,
encoding,fixation,16,3918928,3919433,,,,,,,,,none,36.263769417011645,36.76918195799226,3.0,Animal_Land_Pattern_Small,-6.0,,,,,,,,,,,
encoding,image,16,3919433,3920444,3919715.0,3919824.0,110.0,110.0,1576.1,1267.0,1591.0,891.0,Animal_Land_Pattern_Small,36.769277250015875,37.78031545801787,3.0,Animal_Land_Pattern_Small,-6.0,,,,,,,,,,,
encoding,image,16,3919433,3920444,3920139.0,3920178.0,40.0,40.0,1840.7,1265.8,1920.0,700.0,Object_Sea_Solid_Small,36.769277250015875,37.78031545801787,3.0,Animal_Land_Pattern_Small,-6.0,,,,,,,,,,,
encoding,image,16,3919433,3920444,3920237.0,3920281.0,45.0,45.0,1839.8,1141.6,1591.0,891.0,Animal_Land_Pattern_Small,36.769277250015875,37.78031545801787,3.0,Animal_Land_Pattern_Small,-6.0,,,,,,,,,,,
encoding,value,16,3920445,3926457,3920526.0,3920554.0,29.0,29.0,1871.2,1250.9,1920.0,700.0,Object_Sea_Solid_Small,37.78042550000828,43.79294579199632,3.0,Animal_Land_Pattern_Small,-6.0,,,,,,,,,,,
encoding,value,16,3920445,3926457,3920608.0,3920914.0,307.0,307.0,1876.2,1128.6,1920.0,1080.0,fixation,37.78042550000828,43.79294579199632,3.0,Animal_Land_Pattern_Small,-6.0,,,,,,,,,,,
encoding,value,16,3920445,3926457,3920940.0,3921655.0,716.0,716.0,1592.2,1153.8,1591.0,891.0,Animal_Land_Pattern_Small,37.78042550000828,43.79294579199632,3.0,Animal_Land_Pattern_Small,-6.0,,,,,,,,,,,
encoding,value,16,3920445,3926457,3921685.0,3922467.0,783.0,783.0,1825.7,1042.6,1591.0,1269.0,Object_Sea_Solid_Large,37.78042550000828,43.79294579199632,3.0,Animal_Land_Pattern_Small,-6.0,,,,,,,,,,,
encoding,value,16,3920445,3926457,3922483.0,3922778.0,296.0,296.0,1873.4,958.2,1920.0,1460.0,Object_Land_Pattern_Large,37.78042550000828,43.79294579199632,3.0,Animal_Land_Pattern_Small,-6.0,,,,,,,,,,,
encoding,value,16,3920445,3926457,3922802.0,3923000.0,199.0,199.0,1631.3,1093.8,1591.0,891.0,Animal_Land_Pattern_Small,37.78042550000828,43.79294579199632,3.0,Animal_Land_Pattern_Small,-6.0,,,,,,,,,,,
encoding,value,16,3920445,3926457,3923306.0,3923932.0,627.0,627.0,1832.2,1103.6,1591.0,891.0,Animal_Land_Pattern_Small,37.78042550000828,43.79294579199632,3.0,Animal_Land_Pattern_Small,-6.0,,,,,,,,,,,
encoding,value,16,3920445,3926457,3923950.0,3924295.0,346.0,346.0,1591.1,1131.4,1591.0,891.0,Animal_Land_Pattern_Small,37.78042550000828,43.79294579199632,3.0,Animal_Land_Pattern_Small,-6.0,,,,,,,,,,,
encoding,value,16,3920445,3926457,3924320.0,3924632.0,313.0,313.0,1747.2,1036.8,1591.0,1269.0,Object_Sea_Solid_Large,37.78042550000828,43.79294579199632,3.0,Animal_Land_Pattern_Small,-6.0,,,,,,,,,,,
encoding,value,16,3920445,3926457,3924657.0,3924983.0,327.0,327.0,1957.6,1047.4,1920.0,1080.0,fixation,37.78042550000828,43.79294579199632,3.0,Animal_Land_Pattern_Small,-6.0,,,,,,,,,,,
encoding,value,16,3920445,3926457,3925208.0,3925238.0,31.0,31.0,1842.1,1155.2,1591.0,891.0,Animal_Land_Pattern_Small,37.78042550000828,43.79294579199632,3.0,Animal_Land_Pattern_Small,-6.0,,,,,,,,,,,
encoding,value,16,3920445,3926457,3925304.0,3925804.0,501.0,501.0,1843.8,1055.4,1591.0,1269.0,Object_Sea_Solid_Large,37.78042550000828,43.79294579199632,3.0,Animal_Land_Pattern_Small,-6.0,,,,,,,,,,,
encoding,value,16,3920445,3926457,3925817.0,3926009.0,193.0,193.0,1927.0,1093.6,1920.0,1080.0,fixation,37.78042550000828,43.79294579199632,3.0,Animal_Land_Pattern_Small,-6.0,,,,,,,,,,,
encoding,value,16,3920445,3926457,3926040.0,3927951.0,1912.0,417.0,1529.8,1163.0,1591.0,891.0,Animal_Land_Pattern_Small,37.78042550000828,43.79294579199632,3.0,Animal_Land_Pattern_Small,-6.0,,,,,,,,,,,
encoding,attention,16,3926458,3929474,3928148.0,3928175.0,28.0,28.0,1492.0,1270.5,1591.0,891.0,Animal_Land_Pattern_Small,43.793063707998954,46.80976425000699,3.0,Animal_Land_Pattern_Small,-6.0,-6.0,1.0,1.6889694169803988,,,,,,,,
encoding,attention,16,3926458,3929474,3928188.0,3928237.0,50.0,50.0,1486.0,1234.8,1591.0,891.0,Animal_Land_Pattern_Small,43.793063707998954,46.80976425000699,3.0,Animal_Land_Pattern_Small,-6.0,-6.0,1.0,1.6889694169803988,,,,,,,,
encoding,attention,16,3926458,3929474,3928262.0,3928465.0,204.0,204.0,1491.0,1148.8,1591.0,891.0,Animal_Land_Pattern_Small,43.793063707998954,46.80976425000699,3.0,Animal_Land_Pattern_Small,-6.0,-6.0,1.0,1.6889694169803988,,,,,,,,
encoding,attention,16,3926458,3929474,3928716.0,3928780.0,65.0,65.0,1813.8,1258.6,1591.0,891.0,Animal_Land_Pattern_Small,43.793063707998954,46.80976425000699,3.0,Animal_Land_Pattern_Small,-6.0,-6.0,1.0,1.6889694169803988,,,,,,,,
encoding,attention,16,3926458,3929474,3928798.0,3929232.0,435.0,435.0,1818.3,1150.8,1591.0,891.0,Animal_Land_Pattern_Small,43.793063707998954,46.80976425000699,3.0,Animal_Land_Pattern_Small,-6.0,-6.0,1.0,1.6889694169803988,,,,,,,,
encoding,fixation,17,3929474,3930730,,,,,,,,,none,46.80997154201032,48.0650161250087,3.0,Object_Sea_Solid_Small,2.0,,,,,,,,,,,
encoding,image,17,3930730,3931740,3930809.0,3930978.0,170.0,170.0,1870.7,1124.8,1920.0,1080.0,fixation,48.06516895801178,49.07565237500239,3.0,Object_Sea_Solid_Small,2.0,,,,,,,,,,,
encoding,image,17,3930730,3931740,3930989.0,3931198.0,210.0,210.0,1883.3,1222.5,1920.0,700.0,Object_Sea_Solid_Small,48.06516895801178,49.07565237500239,3.0,Object_Sea_Solid_Small,2.0,,,,,,,,,,,
encoding,image,17,3930730,3931740,3931236.0,3931440.0,205.0,205.0,1911.0,1391.1,1920.0,700.0,Object_Sea_Solid_Small,48.06516895801178,49.07565237500239,3.0,Object_Sea_Solid_Small,2.0,,,,,,,,,,,
encoding,image,17,3930730,3931740,3931463.0,3931934.0,472.0,277.0,1883.5,1221.4,1920.0,700.0,Object_Sea_Solid_Small,48.06516895801178,49.07565237500239,3.0,Object_Sea_Solid_Small,2.0,,,,,,,,,,,
encoding,value,17,3931740,3937751,3931952.0,3932202.0,251.0,251.0,1905.2,1308.1,1920.0,700.0,Object_Sea_Solid_Small,49.07583720801631,55.0865769580123,3.0,Object_Sea_Solid_Small,2.0,,,,,,,,,,,
encoding,value,17,3931740,3937751,3932500.0,3932545.0,46.0,46.0,1906.7,1431.8,1920.0,700.0,Object_Sea_Solid_Small,49.07583720801631,55.0865769580123,3.0,Object_Sea_Solid_Small,2.0,,,,,,,,,,,
encoding,value,17,3931740,3937751,3933156.0,3933200.0,45.0,45.0,1873.9,1494.1,1920.0,700.0,Object_Sea_Solid_Small,49.07583720801631,55.0865769580123,3.0,Object_Sea_Solid_Small,2.0,,,,,,,,,,,
encoding,value,17,3931740,3937751,3933490.0,3933519.0,30.0,30.0,1853.6,1534.7,1920.0,700.0,Object_Sea_Solid_Small,49.07583720801631,55.0865769580123,3.0,Object_Sea_Solid_Small,2.0,,,,,,,,,,,
encoding,value,17,3931740,3937751,3934718.0,3934841.0,124.0,124.0,1850.7,1499.0,1920.0,700.0,Object_Sea_Solid_Small,49.07583720801631,55.0865769580123,3.0,Object_Sea_Solid_Small,2.0,,,,,,,,,,,
encoding,value,17,3931740,3937751,3934958.0,3934987.0,30.0,30.0,1863.5,1465.3,1920.0,700.0,Object_Sea_Solid_Small,49.07583720801631,55.0865769580123,3.0,Object_Sea_Solid_Small,2.0,,,,,,,,,,,
encoding,value,17,3931740,3937751,3935004.0,3935241.0,238.0,238.0,1871.9,1219.5,1920.0,700.0,Object_Sea_Solid_Small,49.07583720801631,55.0865769580123,3.0,Object_Sea_Solid_Small,2.0,,,,,,,,,,,
encoding,value,17,3931740,3937751,3935270.0,3935306.0,37.0,37.0,1892.1,1456.9,1920.0,700.0,Object_Sea_Solid_Small,49.07583720801631,55.0865769580123,3.0,Object_Sea_Solid_Small,2.0,,,,,,,,,,,
encoding,value,17,3931740,3937751,3935327.0,3935791.0,465.0,465.0,1903.9,1388.0,1920.0,700.0,Object_Sea_Solid_Small,49.07583720801631,55.0865769580123,3.0,Object_Sea_Solid_Small,2.0,,,,,,,,,,,
encoding,value,17,3931740,3937751,3936047.0,3936077.0,31.0,31.0,1908.8,1443.9,1920.0,700.0,Object_Sea_Solid_Small,49.07583720801631,55.0865769580123,3.0,Object_Sea_Solid_Small,2.0,,,,,,,,,,,
encoding,value,17,3931740,3937751,3936095.0,3936414.0,320.0,320.0,1901.6,1366.2,1920.0,700.0,Object_Sea_Solid_Small,49.07583720801631,55.0865769580123,3.0,Object_Sea_Solid_Small,2.0,,,,,,,,,,,
encoding,value,17,3931740,3937751,3936433.0,3936736.0,304.0,304.0,1796.3,1267.0,1591.0,891.0,Animal_Land_Pattern_Small,49.07583720801631,55.0865769580123,3.0,Object_Sea_Solid_Small,2.0,,,,,,,,,,,
encoding,value,17,3931740,3937751,3936749.0,3937655.0,907.0,907.0,1825.1,1219.3,1591.0,891.0,Animal_Land_Pattern_Small,49.07583720801631,55.0865769580123,3.0,Object_Sea_Solid_Small,2.0,,,,,,,,,,,
encoding,value,17,3931740,3937751,3937666.0,3937790.0,125.0,85.0,1825.4,1275.8,1920.0,700.0,Object_Sea_Solid_Small,49.07583720801631,55.0865769580123,3.0,Object_Sea_Solid_Small,2.0,,,,,,,,,,,
encoding,attention,17,3937751,3940768,3937993.0,3938034.0,42.0,42.0,1858.7,1414.2,1920.0,700.0,Object_Sea_Solid_Small,55.0867082499899,58.10287512501236,3.0,Object_Sea_Solid_Small,2.0,2.0,1.0,2.1633773329958785,,,,,,,,
encoding,attention,17,3937751,3940768,3938081.0,3938143.0,63.0,63.0,1857.4,1294.2,1920.0,700.0,Object_Sea_Solid_Small,55.0867082499899,58.10287512501236,3.0,Object_Sea_Solid_Small,2.0,2.0,1.0,2.1633773329958785,,,,,,,,
encoding,attention,17,3937751,3940768,3938163.0,3938479.0,317.0,317.0,1884.3,1389.6,1920.0,700.0,Object_Sea_Solid_Small,55.0867082499899,58.10287512501236,3.0,Object_Sea_Solid_Small,2.0,2.0,1.0,2.1633773329958785,,,,,,,,
encoding,attention,17,3937751,3940768,3938487.0,3940155.0,1669.0,1669.0,1833.5,1355.0,1920.0,700.0,Object_Sea_Solid_Small,55.0867082499899,58.10287512501236,3.0,Object_Sea_Solid_Small,2.0,2.0,1.0,2.1633773329958785,,,,,,,,
encoding,fixation,18,3940768,3941274,,,,,,,,,none,58.10304187500151,58.60866191700916,3.0,Animal_Sea_Solid_Small,1.0,,,,,,,,,,,
encoding,image,18,3941274,3942285,3941690.0,3941902.0,213.0,213.0,2208.4,1262.0,2249.0,891.0,Animal_Sea_Solid_Small,58.60876795800869,59.61978700000327,3.0,Animal_Sea_Solid_Small,1.0,,,,,,,,,,,
encoding,image,18,3941274,3942285,3941925.0,3942116.0,192.0,192.0,2134.7,1110.0,2249.0,891.0,Animal_Sea_Solid_Small,58.60876795800869,59.61978700000327,3.0,Animal_Sea_Solid_Small,1.0,,,,,,,,,,,
encoding,image,18,3941274,3942285,3942123.0,3942827.0,705.0,162.0,2174.9,1127.8,2249.0,891.0,Animal_Sea_Solid_Small,58.60876795800869,59.61978700000327,3.0,Animal_Sea_Solid_Small,1.0,,,,,,,,,,,
encoding,value,18,3942285,3948297,3943125.0,3943315.0,191.0,191.0,1979.3,1134.9,2249.0,891.0,Animal_Sea_Solid_Small,59.61990545800654,65.63178570801392,3.0,Animal_Sea_Solid_Small,1.0,,,,,,,,,,,
encoding,value,18,3942285,3948297,3943330.0,3944219.0,890.0,890.0,1886.0,1120.3,1920.0,1080.0,fixation,59.61990545800654,65.63178570801392,3.0,Animal_Sea_Solid_Small,1.0,,,,,,,,,,,
encoding,value,18,3942285,3948297,3944506.0,3944566.0,61.0,61.0,1915.1,1245.4,1920.0,700.0,Object_Sea_Solid_Small,59.61990545800654,65.63178570801392,3.0,Animal_Sea_Solid_Small,1.0,,,,,,,,,,,
encoding,value,18,3942285,3948297,3944807.0,3944841.0,35.0,35.0,1901.0,1272.4,1920.0,700.0,Object_Sea_Solid_Small,59.61990545800654,65.63178570801392,3.0,Animal_Sea_Solid_Small,1.0,,,,,,,,,,,
encoding,value,18,3942285,3948297,3944901.0,3945020.0,120.0,120.0,1898.2,1156.9,1920.0,700.0,Object_Sea_Solid_Small,59.61990545800654,65.63178570801392,3.0,Animal_Sea_Solid_Small,1.0,,,,,,,,,,,
encoding,value,18,3942285,3948297,3945030.0,3945435.0,406.0,406.0,1850.2,1108.9,1591.0,891.0,Animal_Land_Pattern_Small,59.61990545800654,65.63178570801392,3.0,Animal_Sea_Solid_Small,1.0,,,,,,,,,,,
encoding,value,18,3942285,3948297,3945442.0,3946894.0,1453.0,1453.0,1875.1,1093.6,1920.0,1080.0,fixation,59.61990545800654,65.63178570801392,3.0,Animal_Sea_Solid_Small,1.0,,,,,,,,,,,
encoding,value,18,3942285,3948297,3946916.0,3947304.0,389.0,389.0,2068.4,1126.1,2249.0,891.0,Animal_Sea_Solid_Small,59.61990545800654,65.63178570801392,3.0,Animal_Sea_Solid_Small,1.0,,,,,,,,,,,
encoding,value,18,3942285,3948297,3947315.0,3948576.0,1262.0,982.0,2154.1,1145.2,2249.0,891.0,Animal_Sea_Solid_Small,59.61990545800654,65.63178570801392,3.0,Animal_Sea_Solid_Small,1.0,,,,,,,,,,,
encoding,attention,18,3948297,3951314,3948826.0,3948859.0,34.0,34.0,2103.7,1266.1,2249.0,891.0,Animal_Sea_Solid_Small,65.63189437499386,68.64890733300126,3.0,Animal_Sea_Solid_Small,1.0,1.0,1.0,0.5755200829880778,,,,,,,,
encoding,attention,18,3948297,3951314,3948899.0,3949101.0,203.0,203.0,2146.2,1184.3,2249.0,891.0,Animal_Sea_Solid_Small,65.63189437499386,68.64890733300126,3.0,Animal_Sea_Solid_Small,1.0,1.0,1.0,0.5755200829880778,,,,,,,,
encoding,attention,18,3948297,3951314,3949125.0,3949315.0,191.0,191.0,1891.3,1088.2,1920.0,1080.0,fixation,65.63189437499386,68.64890733300126,3.0,Animal_Sea_Solid_Small,1.0,1.0,1.0,0.5755200829880778,,,,,,,,
encoding,attention,18,3948297,3951314,3949322.0,3950292.0,971.0,971.0,1863.9,1066.6,1920.0,1080.0,fixation,65.63189437499386,68.64890733300126,3.0,Animal_Sea_Solid_Small,1.0,1.0,1.0,0.5755200829880778,,,,,,,,
encoding,attention,18,3948297,3951314,3950324.0,3950820.0,497.0,497.0,2112.8,1165.7,2249.0,891.0,Animal_Sea_Solid_Small,65.63189437499386,68.64890733300126,3.0,Animal_Sea_Solid_Small,1.0,1.0,1.0,0.5755200829880778,,,,,,,,
encoding,fixation,19,4254019,4254775,4254076.0,4254263.0,188.0,188.0,1796.3,1108.2,1591.0,891.0,Object_Land_Solid_Large,5.222606875002384,5.978575417015236,4.0,Animal_Sea_Solid_Large,-5.0,,,,,,,,,,,
encoding,fixation,19,4254019,4254775,4254273.0,4254651.0,379.0,379.0,1880.0,1100.2,1920.0,1080.0,fixation,5.222606875002384,5.978575417015236,4.0,Animal_Sea_Solid_Large,-5.0,,,,,,,,,,,
encoding,fixation,19,4254019,4254775,4254661.0,4254939.0,279.0,114.0,1877.9,1180.1,1920.0,700.0,Animal_Land_Solid_Small,5.222606875002384,5.978575417015236,4.0,Animal_Sea_Solid_Large,-5.0,,,,,,,,,,,
encoding,image,19,4254775,4255787,4254972.0,4255132.0,161.0,161.0,1817.8,772.5,1920.0,1460.0,Animal_Sea_Solid_Large,5.978680250002071,6.990823125001043,4.0,Animal_Sea_Solid_Large,-5.0,,,,,,,,,,,
encoding,image,19,4254775,4255787,4255141.0,4256061.0,921.0,646.0,1818.6,748.8,1920.0,1460.0,Animal_Sea_Solid_Large,5.978680250002071,6.990823125001043,4.0,Animal_Sea_Solid_Large,-5.0,,,,,,,,,,,
encoding,value,19,4255787,4261801,4256357.0,4256439.0,83.0,83.0,1805.9,966.0,1591.0,1269.0,Object_Land_Pattern_Small,6.99093129200628,13.004123209015232,4.0,Animal_Sea_Solid_Large,-5.0,,,,,,,,,,,
encoding,value,19,4255787,4261801,4256459.0,4256576.0,118.0,118.0,1811.0,926.5,1591.0,1269.0,Object_Land_Pattern_Small,6.99093129200628,13.004123209015232,4.0,Animal_Sea_Solid_Large,-5.0,,,,,,,,,,,
encoding,value,19,4255787,4261801,4256622.0,4257123.0,502.0,502.0,1800.5,776.0999999999999,1920.0,1460.0,Animal_Sea_Solid_Large,6.99093129200628,13.004123209015232,4.0,Animal_Sea_Solid_Large,-5.0,,,,,,,,,,,
encoding,value,19,4255787,4261801,4257141.0,4257687.0,547.0,547.0,1823.1,645.2,1920.0,1460.0,Animal_Sea_Solid_Large,6.99093129200628,13.004123209015232,4.0,Animal_Sea_Solid_Large,-5.0,,,,,,,,,,,
encoding,value,19,4255787,4261801,4257700.0,4258054.0,355.0,355.0,1797.6,780.0,1920.0,1460.0,Animal_Sea_Solid_Large,6.99093129200628,13.004123209015232,4.0,Animal_Sea_Solid_Large,-5.0,,,,,,,,,,,
encoding,value,19,4255787,4261801,4258084.0,4258193.0,110.0,110.0,1841.0,1061.2,1591.0,1269.0,Object_Land_Pattern_Small,6.99093129200628,13.004123209015232,4.0,Animal_Sea_Solid_Large,-5.0,,,,,,,,,,,
encoding,value,19,4255787,4261801,4258453.0,4258490.0,38.0,38.0,1818.9,1159.0,1591.0,891.0,Object_Land_Solid_Large,6.99093129200628,13.004123209015232,4.0,Animal_Sea_Solid_Large,-5.0,,,,,,,,,,,
encoding,value,19,4255787,4261801,4258540.0,4259899.0,1360.0,1360.0,1829.5,1029.2,1591.0,1269.0,Object_Land_Pattern_Small,6.99093129200628,13.004123209015232,4.0,Animal_Sea_Solid_Large,-5.0,,,,,,,,,,,
encoding,value,19,4255787,4261801,4260107.0,4260134.0,28.0,28.0,1837.2,1240.6,1920.0,700.0,Animal_Land_Solid_Small,6.99093129200628,13.004123209015232,4.0,Animal_Sea_Solid_Large,-5.0,,,,,,,,,,,
encoding,value,19,4255787,4261801,4260207.0,4261709.0,1503.0,1503.0,1834.7,1072.7,1591.0,1269.0,Object_Land_Pattern_Small,6.99093129200628,13.004123209015232,4.0,Animal_Sea_Solid_Large,-5.0,,,,,,,,,,,
encoding,value,19,4255787,4261801,4261732.0,4261868.0,137.0,69.0,1803.7,867.0999999999999,1920.0,1460.0,Animal_Sea_Solid_Large,6.99093129200628,13.004123209015232,4.0,Animal_Sea_Solid_Large,-5.0,,,,,,,,,,,
encoding,attention,19,4261801,4264819,4261883.0,4262319.0,437.0,437.0,1818.7,772.5999999999999,1920.0,1460.0,Animal_Sea_Solid_Large,13.004272084013792,16.022183959023096,4.0,Animal_Sea_Solid_Large,-5.0,-5.0,1.0,1.492112041974906,,,,,,,,
encoding,attention,19,4261801,4264819,4262590.0,4262680.0,91.0,91.0,1799.5,785.5999999999999,1920.0,1460.0,Animal_Sea_Solid_Large,13.004272084013792,16.022183959023096,4.0,Animal_Sea_Solid_Large,-5.0,-5.0,1.0,1.492112041974906,,,,,,,,
encoding,attention,19,4261801,4264819,4262699.0,4262788.0,90.0,90.0,1785.4,716.8,1920.0,1460.0,Animal_Sea_Solid_Large,13.004272084013792,16.022183959023096,4.0,Animal_Sea_Solid_Large,-5.0,-5.0,1.0,1.492112041974906,,,,,,,,
encoding,attention,19,4261801,4264819,4262823.0,4263545.0,723.0,723.0,1809.8,651.8,1920.0,1460.0,Animal_Sea_Solid_Large,13.004272084013792,16.022183959023096,4.0,Animal_Sea_Solid_Large,-5.0,-5.0,1.0,1.492112041974906,,,,,,,,
encoding,attention,19,4261801,4264819,4263556.0,4263717.0,162.0,162.0,1854.6,749.5999999999999,1920.0,1460.0,Animal_Sea_Solid_Large,13.004272084013792,16.022183959023096,4.0,Animal_Sea_Solid_Large,-5.0,-5.0,1.0,1.492112041974906,,,,,,,,
encoding,attention,19,4261801,4264819,4263951.0,4263996.0,46.0,46.0,1824.2,943.9000000000001,1591.0,1269.0,Object_Land_Pattern_Small,13.004272084013792,16.022183959023096,4.0,Animal_Sea_Solid_Large,-5.0,-5.0,1.0,1.492112041974906,,,,,,,,
encoding,attention,19,4261801,4264819,4264040.0,4264183.0,144.0,144.0,1835.8,819.9000000000001,1920.0,1460.0,Animal_Sea_Solid_Large,13.004272084013792,16.022183959023096,4.0,Animal_Sea_Solid_Large,-5.0,-5.0,1.0,1.492112041974906,,,,,,,,
encoding,attention,19,4261801,4264819,4264211.0,4264808.0,598.0,598.0,1887.6,1023.2,1920.0,1080.0,fixation,13.004272084013792,16.022183959023096,4.0,Animal_Sea_Solid_Large,-5.0,-5.0,1.0,1.492112041974906,,,,,,,,
encoding,fixation,20,4264819,4266326,4264821.0,4266558.0,1738.0,1505.0,1843.8,1102.5,1591.0,891.0,Object_Land_Solid_Large,16.022331000014674,17.528691375016933,4.0,Animal_Land_Solid_Small,-4.0,,,,,,,,,,,
encoding,image,20,4266326,4267338,4266580.0,4266748.0,169.0,169.0,1859.1,1363.2,1920.0,700.0,Animal_Land_Solid_Small,17.52886849999777,18.540751584019745,4.0,Animal_Land_Solid_Small,-4.0,,,,,,,,,,,
encoding,image,20,4266326,4267338,4266766.0,4266883.0,118.0,118.0,1872.0,1484.7,1920.0,700.0,Animal_Land_Solid_Small,17.52886849999777,18.540751584019745,4.0,Animal_Land_Solid_Small,-4.0,,,,,,,,,,,
encoding,image,20,4266326,4267338,4267141.0,4267171.0,31.0,31.0,1904.3,1609.3,1920.0,700.0,Animal_Land_Solid_Small,17.52886849999777,18.540751584019745,4.0,Animal_Land_Solid_Small,-4.0,,,,,,,,,,,
encoding,image,20,4266326,4267338,4267188.0,4268735.0,1548.0,150.0,1907.9,1502.4,1920.0,700.0,Animal_Land_Solid_Small,17.52886849999777,18.540751584019745,4.0,Animal_Land_Solid_Small,-4.0,,,,,,,,,,,
encoding,value,20,4267338,4273349,4269019.0,4271722.0,2704.0,2704.0,1917.7,1527.4,1920.0,700.0,Animal_Land_Solid_Small,18.540863875008657,24.55254404200241,4.0,Animal_Land_Solid_Small,-4.0,,,,,,,,,,,
encoding,value,20,4267338,4273349,4271921.0,4272941.0,1021.0,1021.0,1920.1,1522.4,1920.0,700.0,Animal_Land_Solid_Small,18.540863875008657,24.55254404200241,4.0,Animal_Land_Solid_Small,-4.0,,,,,,,,,,,
encoding,value,20,4267338,4273349,4272955.0,4273689.0,735.0,394.0,1874.4,1489.7,1920.0,700.0,Animal_Land_Solid_Small,18.540863875008657,24.55254404200241,4.0,Animal_Land_Solid_Small,-4.0,,,,,,,,,,,
encoding,attention,20,4273350,4276367,4273935.0,4274081.0,147.0,147.0,1856.1,1406.6,1920.0,700.0,Animal_Land_Solid_Small,24.55274929202278,27.56972704202053,4.0,Animal_Land_Solid_Small,-4.0,-4.0,1.0,1.3285610000020824,,,,,,,,
encoding,attention,20,4273350,4276367,4274386.0,4274475.0,90.0,90.0,1938.6,1545.0,1920.0,700.0,Animal_Land_Solid_Small,24.55274929202278,27.56972704202053,4.0,Animal_Land_Solid_Small,-4.0,-4.0,1.0,1.3285610000020824,,,,,,,,
encoding,attention,20,4273350,4276367,4274483.0,4274964.0,482.0,482.0,1911.6,1503.9,1920.0,700.0,Animal_Land_Solid_Small,24.55274929202278,27.56972704202053,4.0,Animal_Land_Solid_Small,-4.0,-4.0,1.0,1.3285610000020824,,,,,,,,
encoding,attention,20,4273350,4276367,4275341.0,4275509.0,169.0,169.0,1878.3,1392.2,1920.0,700.0,Animal_Land_Solid_Small,24.55274929202278,27.56972704202053,4.0,Animal_Land_Solid_Small,-4.0,-4.0,1.0,1.3285610000020824,,,,,,,,
encoding,attention,20,4273350,4276367,4275530.0,4276015.0,486.0,486.0,1867.3,1252.8,1920.0,700.0,Animal_Land_Solid_Small,24.55274929202278,27.56972704202053,4.0,Animal_Land_Solid_Small,-4.0,-4.0,1.0,1.3285610000020824,,,,,,,,
encoding,fixation,21,4276367,4276872,,,,,,,,,none,27.569874334003543,28.075394459010568,4.0,Object_Land_Solid_Large,7.0,,,,,,,,,,,
encoding,image,21,4276873,4277883,4277765.0,4278345.0,581.0,118.0,1556.1,1172.7,1591.0,891.0,Object_Land_Solid_Large,28.075546959007625,29.08596266701352,4.0,Object_Land_Solid_Large,7.0,,,,,,,,,,,
encoding,value,21,4277883,4283895,4278862.0,4278889.0,28.0,28.0,1829.6,1351.4,1920.0,700.0,Animal_Land_Solid_Small,29.08607675001258,35.097293833998265,4.0,Object_Land_Solid_Large,7.0,,,,,,,,,,,
encoding,value,21,4277883,4283895,4279216.0,4279400.0,185.0,185.0,1768.1,1268.6,1591.0,891.0,Object_Land_Solid_Large,29.08607675001258,35.097293833998265,4.0,Object_Land_Solid_Large,7.0,,,,,,,,,,,
encoding,value,21,4277883,4283895,4279419.0,4279773.0,355.0,355.0,1811.2,1162.0,1591.0,891.0,Object_Land_Solid_Large,29.08607675001258,35.097293833998265,4.0,Object_Land_Solid_Large,7.0,,,,,,,,,,,
encoding,value,21,4277883,4283895,4279796.0,4280934.0,1139.0,1139.0,1548.8,1198.8,1591.0,891.0,Object_Land_Solid_Large,29.08607675001258,35.097293833998265,4.0,Object_Land_Solid_Large,7.0,,,,,,,,,,,
encoding,value,21,4277883,4283895,4280942.0,4281213.0,272.0,272.0,1508.7,1174.6,1591.0,891.0,Object_Land_Solid_Large,29.08607675001258,35.097293833998265,4.0,Object_Land_Solid_Large,7.0,,,,,,,,,,,
encoding,value,21,4277883,4283895,4281226.0,4281395.0,170.0,170.0,1624.6,1170.2,1591.0,891.0,Object_Land_Solid_Large,29.08607675001258,35.097293833998265,4.0,Object_Land_Solid_Large,7.0,,,,,,,,,,,
encoding,value,21,4277883,4283895,4281623.0,4281669.0,47.0,47.0,1859.0,1349.2,1920.0,700.0,Animal_Land_Solid_Small,29.08607675001258,35.097293833998265,4.0,Object_Land_Solid_Large,7.0,,,,,,,,,,,
encoding,value,21,4277883,4283895,4281891.0,4281918.0,28.0,28.0,1860.7,1300.8,1920.0,700.0,Animal_Land_Solid_Small,29.08607675001258,35.097293833998265,4.0,Object_Land_Solid_Large,7.0,,,,,,,,,,,
encoding,value,21,4277883,4283895,4281971.0,4282276.0,306.0,306.0,1844.1,1200.7,1591.0,891.0,Object_Land_Solid_Large,29.08607675001258,35.097293833998265,4.0,Object_Land_Solid_Large,7.0,,,,,,,,,,,
encoding,value,21,4277883,4283895,4282297.0,4283105.0,809.0,809.0,1565.2,1197.9,1591.0,891.0,Object_Land_Solid_Large,29.08607675001258,35.097293833998265,4.0,Object_Land_Solid_Large,7.0,,,,,,,,,,,
encoding,value,21,4277883,4283895,4283126.0,4283322.0,197.0,197.0,1728.7,1256.6,1591.0,891.0,Object_Land_Solid_Large,29.08607675001258,35.097293833998265,4.0,Object_Land_Solid_Large,7.0,,,,,,,,,,,
encoding,value,21,4277883,4283895,4283523.0,4283549.0,27.0,27.0,1808.1,1340.5,1920.0,700.0,Animal_Land_Solid_Small,29.08607675001258,35.097293833998265,4.0,Object_Land_Solid_Large,7.0,,,,,,,,,,,
encoding,value,21,4277883,4283895,4283588.0,4283722.0,135.0,135.0,1800.9,1238.5,1591.0,891.0,Object_Land_Solid_Large,29.08607675001258,35.097293833998265,4.0,Object_Land_Solid_Large,7.0,,,,,,,,,,,
encoding,value,21,4277883,4283895,4283740.0,4284193.0,454.0,155.0,1859.5,1141.7,1591.0,891.0,Object_Land_Solid_Large,29.08607675001258,35.097293833998265,4.0,Object_Land_Solid_Large,7.0,,,,,,,,,,,
encoding,attention,21,4283895,4286913,4284226.0,4284428.0,203.0,203.0,1517.2,1202.0,1591.0,891.0,Object_Land_Solid_Large,35.097417000011774,38.1157303340151,4.0,Object_Land_Solid_Large,7.0,7.0,1.0,1.480932042002678,,,,,,,,
encoding,attention,21,4283895,4286913,4284439.0,4285644.0,1206.0,1206.0,1477.2,1176.0,1591.0,891.0,Object_Land_Solid_Large,35.097417000011774,38.1157303340151,4.0,Object_Land_Solid_Large,7.0,7.0,1.0,1.480932042002678,,,,,,,,
encoding,attention,21,4283895,4286913,4285875.0,4285907.0,33.0,33.0,1673.5,1386.8,1591.0,891.0,Object_Land_Solid_Large,35.097417000011774,38.1157303340151,4.0,Object_Land_Solid_Large,7.0,7.0,1.0,1.480932042002678,,,,,,,,
encoding,attention,21,4283895,4286913,4286119.0,4286167.0,49.0,49.0,1611.1,1349.5,1591.0,891.0,Object_Land_Solid_Large,35.097417000011774,38.1157303340151,4.0,Object_Land_Solid_Large,7.0,7.0,1.0,1.480932042002678,,,,,,,,
encoding,attention,21,4283895,4286913,4286195.0,4286309.0,115.0,115.0,1608.1,1256.8,1591.0,891.0,Object_Land_Solid_Large,35.097417000011774,38.1157303340151,4.0,Object_Land_Solid_Large,7.0,7.0,1.0,1.480932042002678,,,,,,,,
encoding,fixation,22,4286914,4287670,4287215.0,4287967.0,753.0,455.0,1860.0,1115.2,1920.0,1080.0,fixation,38.11587995901937,38.8720127500128,4.0,Object_Sea_Pattern_Large,-7.0,,,,,,,,,,,
encoding,image,22,4287670,4288680,4288008.0,4288217.0,210.0,210.0,2202.4,1286.8,2249.0,891.0,Object_Sea_Pattern_Large,38.87215454201214,39.88260700000683,4.0,Object_Sea_Pattern_Large,-7.0,,,,,,,,,,,
encoding,value,22,4288680,4294692,4288815.0,4288856.0,42.0,42.0,2197.5,1361.6,2249.0,891.0,Object_Sea_Pattern_Large,39.88270587500301,45.893960917019285,4.0,Object_Sea_Pattern_Large,-7.0,,,,,,,,,,,
encoding,value,22,4288680,4294692,4288862.0,4288960.0,99.0,99.0,2191.6,1305.3,2249.0,891.0,Object_Sea_Pattern_Large,39.88270587500301,45.893960917019285,4.0,Object_Sea_Pattern_Large,-7.0,,,,,,,,,,,
encoding,value,22,4288680,4294692,4288969.0,4289305.0,337.0,337.0,2206.5,1243.5,2249.0,891.0,Object_Sea_Pattern_Large,39.88270587500301,45.893960917019285,4.0,Object_Sea_Pattern_Large,-7.0,,,,,,,,,,,
encoding,value,22,4288680,4294692,4289327.0,4290075.0,749.0,749.0,1929.7,1189.6,1920.0,700.0,Animal_Land_Solid_Small,39.88270587500301,45.893960917019285,4.0,Object_Sea_Pattern_Large,-7.0,,,,,,,,,,,
encoding,value,22,4288680,4294692,4290085.0,4290277.0,193.0,193.0,1843.9,1199.0,1591.0,891.0,Object_Land_Solid_Large,39.88270587500301,45.893960917019285,4.0,Object_Sea_Pattern_Large,-7.0,,,,,,,,,,,
encoding,value,22,4288680,4294692,4290504.0,4290530.0,27.0,27.0,2278.0,1334.1,2249.0,891.0,Object_Sea_Pattern_Large,39.88270587500301,45.893960917019285,4.0,Object_Sea_Pattern_Large,-7.0,,,,,,,,,,,
encoding,value,22,4288680,4294692,4291407.0,4291464.0,58.0,58.0,1880.3,1217.9,1920.0,700.0,Animal_Land_Solid_Small,39.88270587500301,45.893960917019285,4.0,Object_Sea_Pattern_Large,-7.0,,,,,,,,,,,
encoding,value,22,4288680,4294692,4291717.0,4291746.0,30.0,30.0,1870.7,1334.2,1920.0,700.0,Animal_Land_Solid_Small,39.88270587500301,45.893960917019285,4.0,Object_Sea_Pattern_Large,-7.0,,,,,,,,,,,
encoding,value,22,4288680,4294692,4291763.0,4291817.0,55.0,55.0,1869.4,1309.5,1920.0,700.0,Animal_Land_Solid_Small,39.88270587500301,45.893960917019285,4.0,Object_Sea_Pattern_Large,-7.0,,,,,,,,,,,
encoding,value,22,4288680,4294692,4291851.0,4292364.0,514.0,514.0,1867.0,1221.6,1920.0,700.0,Animal_Land_Solid_Small,39.88270587500301,45.893960917019285,4.0,Object_Sea_Pattern_Large,-7.0,,,,,,,,,,,
encoding,value,22,4288680,4294692,4292380.0,4292862.0,483.0,483.0,2169.3,1216.0,2249.0,891.0,Object_Sea_Pattern_Large,39.88270587500301,45.893960917019285,4.0,Object_Sea_Pattern_Large,-7.0,,,,,,,,,,,
encoding,value,22,4288680,4294692,4292878.0,4293103.0,226.0,226.0,2068.3,1211.2,2249.0,891.0,Object_Sea_Pattern_Large,39.88270587500301,45.893960917019285,4.0,Object_Sea_Pattern_Large,-7.0,,,,,,,,,,,
encoding,value,22,4288680,4294692,4293113.0,4294046.0,934.0,934.0,2173.2,1193.9,2249.0,891.0,Object_Sea_Pattern_Large,39.88270587500301,45.893960917019285,4.0,Object_Sea_Pattern_Large,-7.0,,,,,,,,,,,
encoding,value,22,4288680,4294692,4294074.0,4294485.0,412.0,412.0,1892.8,1175.8,1920.0,700.0,Animal_Land_Solid_Small,39.88270587500301,45.893960917019285,4.0,Object_Sea_Pattern_Large,-7.0,,,,,,,,,,,
encoding,attention,22,4294692,4297713,4294719.0,4294747.0,29.0,29.0,2127.5,1309.5,2249.0,891.0,Object_Sea_Pattern_Large,45.894125125021674,48.91544041701127,4.0,Object_Sea_Pattern_Large,-7.0,-7.0,1.0,0.8421017079963349,,,,,,,,
encoding,attention,22,4294692,4297713,4294790.0,4294911.0,122.0,122.0,2109.8,1233.8,2249.0,891.0,Object_Sea_Pattern_Large,45.894125125021674,48.91544041701127,4.0,Object_Sea_Pattern_Large,-7.0,-7.0,1.0,0.8421017079963349,,,,,,,,
encoding,attention,22,4294692,4297713,4294923.0,4295806.0,884.0,884.0,2193.2,1199.5,2249.0,891.0,Object_Sea_Pattern_Large,45.894125125021674,48.91544041701127,4.0,Object_Sea_Pattern_Large,-7.0,-7.0,1.0,0.8421017079963349,,,,,,,,
encoding,attention,22,4294692,4297713,4295825.0,4296050.0,226.0,226.0,2033.2,1233.8,2249.0,891.0,Object_Sea_Pattern_Large,45.894125125021674,48.91544041701127,4.0,Object_Sea_Pattern_Large,-7.0,-7.0,1.0,0.8421017079963349,,,,,,,,
encoding,attention,22,4294692,4297713,4296545.0,4296591.0,47.0,47.0,1955.9,1391.2,1920.0,700.0,Animal_Land_Solid_Small,45.894125125021674,48.91544041701127,4.0,Object_Sea_Pattern_Large,-7.0,-7.0,1.0,0.8421017079963349,,,,,,,,
encoding,attention,22,4294692,4297713,4296628.0,4297106.0,479.0,479.0,1946.3,1273.9,1920.0,700.0,Animal_Land_Solid_Small,45.894125125021674,48.91544041701127,4.0,Object_Sea_Pattern_Large,-7.0,-7.0,1.0,0.8421017079963349,,,,,,,,
encoding,fixation,23,4297714,4298219,4297834.0,4298034.0,201.0,201.0,2085.7,1230.0,2249.0,891.0,Object_Sea_Pattern_Large,48.915605709014926,49.42090745901805,4.0,Animal_Sea_Pattern_Small,7.0,,,,,,,,,,,
encoding,fixation,23,4297714,4298219,4298053.0,4298797.0,745.0,166.0,1869.5,1185.5,1920.0,700.0,Animal_Land_Solid_Small,48.915605709014926,49.42090745901805,4.0,Animal_Sea_Pattern_Small,7.0,,,,,,,,,,,
encoding,image,23,4298219,4299231,,,,,,,,,none,49.421028917015065,50.43239620901295,4.0,Animal_Sea_Pattern_Small,7.0,,,,,,,,,,,
encoding,value,23,4299231,4305243,4299293.0,4299335.0,43.0,43.0,1985.2,1388.4,1920.0,700.0,Animal_Land_Solid_Small,50.43250358401565,56.4449158339994,4.0,Animal_Sea_Pattern_Small,7.0,,,,,,,,,,,
encoding,value,23,4299231,4305243,4299357.0,4299726.0,370.0,370.0,1976.0,1276.3,1920.0,700.0,Animal_Land_Solid_Small,50.43250358401565,56.4449158339994,4.0,Animal_Sea_Pattern_Small,7.0,,,,,,,,,,,
encoding,value,23,4299231,4305243,4299765.0,4300439.0,675.0,675.0,2137.8,955.8,2249.0,1269.0,Animal_Sea_Pattern_Small,50.43250358401565,56.4449158339994,4.0,Animal_Sea_Pattern_Small,7.0,,,,,,,,,,,
encoding,value,23,4299231,4305243,4300891.0,4300940.0,50.0,50.0,2072.3,1138.8,2249.0,891.0,Object_Sea_Pattern_Large,50.43250358401565,56.4449158339994,4.0,Animal_Sea_Pattern_Small,7.0,,,,,,,,,,,
encoding,value,23,4299231,4305243,4300957.0,4301417.0,461.0,461.0,2060.0,1081.0,2249.0,891.0,Object_Sea_Pattern_Large,50.43250358401565,56.4449158339994,4.0,Animal_Sea_Pattern_Small,7.0,,,,,,,,,,,
encoding,value,23,4299231,4305243,4301437.0,4302491.0,1055.0,1055.0,1854.8,1101.5,1920.0,1080.0,fixation,50.43250358401565,56.4449158339994,4.0,Animal_Sea_Pattern_Small,7.0,,,,,,,,,,,
encoding,value,23,4299231,4305243,4302519.0,4302790.0,272.0,272.0,2093.6,953.2,2249.0,1269.0,Animal_Sea_Pattern_Small,50.43250358401565,56.4449158339994,4.0,Animal_Sea_Pattern_Small,7.0,,,,,,,,,,,
encoding,value,23,4299231,4305243,4302797.0,4303235.0,439.0,439.0,2146.5,919.9000000000001,2249.0,1269.0,Animal_Sea_Pattern_Small,50.43250358401565,56.4449158339994,4.0,Animal_Sea_Pattern_Small,7.0,,,,,,,,,,,
encoding,value,23,4299231,4305243,4303648.0,4303732.0,85.0,85.0,2147.9,862.2,2249.0,1269.0,Animal_Sea_Pattern_Small,50.43250358401565,56.4449158339994,4.0,Animal_Sea_Pattern_Small,7.0,,,,,,,,,,,
encoding,value,23,4299231,4305243,4303750.0,4303954.0,205.0,205.0,2153.2,811.9000000000001,2249.0,1269.0,Animal_Sea_Pattern_Small,50.43250358401565,56.4449158339994,4.0,Animal_Sea_Pattern_Small,7.0,,,,,,,,,,,
encoding,value,23,4299231,4305243,4303966.0,4304302.0,337.0,337.0,2098.8,822.5999999999999,2249.0,1269.0,Animal_Sea_Pattern_Small,50.43250358401565,56.4449158339994,4.0,Animal_Sea_Pattern_Small,7.0,,,,,,,,,,,
encoding,value,23,4299231,4305243,4304311.0,4305188.0,878.0,878.0,2171.2,903.4000000000001,2249.0,1269.0,Animal_Sea_Pattern_Small,50.43250358401565,56.4449158339994,4.0,Animal_Sea_Pattern_Small,7.0,,,,,,,,,,,
encoding,value,23,4299231,4305243,4305214.0,4305567.0,354.0,29.0,1989.6,1031.5,2249.0,1269.0,Animal_Sea_Pattern_Small,50.43250358401565,56.4449158339994,4.0,Animal_Sea_Pattern_Small,7.0,,,,,,,,,,,
encoding,attention,23,4305243,4308262,4305593.0,4305857.0,265.0,265.0,2128.2,832.5,2249.0,1269.0,Animal_Sea_Pattern_Small,56.44503379199887,59.46357179200277,4.0,Animal_Sea_Pattern_Small,7.0,7.0,1.0,2.0679850410087965,,,,,,,,
encoding,attention,23,4305243,4308262,4306110.0,4306140.0,31.0,31.0,2117.3,1011.9000000000001,2249.0,1269.0,Animal_Sea_Pattern_Small,56.44503379199887,59.46357179200277,4.0,Animal_Sea_Pattern_Small,7.0,7.0,1.0,2.0679850410087965,,,,,,,,
encoding,attention,23,4305243,4308262,4306179.0,4307780.0,1602.0,1602.0,2103.8,932.0999999999999,2249.0,1269.0,Animal_Sea_Pattern_Small,56.44503379199887,59.46357179200277,4.0,Animal_Sea_Pattern_Small,7.0,7.0,1.0,2.0679850410087965,,,,,,,,
encoding,fixation,24,4308262,4309268,4308747.0,4308784.0,38.0,38.0,2094.1,1291.8,2249.0,891.0,Object_Sea_Pattern_Large,59.46372700002394,60.46891712502111,4.0,Object_Land_Pattern_Small,-2.0,,,,,,,,,,,
encoding,fixation,24,4308262,4309268,4308828.0,4308945.0,118.0,118.0,2093.2,1220.8,2249.0,891.0,Object_Sea_Pattern_Large,59.46372700002394,60.46891712502111,4.0,Object_Land_Pattern_Small,-2.0,,,,,,,,,,,
encoding,fixation,24,4308262,4309268,4308969.0,4309161.0,193.0,193.0,1869.9,1139.8,1591.0,891.0,Object_Land_Solid_Large,59.46372700002394,60.46891712502111,4.0,Object_Land_Pattern_Small,-2.0,,,,,,,,,,,
encoding,fixation,24,4308262,4309268,4309175.0,4309551.0,377.0,93.0,1785.7,1088.8,1591.0,891.0,Object_Land_Solid_Large,59.46372700002394,60.46891712502111,4.0,Object_Land_Pattern_Small,-2.0,,,,,,,,,,,
encoding,image,24,4309268,4310279,4309575.0,4310181.0,607.0,607.0,1573.7,954.0999999999999,1591.0,1269.0,Object_Land_Pattern_Small,60.46908137502032,61.48030591700808,4.0,Object_Land_Pattern_Small,-2.0,,,,,,,,,,,
encoding,image,24,4309268,4310279,4310228.0,4310601.0,374.0,51.0,2042.4,1144.9,2249.0,891.0,Object_Sea_Pattern_Large,60.46908137502032,61.48030591700808,4.0,Object_Land_Pattern_Small,-2.0,,,,,,,,,,,
encoding,value,24,4310279,4316290,4310895.0,4310970.0,76.0,76.0,1657.8,990.2,1591.0,1269.0,Object_Land_Pattern_Small,61.480412917007925,67.49160991702229,4.0,Object_Land_Pattern_Small,-2.0,,,,,,,,,,,
encoding,value,24,4310279,4316290,4310987.0,4311113.0,127.0,127.0,1529.5,905.7,1591.0,1269.0,Object_Land_Pattern_Small,61.480412917007925,67.49160991702229,4.0,Object_Land_Pattern_Small,-2.0,,,,,,,,,,,
encoding,value,24,4310279,4316290,4311414.0,4311576.0,163.0,163.0,1579.5,954.3,1591.0,1269.0,Object_Land_Pattern_Small,61.480412917007925,67.49160991702229,4.0,Object_Land_Pattern_Small,-2.0,,,,,,,,,,,
encoding,value,24,4310279,4316290,4311993.0,4312083.0,91.0,91.0,1842.8,1291.1,1920.0,700.0,Animal_Land_Solid_Small,61.480412917007925,67.49160991702229,4.0,Object_Land_Pattern_Small,-2.0,,,,,,,,,,,
encoding,value,24,4310279,4316290,4312675.0,4312703.0,29.0,29.0,1593.4,1094.9,1591.0,891.0,Object_Land_Solid_Large,61.480412917007925,67.49160991702229,4.0,Object_Land_Pattern_Small,-2.0,,,,,,,,,,,
encoding,value,24,4310279,4316290,4312729.0,4312766.0,38.0,38.0,1596.0,1000.0999999999999,1591.0,1269.0,Object_Land_Pattern_Small,61.480412917007925,67.49160991702229,4.0,Object_Land_Pattern_Small,-2.0,,,,,,,,,,,
encoding,value,24,4310279,4316290,4312800.0,4313321.0,522.0,522.0,1862.9,1114.7,1920.0,1080.0,fixation,61.480412917007925,67.49160991702229,4.0,Object_Land_Pattern_Small,-2.0,,,,,,,,,,,
encoding,value,24,4310279,4316290,4313342.0,4314332.0,991.0,991.0,1770.0,1020.5999999999999,1591.0,1269.0,Object_Land_Pattern_Small,61.480412917007925,67.49160991702229,4.0,Object_Land_Pattern_Small,-2.0,,,,,,,,,,,
encoding,value,24,4310279,4316290,4314341.0,4314640.0,300.0,300.0,1694.7,992.3,1591.0,1269.0,Object_Land_Pattern_Small,61.480412917007925,67.49160991702229,4.0,Object_Land_Pattern_Small,-2.0,,,,,,,,,,,
encoding,value,24,4310279,4316290,4314647.0,4314980.0,334.0,334.0,1753.3,1001.0999999999999,1591.0,1269.0,Object_Land_Pattern_Small,61.480412917007925,67.49160991702229,4.0,Object_Land_Pattern_Small,-2.0,,,,,,,,,,,
encoding,value,24,4310279,4316290,4314988.0,4315213.0,226.0,226.0,1691.1,957.7,1591.0,1269.0,Object_Land_Pattern_Small,61.480412917007925,67.49160991702229,4.0,Object_Land_Pattern_Small,-2.0,,,,,,,,,,,
encoding,value,24,4310279,4316290,4315229.0,4315572.0,344.0,344.0,1769.8,1024.0,1591.0,1269.0,Object_Land_Pattern_Small,61.480412917007925,67.49160991702229,4.0,Object_Land_Pattern_Small,-2.0,,,,,,,,,,,
encoding,value,24,4310279,4316290,4315581.0,4316080.0,500.0,500.0,1836.0,1035.2,1591.0,1269.0,Object_Land_Pattern_Small,61.480412917007925,67.49160991702229,4.0,Object_Land_Pattern_Small,-2.0,,,,,,,,,,,
encoding,value,24,4310279,4316290,4316087.0,4316290.0,204.0,204.0,1892.3,1063.5,1920.0,1080.0,fixation,61.480412917007925,67.49160991702229,4.0,Object_Land_Pattern_Small,-2.0,,,,,,,,,,,
encoding,attention,24,4316290,4319309,4316490.0,4316535.0,46.0,46.0,1853.4,1182.5,1591.0,891.0,Object_Land_Solid_Large,67.49172587500652,70.50980708401767,4.0,Object_Land_Pattern_Small,-2.0,-2.0,1.0,2.230825374979758,,,,,,,,
