subject,phase,event,trial_number,game,option,choice,rt,roi_content,item_index,is_center,is_relevant,fix_start,fix_end,fix_duration_bounded
134,choice,choice,1,1.0,Sea,2.0,7.57487479201518,Animal_Land_Solid_Small,0,0,0,3105661.0,3105789.0,128.0
134,choice,choice,1,1.0,Sea,2.0,7.57487479201518,fixation,-1,1,0,3105798.0,3106905.0,1107.0
134,choice,choice,1,1.0,Sea,2.0,7.57487479201518,Object_Sea_Pattern_Large,1,0,1,3110959.0,3111271.0,312.0
134,choice,choice,1,1.0,Sea,2.0,7.57487479201518,fixation,-1,1,0,3111318.0,3111597.0,279.0
134,choice,choice,1,1.0,Sea,2.0,7.57487479201518,Animal_Land_Solid_Small,0,0,0,3112922.0,3112956.0,34.0
134,choice,choice,1,1.0,Sea,2.0,7.57487479201518,fixation,-1,1,0,3113010.0,3113162.0,152.0
134,choice,choice,2,1.0,Land,1.0,7.908995290985331,Animal_Sea_Pattern_Small,2,0,0,3120091.0,3120750.0,659.0
134,choice,choice,3,1.0,Small,1.0,14.03148320800392,Object_Sea_Pattern_Large,1,0,0,3127871.0,3127901.0,30.0
134,choice,choice,3,1.0,Small,1.0,14.03148320800392,Animal_Land_Solid_Small,0,0,1,3128366.0,3129609.0,1243.0
134,choice,choice,3,1.0,Small,1.0,14.03148320800392,Object_Sea_Pattern_Large,1,0,0,3129821.0,3130149.0,328.0
134,choice,choice,3,1.0,Small,1.0,14.03148320800392,Animal_Sea_Pattern_Small,2,0,1,3130784.0,3131060.0,276.0
134,choice,choice,3,1.0,Small,1.0,14.03148320800392,Object_Land_Pattern_Small,3,0,1,3131095.0,3132042.0,947.0
134,choice,choice,3,1.0,Small,1.0,14.03148320800392,Animal_Sea_Solid_Large,4,0,0,3132367.0,3133428.0,1061.0
134,choice,choice,3,1.0,Small,1.0,14.03148320800392,Animal_Land_Solid_Small,0,0,1,3133665.0,3133695.0,30.0
134,choice,choice,3,1.0,Small,1.0,14.03148320800392,Object_Land_Solid_Large,5,0,0,3133737.0,3134311.0,574.0
134,choice,choice,3,1.0,Small,1.0,14.03148320800392,Object_Sea_Pattern_Large,1,0,0,3134334.0,3134719.0,385.0
134,choice,choice,3,1.0,Small,1.0,14.03148320800392,Animal_Sea_Pattern_Small,2,0,1,3134761.0,3134965.0,204.0
134,choice,choice,3,1.0,Small,1.0,14.03148320800392,Object_Sea_Pattern_Large,1,0,0,3135583.0,3136014.0,431.0
134,choice,choice,3,1.0,Small,1.0,14.03148320800392,Animal_Land_Solid_Small,0,0,1,3136535.0,3136728.0,193.0
134,choice,choice,3,1.0,Small,1.0,14.03148320800392,Object_Land_Solid_Large,5,0,0,3136773.0,3137191.0,418.0
134,choice,choice,3,1.0,Small,1.0,14.03148320800392,Object_Land_Pattern_Small,3,0,1,3138017.0,3139195.0,1178.0
134,choice,choice,3,1.0,Small,1.0,14.03148320800392,Object_Sea_Pattern_Large,1,0,0,3139257.0,3139420.0,163.0
134,choice,choice,3,1.0,Small,1.0,14.03148320800392,Animal_Land_Solid_Small,0,0,1,3140191.0,3140860.0,669.0
134,choice,choice,3,1.0,Small,1.0,14.03148320800392,Object_Sea_Pattern_Large,1,0,0,3140872.0,3141334.0,462.0
134,choice,choice,3,1.0,Small,1.0,14.03148320800392,Object_Land_Pattern_Small,3,0,1,3141373.0,3141458.0,85.0
134,choice,choice,4,1.0,Object,1.0,5.224671750009293,Object_Land_Solid_Large,5,0,1,3145543.0,3145715.0,172.0
134,choice,choice,4,1.0,Object,1.0,5.224671750009293,Object_Sea_Pattern_Large,1,0,1,3145760.0,3146033.0,273.0
134,choice,choice,4,1.0,Object,1.0,5.224671750009293,Object_Land_Solid_Large,5,0,1,3146058.0,3146639.0,581.0
134,choice,choice,4,1.0,Object,1.0,5.224671750009293,Object_Sea_Pattern_Large,1,0,1,3146664.0,3147034.0,370.0
134,choice,choice,4,1.0,Object,1.0,5.224671750009293,Animal_Land_Solid_Small,0,0,0,3147569.0,3147688.0,119.0
134,choice,choice,4,1.0,Object,1.0,5.224671750009293,Object_Land_Solid_Large,5,0,1,3147697.0,3148476.0,779.0
134,choice,choice,4,1.0,Object,1.0,5.224671750009293,Object_Land_Pattern_Small,3,0,1,3148495.0,3148679.0,184.0
134,choice,choice,4,1.0,Object,1.0,5.224671750009293,fixation,-1,1,0,3148701.0,3149060.0,359.0
134,choice,choice,4,1.0,Object,1.0,5.224671750009293,Animal_Land_Solid_Small,0,0,0,3149298.0,3149528.0,230.0
134,choice,choice,4,1.0,Object,1.0,5.224671750009293,Object_Land_Solid_Large,5,0,1,3149561.0,3149938.0,377.0
134,choice,choice,4,1.0,Object,1.0,5.224671750009293,Animal_Land_Solid_Small,0,0,0,3149949.0,3150235.0,286.0
134,choice,choice,5,1.0,Solid,2.0,15.11882874998264,Animal_Land_Solid_Small,0,0,1,3153588.0,3153868.0,280.0
134,choice,choice,5,1.0,Solid,2.0,15.11882874998264,Object_Land_Solid_Large,5,0,1,3153880.0,3154217.0,337.0
134,choice,choice,5,1.0,Solid,2.0,15.11882874998264,fixation,-1,1,0,3154233.0,3154644.0,411.0
134,choice,choice,5,1.0,Solid,2.0,15.11882874998264,Object_Land_Solid_Large,5,0,1,3154668.0,3155039.0,371.0
134,choice,choice,5,1.0,Solid,2.0,15.11882874998264,Object_Sea_Pattern_Large,1,0,0,3155070.0,3155369.0,299.0
134,choice,choice,5,1.0,Solid,2.0,15.11882874998264,Animal_Land_Solid_Small,0,0,1,3155592.0,3155622.0,30.0
134,choice,choice,5,1.0,Solid,2.0,15.11882874998264,Object_Sea_Pattern_Large,1,0,0,3155641.0,3155983.0,342.0
134,choice,choice,5,1.0,Solid,2.0,15.11882874998264,Object_Land_Pattern_Small,3,0,0,3156002.0,3157576.0,1574.0
134,choice,choice,5,1.0,Solid,2.0,15.11882874998264,Object_Land_Solid_Large,5,0,1,3157861.0,3158373.0,512.0
134,choice,choice,5,1.0,Solid,2.0,15.11882874998264,Object_Land_Pattern_Small,3,0,0,3158385.0,3159328.0,943.0
134,choice,choice,5,1.0,Solid,2.0,15.11882874998264,Object_Land_Solid_Large,5,0,1,3159357.0,3161220.0,1863.0
134,choice,choice,5,1.0,Solid,2.0,15.11882874998264,fixation,-1,1,0,3161543.0,3162029.0,486.0
134,choice,choice,5,1.0,Solid,2.0,15.11882874998264,Object_Land_Solid_Large,5,0,1,3162049.0,3163123.0,1074.0
134,choice,choice,5,1.0,Solid,2.0,15.11882874998264,Object_Land_Pattern_Small,3,0,0,3163682.0,3164808.0,1126.0
134,choice,choice,5,1.0,Solid,2.0,15.11882874998264,Animal_Sea_Pattern_Small,2,0,0,3164846.0,3165206.0,360.0
134,choice,choice,5,1.0,Solid,2.0,15.11882874998264,fixation,-1,1,0,3165213.0,3165566.0,353.0
134,choice,choice,5,1.0,Solid,2.0,15.11882874998264,Object_Land_Pattern_Small,3,0,0,3165583.0,3165964.0,381.0
134,choice,choice,5,1.0,Solid,2.0,15.11882874998264,Object_Land_Solid_Large,5,0,1,3166280.0,3167337.0,1057.0
134,choice,choice,5,1.0,Solid,2.0,15.11882874998264,Animal_Land_Solid_Small,0,0,1,3167597.0,3167789.0,192.0
134,choice,choice,6,1.0,Pattern,2.0,3.583608999993885,Object_Land_Solid_Large,5,0,0,3171279.0,3171528.0,249.0
134,choice,choice,6,1.0,Pattern,2.0,3.583608999993885,Animal_Land_Solid_Small,0,0,0,3171793.0,3171848.0,55.0
134,choice,choice,6,1.0,Pattern,2.0,3.583608999993885,Object_Land_Solid_Large,5,0,0,3171901.0,3172498.0,597.0
134,choice,choice,6,1.0,Pattern,2.0,3.583608999993885,Object_Land_Pattern_Small,3,0,1,3172543.0,3173580.0,1037.0
134,choice,choice,6,1.0,Pattern,2.0,3.583608999993885,fixation,-1,1,0,3173591.0,3173847.0,256.0
134,choice,choice,6,1.0,Pattern,2.0,3.583608999993885,Animal_Land_Solid_Small,0,0,0,3174136.0,3174233.0,97.0
134,choice,choice,7,1.0,Large,2.0,4.663166333019035,Animal_Land_Solid_Small,0,0,0,3177304.0,3177346.0,42.0
134,choice,choice,7,1.0,Large,2.0,4.663166333019035,Object_Land_Solid_Large,5,0,1,3177419.0,3177729.0,310.0
134,choice,choice,7,1.0,Large,2.0,4.663166333019035,Animal_Land_Solid_Small,0,0,0,3177955.0,3178088.0,133.0
134,choice,choice,7,1.0,Large,2.0,4.663166333019035,Object_Land_Solid_Large,5,0,1,3178339.0,3179827.0,1488.0
134,choice,choice,7,1.0,Large,2.0,4.663166333019035,Animal_Land_Solid_Small,0,0,0,3180021.0,3180312.0,291.0
134,choice,choice,7,1.0,Large,2.0,4.663166333019035,Object_Sea_Pattern_Large,1,0,1,3180381.0,3180702.0,321.0
134,choice,choice,7,1.0,Large,2.0,4.663166333019035,Object_Land_Solid_Large,5,0,1,3180726.0,3181059.0,333.0
134,choice,choice,7,1.0,Large,2.0,4.663166333019035,Object_Land_Pattern_Small,3,0,0,3181066.0,3181758.0,692.0
134,choice,choice,8,1.0,Animal,1.0,8.239611416007392,Animal_Land_Solid_Small,0,0,1,3185848.0,3186417.0,569.0
134,choice,choice,8,1.0,Animal,1.0,8.239611416007392,Object_Land_Solid_Large,5,0,0,3186472.0,3186723.0,251.0
134,choice,choice,8,1.0,Animal,1.0,8.239611416007392,Animal_Land_Solid_Small,0,0,1,3187003.0,3187033.0,30.0
134,choice,choice,8,1.0,Animal,1.0,8.239611416007392,Object_Land_Solid_Large,5,0,0,3187077.0,3188092.0,1015.0
134,choice,choice,8,1.0,Animal,1.0,8.239611416007392,Object_Sea_Pattern_Large,1,0,0,3188120.0,3188613.0,493.0
134,choice,choice,8,1.0,Animal,1.0,8.239611416007392,Object_Land_Solid_Large,5,0,0,3188924.0,3189403.0,479.0
134,choice,choice,8,1.0,Animal,1.0,8.239611416007392,Object_Land_Pattern_Small,3,0,0,3189410.0,3189763.0,353.0
134,choice,choice,8,1.0,Animal,1.0,8.239611416007392,Object_Land_Solid_Large,5,0,0,3190076.0,3190127.0,51.0
134,choice,choice,8,1.0,Animal,1.0,8.239611416007392,Animal_Land_Solid_Small,0,0,1,3190354.0,3190607.0,253.0
134,choice,choice,8,1.0,Animal,1.0,8.239611416007392,Object_Land_Solid_Large,5,0,0,3190657.0,3193056.0,2399.0
134,choice,choice,9,2.0,Small,1.0,8.642359874997055,Object_Sea_Solid_Small,0,0,1,3629898.0,3630072.0,174.0
134,choice,choice,9,2.0,Small,1.0,8.642359874997055,Animal_Sea_Solid_Small,1,0,1,3630321.0,3631245.0,924.0
134,choice,choice,9,2.0,Small,1.0,8.642359874997055,Object_Sea_Solid_Small,0,0,1,3631771.0,3632554.0,783.0
134,choice,choice,9,2.0,Small,1.0,8.642359874997055,Object_Land_Solid_Large,2,0,0,3632859.0,3633280.0,421.0
134,choice,choice,9,2.0,Small,1.0,8.642359874997055,Animal_Sea_Solid_Small,1,0,1,3634682.0,3634887.0,205.0
134,choice,choice,9,2.0,Small,1.0,8.642359874997055,Object_Land_Pattern_Small,3,0,1,3634914.0,3636003.0,1089.0
134,choice,choice,9,2.0,Small,1.0,8.642359874997055,Object_Sea_Solid_Small,0,0,1,3636429.0,3636464.0,35.0
134,choice,choice,9,2.0,Small,1.0,8.642359874997055,Object_Land_Solid_Large,2,0,0,3636497.0,3637024.0,527.0
134,choice,choice,10,2.0,Land,1.0,10.182717541989405,Object_Sea_Solid_Small,0,0,0,3640609.0,3641320.0,711.0
134,choice,choice,10,2.0,Land,1.0,10.182717541989405,Animal_Sea_Solid_Small,1,0,0,3641609.0,3641817.0,208.0
134,choice,choice,10,2.0,Land,1.0,10.182717541989405,fixation,-1,1,0,3641835.0,3642752.0,917.0
134,choice,choice,10,2.0,Land,1.0,10.182717541989405,Object_Land_Pattern_Small,3,0,1,3642764.0,3643422.0,658.0
134,choice,choice,10,2.0,Land,1.0,10.182717541989405,Object_Land_Solid_Large,2,0,1,3643428.0,3644927.0,1499.0
134,choice,choice,10,2.0,Land,1.0,10.182717541989405,Object_Sea_Solid_Small,0,0,0,3646762.0,3647267.0,505.0
134,choice,choice,10,2.0,Land,1.0,10.182717541989405,Object_Land_Solid_Large,2,0,1,3647293.0,3647629.0,336.0
134,choice,choice,10,2.0,Land,1.0,10.182717541989405,Animal_Land_Pattern_Large,4,0,1,3648302.0,3648332.0,30.0
134,choice,choice,10,2.0,Land,1.0,10.182717541989405,Object_Sea_Solid_Small,0,0,0,3648694.0,3649536.0,842.0
134,choice,choice,10,2.0,Land,1.0,10.182717541989405,Object_Land_Solid_Large,2,0,1,3649566.0,3650009.0,443.0
134,choice,choice,11,2.0,Large,2.0,2.7178933750255965,Object_Sea_Solid_Small,0,0,0,3653342.0,3653483.0,141.0
134,choice,choice,11,2.0,Large,2.0,2.7178933750255965,fixation,-1,1,0,3653784.0,3654236.0,452.0
134,choice,choice,11,2.0,Large,2.0,2.7178933750255965,Object_Land_Pattern_Small,3,0,0,3654248.0,3655238.0,990.0
134,choice,choice,11,2.0,Large,2.0,2.7178933750255965,fixation,-1,1,0,3655269.0,3655527.0,258.0
134,choice,choice,12,2.0,Pattern,2.0,9.32272020902019,Object_Land_Solid_Large,2,0,0,3659234.0,3659394.0,160.0
134,choice,choice,12,2.0,Pattern,2.0,9.32272020902019,Animal_Sea_Solid_Small,1,0,0,3659701.0,3660282.0,581.0
134,choice,choice,12,2.0,Pattern,2.0,9.32272020902019,Object_Sea_Solid_Small,0,0,0,3660591.0,3661025.0,434.0
134,choice,choice,12,2.0,Pattern,2.0,9.32272020902019,Object_Land_Solid_Large,2,0,0,3661347.0,3662017.0,670.0
134,choice,choice,12,2.0,Pattern,2.0,9.32272020902019,Object_Land_Pattern_Small,3,0,1,3662028.0,3662734.0,706.0
134,choice,choice,12,2.0,Pattern,2.0,9.32272020902019,Object_Land_Solid_Large,2,0,0,3663021.0,3663046.0,25.0
134,choice,choice,12,2.0,Pattern,2.0,9.32272020902019,Object_Land_Pattern_Small,3,0,1,3663102.0,3663364.0,262.0
134,choice,choice,12,2.0,Pattern,2.0,9.32272020902019,fixation,-1,1,0,3663741.0,3664092.0,351.0
134,choice,choice,12,2.0,Pattern,2.0,9.32272020902019,Object_Land_Solid_Large,2,0,0,3665067.0,3665678.0,611.0
134,choice,choice,12,2.0,Pattern,2.0,9.32272020902019,Animal_Sea_Solid_Small,1,0,0,3665720.0,3666126.0,406.0
134,choice,choice,12,2.0,Pattern,2.0,9.32272020902019,Object_Sea_Solid_Small,0,0,0,3666479.0,3666635.0,156.0
134,choice,choice,12,2.0,Pattern,2.0,9.32272020902019,Animal_Sea_Solid_Small,1,0,0,3666660.0,3667163.0,503.0
134,choice,choice,13,2.0,Animal,2.0,5.500317124999128,Animal_Sea_Solid_Small,1,0,1,3675744.0,3676023.0,279.0
134,choice,choice,13,2.0,Animal,2.0,5.500317124999128,Object_Land_Solid_Large,2,0,0,3676314.0,3676631.0,317.0
134,choice,choice,14,2.0,Object,1.0,3.252104999992298,Object_Sea_Solid_Small,0,0,1,3680860.0,3680889.0,29.0
134,choice,choice,14,2.0,Object,1.0,3.252104999992298,Object_Land_Solid_Large,2,0,1,3680907.0,3681149.0,242.0
134,choice,choice,14,2.0,Object,1.0,3.252104999992298,Object_Sea_Solid_Small,0,0,1,3681386.0,3681409.0,23.0
134,choice,choice,14,2.0,Object,1.0,3.252104999992298,Animal_Sea_Solid_Small,1,0,0,3681434.0,3681736.0,302.0
134,choice,choice,14,2.0,Object,1.0,3.252104999992298,Object_Sea_Solid_Small,0,0,1,3682216.0,3682982.0,766.0
134,choice,choice,15,2.0,Solid,1.0,2.0001241250138264,Object_Land_Solid_Large,2,0,1,3687139.0,3687301.0,162.0
134,choice,choice,15,2.0,Solid,1.0,2.0001241250138264,Object_Sea_Solid_Small,0,0,1,3687888.0,3688769.0,881.0
134,choice,choice,17,3.0,Small,1.0,7.137621375004528,fixation,-1,1,0,4031928.0,4032243.0,315.0
134,choice,choice,17,3.0,Small,1.0,7.137621375004528,Animal_Land_Pattern_Small,0,0,1,4032253.0,4032430.0,177.0
134,choice,choice,17,3.0,Small,1.0,7.137621375004528,Object_Sea_Solid_Small,1,0,1,4032729.0,4033040.0,311.0
134,choice,choice,17,3.0,Small,1.0,7.137621375004528,Animal_Land_Pattern_Small,0,0,1,4033298.0,4034012.0,714.0
134,choice,choice,17,3.0,Small,1.0,7.137621375004528,Object_Sea_Solid_Large,2,0,0,4034279.0,4034500.0,221.0
134,choice,choice,17,3.0,Small,1.0,7.137621375004528,fixation,-1,1,0,4034525.0,4034738.0,213.0
134,choice,choice,17,3.0,Small,1.0,7.137621375004528,Animal_Land_Pattern_Small,0,0,1,4035103.0,4035939.0,836.0
134,choice,choice,17,3.0,Small,1.0,7.137621375004528,Object_Sea_Solid_Small,1,0,1,4035951.0,4036413.0,462.0
134,choice,choice,17,3.0,Small,1.0,7.137621375004528,Animal_Land_Pattern_Small,0,0,1,4036699.0,4038665.0,1966.0
134,choice,choice,17,3.0,Small,1.0,7.137621375004528,Object_Sea_Solid_Small,1,0,1,4038940.0,4039041.0,101.0
134,choice,choice,18,3.0,Large,2.0,3.458882042003097,Object_Sea_Solid_Small,1,0,0,4042564.0,4042594.0,30.0
134,choice,choice,18,3.0,Large,2.0,3.458882042003097,Animal_Land_Pattern_Small,0,0,0,4042645.0,4042715.0,70.0
134,choice,choice,18,3.0,Large,2.0,3.458882042003097,Object_Sea_Solid_Small,1,0,0,4042986.0,4043180.0,194.0
134,choice,choice,18,3.0,Large,2.0,3.458882042003097,Animal_Land_Pattern_Small,0,0,0,4043243.0,4043379.0,136.0
134,choice,choice,18,3.0,Large,2.0,3.458882042003097,Object_Sea_Solid_Small,1,0,0,4043904.0,4044813.0,909.0
134,choice,choice,18,3.0,Large,2.0,3.458882042003097,Animal_Sea_Solid_Small,3,0,0,4044899.0,4045570.0,671.0
134,choice,choice,19,3.0,Pattern,2.0,20.441985792014748,Object_Sea_Solid_Small,1,0,0,4048830.0,4049101.0,271.0
134,choice,choice,19,3.0,Pattern,2.0,20.441985792014748,Animal_Sea_Solid_Small,3,0,0,4049932.0,4050522.0,590.0
134,choice,choice,19,3.0,Pattern,2.0,20.441985792014748,Object_Sea_Solid_Small,1,0,0,4051124.0,4052390.0,1266.0
134,choice,choice,19,3.0,Pattern,2.0,20.441985792014748,Animal_Sea_Solid_Small,3,0,0,4053582.0,4053758.0,176.0
134,choice,choice,19,3.0,Pattern,2.0,20.441985792014748,Animal_Land_Pattern_Small,0,0,1,4053777.0,4054263.0,486.0
134,choice,choice,19,3.0,Pattern,2.0,20.441985792014748,Object_Sea_Solid_Small,1,0,0,4054600.0,4055530.0,930.0
134,choice,choice,19,3.0,Pattern,2.0,20.441985792014748,Animal_Land_Pattern_Small,0,0,1,4056059.0,4057423.0,1364.0
134,choice,choice,19,3.0,Pattern,2.0,20.441985792014748,Object_Sea_Solid_Small,1,0,0,4060374.0,4060735.0,361.0
134,choice,choice,19,3.0,Pattern,2.0,20.441985792014748,Animal_Land_Pattern_Small,0,0,1,4060760.0,4061096.0,336.0
134,choice,choice,19,3.0,Pattern,2.0,20.441985792014748,Animal_Sea_Solid_Small,3,0,0,4061450.0,4062099.0,649.0
134,choice,choice,19,3.0,Pattern,2.0,20.441985792014748,Animal_Land_Pattern_Small,0,0,1,4062123.0,4062412.0,289.0
134,choice,choice,19,3.0,Pattern,2.0,20.441985792014748,Object_Sea_Solid_Small,1,0,0,4062709.0,4062927.0,218.0
134,choice,choice,19,3.0,Pattern,2.0,20.441985792014748,Animal_Land_Pattern_Small,0,0,1,4062947.0,4062989.0,42.0
134,choice,choice,19,3.0,Pattern,2.0,20.441985792014748,Object_Sea_Solid_Large,2,0,0,4063271.0,4064064.0,793.0
134,choice,choice,19,3.0,Pattern,2.0,20.441985792014748,fixation,-1,1,0,4064115.0,4064266.0,151.0
134,choice,choice,19,3.0,Pattern,2.0,20.441985792014748,Animal_Sea_Solid_Small,3,0,0,4064534.0,4064664.0,130.0
134,choice,choice,19,3.0,Pattern,2.0,20.441985792014748,Animal_Land_Pattern_Small,0,0,1,4064740.0,4067300.0,2560.0
134,choice,choice,20,3.0,Animal,2.0,3.7531561250216328,Animal_Land_Pattern_Small,0,0,1,4071972.0,4072137.0,165.0
134,choice,choice,20,3.0,Animal,2.0,3.7531561250216328,fixation,-1,1,0,4072196.0,4072580.0,384.0
134,choice,choice,20,3.0,Animal,2.0,3.7531561250216328,Object_Sea_Solid_Small,1,0,0,4072836.0,4072868.0,32.0
134,choice,choice,20,3.0,Animal,2.0,3.7531561250216328,fixation,-1,1,0,4072930.0,4073181.0,251.0
134,choice,choice,20,3.0,Animal,2.0,3.7531561250216328,Object_Sea_Solid_Small,1,0,0,4073438.0,4073587.0,149.0
134,choice,choice,20,3.0,Animal,2.0,3.7531561250216328,Animal_Sea_Solid_Small,3,0,1,4074149.0,4074556.0,407.0
134,choice,choice,20,3.0,Animal,2.0,3.7531561250216328,Animal_Land_Pattern_Large,4,0,1,4074577.0,4074767.0,190.0
134,choice,choice,20,3.0,Animal,2.0,3.7531561250216328,Animal_Land_Pattern_Small,0,0,1,4074793.0,4075024.0,231.0
134,choice,choice,21,3.0,Land,1.0,4.946778583980631,Object_Sea_Solid_Small,1,0,0,4079084.0,4079280.0,196.0
134,choice,choice,21,3.0,Land,1.0,4.946778583980631,Animal_Sea_Solid_Small,3,0,0,4079833.0,4080111.0,278.0
134,choice,choice,21,3.0,Land,1.0,4.946778583980631,Animal_Land_Pattern_Small,0,0,1,4080132.0,4080581.0,449.0
134,choice,choice,21,3.0,Land,1.0,4.946778583980631,fixation,-1,1,0,4080587.0,4080817.0,230.0
134,choice,choice,21,3.0,Land,1.0,4.946778583980631,Object_Sea_Solid_Small,1,0,0,4081087.0,4082055.0,968.0
134,choice,choice,21,3.0,Land,1.0,4.946778583980631,Animal_Sea_Solid_Small,3,0,0,4082591.0,4082765.0,174.0
134,choice,choice,21,3.0,Land,1.0,4.946778583980631,Animal_Land_Pattern_Small,0,0,1,4082829.0,4083648.0,819.0
134,choice,choice,22,3.0,Object,2.0,3.990866500011179,Animal_Land_Pattern_Small,0,0,0,4087060.0,4087269.0,209.0
134,choice,choice,22,3.0,Object,2.0,3.990866500011179,Object_Sea_Solid_Small,1,0,1,4087764.0,4087902.0,138.0
134,choice,choice,22,3.0,Object,2.0,3.990866500011179,Animal_Land_Pattern_Small,0,0,0,4087932.0,4087992.0,60.0
134,choice,choice,22,3.0,Object,2.0,3.990866500011179,Object_Sea_Solid_Small,1,0,1,4088006.0,4088238.0,232.0
134,choice,choice,22,3.0,Object,2.0,3.990866500011179,Animal_Land_Pattern_Small,0,0,0,4088249.0,4089234.0,985.0
134,choice,choice,22,3.0,Object,2.0,3.990866500011179,Object_Sea_Solid_Large,2,0,1,4089252.0,4089538.0,286.0
134,choice,choice,22,3.0,Object,2.0,3.990866500011179,Animal_Land_Pattern_Small,0,0,0,4089550.0,4089611.0,61.0
134,choice,choice,22,3.0,Object,2.0,3.990866500011179,Object_Sea_Solid_Small,1,0,1,4089666.0,4089857.0,191.0
134,choice,choice,23,3.0,Solid,2.0,3.3761220000160392,Object_Sea_Solid_Small,1,0,1,4094661.0,4094849.0,188.0
134,choice,choice,23,3.0,Solid,2.0,3.3761220000160392,Animal_Land_Pattern_Small,0,0,0,4094876.0,4094907.0,31.0
134,choice,choice,23,3.0,Solid,2.0,3.3761220000160392,fixation,-1,1,0,4094915.0,4096131.0,1216.0
134,choice,choice,23,3.0,Solid,2.0,3.3761220000160392,Object_Sea_Solid_Large,2,0,1,4096160.0,4096445.0,285.0
134,choice,choice,23,3.0,Solid,2.0,3.3761220000160392,Object_Sea_Solid_Small,1,0,1,4096733.0,4096892.0,159.0
134,choice,choice,23,3.0,Solid,2.0,3.3761220000160392,Animal_Land_Pattern_Small,0,0,0,4097215.0,4097257.0,42.0
134,choice,choice,24,3.0,Sea,2.0,2.5476735420234036,Object_Sea_Solid_Small,1,0,1,4100962.0,4101089.0,127.0
134,choice,choice,24,3.0,Sea,2.0,2.5476735420234036,Animal_Land_Pattern_Small,0,0,0,4101760.0,4102103.0,343.0
134,choice,choice,25,4.0,Land,1.0,11.161410290980712,Object_Land_Solid_Large,0,0,1,4409075.0,4409410.0,335.0
134,choice,choice,25,4.0,Land,1.0,11.161410290980712,Animal_Land_Solid_Small,1,0,1,4409986.0,4410277.0,291.0
134,choice,choice,25,4.0,Land,1.0,11.161410290980712,fixation,-1,1,0,4410354.0,4410681.0,327.0
134,choice,choice,25,4.0,Land,1.0,11.161410290980712,Object_Land_Pattern_Small,2,0,1,4410704.0,4410931.0,227.0
134,choice,choice,25,4.0,Land,1.0,11.161410290980712,Object_Land_Solid_Large,0,0,1,4411197.0,4411477.0,280.0
134,choice,choice,25,4.0,Land,1.0,11.161410290980712,Animal_Land_Solid_Small,1,0,1,4411806.0,4412840.0,1034.0
134,choice,choice,25,4.0,Land,1.0,11.161410290980712,Object_Land_Solid_Large,0,0,1,4413694.0,4413755.0,61.0
134,choice,choice,25,4.0,Land,1.0,11.161410290980712,Animal_Land_Solid_Small,1,0,1,4414010.0,4414045.0,35.0
134,choice,choice,25,4.0,Land,1.0,11.161410290980712,Object_Land_Solid_Large,0,0,1,4414079.0,4415212.0,1133.0
134,choice,choice,25,4.0,Land,1.0,11.161410290980712,fixation,-1,1,0,4415430.0,4415451.0,21.0
134,choice,choice,25,4.0,Land,1.0,11.161410290980712,Animal_Land_Solid_Small,1,0,1,4415713.0,4415851.0,138.0
134,choice,choice,25,4.0,Land,1.0,11.161410290980712,Object_Land_Pattern_Small,2,0,1,4415933.0,4417313.0,1380.0
134,choice,choice,25,4.0,Land,1.0,11.161410290980712,Object_Land_Solid_Large,0,0,1,4417979.0,4419726.0,1747.0
134,choice,choice,26,4.0,Pattern,2.0,14.6461233329901,Animal_Land_Solid_Small,1,0,0,4424279.0,4424766.0,487.0
134,choice,choice,26,4.0,Pattern,2.0,14.6461233329901,Object_Land_Solid_Large,0,0,0,4425527.0,4426026.0,499.0
134,choice,choice,26,4.0,Pattern,2.0,14.6461233329901,fixation,-1,1,0,4426039.0,4426424.0,385.0
134,choice,choice,26,4.0,Pattern,2.0,14.6461233329901,Animal_Land_Solid_Small,1,0,0,4426682.0,4426864.0,182.0
134,choice,choice,26,4.0,Pattern,2.0,14.6461233329901,Object_Land_Solid_Large,0,0,0,4427159.0,4428009.0,850.0
134,choice,choice,26,4.0,Pattern,2.0,14.6461233329901,Object_Land_Pattern_Small,2,0,1,4428666.0,4429165.0,499.0
134,choice,choice,26,4.0,Pattern,2.0,14.6461233329901,Object_Land_Solid_Large,0,0,0,4429187.0,4429499.0,312.0
134,choice,choice,26,4.0,Pattern,2.0,14.6461233329901,Animal_Land_Solid_Small,1,0,0,4429733.0,4429940.0,207.0
134,choice,choice,26,4.0,Pattern,2.0,14.6461233329901,Object_Land_Solid_Large,0,0,0,4430612.0,4431081.0,469.0
134,choice,choice,26,4.0,Pattern,2.0,14.6461233329901,Animal_Land_Solid_Small,1,0,0,4431997.0,4432445.0,448.0
134,choice,choice,26,4.0,Pattern,2.0,14.6461233329901,Object_Land_Solid_Large,0,0,0,4432530.0,4432917.0,387.0
134,choice,choice,26,4.0,Pattern,2.0,14.6461233329901,Animal_Sea_Pattern_Small,3,0,1,4432939.0,4434105.0,1166.0
134,choice,choice,26,4.0,Pattern,2.0,14.6461233329901,Object_Sea_Pattern_Large,4,0,1,4434454.0,4434564.0,110.0
134,choice,choice,26,4.0,Pattern,2.0,14.6461233329901,Object_Land_Solid_Large,0,0,0,4434675.0,4435407.0,732.0
134,choice,choice,26,4.0,Pattern,2.0,14.6461233329901,Animal_Land_Solid_Small,1,0,0,4435774.0,4435837.0,63.0
134,choice,choice,26,4.0,Pattern,2.0,14.6461233329901,Object_Land_Solid_Large,0,0,0,4435923.0,4436102.0,179.0
134,choice,choice,26,4.0,Pattern,2.0,14.6461233329901,Object_Sea_Pattern_Large,4,0,1,4436120.0,4436394.0,274.0
134,choice,choice,26,4.0,Pattern,2.0,14.6461233329901,fixation,-1,1,0,4436417.0,4436861.0,444.0
134,choice,choice,26,4.0,Pattern,2.0,14.6461233329901,Animal_Land_Solid_Small,1,0,0,4437106.0,4437283.0,177.0
134,choice,choice,26,4.0,Pattern,2.0,14.6461233329901,Object_Land_Solid_Large,0,0,0,4437316.0,4438352.0,1036.0
134,choice,choice,27,4.0,Animal,2.0,5.24746812498779,Object_Land_Solid_Large,0,0,0,4441890.0,4441990.0,100.0
134,choice,choice,27,4.0,Animal,2.0,5.24746812498779,Animal_Land_Solid_Small,1,0,1,4442327.0,4442396.0,69.0
134,choice,choice,27,4.0,Animal,2.0,5.24746812498779,Object_Land_Solid_Large,0,0,0,4442560.0,4442937.0,377.0
134,choice,choice,27,4.0,Animal,2.0,5.24746812498779,fixation,-1,1,0,4442984.0,4443251.0,267.0
134,choice,choice,27,4.0,Animal,2.0,5.24746812498779,Animal_Land_Solid_Small,1,0,1,4443545.0,4443618.0,73.0
134,choice,choice,27,4.0,Animal,2.0,5.24746812498779,fixation,-1,1,0,4443688.0,4443719.0,31.0
134,choice,choice,27,4.0,Animal,2.0,5.24746812498779,Object_Land_Solid_Large,0,0,0,4443732.0,4444704.0,972.0
134,choice,choice,27,4.0,Animal,2.0,5.24746812498779,Animal_Land_Solid_Small,1,0,1,4445010.0,4445165.0,155.0
134,choice,choice,27,4.0,Animal,2.0,5.24746812498779,fixation,-1,1,0,4445685.0,4445752.0,67.0
134,choice,choice,27,4.0,Animal,2.0,5.24746812498779,Animal_Land_Solid_Small,1,0,1,4445770.0,4445911.0,141.0
134,choice,choice,27,4.0,Animal,2.0,5.24746812498779,fixation,-1,1,0,4446039.0,4446114.0,75.0
134,choice,choice,27,4.0,Animal,2.0,5.24746812498779,Object_Land_Pattern_Small,2,0,0,4446153.0,4446303.0,150.0
134,choice,choice,28,4.0,Small,2.0,6.712740082992241,Animal_Land_Solid_Small,1,0,1,4450828.0,4451292.0,464.0
134,choice,choice,28,4.0,Small,2.0,6.712740082992241,Object_Sea_Pattern_Large,4,0,0,4451773.0,4451890.0,117.0
134,choice,choice,28,4.0,Small,2.0,6.712740082992241,Animal_Land_Solid_Small,1,0,1,4452459.0,4453571.0,1112.0
134,choice,choice,28,4.0,Small,2.0,6.712740082992241,fixation,-1,1,0,4454729.0,4455170.0,441.0
134,choice,choice,28,4.0,Small,2.0,6.712740082992241,Object_Land_Solid_Large,0,0,0,4455186.0,4455658.0,472.0
134,choice,choice,28,4.0,Small,2.0,6.712740082992241,Object_Land_Pattern_Small,2,0,1,4455678.0,4455879.0,201.0
134,choice,choice,28,4.0,Small,2.0,6.712740082992241,Object_Land_Solid_Large,0,0,0,4456155.0,4456243.0,88.0
134,choice,choice,29,4.0,Sea,1.0,5.384707000019262,Animal_Land_Solid_Small,1,0,0,4460486.0,4460574.0,88.0
134,choice,choice,29,4.0,Sea,1.0,5.384707000019262,Object_Land_Solid_Large,0,0,0,4460660.0,4461993.0,1333.0
134,choice,choice,29,4.0,Sea,1.0,5.384707000019262,Animal_Land_Solid_Small,1,0,0,4462256.0,4462705.0,449.0
134,choice,choice,29,4.0,Sea,1.0,5.384707000019262,Object_Land_Solid_Large,0,0,0,4463121.0,4463465.0,344.0
134,choice,choice,29,4.0,Sea,1.0,5.384707000019262,Animal_Land_Solid_Small,1,0,0,4464184.0,4464628.0,444.0
134,choice,choice,29,4.0,Sea,1.0,5.384707000019262,Object_Land_Solid_Large,0,0,0,4464730.0,4465217.0,487.0
134,choice,choice,30,4.0,Object,2.0,5.71784004199435,Animal_Land_Solid_Small,1,0,0,4469265.0,4469330.0,65.0
134,choice,choice,30,4.0,Object,2.0,5.71784004199435,Object_Land_Solid_Large,0,0,1,4469618.0,4470196.0,578.0
134,choice,choice,30,4.0,Object,2.0,5.71784004199435,Animal_Land_Solid_Small,1,0,0,4470625.0,4470656.0,31.0
134,choice,choice,30,4.0,Object,2.0,5.71784004199435,Object_Land_Solid_Large,0,0,1,4470720.0,4472031.0,1311.0
134,choice,choice,30,4.0,Object,2.0,5.71784004199435,fixation,-1,1,0,4472700.0,4472879.0,179.0
134,choice,choice,30,4.0,Object,2.0,5.71784004199435,Animal_Land_Solid_Small,1,0,0,4473114.0,4473382.0,268.0
134,choice,choice,30,4.0,Object,2.0,5.71784004199435,Object_Land_Solid_Large,0,0,1,4473722.0,4474403.0,681.0
134,choice,choice,31,4.0,Large,1.0,1.889585625001928,Animal_Land_Solid_Small,1,0,0,4477849.0,4477944.0,95.0
134,choice,choice,31,4.0,Large,1.0,1.889585625001928,Object_Land_Solid_Large,0,0,1,4478096.0,4478189.0,93.0
134,choice,choice,32,4.0,Solid,1.0,2.798788791988045,Animal_Land_Solid_Small,1,0,1,4482997.0,4483442.0,445.0
134,choice,choice,32,4.0,Solid,1.0,2.798788791988045,Object_Land_Solid_Large,0,0,1,4483457.0,4483615.0,158.0
134,choice,choice,32,4.0,Solid,1.0,2.798788791988045,Animal_Land_Solid_Small,1,0,1,4483886.0,4484029.0,143.0
134,choice,choice,33,5.0,Solid,2.0,11.143583375000162,Object_Land_Solid_Small,0,0,1,4789250.0,4789273.0,23.0
134,choice,choice,33,5.0,Solid,2.0,11.143583375000162,Animal_Land_Pattern_Small,1,0,0,4789355.0,4789444.0,89.0
134,choice,choice,33,5.0,Solid,2.0,11.143583375000162,Object_Sea_Solid_Large,2,0,1,4789787.0,4789897.0,110.0
134,choice,choice,33,5.0,Solid,2.0,11.143583375000162,Object_Land_Solid_Small,0,0,1,4790204.0,4790243.0,39.0
134,choice,choice,33,5.0,Solid,2.0,11.143583375000162,Animal_Land_Pattern_Small,1,0,0,4790256.0,4790871.0,615.0
134,choice,choice,33,5.0,Solid,2.0,11.143583375000162,Object_Land_Solid_Small,0,0,1,4790904.0,4791300.0,396.0
134,choice,choice,33,5.0,Solid,2.0,11.143583375000162,Animal_Land_Solid_Large,3,0,1,4791903.0,4792194.0,291.0
134,choice,choice,33,5.0,Solid,2.0,11.143583375000162,Object_Land_Solid_Small,0,0,1,4792213.0,4792476.0,263.0
134,choice,choice,33,5.0,Solid,2.0,11.143583375000162,Animal_Land_Pattern_Small,1,0,0,4792787.0,4793801.0,1014.0
134,choice,choice,33,5.0,Solid,2.0,11.143583375000162,Animal_Land_Solid_Large,3,0,1,4794081.0,4794147.0,66.0
134,choice,choice,33,5.0,Solid,2.0,11.143583375000162,Object_Sea_Pattern_Small,4,0,0,4794468.0,4794681.0,213.0
134,choice,choice,33,5.0,Solid,2.0,11.143583375000162,fixation,-1,1,0,4794701.0,4795661.0,960.0
134,choice,choice,33,5.0,Solid,2.0,11.143583375000162,Object_Sea_Solid_Large,2,0,1,4795678.0,4795867.0,189.0
134,choice,choice,33,5.0,Solid,2.0,11.143583375000162,Animal_Land_Pattern_Small,1,0,0,4796197.0,4797333.0,1136.0
134,choice,choice,33,5.0,Solid,2.0,11.143583375000162,Object_Land_Solid_Small,0,0,1,4797883.0,4797954.0,71.0
134,choice,choice,33,5.0,Solid,2.0,11.143583375000162,Animal_Land_Pattern_Small,1,0,0,4798288.0,4798777.0,489.0
134,choice,choice,33,5.0,Solid,2.0,11.143583375000162,Object_Sea_Solid_Large,2,0,1,4798883.0,4799067.0,184.0
134,choice,choice,33,5.0,Solid,2.0,11.143583375000162,Animal_Land_Pattern_Small,1,0,0,4799097.0,4799453.0,356.0
134,choice,choice,33,5.0,Solid,2.0,11.143583375000162,Object_Land_Solid_Small,0,0,1,4799764.0,4799963.0,199.0
134,choice,choice,33,5.0,Solid,2.0,11.143583375000162,Animal_Land_Pattern_Small,1,0,0,4800013.0,4800197.0,184.0
134,choice,choice,34,5.0,Large,2.0,22.492878874996677,Animal_Land_Pattern_Small,1,0,0,4803483.0,4804189.0,706.0
134,choice,choice,34,5.0,Large,2.0,22.492878874996677,Object_Sea_Solid_Large,2,0,1,4805016.0,4805320.0,304.0
134,choice,choice,34,5.0,Large,2.0,22.492878874996677,Animal_Land_Solid_Large,3,0,1,4805577.0,4805837.0,260.0
134,choice,choice,34,5.0,Large,2.0,22.492878874996677,fixation,-1,1,0,4805897.0,4806477.0,580.0
134,choice,choice,34,5.0,Large,2.0,22.492878874996677,Animal_Land_Pattern_Small,1,0,0,4806490.0,4806824.0,334.0
134,choice,choice,34,5.0,Large,2.0,22.492878874996677,Object_Land_Solid_Small,0,0,0,4807121.0,4807178.0,57.0
134,choice,choice,34,5.0,Large,2.0,22.492878874996677,Animal_Land_Solid_Large,3,0,1,4807197.0,4807284.0,87.0
134,choice,choice,34,5.0,Large,2.0,22.492878874996677,Object_Sea_Solid_Large,2,0,1,4807306.0,4808514.0,1208.0
134,choice,choice,34,5.0,Large,2.0,22.492878874996677,fixation,-1,1,0,4809572.0,4809936.0,364.0
134,choice,choice,34,5.0,Large,2.0,22.492878874996677,Animal_Land_Solid_Large,3,0,1,4809961.0,4810569.0,608.0
134,choice,choice,34,5.0,Large,2.0,22.492878874996677,Animal_Land_Pattern_Small,1,0,0,4811111.0,4811255.0,144.0
134,choice,choice,34,5.0,Large,2.0,22.492878874996677,Object_Sea_Solid_Large,2,0,1,4811619.0,4812999.0,1380.0
134,choice,choice,34,5.0,Large,2.0,22.492878874996677,Animal_Land_Pattern_Small,1,0,0,4813021.0,4813207.0,186.0
134,choice,choice,34,5.0,Large,2.0,22.492878874996677,Object_Land_Solid_Small,0,0,0,4813816.0,4814314.0,498.0
134,choice,choice,34,5.0,Large,2.0,22.492878874996677,Animal_Land_Solid_Large,3,0,1,4814331.0,4814807.0,476.0
134,choice,choice,34,5.0,Large,2.0,22.492878874996677,Animal_Land_Pattern_Small,1,0,0,4815178.0,4815265.0,87.0
134,choice,choice,34,5.0,Large,2.0,22.492878874996677,fixation,-1,1,0,4815280.0,4815508.0,228.0
134,choice,choice,34,5.0,Large,2.0,22.492878874996677,Animal_Land_Pattern_Small,1,0,0,4815518.0,4816700.0,1182.0
134,choice,choice,34,5.0,Large,2.0,22.492878874996677,Object_Sea_Solid_Large,2,0,1,4816706.0,4817050.0,344.0
134,choice,choice,34,5.0,Large,2.0,22.492878874996677,Animal_Land_Pattern_Small,1,0,0,4817363.0,4818167.0,804.0
134,choice,choice,34,5.0,Large,2.0,22.492878874996677,fixation,-1,1,0,4818487.0,4818981.0,494.0
134,choice,choice,34,5.0,Large,2.0,22.492878874996677,Animal_Land_Pattern_Small,1,0,0,4818989.0,4819659.0,670.0
134,choice,choice,34,5.0,Large,2.0,22.492878874996677,Object_Sea_Solid_Large,2,0,1,4820221.0,4823545.0,3324.0
134,choice,choice,34,5.0,Large,2.0,22.492878874996677,Animal_Land_Pattern_Small,1,0,0,4824425.0,4824469.0,44.0
134,choice,choice,34,5.0,Large,2.0,22.492878874996677,Object_Land_Solid_Small,0,0,0,4824722.0,4824850.0,128.0
134,choice,choice,34,5.0,Large,2.0,22.492878874996677,Animal_Land_Pattern_Small,1,0,0,4824923.0,4825380.0,457.0
134,choice,choice,35,5.0,Pattern,1.0,6.576303624984575,Object_Land_Solid_Small,0,0,0,4828786.0,4828872.0,86.0
134,choice,choice,35,5.0,Pattern,1.0,6.576303624984575,Animal_Land_Pattern_Small,1,0,1,4828953.0,4829466.0,513.0
134,choice,choice,35,5.0,Pattern,1.0,6.576303624984575,Object_Land_Solid_Small,0,0,0,4829757.0,4829796.0,39.0
134,choice,choice,35,5.0,Pattern,1.0,6.576303624984575,Animal_Land_Pattern_Small,1,0,1,4829873.0,4830750.0,877.0
134,choice,choice,35,5.0,Pattern,1.0,6.576303624984575,Object_Land_Solid_Small,0,0,0,4831016.0,4831072.0,56.0
134,choice,choice,35,5.0,Pattern,1.0,6.576303624984575,Animal_Land_Pattern_Small,1,0,1,4831313.0,4831335.0,22.0
134,choice,choice,35,5.0,Pattern,1.0,6.576303624984575,Object_Land_Solid_Small,0,0,0,4831343.0,4831439.0,96.0
134,choice,choice,35,5.0,Pattern,1.0,6.576303624984575,Animal_Land_Pattern_Small,1,0,1,4831492.0,4832156.0,664.0
134,choice,choice,35,5.0,Pattern,1.0,6.576303624984575,fixation,-1,1,0,4832163.0,4832525.0,362.0
134,choice,choice,35,5.0,Pattern,1.0,6.576303624984575,Animal_Land_Pattern_Small,1,0,1,4832535.0,4832828.0,293.0
134,choice,choice,35,5.0,Pattern,1.0,6.576303624984575,Object_Sea_Solid_Large,2,0,0,4833272.0,4833644.0,372.0
134,choice,choice,35,5.0,Pattern,1.0,6.576303624984575,Animal_Land_Pattern_Small,1,0,1,4833666.0,4834519.0,853.0
134,choice,choice,35,5.0,Pattern,1.0,6.576303624984575,Object_Land_Solid_Small,0,0,0,4834885.0,4834990.0,105.0
134,choice,choice,36,5.0,Small,1.0,10.763694374996703,Object_Land_Solid_Small,0,0,1,4838781.0,4839379.0,598.0
134,choice,choice,36,5.0,Small,1.0,10.763694374996703,Animal_Land_Pattern_Small,1,0,1,4840009.0,4840140.0,131.0
134,choice,choice,36,5.0,Small,1.0,10.763694374996703,Animal_Land_Solid_Large,3,0,0,4840178.0,4840925.0,747.0
134,choice,choice,36,5.0,Small,1.0,10.763694374996703,Object_Land_Solid_Small,0,0,1,4841290.0,4841515.0,225.0
134,choice,choice,36,5.0,Small,1.0,10.763694374996703,Animal_Land_Pattern_Small,1,0,1,4841532.0,4841876.0,344.0
134,choice,choice,36,5.0,Small,1.0,10.763694374996703,fixation,-1,1,0,4842207.0,4842614.0,407.0
134,choice,choice,36,5.0,Small,1.0,10.763694374996703,Object_Sea_Pattern_Small,4,0,1,4842631.0,4842881.0,250.0
134,choice,choice,36,5.0,Small,1.0,10.763694374996703,Animal_Land_Solid_Large,3,0,0,4843193.0,4843461.0,268.0
134,choice,choice,36,5.0,Small,1.0,10.763694374996703,Object_Sea_Pattern_Small,4,0,1,4843540.0,4844120.0,580.0
134,choice,choice,36,5.0,Small,1.0,10.763694374996703,Animal_Land_Solid_Large,3,0,0,4845140.0,4845374.0,234.0
134,choice,choice,36,5.0,Small,1.0,10.763694374996703,Object_Land_Solid_Small,0,0,1,4845691.0,4845729.0,38.0
134,choice,choice,36,5.0,Small,1.0,10.763694374996703,Animal_Land_Pattern_Small,1,0,1,4846539.0,4848092.0,1553.0
134,choice,choice,36,5.0,Small,1.0,10.763694374996703,Object_Land_Solid_Small,0,0,1,4848435.0,4848437.0,2.0
134,choice,choice,37,5.0,Object,2.0,13.527497375005623,Animal_Land_Pattern_Small,1,0,0,4851113.0,4851357.0,244.0
134,choice,choice,37,5.0,Object,2.0,13.527497375005623,Object_Land_Solid_Small,0,0,1,4852765.0,4853274.0,509.0
134,choice,choice,37,5.0,Object,2.0,13.527497375005623,Animal_Land_Solid_Large,3,0,0,4853835.0,4855649.0,1814.0
134,choice,choice,37,5.0,Object,2.0,13.527497375005623,Object_Sea_Pattern_Small,4,0,1,4856030.0,4856268.0,238.0
134,choice,choice,37,5.0,Object,2.0,13.527497375005623,Animal_Land_Solid_Large,3,0,0,4856502.0,4856546.0,44.0
134,choice,choice,37,5.0,Object,2.0,13.527497375005623,Object_Sea_Pattern_Small,4,0,1,4856599.0,4856925.0,326.0
134,choice,choice,37,5.0,Object,2.0,13.527497375005623,Animal_Land_Solid_Large,3,0,0,4857180.0,4857212.0,32.0
134,choice,choice,37,5.0,Object,2.0,13.527497375005623,Object_Sea_Pattern_Small,4,0,1,4857263.0,4857425.0,162.0
134,choice,choice,37,5.0,Object,2.0,13.527497375005623,Animal_Land_Solid_Large,3,0,0,4857660.0,4857741.0,81.0
134,choice,choice,37,5.0,Object,2.0,13.527497375005623,Object_Sea_Pattern_Small,4,0,1,4857766.0,4857965.0,199.0
134,choice,choice,37,5.0,Object,2.0,13.527497375005623,Animal_Land_Pattern_Small,1,0,0,4857987.0,4859455.0,1468.0
134,choice,choice,37,5.0,Object,2.0,13.527497375005623,fixation,-1,1,0,4860313.0,4860415.0,102.0
134,choice,choice,37,5.0,Object,2.0,13.527497375005623,Object_Land_Solid_Small,0,0,1,4860635.0,4860661.0,26.0
134,choice,choice,37,5.0,Object,2.0,13.527497375005623,Animal_Land_Pattern_Small,1,0,0,4860715.0,4861941.0,1226.0
134,choice,choice,37,5.0,Object,2.0,13.527497375005623,Object_Land_Solid_Small,0,0,1,4862216.0,4862244.0,28.0
134,choice,choice,37,5.0,Object,2.0,13.527497375005623,Animal_Land_Pattern_Small,1,0,0,4862312.0,4863156.0,844.0
134,choice,choice,37,5.0,Object,2.0,13.527497375005623,fixation,-1,1,0,4863518.0,4864154.0,636.0
134,choice,choice,37,5.0,Object,2.0,13.527497375005623,Object_Sea_Solid_Large,2,0,1,4864160.0,4864368.0,208.0
134,choice,choice,38,5.0,Sea,1.0,6.063375249999808,Animal_Land_Pattern_Small,1,0,0,4868259.0,4868622.0,363.0
134,choice,choice,38,5.0,Sea,1.0,6.063375249999808,Object_Sea_Solid_Large,2,0,1,4869005.0,4869381.0,376.0
134,choice,choice,38,5.0,Sea,1.0,6.063375249999808,Animal_Land_Pattern_Small,1,0,0,4869678.0,4870306.0,628.0
134,choice,choice,38,5.0,Sea,1.0,6.063375249999808,Object_Land_Solid_Small,0,0,0,4870714.0,4871172.0,458.0
134,choice,choice,38,5.0,Sea,1.0,6.063375249999808,Animal_Land_Pattern_Small,1,0,0,4871706.0,4872472.0,766.0
134,choice,choice,38,5.0,Sea,1.0,6.063375249999808,fixation,-1,1,0,4872489.0,4872663.0,174.0
134,choice,choice,38,5.0,Sea,1.0,6.063375249999808,Animal_Land_Pattern_Small,1,0,0,4873084.0,4873913.0,829.0
134,choice,choice,38,5.0,Sea,1.0,6.063375249999808,Object_Sea_Solid_Large,2,0,1,4873922.0,4874058.0,136.0
134,choice,choice,39,5.0,Land,2.0,5.352017332974356,Object_Land_Solid_Small,0,0,1,4877095.0,4877117.0,22.0
134,choice,choice,39,5.0,Land,2.0,5.352017332974356,Animal_Land_Pattern_Small,1,0,1,4877458.0,4877623.0,165.0
134,choice,choice,39,5.0,Land,2.0,5.352017332974356,Object_Sea_Solid_Large,2,0,0,4877981.0,4878401.0,420.0
134,choice,choice,39,5.0,Land,2.0,5.352017332974356,Object_Land_Solid_Small,0,0,1,4878751.0,4878786.0,35.0
134,choice,choice,39,5.0,Land,2.0,5.352017332974356,Animal_Land_Solid_Large,3,0,1,4878810.0,4879201.0,391.0
134,choice,choice,39,5.0,Land,2.0,5.352017332974356,fixation,-1,1,0,4879217.0,4879618.0,401.0
134,choice,choice,39,5.0,Land,2.0,5.352017332974356,Animal_Land_Pattern_Small,1,0,1,4879629.0,4880372.0,743.0
134,choice,choice,39,5.0,Land,2.0,5.352017332974356,Animal_Land_Solid_Large,3,0,1,4881371.0,4881569.0,198.0
134,choice,choice,39,5.0,Land,2.0,5.352017332974356,Animal_Land_Pattern_Small,1,0,1,4881581.0,4881942.0,361.0
134,choice,choice,40,5.0,Animal,1.0,3.990702457987936,Animal_Land_Solid_Large,3,0,1,4885384.0,4885538.0,154.0
134,choice,choice,40,5.0,Animal,1.0,3.990702457987936,Object_Sea_Solid_Large,2,0,0,4885618.0,4886354.0,736.0
134,choice,choice,40,5.0,Animal,1.0,3.990702457987936,fixation,-1,1,0,4886366.0,4887336.0,970.0
134,choice,choice,40,5.0,Animal,1.0,3.990702457987936,Animal_Land_Pattern_Small,1,0,1,4887735.0,4888129.0,394.0
134,choice,choice,40,5.0,Animal,1.0,3.990702457987936,Object_Land_Solid_Small,0,0,0,4888401.0,4888453.0,52.0
134,choice,choice,41,6.0,Small,1.0,19.103758665994977,Object_Sea_Solid_Small,0,0,1,5155690.0,5155798.0,108.0
134,choice,choice,41,6.0,Small,1.0,19.103758665994977,Animal_Sea_Solid_Small,1,0,1,5156501.0,5157462.0,961.0
134,choice,choice,41,6.0,Small,1.0,19.103758665994977,Object_Sea_Solid_Small,0,0,1,5158757.0,5158845.0,88.0
134,choice,choice,41,6.0,Small,1.0,19.103758665994977,Animal_Sea_Solid_Small,1,0,1,5158934.0,5159599.0,665.0
134,choice,choice,41,6.0,Small,1.0,19.103758665994977,Object_Sea_Solid_Small,0,0,1,5159630.0,5160212.0,582.0
134,choice,choice,41,6.0,Small,1.0,19.103758665994977,Object_Sea_Solid_Large,2,0,0,5161898.0,5161921.0,23.0
134,choice,choice,41,6.0,Small,1.0,19.103758665994977,Object_Sea_Solid_Small,0,0,1,5162506.0,5162583.0,77.0
134,choice,choice,41,6.0,Small,1.0,19.103758665994977,Animal_Land_Pattern_Small,3,0,1,5162812.0,5163216.0,404.0
134,choice,choice,41,6.0,Small,1.0,19.103758665994977,Object_Land_Pattern_Large,4,0,0,5163235.0,5163518.0,283.0
134,choice,choice,41,6.0,Small,1.0,19.103758665994977,Object_Sea_Solid_Large,2,0,0,5163536.0,5163809.0,273.0
134,choice,choice,41,6.0,Small,1.0,19.103758665994977,Object_Sea_Solid_Small,0,0,1,5164390.0,5164415.0,25.0
134,choice,choice,41,6.0,Small,1.0,19.103758665994977,Animal_Land_Pattern_Small,3,0,1,5164586.0,5165236.0,650.0
134,choice,choice,41,6.0,Small,1.0,19.103758665994977,fixation,-1,1,0,5166292.0,5166442.0,150.0
134,choice,choice,41,6.0,Small,1.0,19.103758665994977,Object_Sea_Solid_Small,0,0,1,5167257.0,5167360.0,103.0
134,choice,choice,41,6.0,Small,1.0,19.103758665994977,Object_Sea_Solid_Large,2,0,0,5167501.0,5168448.0,947.0
134,choice,choice,41,6.0,Small,1.0,19.103758665994977,Object_Sea_Solid_Small,0,0,1,5169375.0,5169399.0,24.0
134,choice,choice,41,6.0,Small,1.0,19.103758665994977,fixation,-1,1,0,5169622.0,5170562.0,940.0
134,choice,choice,41,6.0,Small,1.0,19.103758665994977,Animal_Sea_Solid_Small,1,0,1,5170616.0,5171534.0,918.0
134,choice,choice,41,6.0,Small,1.0,19.103758665994977,Animal_Land_Pattern_Small,3,0,1,5171910.0,5171995.0,85.0
134,choice,choice,41,6.0,Small,1.0,19.103758665994977,Object_Sea_Solid_Small,0,0,1,5172422.0,5172459.0,37.0
134,choice,choice,41,6.0,Small,1.0,19.103758665994977,Animal_Land_Pattern_Small,3,0,1,5172477.0,5172591.0,114.0
134,choice,choice,42,6.0,Solid,2.0,12.607406458002515,Object_Sea_Solid_Small,0,0,1,5176286.0,5176445.0,159.0
134,choice,choice,42,6.0,Solid,2.0,12.607406458002515,Animal_Sea_Solid_Small,1,0,1,5177260.0,5177290.0,30.0
134,choice,choice,42,6.0,Solid,2.0,12.607406458002515,Animal_Land_Pattern_Small,3,0,0,5177310.0,5177454.0,144.0
134,choice,choice,42,6.0,Solid,2.0,12.607406458002515,Object_Sea_Solid_Small,0,0,1,5177835.0,5178181.0,346.0
134,choice,choice,42,6.0,Solid,2.0,12.607406458002515,Animal_Land_Pattern_Small,3,0,0,5180504.0,5181379.0,875.0
134,choice,choice,42,6.0,Solid,2.0,12.607406458002515,fixation,-1,1,0,5181385.0,5181805.0,420.0
134,choice,choice,42,6.0,Solid,2.0,12.607406458002515,Animal_Land_Pattern_Small,3,0,0,5181816.0,5182446.0,630.0
134,choice,choice,42,6.0,Solid,2.0,12.607406458002515,Object_Sea_Solid_Small,0,0,1,5183057.0,5183558.0,501.0
134,choice,choice,42,6.0,Solid,2.0,12.607406458002515,Animal_Land_Pattern_Small,3,0,0,5187621.0,5188056.0,435.0
134,choice,choice,42,6.0,Solid,2.0,12.607406458002515,Object_Sea_Solid_Small,0,0,1,5188080.0,5188338.0,258.0
134,choice,choice,42,6.0,Solid,2.0,12.607406458002515,Animal_Land_Pattern_Small,3,0,0,5188351.0,5188638.0,287.0
134,choice,choice,42,6.0,Solid,2.0,12.607406458002515,Object_Sea_Solid_Small,0,0,1,5188648.0,5188780.0,132.0
134,choice,choice,43,6.0,Large,2.0,8.92878012501751,Object_Sea_Solid_Small,0,0,0,5192735.0,5192822.0,87.0
134,choice,choice,43,6.0,Large,2.0,8.92878012501751,Animal_Land_Pattern_Small,3,0,0,5193824.0,5194503.0,679.0
134,choice,choice,43,6.0,Large,2.0,8.92878012501751,fixation,-1,1,0,5194516.0,5194826.0,310.0
134,choice,choice,43,6.0,Large,2.0,8.92878012501751,Object_Sea_Solid_Small,0,0,0,5195502.0,5195602.0,100.0
134,choice,choice,43,6.0,Large,2.0,8.92878012501751,fixation,-1,1,0,5195851.0,5197184.0,1333.0
134,choice,choice,43,6.0,Large,2.0,8.92878012501751,Object_Sea_Solid_Small,0,0,0,5197637.0,5197936.0,299.0
134,choice,choice,43,6.0,Large,2.0,8.92878012501751,Animal_Land_Pattern_Small,3,0,0,5198723.0,5198984.0,261.0
134,choice,choice,43,6.0,Large,2.0,8.92878012501751,Object_Sea_Solid_Small,0,0,0,5200071.0,5200182.0,111.0
134,choice,choice,44,6.0,Land,2.0,8.665787833015202,fixation,-1,1,0,5203873.0,5204098.0,225.0
134,choice,choice,44,6.0,Land,2.0,8.665787833015202,Animal_Land_Pattern_Small,3,0,1,5204195.0,5204273.0,78.0
134,choice,choice,44,6.0,Land,2.0,8.665787833015202,Animal_Sea_Solid_Small,1,0,0,5205170.0,5205340.0,170.0
134,choice,choice,44,6.0,Land,2.0,8.665787833015202,Object_Sea_Solid_Small,0,0,0,5205356.0,5205817.0,461.0
134,choice,choice,44,6.0,Land,2.0,8.665787833015202,Object_Sea_Solid_Large,2,0,0,5206980.0,5207462.0,482.0
134,choice,choice,44,6.0,Land,2.0,8.665787833015202,Object_Sea_Solid_Small,0,0,0,5208159.0,5208573.0,414.0
134,choice,choice,44,6.0,Land,2.0,8.665787833015202,Animal_Land_Pattern_Small,3,0,1,5210233.0,5210803.0,570.0
134,choice,choice,44,6.0,Land,2.0,8.665787833015202,Object_Sea_Solid_Small,0,0,0,5210811.0,5210983.0,172.0
134,choice,choice,45,6.0,Pattern,1.0,8.482241332996637,Object_Sea_Solid_Small,0,0,0,5216508.0,5218226.0,1718.0
134,choice,choice,45,6.0,Pattern,1.0,8.482241332996637,Animal_Sea_Solid_Small,1,0,0,5222606.0,5223023.0,417.0
134,choice,choice,46,6.0,Animal,1.0,4.381743125006324,Object_Sea_Solid_Small,0,0,0,5226938.0,5227072.0,134.0
134,choice,choice,46,6.0,Animal,1.0,4.381743125006324,Animal_Land_Pattern_Small,3,0,1,5228768.0,5228819.0,51.0
134,choice,choice,46,6.0,Animal,1.0,4.381743125006324,fixation,-1,1,0,5228831.0,5229266.0,435.0
134,choice,choice,46,6.0,Animal,1.0,4.381743125006324,Object_Sea_Solid_Small,0,0,0,5229566.0,5229711.0,145.0
134,choice,choice,46,6.0,Animal,1.0,4.381743125006324,Animal_Land_Pattern_Small,3,0,1,5230207.0,5230701.0,494.0
134,choice,choice,47,6.0,Object,2.0,3.031508040992776,Animal_Land_Pattern_Small,3,0,0,5234257.0,5234907.0,650.0
134,choice,choice,47,6.0,Object,2.0,3.031508040992776,Object_Sea_Solid_Small,0,0,1,5235332.0,5235457.0,125.0
134,choice,choice,47,6.0,Object,2.0,3.031508040992776,Animal_Land_Pattern_Small,3,0,0,5235712.0,5235897.0,185.0
134,choice,choice,48,6.0,Sea,1.0,3.114242417010246,Animal_Sea_Solid_Small,1,0,1,5240297.0,5240665.0,368.0
134,choice,choice,48,6.0,Sea,1.0,3.114242417010246,Object_Sea_Solid_Small,0,0,1,5242183.0,5242462.0,279.0
134,choice,choice,49,7.0,Sea,2.0,11.201358374994015,Animal_Land_Solid_Small,0,0,0,5506571.0,5506812.0,241.0
134,choice,choice,49,7.0,Sea,2.0,11.201358374994015,Object_Land_Solid_Large,1,0,0,5506838.0,5507463.0,625.0
134,choice,choice,49,7.0,Sea,2.0,11.201358374994015,Animal_Land_Solid_Small,0,0,0,5508771.0,5508862.0,91.0
134,choice,choice,49,7.0,Sea,2.0,11.201358374994015,Object_Land_Solid_Large,1,0,0,5509408.0,5509960.0,552.0
134,choice,choice,49,7.0,Sea,2.0,11.201358374994015,Animal_Land_Solid_Small,0,0,0,5510563.0,5510659.0,96.0
134,choice,choice,49,7.0,Sea,2.0,11.201358374994015,Object_Land_Solid_Large,1,0,0,5510743.0,5510867.0,124.0
134,choice,choice,49,7.0,Sea,2.0,11.201358374994015,fixation,-1,1,0,5510901.0,5511521.0,620.0
134,choice,choice,49,7.0,Sea,2.0,11.201358374994015,Animal_Land_Solid_Small,0,0,0,5511861.0,5512642.0,781.0
134,choice,choice,49,7.0,Sea,2.0,11.201358374994015,fixation,-1,1,0,5513300.0,5513666.0,366.0
134,choice,choice,49,7.0,Sea,2.0,11.201358374994015,Object_Land_Solid_Large,1,0,0,5513902.0,5515483.0,1581.0
134,choice,choice,49,7.0,Sea,2.0,11.201358374994015,Animal_Land_Solid_Small,0,0,0,5516392.0,5516540.0,148.0
134,choice,choice,49,7.0,Sea,2.0,11.201358374994015,fixation,-1,1,0,5516642.0,5516919.0,277.0
134,choice,choice,50,7.0,Pattern,1.0,2.524260458012577,Animal_Land_Solid_Small,0,0,0,5520682.0,5520747.0,65.0
134,choice,choice,50,7.0,Pattern,1.0,2.524260458012577,Object_Land_Solid_Large,1,0,0,5520779.0,5520875.0,96.0
134,choice,choice,50,7.0,Pattern,1.0,2.524260458012577,Animal_Land_Solid_Small,0,0,0,5521193.0,5521217.0,24.0
134,choice,choice,50,7.0,Pattern,1.0,2.524260458012577,Object_Land_Solid_Large,1,0,0,5521243.0,5521399.0,156.0
134,choice,choice,50,7.0,Pattern,1.0,2.524260458012577,fixation,-1,1,0,5521410.0,5521830.0,420.0
134,choice,choice,51,7.0,Object,1.0,1.2544009589764755,Animal_Land_Solid_Small,0,0,0,5526479.0,5527014.0,535.0
134,choice,choice,52,7.0,Solid,2.0,2.345699958008481,Animal_Land_Solid_Small,0,0,1,5530999.0,5531030.0,31.0
134,choice,choice,52,7.0,Solid,2.0,2.345699958008481,Object_Land_Solid_Large,1,0,1,5533104.0,5533180.0,76.0
134,choice,choice,52,7.0,Solid,2.0,2.345699958008481,Object_Land_Pattern_Small,2,0,0,5533210.0,5533218.0,8.0
134,choice,choice,53,7.0,Land,1.0,2.084185208019335,Animal_Land_Solid_Small,0,0,1,5537707.0,5537807.0,100.0
134,choice,choice,53,7.0,Land,1.0,2.084185208019335,Object_Land_Solid_Large,1,0,1,5538052.0,5538132.0,80.0
134,choice,choice,53,7.0,Land,1.0,2.084185208019335,Animal_Land_Solid_Small,0,0,1,5538137.0,5538303.0,166.0
134,choice,choice,53,7.0,Land,1.0,2.084185208019335,Object_Land_Solid_Large,1,0,1,5538373.0,5538470.0,97.0
134,choice,choice,53,7.0,Land,1.0,2.084185208019335,Animal_Land_Solid_Small,0,0,1,5538479.0,5538528.0,49.0
134,choice,choice,54,7.0,Large,2.0,3.7317451249982696,Object_Land_Solid_Large,1,0,1,5542476.0,5542821.0,345.0
134,choice,choice,54,7.0,Large,2.0,3.7317451249982696,Animal_Land_Solid_Small,0,0,0,5543223.0,5543622.0,399.0
134,choice,choice,54,7.0,Large,2.0,3.7317451249982696,fixation,-1,1,0,5543981.0,5544340.0,359.0
134,choice,choice,54,7.0,Large,2.0,3.7317451249982696,Object_Sea_Pattern_Large,3,0,1,5544745.0,5545005.0,260.0
134,choice,choice,54,7.0,Large,2.0,3.7317451249982696,Object_Land_Solid_Large,1,0,1,5545354.0,5545497.0,143.0
134,choice,choice,54,7.0,Large,2.0,3.7317451249982696,Animal_Land_Solid_Small,0,0,0,5545781.0,5545883.0,102.0
134,choice,choice,55,7.0,Animal,2.0,0.7927964580012485,Animal_Land_Solid_Small,0,0,1,5548881.0,5549019.0,138.0
134,choice,choice,55,7.0,Animal,2.0,0.7927964580012485,Object_Land_Solid_Large,1,0,0,5549065.0,5549132.0,67.0
134,choice,choice,56,7.0,Small,1.0,1.3481202499824576,Animal_Land_Solid_Small,0,0,1,5553618.0,5553674.0,56.0
134,choice,choice,56,7.0,Small,1.0,1.3481202499824576,Object_Land_Solid_Large,1,0,0,5553685.0,5553814.0,129.0
