phase,event,onset,offset,trial_number,game,image,outcome,choice,correct,rt,letter,match,response,option,true_value,true_position,recalled_position,
encoding,fixation,6.785940000001574,8.050319832982495,1,1,Object_Sea_Pattern_Large,-8,,,,,,,,,,,
encoding,image,8.050459833000787,9.070846624992555,1,1,Object_Sea_Pattern_Large,-8,,,,,,,,,,,
encoding,value,9.0709744579799,15.085846082976786,1,1,Object_Sea_Pattern_Large,-8,,,,,,,,,,,
encoding,attention,15.085954582988052,18.104464749980252,1,1,Object_Sea_Pattern_Large,-8,-8,1,2.3208540409978013,,,,,,,,
encoding,fixation,18.104621999984374,19.609526499989443,2,1,Animal_Land_Solid_Small,-2,,,,,,,,,,,
encoding,image,19.609641791001195,20.621110207983293,2,1,Animal_Land_Solid_Small,-2,,,,,,,,,,,
encoding,value,20.621222999994643,26.63330600000336,2,1,Animal_Land_Solid_Small,-2,,,,,,,,,,,
encoding,attention,26.63342170798569,29.655264290980995,2,1,Animal_Land_Solid_Small,-2,-2,1,0.9702641670010053,,,,,,,,
encoding,fixation,29.655418582988204,30.660718290979275,3,1,Animal_Sea_Pattern_Small,5,,,,,,,,,,,
encoding,image,30.660825540981023,31.67238995799562,3,1,Animal_Sea_Pattern_Small,5,,,,,,,,,,,
encoding,value,31.672500249987934,37.684715915995184,3,1,Animal_Sea_Pattern_Small,5,,,,,,,,,,,
encoding,attention,37.68481474998407,40.70479604098364,3,1,Animal_Sea_Pattern_Small,5,+5,1,0.6512268329970539,,,,,,,,
encoding,fixation,40.704953374981415,41.210160374990664,4,1,Object_Land_Solid_Large,8,,,,,,,,,,,
encoding,image,41.21025775000453,42.22090987500269,4,1,Object_Land_Solid_Large,8,,,,,,,,,,,
encoding,value,42.22102837500279,48.2320146659913,4,1,Object_Land_Solid_Large,8,,,,,,,,,,,
encoding,attention,48.23214245800045,51.24911449998035,4,1,Object_Land_Solid_Large,8,+8,1,1.1594367499928921,,,,,,,,
encoding,fixation,51.249263915990014,52.00429083299241,5,1,Animal_Sea_Solid_Large,-5,,,,,,,,,,,
encoding,image,52.00439754099352,53.01562583298073,5,1,Animal_Sea_Solid_Large,-5,,,,,,,,,,,
encoding,value,53.015756290988065,59.027308332995744,5,1,Animal_Sea_Solid_Large,-5,,,,,,,,,,,
encoding,attention,59.027515833004145,62.10026487498544,5,1,Animal_Sea_Solid_Large,-5,-5,1,1.7813516250171233,,,,,,,,
encoding,fixation,62.10040416600532,62.8554782079882,6,1,Object_Land_Pattern_Small,2,,,,,,,,,,,
encoding,image,62.85559849999845,63.86695487500401,6,1,Object_Land_Pattern_Small,2,,,,,,,,,,,
encoding,value,63.867146332981065,69.8786528329947,6,1,Object_Land_Pattern_Small,2,,,,,,,,,,,
encoding,attention,69.87880883298931,72.89573620798183,6,1,Object_Land_Pattern_Small,2,+2,1,1.690164708008524,,,,,,,,
n-back,,,,1,1,,,,0,None,N,True,None,,,,,
n-back,,,,2,1,,,,1,None,C,False,None,,,,,
n-back,,,,3,1,,,,1,None,C,False,None,,,,,
n-back,,,,4,1,,,,1,None,Z,False,None,,,,,
n-back,,,,5,1,,,,1,None,X,False,None,,,,,
n-back,,,,6,1,,,,1,None,X,False,None,,,,,
n-back,,,,7,1,,,,1,0.7612167499901261,X,True,1,,,,,
n-back,,,,8,1,,,,0,None,X,True,None,,,,,
n-back,,,,9,1,,,,1,None,N,False,None,,,,,
n-back,,,,10,1,,,,1,None,N,False,None,,,,,
n-back,,,,11,1,,,,1,0.7529584579751827,N,True,1,,,,,
n-back,,,,12,1,,,,0,None,N,True,None,,,,,
n-back,,,,13,1,,,,0,None,N,True,None,,,,,
n-back,,,,14,1,,,,1,0.5827565409999806,N,True,1,,,,,
n-back,,,,15,1,,,,1,None,Z,False,None,,,,,
n-back,,,,16,1,,,,1,None,V,False,None,,,,,
n-back,,,,17,1,,,,1,1.0431512919894885,Z,True,1,,,,,
n-back,,,,18,1,,,,1,None,B,False,None,,,,,
n-back,,,,19,1,,,,1,None,B,False,None,,,,,
n-back,,,,20,1,,,,1,None,V,False,None,,,,,
n-back,,,,21,1,,,,1,None,C,False,None,,,,,
n-back,,,,22,1,,,,1,None,B,False,None,,,,,
n-back,,,,23,1,,,,1,None,V,False,None,,,,,
n-back,,,,24,1,,,,1,None,X,False,None,,,,,
n-back,,,,25,1,,,,1,None,N,False,None,,,,,
n-back,,,,26,1,,,,1,None,Z,False,None,,,,,
n-back,,,,27,1,,,,1,None,X,False,None,,,,,
n-back,,,,28,1,,,,1,0.4095414160110522,Z,True,1,,,,,
n-back,,,,29,1,,,,1,None,C,False,None,,,,,
n-back,,,,30,1,,,,0,None,Z,True,None,,,,,
choice,fixation,148.98686849998194,149.99219683298725,1,1,,,,,,,,,Sea,,,,
choice,option,150.0012273750035,151.17581791599514,1,1,,,,,,,,,Sea,,,,
choice,choice,151.1759230000025,159.76219887498883,1,1,,,2,1,7.57487479201518,,,,Sea,,,,
choice,fixation,159.76231195798027,160.51729483300005,2,1,,,,,,,,,Land,,,,
choice,option,160.52602362498874,161.55384149999009,2,1,,,,,,,,,Land,,,,
choice,choice,161.55394829099532,170.47279433297808,2,1,,,1,1,7.908995290985331,,,,Land,,,,
choice,fixation,170.47293745799107,171.9781437079946,3,1,,,,,,,,,Small,,,,
choice,option,171.986890457978,173.01505237500533,3,1,,,,,,,,,Small,,,,
choice,choice,173.0152412079915,188.05724133297917,3,1,,,1,1,14.03148320800392,,,,Small,,,,
choice,fixation,188.05738245797693,189.5625517499866,4,1,,,,,,,,,Object,,,,
choice,option,189.5721253749798,190.59900545800338,4,1,,,,,,,,,Object,,,,
choice,choice,190.59912166598951,196.83340970799327,4,1,,,1,1,5.224671750009293,,,,Object,,,,
choice,fixation,196.83352916600415,197.58868233297835,5,1,,,,,,,,,Solid,,,,
choice,option,197.59801762498682,198.62461158298538,5,1,,,,,,,,,Solid,,,,
choice,choice,198.62472395799705,214.75429987499956,5,1,,,2,0,15.11882874998264,,,,Solid,,,,
choice,fixation,214.75442041599308,215.25948304097983,6,1,,,,,,,,,Pattern,,,,
choice,option,215.26891099999193,216.2951562909875,6,1,,,,,,,,,Pattern,,,,
choice,choice,216.29528837499674,220.88833004099433,6,1,,,2,1,3.583608999993885,,,,Pattern,,,,
choice,fixation,220.88845237498754,221.64385616598884,7,1,,,,,,,,,Large,,,,
choice,option,221.65279591598664,222.68197537498781,7,1,,,,,,,,,Large,,,,
choice,choice,222.6820805829775,228.35501691600075,7,1,,,2,1,4.663166333019035,,,,Large,,,,
choice,fixation,228.3551454579865,229.85996241599787,8,1,,,,,,,,,Animal,,,,
choice,option,229.8693353330018,230.89568587500253,8,1,,,,,,,,,Animal,,,,
choice,choice,230.89579062498524,240.1458212499856,8,1,,,1,0,8.239611416007392,,,,Animal,,,,
memory,free_recall,293.4423385410046,304.3386195829953,0,1,,,,,,,,,,,,,
memory,value_recall,358.01947554099024,362.26746262499364,1,1,Object_Sea_Pattern_Large,,,,4.243885459000012,,,,,-8,,,
memory,value_recall,363.3154984159919,366.27604283299297,2,1,Object_Land_Pattern_Small,,,,2.957193875015946,,,,,2,,,
memory,value_recall,367.82198137498926,374.06753558298806,3,1,Animal_Land_Solid_Small,,,,6.241245624987641,,,,,-2,,,
memory,value_recall,375.36208966598497,379.6499826659856,4,1,Animal_Sea_Pattern_Small,,,,4.28353962500114,,,,,5,,,
memory,value_recall,380.6954017079843,383.6915123749932,5,1,Object_Land_Solid_Large,,,,2.9929356669890694,,,,,8,,,
memory,value_recall,385.49105316598434,392.6297019159829,6,1,Animal_Sea_Solid_Large,,,,7.132284332998097,,,,,-5,,,
memory,spatial_recall,418.12157566598034,422.921359208005,6,1,Object_Sea_Pattern_Large,,,1,4.797214707999956,,,,,,"[329, 189]","[329, 189]",
memory,spatial_recall,424.22633558299276,428.4856663749961,6,1,Animal_Land_Solid_Small,,,1,4.254697958007455,,,,,,"[0, 380]","[0, 380]",
memory,spatial_recall,430.0424357499869,433.0691555829835,6,1,Animal_Sea_Pattern_Small,,,1,3.020423625013791,,,,,,"[329, -190]","[329, -190]",
memory,spatial_recall,434.87554474998615,438.17220987498877,6,1,Animal_Sea_Solid_Large,,,1,3.2909103340061847,,,,,,"[0, -380]","[0, -380]",
memory,spatial_recall,439.73042295800406,442.6223705000011,6,1,Object_Land_Pattern_Small,,,1,2.8878516670083627,,,,,,"[-329, -190]","[-329, -190]",
memory,spatial_recall,444.6726341249887,446.4049327499815,6,1,Object_Land_Solid_Large,,,1,1.7281343750073574,,,,,,"[-329, 190]","[-329, 190]",
encoding,fixation,10.889481582998997,11.396404500002973,7,2,Object_Sea_Solid_Small,9,,,,,,,,,,,
encoding,image,11.396531791018788,12.406767916021636,7,2,Object_Sea_Solid_Small,9,,,,,,,,,,,
encoding,value,12.40688616601983,18.41870891599683,7,2,Object_Sea_Solid_Small,9,,,,,,,,,,,
encoding,attention,18.418838790996233,21.436508333019447,7,2,Object_Sea_Solid_Small,9,+9,1,0.9058670839876868,,,,,,,,
encoding,fixation,21.436668041016674,22.941759250010364,8,2,Animal_Sea_Pattern_Large,-3,,,,,,,,,,,
encoding,image,22.941873625008157,23.95238062500721,8,2,Animal_Sea_Pattern_Large,-3,,,,,,,,,,,
encoding,value,23.95249579101801,29.964797249995172,8,2,Animal_Sea_Pattern_Large,-3,,,,,,,,,,,
encoding,attention,29.964907540997956,32.98458600000595,8,2,Animal_Sea_Pattern_Large,-3,-3,1,0.9978501249861438,,,,,,,,
encoding,fixation,32.98472383301123,33.98976600001333,9,2,Animal_Land_Pattern_Large,9,,,,,,,,,,,
encoding,image,33.98987108300207,35.00146795800538,9,2,Animal_Land_Pattern_Large,9,,,,,,,,,,,
encoding,value,35.00157954101451,41.01280162500916,9,2,Animal_Land_Pattern_Large,9,,,,,,,,,,,
encoding,attention,41.0129308750038,44.030866790999426,9,2,Animal_Land_Pattern_Large,9,+9,1,1.358822708018124,,,,,,,,
encoding,fixation,44.0310222080152,45.285967375006294,10,2,Animal_Sea_Solid_Small,-1,,,,,,,,,,,
encoding,image,45.28607312499662,46.29706216600607,10,2,Animal_Sea_Solid_Small,-1,,,,,,,,,,,
encoding,value,46.29717720800545,52.308739208005136,10,2,Animal_Sea_Solid_Small,-1,,,,,,,,,,,
encoding,attention,52.30885758300428,55.32596633301,10,2,Animal_Sea_Solid_Small,-1,-1,1,1.3368587080040015,,,,,,,,
encoding,fixation,55.3261421660136,55.831503124994924,11,2,Object_Land_Pattern_Small,-9,,,,,,,,,,,
encoding,image,55.83160829101689,56.84171354101272,11,2,Object_Land_Pattern_Small,-9,,,,,,,,,,,
encoding,value,56.841827166004805,62.853207791020395,11,2,Object_Land_Pattern_Small,-9,,,,,,,,,,,
encoding,attention,62.853322375012795,65.87092395802028,11,2,Object_Land_Pattern_Small,-9,-9,1,1.031811375025427,,,,,,,,
encoding,fixation,65.87109862500802,66.62626370802172,12,2,Object_Land_Solid_Large,4,,,,,,,,,,,
encoding,image,66.6263785000192,67.63658783299616,12,2,Object_Land_Solid_Large,4,,,,,,,,,,,
encoding,value,67.63677595800254,73.64775154102244,12,2,Object_Land_Solid_Large,4,,,,,,,,,,,
encoding,attention,73.6478537080111,76.6640803750197,12,2,Object_Land_Solid_Large,4,+4,1,0.6700669999991078,,,,,,,,
n-back,,,,31,2,,,,1,None,Z,False,None,,,,,
n-back,,,,32,2,,,,1,None,N,False,None,,,,,
n-back,,,,33,2,,,,1,None,C,False,None,,,,,
n-back,,,,34,2,,,,1,1.1071082080015913,N,True,1,,,,,
n-back,,,,35,2,,,,0,None,C,True,None,,,,,
n-back,,,,36,2,,,,1,None,X,False,None,,,,,
n-back,,,,37,2,,,,1,None,V,False,None,,,,,
n-back,,,,38,2,,,,1,0.7346114999963902,X,True,1,,,,,
n-back,,,,39,2,,,,0,None,V,True,None,,,,,
n-back,,,,40,2,,,,1,None,N,False,None,,,,,
n-back,,,,41,2,,,,1,None,B,False,None,,,,,
n-back,,,,42,2,,,,1,None,X,False,None,,,,,
n-back,,,,43,2,,,,1,None,X,False,None,,,,,
n-back,,,,44,2,,,,1,None,Z,False,None,,,,,
n-back,,,,45,2,,,,1,None,Z,False,None,,,,,
n-back,,,,46,2,,,,1,None,V,False,None,,,,,
n-back,,,,47,2,,,,1,None,N,False,None,,,,,
n-back,,,,48,2,,,,1,0.6050736669858452,V,True,1,,,,,
n-back,,,,49,2,,,,0,None,N,True,None,,,,,
n-back,,,,50,2,,,,1,None,C,False,None,,,,,
n-back,,,,51,2,,,,1,None,C,False,None,,,,,
n-back,,,,52,2,,,,1,None,Z,False,None,,,,,
n-back,,,,53,2,,,,1,0.6242590000038035,C,True,1,,,,,
n-back,,,,54,2,,,,1,None,B,False,None,,,,,
n-back,,,,55,2,,,,0,None,C,True,None,,,,,
n-back,,,,56,2,,,,1,None,N,False,None,,,,,
n-back,,,,57,2,,,,1,None,Z,False,None,,,,,
n-back,,,,58,2,,,,1,0.5451913339784369,N,True,1,,,,,
n-back,,,,59,2,,,,0,None,Z,True,None,,,,,
n-back,,,,60,2,,,,1,None,Z,False,None,,,,,
choice,fixation,159.14287158299703,159.8961405000009,9,2,,,,,,,,,Small,,,,
choice,option,159.90498791600112,160.93024929100648,9,2,,,,,,,,,Small,,,,
choice,choice,160.93036104101338,170.58302058299887,9,2,,,1,0,8.642359874997055,,,,Small,,,,
choice,fixation,170.58314345800318,171.33862058300292,10,2,,,,,,,,,Land,,,,
choice,option,171.34729516602238,172.3732602079981,10,2,,,,,,,,,Land,,,,
choice,choice,172.37336391600547,183.56715304101817,10,2,,,1,1,10.182717541989405,,,,Land,,,,
choice,fixation,183.56729816601728,184.32225579101942,11,2,,,,,,,,,Large,,,,
choice,option,184.33108625002205,185.3568337080069,11,2,,,,,,,,,Large,,,,
choice,choice,185.35693850001553,189.08459012501407,11,2,,,2,0,2.7178933750255965,,,,Large,,,,
choice,fixation,189.0847150000045,190.58964575000573,12,2,,,,,,,,,Pattern,,,,
choice,option,190.5995559580042,191.62608004099457,12,2,,,,,,,,,Pattern,,,,
choice,choice,191.62618829100393,201.95914537500357,12,2,,,2,1,9.32272020902019,,,,Pattern,,,,
choice,fixation,201.95926629099995,202.71428400001605,13,2,,,,,,,,,Animal,,,,
choice,option,202.72473329101922,203.750911790994,13,2,,,,,,,,,Animal,,,,
choice,choice,203.75102241602144,210.2637451250048,13,2,,,2,0,5.500317124999128,,,,Animal,,,,
choice,fixation,210.26386425000965,211.76877262501512,14,2,,,,,,,,,Object,,,,
choice,option,211.77846941602184,212.8055736249953,14,2,,,,,,,,,Object,,,,
choice,choice,212.80569295800524,217.0697753750137,14,2,,,1,1,3.252104999992298,,,,Object,,,,
choice,fixation,217.0699084160151,218.57491079100873,15,2,,,,,,,,,Solid,,,,
choice,option,218.58446262500365,219.61282045801636,15,2,,,,,,,,,Solid,,,,
choice,choice,219.6129250410013,222.6227692500106,15,2,,,1,1,2.0001241250138264,,,,Solid,,,,
choice,fixation,222.62288949999493,223.12932791601634,16,2,,,,,,,,,Sea,,,,
choice,option,223.13738058300805,224.16395474999445,16,2,,,,,,,,,Sea,,,,
choice,choice,224.1640719580173,225.82942212501075,16,2,,,1,1,0.6548447500099428,,,,Sea,,,,
memory,free_recall,241.79069591601728,257.0974135000142,6,2,,,,,,,,,,,,,
memory,value_recall,266.5695834160142,272.1618000830058,7,2,Object_Land_Pattern_Small,,,,5.588010207982734,,,,,-9,,,
memory,value_recall,273.2082953750214,278.9771526250115,8,2,Animal_Sea_Solid_Small,,,,5.7661608749767765,,,,,-1,,,
memory,value_recall,280.77322695800103,284.07223866600543,9,2,Animal_Land_Pattern_Large,,,,3.2938954159908462,,,,,9,,,
memory,value_recall,285.12101112501114,287.5611838750192,10,2,Animal_Sea_Pattern_Large,,,,2.4366517500020564,,,,,-3,,,
memory,value_recall,289.1062170000223,293.16706395801157,11,2,Object_Land_Solid_Large,,,,4.05676224999479,,,,,4,,,
memory,value_recall,294.71445795800537,296.8571111659985,12,2,Object_Sea_Solid_Small,,,,2.138751833990682,,,,,9,,,
memory,spatial_recall,303.43163375000586,307.14051129101426,12,2,Object_Land_Pattern_Small,,,1,3.706409167003585,,,,,,"[-329, -190]","[-329, -190]",
memory,spatial_recall,308.95084966599825,310.4221169160155,12,2,Object_Land_Solid_Large,,,1,1.4670362079923507,,,,,,"[-329, 190]","[-329, 190]",
memory,spatial_recall,312.2312104580051,316.70288500000606,12,2,Animal_Sea_Pattern_Large,,,1,4.467752708005719,,,,,,"[0, -380]","[0, -380]",
memory,spatial_recall,318.0049191660073,319.2662737079954,12,2,Object_Sea_Solid_Small,,,1,1.2573109589866363,,,,,,"[0, 380]","[0, 380]",
memory,spatial_recall,320.56449508300284,321.61926262499765,12,2,Animal_Land_Pattern_Large,,,1,1.0508183749916498,,,,,,"[329, -190]","[329, -190]",
memory,spatial_recall,323.426319916005,324.61938266601646,12,2,Animal_Sea_Solid_Small,,,1,1.189043499995023,,,,,,"[329, 189]","[329, 189]",
encoding,fixation,3.8671150419977494,4.375045624998165,13,3,Animal_Land_Pattern_Large,-6,,,,,,,,,,,
encoding,image,4.37515429200721,5.386224624991883,13,3,Animal_Land_Pattern_Large,-6,,,,,,,,,,,
encoding,value,5.386328458000207,11.39924791699741,13,3,Animal_Land_Pattern_Large,-6,,,,,,,,,,,
encoding,attention,11.399382833013078,14.417167292005615,13,3,Animal_Land_Pattern_Large,-6,-6,1,1.3952416669926606,,,,,,,,
encoding,fixation,14.417317457991885,15.672805750014959,14,3,Object_Land_Pattern_Large,6,,,,,,,,,,,
encoding,image,15.672899708006298,16.684808207995957,14,3,Object_Land_Pattern_Large,6,,,,,,,,,,,
encoding,value,16.684917875012616,22.697520999994595,14,3,Object_Land_Pattern_Large,6,,,,,,,,,,,
encoding,attention,22.697635916993022,25.716390499990666,14,3,Object_Land_Pattern_Large,6,+6,1,0.8998129579995293,,,,,,,,
encoding,fixation,25.716536207997706,26.221784749999642,15,3,Object_Sea_Solid_Large,-9,,,,,,,,,,,
encoding,image,26.22189420799259,27.23345841700211,15,3,Object_Sea_Solid_Large,-9,,,,,,,,,,,
encoding,value,27.233558792009717,33.245483542006696,15,3,Object_Sea_Solid_Large,-9,,,,,,,,,,,
encoding,attention,33.24561387501308,36.26356141699944,15,3,Object_Sea_Solid_Large,-9,-9,1,1.4337044580024667,,,,,,,,
encoding,fixation,36.263769417011645,36.76918195799226,16,3,Animal_Land_Pattern_Small,-6,,,,,,,,,,,
encoding,image,36.769277250015875,37.78031545801787,16,3,Animal_Land_Pattern_Small,-6,,,,,,,,,,,
encoding,value,37.78042550000828,43.79294579199632,16,3,Animal_Land_Pattern_Small,-6,,,,,,,,,,,
encoding,attention,43.793063707998954,46.80976425000699,16,3,Animal_Land_Pattern_Small,-6,-6,1,1.6889694169803988,,,,,,,,
encoding,fixation,46.80997154201032,48.0650161250087,17,3,Object_Sea_Solid_Small,2,,,,,,,,,,,
encoding,image,48.06516895801178,49.07565237500239,17,3,Object_Sea_Solid_Small,2,,,,,,,,,,,
encoding,value,49.07583720801631,55.0865769580123,17,3,Object_Sea_Solid_Small,2,,,,,,,,,,,
encoding,attention,55.0867082499899,58.10287512501236,17,3,Object_Sea_Solid_Small,2,+2,1,2.1633773329958785,,,,,,,,
encoding,fixation,58.10304187500151,58.60866191700916,18,3,Animal_Sea_Solid_Small,1,,,,,,,,,,,
encoding,image,58.608767958008684,59.61978700000327,18,3,Animal_Sea_Solid_Small,1,,,,,,,,,,,
encoding,value,59.61990545800654,65.63178570801392,18,3,Animal_Sea_Solid_Small,1,,,,,,,,,,,
encoding,attention,65.63189437499386,68.64890733300126,18,3,Animal_Sea_Solid_Small,1,+1,1,0.5755200829880778,,,,,,,,
n-back,,,,61,3,,,,1,None,Z,False,None,,,,,
n-back,,,,62,3,,,,1,None,Z,False,None,,,,,
n-back,,,,63,3,,,,1,None,N,False,None,,,,,
n-back,,,,64,3,,,,1,None,C,False,None,,,,,
n-back,,,,65,3,,,,1,0.5033290830033366,N,True,1,,,,,
n-back,,,,66,3,,,,0,None,C,True,None,,,,,
n-back,,,,67,3,,,,1,None,B,False,None,,,,,
n-back,,,,68,3,,,,1,0.522858250013087,C,True,1,,,,,
n-back,,,,69,3,,,,1,None,N,False,None,,,,,
n-back,,,,70,3,,,,1,None,B,False,None,,,,,
n-back,,,,71,3,,,,1,None,Z,False,None,,,,,
n-back,,,,72,3,,,,1,None,C,False,None,,,,,
n-back,,,,73,3,,,,1,None,V,False,None,,,,,
n-back,,,,74,3,,,,1,None,N,False,None,,,,,
n-back,,,,75,3,,,,1,0.6172499579843134,V,True,1,,,,,
n-back,,,,76,3,,,,0,None,N,True,None,,,,,
n-back,,,,77,3,,,,1,None,B,False,None,,,,,
n-back,,,,78,3,,,,1,None,V,False,None,,,,,
n-back,,,,79,3,,,,1,0.5476425419910811,B,True,1,,,,,
n-back,,,,80,3,,,,1,None,B,False,None,,,,,
n-back,,,,81,3,,,,0,None,B,True,None,,,,,
n-back,,,,82,3,,,,1,0.6482985829934478,B,True,1,,,,,
n-back,,,,83,3,,,,1,None,Z,False,None,,,,,
n-back,,,,84,3,,,,1,None,C,False,None,,,,,
n-back,,,,85,3,,,,1,0.49877158398157917,Z,True,1,,,,,
n-back,,,,86,3,,,,1,None,V,False,None,,,,,
n-back,,,,87,3,,,,1,None,B,False,None,,,,,
n-back,,,,88,3,,,,1,None,B,False,None,,,,,
n-back,,,,89,3,,,,1,None,X,False,None,,,,,
n-back,,,,90,3,,,,1,0.6887327500153333,B,True,1,,,,,
choice,fixation,146.94022275001043,148.19358849999844,17,3,,,,,,,,,Small,,,,
choice,option,148.20251937501598,149.23008812501212,17,3,,,,,,,,,Small,,,,
choice,choice,149.2302117079962,157.37764258301468,17,3,,,1,0,7.137621375004528,,,,Small,,,,
choice,fixation,157.37775975000113,158.63286362501094,18,3,,,,,,,,,Large,,,,
choice,option,158.6415776250069,159.66872783299186,18,3,,,,,,,,,Large,,,,
choice,choice,159.66882225000882,164.13844129201607,18,3,,,2,1,3.458882042003097,,,,Large,,,,
choice,fixation,164.1385714999924,164.6433302499936,19,3,,,,,,,,,Pattern,,,,
choice,option,164.6524378329923,165.67786058300408,19,3,,,,,,,,,Pattern,,,,
choice,choice,165.67797191700083,187.13068916701013,19,3,,,2,1,20.441985792014748,,,,Pattern,,,,
choice,fixation,187.1308190000127,188.1361274580122,20,3,,,,,,,,,Animal,,,,
choice,option,188.14587174999178,189.17536008299794,20,3,,,,,,,,,Animal,,,,
choice,choice,189.17548362500384,193.93823016699753,20,3,,,2,1,3.7531561250216328,,,,Animal,,,,
choice,fixation,193.93837783299387,195.1935966250021,21,3,,,,,,,,,Land,,,,
choice,option,195.2026229170151,196.22912879200885,21,3,,,,,,,,,Land,,,,
choice,choice,196.2292360420106,202.1859512499941,21,3,,,1,0,4.946778583980631,,,,Land,,,,
choice,fixation,202.18608195800334,202.9414480419946,22,3,,,,,,,,,Object,,,,
choice,option,202.95126529200934,203.97762625000905,22,3,,,,,,,,,Object,,,,
choice,choice,203.97775008299504,208.9790232499945,22,3,,,2,1,3.9908665000111796,,,,Object,,,,
choice,fixation,208.97915258299327,210.23404624999966,23,3,,,,,,,,,Solid,,,,
choice,option,210.24362854199717,211.26988187499228,23,3,,,,,,,,,Solid,,,,
choice,choice,211.2700038329931,215.65788325000904,23,3,,,2,1,3.3761220000160392,,,,Solid,,,,
choice,fixation,215.6580262920179,216.16304770801798,24,3,,,,,,,,,Sea,,,,
choice,option,216.17170629199245,217.1962636669923,24,3,,,,,,,,,Sea,,,,
choice,choice,217.1963783329993,220.7538757500006,24,3,,,2,1,2.5476735420234036,,,,Sea,,,,
memory,free_recall,243.19500700000208,257.4402832920023,12,3,,,,,,,,,,,,,
memory,value_recall,265.386737791996,270.01908833300695,13,3,Animal_Sea_Solid_Small,,,,4.6270492910116445,,,,,1,,,
memory,value_recall,271.56464454199886,274.1625564999995,14,3,Object_Sea_Solid_Large,,,,2.5937953749962617,,,,,-9,,,
memory,value_recall,275.9588802919898,284.05896266701166,15,3,Object_Sea_Solid_Small,,,,8.095913208991988,,,,,2,,,
memory,value_recall,285.35890737498994,287.3488855829928,16,3,Object_Land_Pattern_Large,,,,1.985876165999798,,,,,6,,,
memory,value_recall,289.14344499999424,290.4528178329929,17,3,Animal_Land_Pattern_Large,,,,1.3053262080065906,,,,,-6,,,
memory,value_recall,292.2480011250009,293.95704462501453,18,3,Animal_Land_Pattern_Small,,,,1.7046741250087507,,,,,-6,,,
memory,spatial_recall,297.8582274579967,300.59753637501854,18,3,Object_Sea_Solid_Large,,,1,2.734937916015042,,,,,,"[-329, -190]","[-329, -190]",
memory,spatial_recall,302.65961587501806,305.06772679201094,18,3,Object_Land_Pattern_Large,,,1,2.404092707991367,,,,,,"[0, -380]","[0, -380]",
memory,spatial_recall,306.3777332500031,309.5315303330135,18,3,Object_Sea_Solid_Small,,,1,3.1499561670061667,,,,,,"[0, 380]","[0, 380]",
memory,spatial_recall,311.0864814580127,312.26522729199496,18,3,Animal_Land_Pattern_Small,,,1,1.1734360419795848,,,,,,"[-329, 190]","[-329, 190]",
memory,spatial_recall,314.3222059580148,315.7820749169914,18,3,Animal_Sea_Solid_Small,,,1,1.4558667500095908,,,,,,"[329, 189]","[329, 189]",
memory,spatial_recall,316.82666625001,317.8961767080182,18,3,Animal_Land_Pattern_Large,,,1,1.067092582990881,,,,,,"[329, -190]","[329, -190]",
encoding,fixation,5.222606875002384,5.978575417015236,19,4,Animal_Sea_Solid_Large,-5,,,,,,,,,,,
encoding,image,5.978680250002071,6.990823125001043,19,4,Animal_Sea_Solid_Large,-5,,,,,,,,,,,
encoding,value,6.99093129200628,13.004123209015233,19,4,Animal_Sea_Solid_Large,-5,,,,,,,,,,,
encoding,attention,13.004272084013792,16.022183959023096,19,4,Animal_Sea_Solid_Large,-5,-5,1,1.4921120419749059,,,,,,,,
encoding,fixation,16.022331000014674,17.528691375016933,20,4,Animal_Land_Solid_Small,-4,,,,,,,,,,,
encoding,image,17.52886849999777,18.540751584019745,20,4,Animal_Land_Solid_Small,-4,,,,,,,,,,,
encoding,value,18.540863875008654,24.55254404200241,20,4,Animal_Land_Solid_Small,-4,,,,,,,,,,,
encoding,attention,24.55274929202278,27.56972704202053,20,4,Animal_Land_Solid_Small,-4,-4,1,1.3285610000020824,,,,,,,,
encoding,fixation,27.569874334003543,28.075394459010568,21,4,Object_Land_Solid_Large,7,,,,,,,,,,,
encoding,image,28.075546959007625,29.08596266701352,21,4,Object_Land_Solid_Large,7,,,,,,,,,,,
encoding,value,29.08607675001258,35.097293833998265,21,4,Object_Land_Solid_Large,7,,,,,,,,,,,
encoding,attention,35.097417000011774,38.1157303340151,21,4,Object_Land_Solid_Large,7,+7,1,1.480932042002678,,,,,,,,
encoding,fixation,38.11587995901937,38.8720127500128,22,4,Object_Sea_Pattern_Large,-7,,,,,,,,,,,
encoding,image,38.87215454201214,39.88260700000683,22,4,Object_Sea_Pattern_Large,-7,,,,,,,,,,,
encoding,value,39.88270587500301,45.893960917019285,22,4,Object_Sea_Pattern_Large,-7,,,,,,,,,,,
encoding,attention,45.894125125021674,48.91544041701127,22,4,Object_Sea_Pattern_Large,-7,-7,1,0.8421017079963349,,,,,,,,
encoding,fixation,48.915605709014926,49.42090745901805,23,4,Animal_Sea_Pattern_Small,7,,,,,,,,,,,
encoding,image,49.421028917015065,50.43239620901295,23,4,Animal_Sea_Pattern_Small,7,,,,,,,,,,,
encoding,value,50.43250358401565,56.4449158339994,23,4,Animal_Sea_Pattern_Small,7,,,,,,,,,,,
encoding,attention,56.44503379199887,59.46357179200277,23,4,Animal_Sea_Pattern_Small,7,+7,1,2.0679850410087965,,,,,,,,
encoding,fixation,59.46372700002394,60.46891712502111,24,4,Object_Land_Pattern_Small,-2,,,,,,,,,,,
encoding,image,60.46908137502032,61.48030591700808,24,4,Object_Land_Pattern_Small,-2,,,,,,,,,,,
encoding,value,61.480412917007925,67.49160991702229,24,4,Object_Land_Pattern_Small,-2,,,,,,,,,,,
encoding,attention,67.49172587500652,70.50980708401767,24,4,Object_Land_Pattern_Small,-2,-2,1,2.2308253749797586,,,,,,,,
n-back,,,,91,4,,,,0,None,X,True,None,,,,,
n-back,,,,92,4,,,,0,None,B,True,None,,,,,
n-back,,,,93,4,,,,1,0.560038124996936,X,True,1,,,,,
n-back,,,,94,4,,,,1,None,Z,False,None,,,,,
n-back,,,,95,4,,,,1,None,C,False,None,,,,,
n-back,,,,96,4,,,,1,None,N,False,None,,,,,
n-back,,,,97,4,,,,1,0.5551316670025699,C,True,1,,,,,
n-back,,,,98,4,,,,1,None,V,False,None,,,,,
n-back,,,,99,4,,,,1,None,B,False,None,,,,,
n-back,,,,100,4,,,,1,0.5122332500177436,V,True,1,,,,,
n-back,,,,101,4,,,,1,None,X,False,None,,,,,
n-back,,,,102,4,,,,1,None,Z,False,None,,,,,
n-back,,,,103,4,,,,1,None,N,False,None,,,,,
n-back,,,,104,4,,,,1,None,N,False,None,,,,,
n-back,,,,105,4,,,,1,None,B,False,None,,,,,
n-back,,,,106,4,,,,1,0.6145858749805484,N,True,1,,,,,
n-back,,,,107,4,,,,1,None,V,False,None,,,,,
n-back,,,,108,4,,,,1,None,Z,False,None,,,,,
n-back,,,,109,4,,,,1,None,X,False,None,,,,,
n-back,,,,110,4,,,,1,0.6173959169827867,Z,True,1,,,,,
n-back,,,,111,4,,,,0,None,X,True,None,,,,,
n-back,,,,112,4,,,,1,None,N,False,None,,,,,
n-back,,,,113,4,,,,1,0.45825020800111815,X,True,1,,,,,
n-back,,,,114,4,,,,1,None,X,False,None,,,,,
n-back,,,,115,4,,,,1,None,V,False,None,,,,,
n-back,,,,116,4,,,,1,None,Z,False,None,,,,,
n-back,,,,117,4,,,,1,None,B,False,None,,,,,
n-back,,,,118,4,,,,1,0.6240280419879127,Z,True,1,,,,,
n-back,,,,119,4,,,,1,None,V,False,None,,,,,
n-back,,,,120,4,,,,1,None,V,False,None,,,,,
choice,fixation,157.91932004201226,159.17252633400494,25,4,,,,,,,,,Land,,,,
choice,option,159.18124462501146,160.20810141702532,25,4,,,,,,,,,Land,,,,
choice,choice,160.2082278750022,172.38048712501768,25,4,,,1,1,11.161410290980712,,,,Land,,,,
choice,fixation,172.38060808400041,173.88592045899713,26,4,,,,,,,,,Pattern,,,,
choice,option,173.89505787502276,174.92455995900673,26,4,,,,,,,,,Pattern,,,,
choice,choice,174.9246790840116,190.5814491250203,26,4,,,2,1,14.6461233329901,,,,Pattern,,,,
choice,fixation,190.58158137500868,191.83653183400747,27,4,,,,,,,,,Animal,,,,
choice,option,191.84596220901585,192.87483658400015,27,4,,,,,,,,,Animal,,,,
choice,choice,192.87496979199932,199.13186133399722,27,4,,,2,1,5.24746812498779,,,,Animal,,,,
choice,fixation,199.132002792001,200.3871157920221,28,4,,,,,,,,,Small,,,,
choice,option,200.39594391701394,201.42489662501612,28,4,,,,,,,,,Small,,,,
choice,choice,201.4250462920172,209.14728129201103,28,4,,,2,0,6.712740082992241,,,,Small,,,,
choice,fixation,209.147410125006,210.15244125001482,29,4,,,,,,,,,Sea,,,,
choice,option,210.16092704201583,211.18694354200852,29,4,,,,,,,,,Sea,,,,
choice,choice,211.18705841701012,217.5813719590078,29,4,,,1,0,5.384707000019262,,,,Sea,,,,
choice,fixation,217.58149987499928,218.83670979199815,30,4,,,,,,,,,Object,,,,
choice,option,218.84594158400432,219.8746188750083,30,4,,,,,,,,,Object,,,,
choice,choice,219.87475025001913,226.60283524999977,30,4,,,2,1,5.71784004199435,,,,Object,,,,
choice,fixation,226.6029733340256,227.358754417015,31,4,,,,,,,,,Large,,,,
choice,option,227.36751779200858,228.39351629200974,31,4,,,,,,,,,Large,,,,
choice,choice,228.393639292015,231.29263325000647,31,4,,,1,0,1.8895856250019278,,,,Large,,,,
choice,fixation,231.29274629201973,232.0476365420036,32,4,,,,,,,,,Solid,,,,
choice,option,232.05737108402536,233.08351933400263,32,4,,,,,,,,,Solid,,,,
choice,choice,233.08363420900423,236.8946894170076,32,4,,,1,0,2.798788791988045,,,,Solid,,,,
memory,free_recall,247.3667444169987,262.3253142090107,18,4,,,,,,,,,,,,,
memory,value_recall,265.74062016702374,269.2873543750029,19,4,Object_Sea_Pattern_Large,,,,3.542438625008799,,,,,-7,,,
memory,value_recall,270.58265620900784,273.15732533400296,20,4,Animal_Land_Solid_Small,,,,2.5702244999993127,,,,,-4,,,
memory,value_recall,274.2030669170199,277.47876900000847,21,4,Animal_Sea_Pattern_Small,,,,3.2724878749868367,,,,,7,,,
memory,value_recall,279.275182375015,281.21018133399775,22,4,Object_Land_Pattern_Small,,,,1.930968375003431,,,,,-2,,,
memory,value_recall,282.5046818749979,288.54204133400344,23,4,Animal_Sea_Solid_Large,,,,6.032968208019156,,,,,-5,,,
memory,value_recall,290.5880531670118,293.45517937501427,24,4,Object_Land_Solid_Large,,,,2.862906959024258,,,,,7,,,
memory,spatial_recall,295.74727695900947,298.49765662502614,24,4,Animal_Land_Solid_Small,,,1,2.745952124998439,,,,,,"[0, 380]","[0, 380]",
memory,spatial_recall,299.80685625001206,301.99679220901453,24,4,Animal_Sea_Solid_Large,,,1,2.1860216250061058,,,,,,"[0, -380]","[0, -380]",
memory,spatial_recall,303.3064657089999,304.1855497090146,24,4,Object_Land_Pattern_Small,,,1,0.8750834579986986,,,,,,"[-329, -190]","[-329, -190]",
memory,spatial_recall,306.2468732499983,307.60195925002336,24,4,Object_Sea_Pattern_Large,,,1,1.3509147920121904,,,,,,"[329, 189]","[329, 189]",
memory,spatial_recall,309.41277212501154,311.1453532090236,24,4,Animal_Sea_Pattern_Small,,,1,1.7286773340019863,,,,,,"[329, -190]","[329, -190]",
memory,spatial_recall,312.69637912500184,313.99779520899756,24,4,Object_Land_Solid_Large,,,1,1.2971026249870192,,,,,,"[-329, 190]","[-329, 190]",
encoding,fixation,2.900650833005784,3.4066286250017583,25,5,Object_Sea_Pattern_Small,5,,,,,,,,,,,
encoding,image,3.406826042017201,4.416645542019978,25,5,Object_Sea_Pattern_Small,5,,,,,,,,,,,
encoding,value,4.416800833016168,10.429453792021377,25,5,Object_Sea_Pattern_Small,5,,,,,,,,,,,
encoding,attention,10.429576333001023,13.44923333299812,25,5,Object_Sea_Pattern_Small,5,+5,1,1.1694696670165285,,,,,,,,
encoding,fixation,13.44942849999643,14.204485958005534,26,5,Animal_Land_Pattern_Small,3,,,,,,,,,,,
encoding,image,14.20463816699339,15.21601245799684,26,5,Animal_Land_Pattern_Small,3,,,,,,,,,,,
encoding,value,15.216121167002711,21.228998958016746,26,5,Animal_Land_Pattern_Small,3,,,,,,,,,,,
encoding,attention,21.229121708020102,24.249903292016825,26,5,Animal_Land_Pattern_Small,3,+3,1,0.9389210829976946,,,,,,,,
encoding,fixation,24.25007279199781,25.00544258300215,27,5,Animal_Land_Solid_Large,5,,,,,,,,,,,
encoding,image,25.005542083003093,26.01678083301522,27,5,Animal_Land_Solid_Large,5,,,,,,,,,,,
encoding,value,26.016903542011278,32.02827358301147,27,5,Animal_Land_Solid_Large,5,,,,,,,,,,,
encoding,attention,32.02838950001751,35.04632079199655,27,5,Animal_Land_Solid_Large,5,+5,1,0.871325040992815,,,,,,,,
encoding,fixation,35.0464650420181,35.80148754201946,28,5,Object_Land_Solid_Small,-9,,,,,,,,,,,
encoding,image,35.80160720800632,36.813199541997164,28,5,Object_Land_Solid_Small,-9,,,,,,,,,,,
encoding,value,36.813346750015626,42.82542854201165,28,5,Object_Land_Solid_Small,-9,,,,,,,,,,,
encoding,attention,42.825548249995336,45.842857750016265,28,5,Object_Land_Solid_Small,-9,-9,1,0.8633085000037681,,,,,,,,
encoding,fixation,45.84301400001277,46.348005792009644,29,5,Object_Sea_Solid_Large,3,,,,,,,,,,,
encoding,image,46.348113750020275,47.360570707998704,29,5,Object_Sea_Solid_Large,3,,,,,,,,,,,
encoding,value,47.36069895801484,53.3723517920007,29,5,Object_Sea_Solid_Large,3,,,,,,,,,,,
encoding,attention,53.37247304202174,56.390222292015096,29,5,Object_Sea_Solid_Large,3,+3,1,1.1822481670242269,,,,,,,,
encoding,fixation,56.390417625021655,57.64559020800516,30,5,Animal_Sea_Pattern_Large,-7,,,,,,,,,,,
encoding,image,57.64570150000509,58.65510379199986,30,5,Animal_Sea_Pattern_Large,-7,,,,,,,,,,,
encoding,value,58.65522050001891,64.66626450000331,30,5,Animal_Sea_Pattern_Large,-7,,,,,,,,,,,
encoding,attention,64.6663955830154,67.67838037500042,30,5,Animal_Sea_Pattern_Large,-7,None,None,None,,,,,,,,
n-back,,,,121,5,,,,1,None,N,False,None,,,,,
n-back,,,,122,5,,,,0,None,C,True,None,,,,,
n-back,,,,123,5,,,,1,None,B,False,None,,,,,
n-back,,,,124,5,,,,1,None,N,False,None,,,,,
n-back,,,,125,5,,,,1,None,N,False,None,,,,,
n-back,,,,126,5,,,,1,None,B,False,None,,,,,
n-back,,,,127,5,,,,1,None,V,False,None,,,,,
n-back,,,,128,5,,,,1,None,V,False,None,,,,,
n-back,,,,129,5,,,,1,None,C,False,None,,,,,
n-back,,,,130,5,,,,1,None,N,False,None,,,,,
n-back,,,,131,5,,,,1,None,N,False,None,,,,,
n-back,,,,132,5,,,,1,None,V,False,None,,,,,
n-back,,,,133,5,,,,1,None,V,False,None,,,,,
n-back,,,,134,5,,,,0,None,V,True,None,,,,,
n-back,,,,135,5,,,,1,0.47739779198309407,V,True,1,,,,,
n-back,,,,136,5,,,,1,None,B,False,None,,,,,
n-back,,,,137,5,,,,0,None,V,True,None,,,,,
n-back,,,,138,5,,,,1,0.7843456249975134,B,True,1,,,,,
n-back,,,,139,5,,,,0,None,V,True,None,,,,,
n-back,,,,140,5,,,,1,None,C,False,None,,,,,
n-back,,,,141,5,,,,1,0.454012917005457,V,True,1,,,,,
n-back,,,,142,5,,,,0,None,C,True,None,,,,,
n-back,,,,143,5,,,,0,None,V,True,None,,,,,
n-back,,,,144,5,,,,1,None,X,False,None,,,,,
n-back,,,,145,5,,,,1,None,N,False,None,,,,,
n-back,,,,146,5,,,,1,None,C,False,None,,,,,
n-back,,,,147,5,,,,1,None,V,False,None,,,,,
n-back,,,,148,5,,,,1,None,B,False,None,,,,,
n-back,,,,149,5,,,,1,0.6415941659943201,V,True,1,,,,,
n-back,,,,150,5,,,,1,None,V,False,None,,,,,
choice,fixation,175.4432384170068,176.696626207995,33,5,,,,,,,,,Solid,,,,
choice,option,176.70567841699813,177.73277741699712,33,5,,,,,,,,,Solid,,,,
choice,choice,177.73293645802187,189.88715824999963,33,5,,,2,1,11.143583375000162,,,,Solid,,,,
choice,fixation,189.8872754170152,190.64436666699476,34,5,,,,,,,,,Large,,,,
choice,option,190.65299812500598,191.68004033301258,34,5,,,,,,,,,Large,,,,
choice,choice,191.68015937501332,215.18365550000453,34,5,,,2,0,22.492878874996677,,,,Large,,,,
choice,fixation,215.18377475001034,216.18871983300778,35,5,,,,,,,,,Pattern,,,,
choice,option,216.197927583009,217.22470191700268,35,5,,,,,,,,,Pattern,,,,
choice,choice,217.22480929200538,224.81096479200642,35,5,,,1,1,6.576303624984575,,,,Pattern,,,,
choice,fixation,224.81110566700227,225.31621112499852,36,5,,,,,,,,,Small,,,,
choice,option,225.325246042019,226.3511816250102,36,5,,,,,,,,,Small,,,,
choice,choice,226.35128695800086,238.12572300000465,36,5,,,1,0,10.763694374996703,,,,Small,,,,
choice,fixation,238.12584391701967,238.63086629202007,37,5,,,,,,,,,Object,,,,
choice,option,238.63991525000893,239.66607087501325,37,5,,,,,,,,,Object,,,,
choice,choice,239.66624070800026,254.20451045801747,37,5,,,2,1,13.527497375005623,,,,Object,,,,
choice,fixation,254.20466929199756,255.71111854200717,38,5,,,,,,,,,Sea,,,,
choice,option,255.71962650000933,256.7453922080167,38,5,,,,,,,,,Sea,,,,
choice,choice,256.745497625001,263.8190297920082,38,5,,,1,1,6.063375249999808,,,,Sea,,,,
choice,fixation,263.8191710830142,264.3243854170141,39,5,,,,,,,,,Land,,,,
choice,option,264.33300020801835,265.3608026250149,39,5,,,,,,,,,Land,,,,
choice,choice,265.36091925000073,271.7224429170019,39,5,,,2,1,5.352017332974356,,,,Land,,,,
choice,fixation,271.72256983301486,272.4792903329944,40,5,,,,,,,,,Animal,,,,
choice,option,272.4886524169997,273.51515854199533,40,5,,,,,,,,,Animal,,,,
choice,choice,273.5152675000136,278.5161230000085,40,5,,,1,1,3.990702457987936,,,,Animal,,,,
memory,free_recall,288.046700167004,298.342926250014,24,5,,,,,,,,,,,,,
memory,value_recall,301.72495633299695,303.91392575000646,25,5,Object_Land_Solid_Small,,,,2.1847550419915933,,,,,-9,,,
memory,value_recall,304.9587612080213,307.1995834580157,26,5,Object_Sea_Solid_Large,,,,2.2375457920134068,,,,,3,,,
memory,value_recall,309.24628325001686,310.8300186670094,27,5,Animal_Land_Solid_Large,,,,1.579530707997037,,,,,5,,,
memory,value_recall,312.37501504199463,314.93446837499505,28,5,Animal_Sea_Pattern_Large,,,,2.5553838750056457,,,,,-7,,,
memory,value_recall,316.97968916699756,318.90251575,29,5,Animal_Land_Pattern_Small,,,,1.918736291991081,,,,,3,,,
memory,value_recall,320.9493053750193,322.68711100000655,30,5,Object_Sea_Pattern_Small,,,,1.7337105000042357,,,,,5,,,
memory,spatial_recall,326.3052133330202,329.23454104200937,30,5,Object_Sea_Solid_Large,,,1,2.9248847909912,,,,,,"[-329, -190]","[-329, -190]",
memory,spatial_recall,330.294677458005,331.61788216701825,30,5,Animal_Land_Solid_Large,,,1,1.3192206250096206,,,,,,"[329, 189]","[329, 189]",
memory,spatial_recall,332.91829891700763,334.184766958002,30,5,Object_Land_Solid_Small,,,1,1.2625047499896027,,,,,,"[0, 380]","[0, 380]",
memory,spatial_recall,335.73924866699963,337.784603417007,30,5,Animal_Land_Pattern_Small,,,1,2.0414300829870626,,,,,,"[-329, 190]","[-329, 190]",
memory,spatial_recall,339.34500454200315,341.284799999994,30,5,Object_Sea_Pattern_Small,,,1,1.9359065000026021,,,,,,"[329, -190]","[329, -190]",
memory,spatial_recall,342.3372932500206,343.51549383299425,30,5,Animal_Sea_Pattern_Large,,,1,1.1742551250208635,,,,,,"[0, -380]","[0, -380]",
encoding,fixation,2.598077167000156,3.604859209008282,31,6,Animal_Sea_Solid_Small,8,,,,,,,,,,,
encoding,image,3.605002875003265,4.616347792005399,31,6,Animal_Sea_Solid_Small,8,,,,,,,,,,,
encoding,value,4.616454959003022,10.62984587502433,31,6,Animal_Sea_Solid_Small,8,,,,,,,,,,,
encoding,attention,10.629949709022185,13.649228625028627,31,6,Animal_Sea_Solid_Small,8,+8,1,1.111905375000788,,,,,,,,
encoding,fixation,13.649405000003753,14.404745000007097,32,6,Object_Sea_Solid_Large,-1,,,,,,,,,,,
encoding,image,14.404876292013796,15.416415959014557,32,6,Object_Sea_Solid_Large,-1,,,,,,,,,,,
encoding,value,15.41652058402542,21.42857625000761,32,6,Object_Sea_Solid_Large,-1,,,,,,,,,,,
encoding,attention,21.42874254201888,24.44832487500389,32,6,Object_Sea_Solid_Large,-1,-1,1,1.0355127499788068,,,,,,,,
encoding,fixation,24.448551292007323,25.953564750001533,33,6,Object_Sea_Solid_Small,-3,,,,,,,,,,,
encoding,image,25.953681542014237,26.963297917012824,33,6,Object_Sea_Solid_Small,-3,,,,,,,,,,,
encoding,value,26.963400084001478,32.97424175002379,33,6,Object_Sea_Solid_Small,-3,,,,,,,,,,,
encoding,attention,32.97435779200168,35.990384292003,33,6,Object_Sea_Solid_Small,-3,-3,1,2.2989407500135712,,,,,,,,
encoding,fixation,35.99055195902474,36.49552845902508,34,6,Object_Land_Pattern_Large,5,,,,,,,,,,,
encoding,image,36.49565550000989,37.507460334018106,34,6,Object_Land_Pattern_Large,5,,,,,,,,,,,
encoding,value,37.50757625000551,43.5198978340195,34,6,Object_Land_Pattern_Large,5,,,,,,,,,,,
encoding,attention,43.51999708401854,46.538882209017174,34,6,Object_Land_Pattern_Large,5,+5,1,1.1503864580008667,,,,,,,,
encoding,fixation,46.5390363750048,47.79544429201633,35,6,Animal_Land_Pattern_Small,-2,,,,,,,,,,,
encoding,image,47.795571084017865,48.80703812499996,35,6,Animal_Land_Pattern_Small,-2,,,,,,,,,,,
encoding,value,48.807155875023454,54.819000750023406,35,6,Animal_Land_Pattern_Small,-2,,,,,,,,,,,
encoding,attention,54.81914987502387,57.835797625011764,35,6,Animal_Land_Pattern_Small,-2,-2,1,0.6550167920067906,,,,,,,,
encoding,fixation,57.83595045900438,59.341225917014526,36,6,Animal_Land_Pattern_Large,-1,,,,,,,,,,,
encoding,image,59.341337042016676,60.352259959006915,36,6,Animal_Land_Pattern_Large,-1,,,,,,,,,,,
encoding,value,60.35237037501065,66.36363858400728,36,6,Animal_Land_Pattern_Large,-1,,,,,,,,,,,
encoding,attention,66.36382654201589,69.38274175001425,36,6,Animal_Land_Pattern_Large,-1,-1,1,0.7005478329956532,,,,,,,,
n-back,,,,151,6,,,,1,None,V,False,None,,,,,
n-back,,,,152,6,,,,0,None,Z,True,None,,,,,
n-back,,,,153,6,,,,1,None,B,False,None,,,,,
n-back,,,,154,6,,,,1,None,X,False,None,,,,,
n-back,,,,155,6,,,,1,None,X,False,None,,,,,
n-back,,,,156,6,,,,1,None,C,False,None,,,,,
n-back,,,,157,6,,,,1,0.480790417001117,X,True,1,,,,,
n-back,,,,158,6,,,,1,None,B,False,None,,,,,
n-back,,,,159,6,,,,1,None,N,False,None,,,,,
n-back,,,,160,6,,,,1,None,X,False,None,,,,,
n-back,,,,161,6,,,,1,0.4984461250132881,N,True,1,,,,,
n-back,,,,162,6,,,,0,None,X,True,None,,,,,
n-back,,,,163,6,,,,1,None,X,False,None,,,,,
n-back,,,,164,6,,,,1,None,C,False,None,,,,,
n-back,,,,165,6,,,,1,None,V,False,None,,,,,
n-back,,,,166,6,,,,1,None,X,False,None,,,,,
n-back,,,,167,6,,,,1,None,Z,False,None,,,,,
n-back,,,,168,6,,,,1,None,V,False,None,,,,,
n-back,,,,169,6,,,,1,None,X,False,None,,,,,
n-back,,,,170,6,,,,0,1.2434664590109605,X,False,1,,,,,
n-back,,,,171,6,,,,1,None,N,False,None,,,,,
n-back,,,,172,6,,,,0,None,X,True,None,,,,,
n-back,,,,173,6,,,,1,0.5046175830066204,N,True,1,,,,,
n-back,,,,174,6,,,,1,None,C,False,None,,,,,
n-back,,,,175,6,,,,1,None,C,False,None,,,,,
n-back,,,,176,6,,,,1,0.45977566702640615,C,True,1,,,,,
n-back,,,,177,6,,,,0,None,C,True,None,,,,,
n-back,,,,178,6,,,,0,None,C,True,None,,,,,
n-back,,,,179,6,,,,1,0.40505512501113117,C,True,1,,,,,
n-back,,,,180,6,,,,1,None,V,False,None,,,,,
choice,fixation,146.72515804201248,147.47833045900916,41,6,,,,,,,,,Small,,,,
choice,option,147.48734112500097,148.51304100002744,41,6,,,,,,,,,Small,,,,
choice,choice,148.51323395900545,168.62849441700382,41,6,,,1,1,19.103758665994974,,,,Small,,,,
choice,fixation,168.6286191670224,169.38395479202154,42,6,,,,,,,,,Solid,,,,
choice,option,169.39324079200742,170.41842716702376,42,6,,,,,,,,,Solid,,,,
choice,choice,170.4185341670236,184.03668579200166,42,6,,,2,0,12.607406458002515,,,,Solid,,,,
choice,fixation,184.03682095900876,185.5435839590209,43,6,,,,,,,,,Large,,,,
choice,option,185.55216783401556,186.58024412501254,43,6,,,,,,,,,Large,,,,
choice,choice,186.5803457920265,196.51988712500315,43,6,,,2,0,8.92878012501751,,,,Large,,,,
choice,fixation,196.52001791700604,197.02774283400504,44,6,,,,,,,,,Land,,,,
choice,option,197.03638820900233,198.06267058401136,44,6,,,,,,,,,Land,,,,
choice,choice,198.06285229200148,207.7381363750028,44,6,,,2,0,8.665787833015202,,,,Land,,,,
choice,fixation,207.73825112500344,208.2437783750065,45,6,,,,,,,,,Pattern,,,,
choice,option,208.25316362502053,209.27915775001748,45,6,,,,,,,,,Pattern,,,,
choice,choice,209.27926391700748,218.7721027090156,45,6,,,1,1,8.482241332996637,,,,Pattern,,,,
choice,fixation,218.7722350420081,219.5271712920221,46,6,,,,,,,,,Animal,,,,
choice,option,219.536549750017,220.5633295000007,46,6,,,,,,,,,Animal,,,,
choice,choice,220.56344658401213,225.95505087502534,46,6,,,1,1,4.381743125006324,,,,Animal,,,,
choice,fixation,225.95517504200689,226.46108587502385,47,6,,,,,,,,,Object,,,,
choice,option,226.46991700000945,227.4960220840003,47,6,,,,,,,,,Object,,,,
choice,choice,227.4961188340094,231.5378271250229,47,6,,,2,0,3.031508040992776,,,,Object,,,,
choice,fixation,231.5379605840135,232.79445079201832,48,6,,,,,,,,,Sea,,,,
choice,option,232.8028083750105,233.82900762502686,48,6,,,,,,,,,Sea,,,,
choice,choice,233.8291702500137,237.9531288340222,48,6,,,1,1,3.114242417010246,,,,Sea,,,,
memory,free_recall,246.77562433402636,262.50996808402124,30,6,,,,,,,,,,,,,
memory,value_recall,265.6012575000059,270.0600880420243,31,6,Object_Land_Pattern_Large,,,,4.454628417006461,,,,,5,,,
memory,value_recall,271.1047507090261,274.5159018340055,32,6,Object_Sea_Solid_Large,,,,3.405958416988142,,,,,-1,,,
memory,value_recall,275.8112353340257,277.99599112500437,33,6,Animal_Land_Pattern_Large,,,,2.1806859589996748,,,,,-1,,,
memory,value_recall,280.0413723340025,282.71795175000443,34,6,Animal_Land_Pattern_Small,,,,2.6725545830267947,,,,,-2,,,
memory,value_recall,284.2630276250129,287.33163683401654,35,6,Animal_Sea_Solid_Small,,,,3.0645604160090443,,,,,8,,,
memory,value_recall,288.3775477090094,293.06923691701377,36,6,Object_Sea_Solid_Small,,,,4.689035499992315,,,,,-3,,,
memory,spatial_recall,296.6848181670066,297.88681358401664,36,6,Object_Sea_Solid_Small,,,1,1.1979901670129038,,,,,,"[0, 380]","[0, 380]",
memory,spatial_recall,299.45311245901394,300.9756357090082,36,6,Animal_Sea_Solid_Small,,,1,1.5185720840236172,,,,,,"[329, 189]","[329, 189]",
memory,spatial_recall,303.032357167016,303.8011494590028,36,6,Animal_Land_Pattern_Large,,,1,0.7647988329990767,,,,,,"[329, -190]","[329, -190]",
memory,spatial_recall,305.3468431250076,308.1176869170158,36,6,Object_Sea_Solid_Large,,,1,2.7668363749980927,,,,,,"[-329, -190]","[-329, -190]",
memory,spatial_recall,309.67610516701825,310.6010386670241,36,6,Object_Land_Pattern_Large,,,1,0.9209667499817442,,,,,,"[0, -380]","[0, -380]",
memory,spatial_recall,312.40712770901155,313.7174120420241,36,6,Animal_Land_Pattern_Small,,,1,1.3061713330098428,,,,,,"[-329, 190]","[-329, 190]",
encoding,fixation,2.9782667079998646,3.734351874998538,37,7,Object_Sea_Pattern_Large,3,,,,,,,,,,,
encoding,image,3.734460833016783,4.746042749990011,37,7,Object_Sea_Pattern_Large,3,,,,,,,,,,,
encoding,value,4.746155208005803,10.758934375015087,37,7,Object_Sea_Pattern_Large,3,,,,,,,,,,,
encoding,attention,10.759042874997249,13.776752000005217,37,7,Object_Sea_Pattern_Large,3,+3,1,1.3040361670136917,,,,,,,,
encoding,fixation,13.776896416005911,14.782296833000146,38,7,Object_Land_Pattern_Small,-6,,,,,,,,,,,
encoding,image,14.78240245798952,15.793568833003519,38,7,Object_Land_Pattern_Small,-6,,,,,,,,,,,
encoding,value,15.79367679101415,21.806701749999775,38,7,Object_Land_Pattern_Small,-6,,,,,,,,,,,
encoding,attention,21.8068242080044,24.828036082995823,38,7,Object_Land_Pattern_Small,-6,-6,1,0.7639841669879388,,,,,,,,
encoding,fixation,24.828271250007674,25.333454500010703,39,7,Object_Land_Solid_Large,1,,,,,,,,,,,
encoding,image,25.33356141601689,26.343761916010408,39,7,Object_Land_Solid_Large,1,,,,,,,,,,,
encoding,value,26.343870290991617,32.35693470799015,39,7,Object_Land_Solid_Large,1,,,,,,,,,,,
encoding,attention,32.35708587500267,35.37408762500854,39,7,Object_Land_Solid_Large,1,+1,1,0.9609465830144472,,,,,,,,
encoding,fixation,35.37425495800562,36.37938570801634,40,7,Animal_Sea_Pattern_Small,4,,,,,,,,,,,
encoding,image,36.37948662499548,37.390890041016974,40,7,Animal_Sea_Pattern_Small,4,,,,,,,,,,,
encoding,value,37.39106183301192,43.40357379100169,40,7,Animal_Sea_Pattern_Small,4,,,,,,,,,,,
encoding,attention,43.40369829098927,46.421258749993285,40,7,Animal_Sea_Pattern_Small,4,+4,1,0.6095367920061108,,,,,,,,
encoding,fixation,46.42140029100119,46.926615375006804,41,7,Animal_Land_Solid_Small,6,,,,,,,,,,,
encoding,image,46.926736541005084,47.93978183300351,41,7,Animal_Land_Solid_Small,6,,,,,,,,,,,
encoding,value,47.93988024999271,53.9518522080034,41,7,Animal_Land_Solid_Small,6,,,,,,,,,,,
encoding,attention,53.95196700000088,56.96870462500374,41,7,Animal_Land_Solid_Small,6,+6,1,0.6549771669961046,,,,,,,,
encoding,fixation,56.96886304099462,57.72390408301726,42,7,Animal_Sea_Solid_Large,-9,,,,,,,,,,,
encoding,image,57.72400495799957,58.73549916601041,42,7,Animal_Sea_Solid_Large,-9,,,,,,,,,,,
encoding,value,58.73561441601487,64.7478841250122,42,7,Animal_Sea_Solid_Large,-9,,,,,,,,,,,
encoding,attention,64.74799562501721,67.76452116601286,42,7,Animal_Sea_Solid_Large,-9,-9,1,0.6773464999860153,,,,,,,,
n-back,,,,181,7,,,,1,None,C,False,None,,,,,
n-back,,,,182,7,,,,1,None,C,False,None,,,,,
n-back,,,,183,7,,,,1,None,B,False,None,,,,,
n-back,,,,184,7,,,,1,None,B,False,None,,,,,
n-back,,,,185,7,,,,1,None,Z,False,None,,,,,
n-back,,,,186,7,,,,1,None,X,False,None,,,,,
n-back,,,,187,7,,,,1,None,N,False,None,,,,,
n-back,,,,188,7,,,,1,None,N,False,None,,,,,
n-back,,,,189,7,,,,1,None,B,False,None,,,,,
n-back,,,,190,7,,,,1,None,X,False,None,,,,,
n-back,,,,191,7,,,,1,None,V,False,None,,,,,
n-back,,,,192,7,,,,1,None,N,False,None,,,,,
n-back,,,,193,7,,,,1,None,N,False,None,,,,,
n-back,,,,194,7,,,,1,1.4406150419963524,N,True,1,,,,,
n-back,,,,195,7,,,,1,None,B,False,None,,,,,
n-back,,,,196,7,,,,0,None,N,True,None,,,,,
n-back,,,,197,7,,,,1,0.4389746669912711,B,True,1,,,,,
n-back,,,,198,7,,,,0,None,N,True,None,,,,,
n-back,,,,199,7,,,,1,None,C,False,None,,,,,
n-back,,,,200,7,,,,1,0.5379732910078019,N,True,1,,,,,
n-back,,,,201,7,,,,0,None,C,True,None,,,,,
n-back,,,,202,7,,,,1,None,V,False,None,,,,,
n-back,,,,203,7,,,,1,None,X,False,None,,,,,
n-back,,,,204,7,,,,1,None,C,False,None,,,,,
n-back,,,,205,7,,,,1,None,Z,False,None,,,,,
n-back,,,,206,7,,,,1,0.5485740420117509,C,True,1,,,,,
n-back,,,,207,7,,,,0,None,Z,True,None,,,,,
n-back,,,,208,7,,,,1,None,B,False,None,,,,,
n-back,,,,209,7,,,,1,0.6832280830130912,Z,True,1,,,,,
n-back,,,,210,7,,,,0,None,B,True,None,,,,,
choice,fixation,145.57255637500202,146.82582491601352,49,7,,,,,,,,,Sea,,,,
choice,option,146.83414533300675,147.86118870798964,49,7,,,,,,,,,Sea,,,,
choice,choice,147.86130037499242,160.0738712910097,49,7,,,2,1,11.201358374994015,,,,Sea,,,,
choice,fixation,160.07401350000873,161.07928379101213,50,7,,,,,,,,,Pattern,,,,
choice,option,161.0883834999986,162.11464874999365,50,7,,,,,,,,,Pattern,,,,
choice,choice,162.11475520799286,165.64870799999335,50,7,,,1,1,2.524260458012577,,,,Pattern,,,,
choice,fixation,165.64884899999015,166.90673437499208,51,7,,,,,,,,,Object,,,,
choice,option,166.91598433299805,167.94229404101497,51,7,,,,,,,,,Object,,,,
choice,choice,167.94240983299096,170.20763762498973,51,7,,,1,0,1.2544009589764755,,,,Object,,,,
choice,fixation,170.20776250000927,171.7126528749941,52,7,,,,,,,,,Solid,,,,
choice,option,171.72203900001477,172.7478241659992,52,7,,,,,,,,,Solid,,,,
choice,choice,172.7479509160039,176.10335658301483,52,7,,,2,1,2.345699958008481,,,,Solid,,,,
choice,fixation,176.1035011660133,177.35846654101624,53,7,,,,,,,,,Land,,,,
choice,option,177.36650566599565,178.3924495410174,53,7,,,,,,,,,Land,,,,
choice,choice,178.3925580829964,181.48713812499773,53,7,,,1,1,2.084185208019335,,,,Land,,,,
choice,fixation,181.48725637499592,182.99214287500945,54,7,,,,,,,,,Large,,,,
choice,option,183.00076554101543,184.02687087500817,54,7,,,,,,,,,Large,,,,
choice,choice,184.02698758299812,188.7683261249913,54,7,,,2,1,3.7317451249982696,,,,Large,,,,
choice,fixation,188.76844675000757,189.5235332500015,55,7,,,,,,,,,Animal,,,,
choice,option,189.532842332992,190.55982162500732,55,7,,,,,,,,,Animal,,,,
choice,choice,190.55994100001408,192.36199845801457,55,7,,,2,0,0.7927964580012485,,,,Animal,,,,
choice,fixation,192.3621794579958,193.3672198750137,56,7,,,,,,,,,Small,,,,
choice,option,193.37591933298972,194.4021292910038,56,7,,,,,,,,,Small,,,,
choice,choice,194.402259666007,196.75987533299485,56,7,,,1,1,1.3481202499824576,,,,Small,,,,
memory,free_recall,204.62650300000678,221.00553525000578,36,7,,,,,,,,,,,,,
memory,value_recall,223.8073090830003,228.08190641601686,37,7,Animal_Sea_Pattern_Small,,,,4.270802792016184,,,,,4,,,
memory,value_recall,229.87703562501702,234.81172133301152,38,7,Object_Sea_Pattern_Large,,,,4.93055620798259,,,,,3,,,
memory,value_recall,235.85704091601656,238.81002725000144,39,7,Animal_Land_Solid_Small,,,,2.949352249997901,,,,,6,,,
memory,value_recall,240.10708445799537,241.50858187500853,40,7,Animal_Sea_Solid_Large,,,,1.3974344999878667,,,,,-9,,,
memory,value_recall,242.79249245801475,246.20488662499702,41,7,Object_Land_Solid_Large,,,,3.408388959011063,,,,,1,,,
memory,value_recall,247.249397083011,248.44220445799874,42,7,Object_Land_Pattern_Small,,,,1.187981833005324,,,,,-6,,,
memory,spatial_recall,252.02309245799552,253.2292861659953,42,7,Animal_Sea_Pattern_Small,,,1,1.2021115829993505,,,,,,"[329, -190]","[329, -190]",
memory,spatial_recall,254.52702870799112,255.83004379100748,42,7,Object_Land_Solid_Large,,,1,1.2991406670189463,,,,,,"[-329, 190]","[-329, 190]",
memory,spatial_recall,257.12941283299006,258.2328076660051,42,7,Animal_Sea_Solid_Large,,,1,1.09940562499105,,,,,,"[0, -380]","[0, -380]",
memory,spatial_recall,259.5406801250065,260.2665667080146,42,7,Animal_Land_Solid_Small,,,1,0.7219694580126088,,,,,,"[0, 380]","[0, 380]",
memory,spatial_recall,261.5676599580038,262.86627712499467,42,7,Object_Land_Pattern_Small,,,1,1.2941508750081994,,,,,,"[-329, -190]","[-329, -190]",
memory,spatial_recall,264.6790991250018,265.87036841601366,42,7,Object_Sea_Pattern_Large,,,1,1.1861082079994958,,,,,,"[329, 189]","[329, 189]",
