phase,event,trial_number,eyetracker_onset,eyetracker_offset,fix_start,fix_end,fix_duration_full,fix_duration_bounded,fix_x,fix_y,roi_x,roi_y,roi_content,onset,offset,game,image,outcome,choice,correct,rt,letter,match,response,option,true_value,true_position,recalled_position,Unnamed: 18
encoding,fixation,7,12311260,12312516,12311525.0,12311646.0,122.0,122.0,1944.0,1132.9,1920.0,1080.0,fixation,,,,,,,,,,,,,,,,
encoding,fixation,7,12311260,12312516,12311751.0,12312036.0,286.0,286.0,1940.8,1263.5,1920.0,700.0,none,,,,,,,,,,,,,,,,
encoding,fixation,7,12311260,12312516,12312057.0,12312787.0,731.0,459.0,1948.9,1410.6,1920.0,700.0,none,,,,,,,,,,,,,,,,
encoding,image,7,12312516,12313532,12312839.0,12313000.0,162.0,162.0,1938.9,817.2,1920.0,1460.0,none,,,,,,,,,,,,,,,,
encoding,image,7,12312516,12313532,12313021.0,12313281.0,261.0,261.0,1909.1,733.7,1920.0,1460.0,none,,,,,,,,,,,,,,,,
encoding,image,7,12312516,12313532,12313301.0,12313737.0,437.0,231.0,1919.0,835.2,1920.0,1460.0,none,,,,,,,,,,,,,,,,
encoding,value,7,12313532,12319545,12313763.0,12314180.0,418.0,418.0,1905.9,593.3,1920.0,1460.0,none,,,,,,,,,,,,,,,,
encoding,value,7,12313532,12319545,12314357.0,12314609.0,253.0,253.0,1923.8,693.5999999999999,1920.0,1460.0,none,,,,,,,,,,,,,,,,
encoding,value,7,12313532,12319545,12314618.0,12314906.0,289.0,289.0,1919.9,736.2,1920.0,1460.0,none,,,,,,,,,,,,,,,,
encoding,value,7,12313532,12319545,12314953.0,12315672.0,720.0,720.0,1955.5,1034.3,1920.0,1080.0,fixation,,,,,,,,,,,,,,,,
encoding,value,7,12313532,12319545,12315696.0,12316168.0,473.0,473.0,1933.8,850.7,1920.0,1460.0,none,,,,,,,,,,,,,,,,
encoding,value,7,12313532,12319545,12316189.0,12316616.0,428.0,428.0,1935.7,1028.0,1920.0,1080.0,fixation,,,,,,,,,,,,,,,,
encoding,value,7,12313532,12319545,12316824.0,12317065.0,242.0,242.0,1936.4,861.0999999999999,1920.0,1460.0,none,,,,,,,,,,,,,,,,
encoding,value,7,12313532,12319545,12317085.0,12317344.0,260.0,260.0,1892.2,739.5,1920.0,1460.0,none,,,,,,,,,,,,,,,,
encoding,value,7,12313532,12319545,12317357.0,12317596.0,240.0,240.0,1909.7,674.5999999999999,1920.0,1460.0,none,,,,,,,,,,,,,,,,
encoding,value,7,12313532,12319545,12317604.0,12318743.0,1140.0,1140.0,1916.4,726.3,1920.0,1460.0,none,,,,,,,,,,,,,,,,
encoding,value,7,12313532,12319545,12318768.0,12319345.0,578.0,578.0,1926.5,938.5,1920.0,1460.0,none,,,,,,,,,,,,,,,,
encoding,value,7,12313532,12319545,12319366.0,12319566.0,201.0,179.0,1940.7,817.4000000000001,1920.0,1460.0,none,,,,,,,,,,,,,,,,
encoding,attention,7,12319545,12322566,12319586.0,12320181.0,596.0,596.0,1913.1,691.2,1920.0,1460.0,none,,,,,,,,,,,,,,,,
encoding,attention,7,12319545,12322566,12320391.0,12320746.0,356.0,356.0,1918.1,695.0999999999999,1920.0,1460.0,none,,,,,,,,,,,,,,,,
encoding,attention,7,12319545,12322566,12320760.0,12322125.0,1366.0,1366.0,1947.9,612.7,1920.0,1460.0,none,,,,,,,,,,,,,,,,
encoding,fixation,8,12322566,12324071,12323008.0,12323721.0,714.0,714.0,1923.3,777.5,1920.0,1460.0,none,,,,,,,,,,,,,,,,
encoding,fixation,8,12322566,12324071,12323742.0,12324247.0,506.0,329.0,1966.6,874.3,1920.0,1460.0,none,,,,,,,,,,,,,,,,
encoding,image,8,12324071,12325083,12324289.0,12324858.0,570.0,570.0,2184.7,1192.1,2249.0,891.0,none,,,,,,,,,,,,,,,,
encoding,image,8,12324071,12325083,12325056.0,12326071.0,1016.0,27.0,2232.9,1150.3,2249.0,891.0,none,,,,,,,,,,,,,,,,
encoding,value,8,12325083,12331094,12326267.0,12328264.0,1998.0,1998.0,2234.7,1152.5,2249.0,891.0,none,,,,,,,,,,,,,,,,
encoding,value,8,12325083,12331094,12328452.0,12331324.0,2873.0,2642.0,2242.7,1152.6,2249.0,891.0,none,,,,,,,,,,,,,,,,
encoding,attention,8,12331094,12334114,12331350.0,12331370.0,21.0,21.0,2214.8,1139.6,2249.0,891.0,none,,,,,,,,,,,,,,,,
encoding,attention,8,12331094,12334114,12331551.0,12333042.0,1492.0,1492.0,2219.6,1153.0,2249.0,891.0,none,,,,,,,,,,,,,,,,
encoding,fixation,9,12334114,12334619,12334365.0,12334556.0,192.0,192.0,1987.0,1112.2,2249.0,891.0,none,,,,,,,,,,,,,,,,
encoding,image,9,12334619,12335631,12334784.0,12334929.0,146.0,146.0,1945.4,1078.0,1920.0,1080.0,fixation,,,,,,,,,,,,,,,,
encoding,image,9,12334619,12335631,12334962.0,12335144.0,183.0,183.0,2177.9,972.9000000000001,2249.0,1269.0,none,,,,,,,,,,,,,,,,
encoding,image,9,12334619,12335631,12335152.0,12335492.0,341.0,341.0,2219.4,958.2,2249.0,1269.0,none,,,,,,,,,,,,,,,,
encoding,image,9,12334619,12335631,12335506.0,12335685.0,180.0,125.0,2140.2,997.7,2249.0,1269.0,none,,,,,,,,,,,,,,,,
encoding,value,9,12335632,12341644,12335893.0,12336000.0,108.0,108.0,2197.8,1001.5,2249.0,1269.0,none,,,,,,,,,,,,,,,,
encoding,value,9,12335632,12341644,12336024.0,12336720.0,697.0,697.0,2207.0,817.5999999999999,2249.0,1269.0,none,,,,,,,,,,,,,,,,
encoding,value,9,12335632,12341644,12336730.0,12336981.0,252.0,252.0,2243.1,870.8,2249.0,1269.0,none,,,,,,,,,,,,,,,,
encoding,value,9,12335632,12341644,12337197.0,12338584.0,1388.0,1388.0,2212.8,850.0999999999999,2249.0,1269.0,none,,,,,,,,,,,,,,,,
encoding,value,9,12335632,12341644,12338600.0,12339116.0,517.0,517.0,2226.6,899.0999999999999,2249.0,1269.0,none,,,,,,,,,,,,,,,,
encoding,value,9,12335632,12341644,12339133.0,12339957.0,825.0,825.0,2222.5,829.9000000000001,2249.0,1269.0,none,,,,,,,,,,,,,,,,
encoding,value,9,12335632,12341644,12340133.0,12341146.0,1014.0,1014.0,2210.4,825.5999999999999,2249.0,1269.0,none,,,,,,,,,,,,,,,,
encoding,value,9,12335632,12341644,12341322.0,12343636.0,2315.0,322.0,2254.9,811.8,2249.0,1269.0,none,,,,,,,,,,,,,,,,
encoding,attention,9,12341644,12344666,,,,,,,,,none,,,,,,,,,,,,,,,,
encoding,fixation,10,12344666,12346171,12344888.0,12346352.0,1465.0,1283.0,1935.3,1075.0,1920.0,1080.0,fixation,,,,,,,,,,,,,,,,
encoding,image,10,12346171,12347183,12346518.0,12346586.0,69.0,69.0,1895.5,1097.9,1920.0,1080.0,fixation,,,,,,,,,,,,,,,,
encoding,image,10,12346171,12347183,12346622.0,12347377.0,756.0,561.0,1692.6,1187.0,1591.0,891.0,none,,,,,,,,,,,,,,,,
encoding,value,10,12347183,12353196,12347389.0,12348556.0,1168.0,1168.0,1626.6,1167.6,1591.0,891.0,none,,,,,,,,,,,,,,,,
encoding,value,10,12347183,12353196,12348703.0,12349302.0,600.0,600.0,1613.9,1188.9,1591.0,891.0,none,,,,,,,,,,,,,,,,
encoding,value,10,12347183,12353196,12349491.0,12352539.0,3049.0,3049.0,1618.8,1180.1,1591.0,891.0,none,,,,,,,,,,,,,,,,
encoding,value,10,12347183,12353196,12352705.0,12352760.0,56.0,56.0,1616.1,1194.2,1591.0,891.0,none,,,,,,,,,,,,,,,,
encoding,value,10,12347183,12353196,12352768.0,12353428.0,661.0,428.0,1623.2,1168.8,1591.0,891.0,none,,,,,,,,,,,,,,,,
encoding,attention,10,12353196,12356214,12353624.0,12355331.0,1708.0,1708.0,1649.3,1172.2,1591.0,891.0,none,,,,,,,,,,,,,,,,
encoding,fixation,11,12356214,12357718,12356468.0,12356669.0,202.0,202.0,1967.3,1102.6,1920.0,1080.0,fixation,,,,,,,,,,,,,,,,
encoding,fixation,11,12356214,12357718,12356902.0,12357437.0,536.0,536.0,2017.0,1054.1,2249.0,1269.0,none,,,,,,,,,,,,,,,,
encoding,fixation,11,12356214,12357718,12357450.0,12357940.0,491.0,268.0,1945.0,1092.1,1920.0,1080.0,fixation,,,,,,,,,,,,,,,,
encoding,image,11,12357719,12358732,12357980.0,12358929.0,950.0,752.0,1942.7,1385.6,1920.0,700.0,none,,,,,,,,,,,,,,,,
encoding,value,11,12358732,12364745,12358939.0,12359105.0,167.0,167.0,1948.2,1361.9,1920.0,700.0,none,,,,,,,,,,,,,,,,
encoding,value,11,12358732,12364745,12359284.0,12359315.0,32.0,32.0,1947.3,1374.0,1920.0,700.0,none,,,,,,,,,,,,,,,,
encoding,value,11,12358732,12364745,12359323.0,12359695.0,373.0,373.0,1948.7,1346.1,1920.0,700.0,none,,,,,,,,,,,,,,,,
encoding,value,11,12358732,12364745,12359931.0,12360718.0,788.0,788.0,1935.3,1404.5,1920.0,700.0,none,,,,,,,,,,,,,,,,
encoding,value,11,12358732,12364745,12360726.0,12361180.0,455.0,455.0,1927.7,1341.1,1920.0,700.0,none,,,,,,,,,,,,,,,,
encoding,value,11,12358732,12364745,12361400.0,12363015.0,1616.0,1616.0,1926.5,1335.3,1920.0,700.0,none,,,,,,,,,,,,,,,,
encoding,value,11,12358732,12364745,12363213.0,12365101.0,1889.0,1532.0,1922.1,1335.8,1920.0,700.0,none,,,,,,,,,,,,,,,,
encoding,attention,11,12364745,12367764,12365276.0,12365508.0,233.0,233.0,1958.6,1356.4,1920.0,700.0,none,,,,,,,,,,,,,,,,
encoding,attention,11,12364745,12367764,12365520.0,12365866.0,347.0,347.0,1904.2,1343.2,1920.0,700.0,none,,,,,,,,,,,,,,,,
encoding,attention,11,12364745,12367764,12365877.0,12367242.0,1366.0,1366.0,1976.8,1333.0,1920.0,700.0,none,,,,,,,,,,,,,,,,
encoding,fixation,12,12367764,12368269,12367873.0,12368210.0,338.0,338.0,1907.3,1320.1,1920.0,700.0,none,,,,,,,,,,,,,,,,
encoding,image,12,12368269,12369280,12368441.0,12368562.0,122.0,122.0,1922.3,1052.0,1920.0,1080.0,fixation,,,,,,,,,,,,,,,,
encoding,image,12,12368269,12369280,12368588.0,12369525.0,938.0,692.0,1636.8,943.5,1591.0,1269.0,none,,,,,,,,,,,,,,,,
encoding,value,12,12369280,12375292,12369546.0,12370249.0,704.0,704.0,1641.4,810.9000000000001,1591.0,1269.0,none,,,,,,,,,,,,,,,,
encoding,value,12,12369280,12375292,12370505.0,12370890.0,386.0,386.0,1629.2,885.5999999999999,1591.0,1269.0,none,,,,,,,,,,,,,,,,
encoding,value,12,12369280,12375292,12370932.0,12371371.0,440.0,440.0,1634.6,846.2,1591.0,1269.0,none,,,,,,,,,,,,,,,,
encoding,value,12,12369280,12375292,12371380.0,12371676.0,297.0,297.0,1644.8,909.7,1591.0,1269.0,none,,,,,,,,,,,,,,,,
encoding,value,12,12369280,12375292,12371932.0,12372182.0,251.0,251.0,1629.2,962.4000000000001,1591.0,1269.0,none,,,,,,,,,,,,,,,,
encoding,value,12,12369280,12375292,12372189.0,12373035.0,847.0,847.0,1625.4,903.3,1591.0,1269.0,none,,,,,,,,,,,,,,,,
encoding,value,12,12369280,12375292,12373292.0,12373376.0,85.0,85.0,1598.6,933.5,1591.0,1269.0,none,,,,,,,,,,,,,,,,
encoding,value,12,12369280,12375292,12373395.0,12373826.0,432.0,432.0,1605.5,892.9000000000001,1591.0,1269.0,none,,,,,,,,,,,,,,,,
encoding,value,12,12369280,12375292,12374141.0,12374314.0,174.0,174.0,1603.6,959.4000000000001,1591.0,1269.0,none,,,,,,,,,,,,,,,,
encoding,value,12,12369280,12375292,12374333.0,12374945.0,613.0,613.0,1616.6,914.7,1591.0,1269.0,none,,,,,,,,,,,,,,,,
encoding,attention,12,12375292,12378309,12375303.0,12376624.0,1322.0,1322.0,1647.6,892.2,1591.0,1269.0,none,,,,,,,,,,,,,,,,
encoding,attention,12,12375292,12378309,12376632.0,12376876.0,245.0,245.0,1659.6,911.8,1591.0,1269.0,none,,,,,,,,,,,,,,,,
encoding,attention,12,12375292,12378309,12377164.0,12377252.0,89.0,89.0,1691.8,914.8,1591.0,1269.0,none,,,,,,,,,,,,,,,,
encoding,attention,12,12375292,12378309,12377259.0,12377696.0,438.0,438.0,1690.6,870.9000000000001,1591.0,1269.0,none,,,,,,,,,,,,,,,,
encoding,fixation,13,12689339,12690095,12689740.0,12689949.0,210.0,210.0,1929.1,1095.9,1920.0,1080.0,fixation,,,,,,,,,,,,,,,,
encoding,fixation,13,12689339,12690095,12689990.0,12690366.0,377.0,105.0,1941.1,1327.1,1920.0,700.0,none,,,,,,,,,,,,,,,,
encoding,image,13,12690095,12691106,12690419.0,12690585.0,167.0,167.0,1916.6,821.0999999999999,1920.0,1460.0,none,,,,,,,,,,,,,,,,
encoding,image,13,12690095,12691106,12690600.0,12691351.0,752.0,506.0,1886.3,759.2,1920.0,1460.0,none,,,,,,,,,,,,,,,,
encoding,value,13,12691107,12697120,12691369.0,12691436.0,68.0,68.0,1904.4,653.5,1920.0,1460.0,none,,,,,,,,,,,,,,,,
encoding,value,13,12691107,12697120,12691659.0,12691936.0,278.0,278.0,1913.3,651.5,1920.0,1460.0,none,,,,,,,,,,,,,,,,
encoding,value,13,12691107,12697120,12691949.0,12693008.0,1060.0,1060.0,1866.3,725.0999999999999,1920.0,1460.0,none,,,,,,,,,,,,,,,,
encoding,value,13,12691107,12697120,12693024.0,12693535.0,512.0,512.0,1887.4,670.5999999999999,1920.0,1460.0,none,,,,,,,,,,,,,,,,
encoding,value,13,12691107,12697120,12693551.0,12694088.0,538.0,538.0,1852.9,747.2,1920.0,1460.0,none,,,,,,,,,,,,,,,,
encoding,value,13,12691107,12697120,12694105.0,12695044.0,940.0,940.0,1867.5,653.3,1920.0,1460.0,none,,,,,,,,,,,,,,,,
encoding,value,13,12691107,12697120,12695274.0,12695725.0,452.0,452.0,1858.4,650.3,1920.0,1460.0,none,,,,,,,,,,,,,,,,
encoding,value,13,12691107,12697120,12695738.0,12696143.0,406.0,406.0,1836.8,690.3,1920.0,1460.0,none,,,,,,,,,,,,,,,,
encoding,value,13,12691107,12697120,12696391.0,12696528.0,138.0,138.0,1858.7,687.9000000000001,1920.0,1460.0,none,,,,,,,,,,,,,,,,
encoding,value,13,12691107,12697120,12696544.0,12697437.0,894.0,576.0,1840.8,750.0,1920.0,1460.0,none,,,,,,,,,,,,,,,,
encoding,attention,13,12697120,12700138,12697455.0,12698810.0,1356.0,1356.0,1907.5,663.7,1920.0,1460.0,none,,,,,,,,,,,,,,,,
encoding,attention,13,12697120,12700138,12698818.0,12698960.0,143.0,143.0,1852.1,632.3,1920.0,1460.0,none,,,,,,,,,,,,,,,,
encoding,attention,13,12697120,12700138,12699248.0,12699957.0,710.0,710.0,1896.6,655.9000000000001,1920.0,1460.0,none,,,,,,,,,,,,,,,,
encoding,fixation,14,12700138,12701395,12700395.0,12700580.0,186.0,186.0,1887.9,1057.4,1920.0,1080.0,fixation,,,,,,,,,,,,,,,,
encoding,fixation,14,12700138,12701395,12700837.0,12701596.0,760.0,558.0,1898.2,1086.5,1920.0,1080.0,fixation,,,,,,,,,,,,,,,,
encoding,image,14,12701395,12702407,12701637.0,12701977.0,341.0,341.0,2200.5,913.4000000000001,2249.0,1269.0,none,,,,,,,,,,,,,,,,
encoding,image,14,12701395,12702407,12702196.0,12702489.0,294.0,211.0,2227.4,962.5999999999999,2249.0,1269.0,none,,,,,,,,,,,,,,,,
encoding,value,14,12702407,12708419,12702501.0,12702656.0,156.0,156.0,2200.0,894.7,2249.0,1269.0,none,,,,,,,,,,,,,,,,
encoding,value,14,12702407,12708419,12702668.0,12702970.0,303.0,303.0,2215.2,842.4000000000001,2249.0,1269.0,none,,,,,,,,,,,,,,,,
encoding,value,14,12702407,12708419,12703236.0,12704596.0,1361.0,1361.0,2199.1,824.5,2249.0,1269.0,none,,,,,,,,,,,,,,,,
encoding,value,14,12702407,12708419,12704826.0,12705520.0,695.0,695.0,2187.0,852.5,2249.0,1269.0,none,,,,,,,,,,,,,,,,
encoding,value,14,12702407,12708419,12705825.0,12708026.0,2202.0,2202.0,2198.6,850.2,2249.0,1269.0,none,,,,,,,,,,,,,,,,
encoding,value,14,12702407,12708419,12708272.0,12710017.0,1746.0,147.0,2163.6,843.0,2249.0,1269.0,none,,,,,,,,,,,,,,,,
encoding,attention,14,12708419,12711436,,,,,,,,,none,,,,,,,,,,,,,,,,
encoding,fixation,15,12711436,12712192,12711858.0,12712375.0,518.0,334.0,1970.4,1118.6,1920.0,1080.0,fixation,,,,,,,,,,,,,,,,
encoding,image,15,12712192,12713204,12712418.0,12713222.0,805.0,786.0,1912.6,1386.8,1920.0,700.0,none,,,,,,,,,,,,,,,,
encoding,value,15,12713204,12719217,12713505.0,12714640.0,1136.0,1136.0,1907.0,1348.8,1920.0,700.0,none,,,,,,,,,,,,,,,,
encoding,value,15,12713204,12719217,12714656.0,12715003.0,348.0,348.0,1904.1,1409.1,1920.0,700.0,none,,,,,,,,,,,,,,,,
encoding,value,15,12713204,12719217,12715242.0,12716035.0,794.0,794.0,1892.3,1354.0,1920.0,700.0,none,,,,,,,,,,,,,,,,
encoding,value,15,12713204,12719217,12716319.0,12717875.0,1557.0,1557.0,1887.2,1356.0,1920.0,700.0,none,,,,,,,,,,,,,,,,
encoding,value,15,12713204,12719217,12718155.0,12719604.0,1450.0,1062.0,1884.2,1365.8,1920.0,700.0,none,,,,,,,,,,,,,,,,
encoding,attention,15,12719217,12722237,12719858.0,12720974.0,1117.0,1117.0,1907.7,1357.4,1920.0,700.0,none,,,,,,,,,,,,,,,,
encoding,attention,15,12719217,12722237,12721266.0,12721575.0,310.0,310.0,1908.1,909.5,1920.0,1460.0,none,,,,,,,,,,,,,,,,
encoding,fixation,16,12722237,12723242,,,,,,,,,none,,,,,,,,,,,,,,,,
encoding,image,16,12723242,12724254,12723639.0,12723783.0,145.0,145.0,1658.7,952.5,1591.0,1269.0,none,,,,,,,,,,,,,,,,
encoding,image,16,12723242,12724254,12723798.0,12724723.0,926.0,456.0,1573.9,919.9000000000001,1591.0,1269.0,none,,,,,,,,,,,,,,,,
encoding,value,16,12724254,12730267,12724969.0,12727284.0,2316.0,2316.0,1567.9,833.5,1591.0,1269.0,none,,,,,,,,,,,,,,,,
encoding,value,16,12724254,12730267,12727550.0,12729461.0,1912.0,1912.0,1550.8,838.9000000000001,1591.0,1269.0,none,,,,,,,,,,,,,,,,
encoding,value,16,12724254,12730267,12729667.0,12730640.0,974.0,600.0,1536.9,857.0999999999999,1591.0,1269.0,none,,,,,,,,,,,,,,,,
encoding,attention,16,12730267,12733288,12730913.0,12731669.0,757.0,757.0,1506.4,846.7,1591.0,1269.0,none,,,,,,,,,,,,,,,,
encoding,attention,16,12730267,12733288,12731682.0,12732002.0,321.0,321.0,1566.6,822.0999999999999,1591.0,1269.0,none,,,,,,,,,,,,,,,,
encoding,attention,16,12730267,12733288,12732011.0,12733020.0,1010.0,1010.0,1544.3,844.5999999999999,1591.0,1269.0,none,,,,,,,,,,,,,,,,
encoding,fixation,17,12733288,12734794,12733722.0,12733920.0,199.0,199.0,1763.7,914.2,1591.0,1269.0,none,,,,,,,,,,,,,,,,
encoding,fixation,17,12733288,12734794,12733944.0,12734543.0,600.0,600.0,1904.4,1016.0999999999999,1920.0,1080.0,fixation,,,,,,,,,,,,,,,,
encoding,image,17,12734794,12735804,12734829.0,12735058.0,230.0,230.0,1911.6,1110.8,1920.0,1080.0,fixation,,,,,,,,,,,,,,,,
encoding,image,17,12734794,12735804,12735084.0,12735462.0,379.0,379.0,1629.6,1225.7,1591.0,891.0,none,,,,,,,,,,,,,,,,
encoding,image,17,12734794,12735804,12735471.0,12736200.0,730.0,333.0,1579.3,1249.3,1591.0,891.0,none,,,,,,,,,,,,,,,,
encoding,value,17,12735804,12741817,12736424.0,12737687.0,1264.0,1264.0,1584.4,1185.3,1591.0,891.0,none,,,,,,,,,,,,,,,,
encoding,value,17,12735804,12741817,12737877.0,12738485.0,609.0,609.0,1573.8,1200.6,1591.0,891.0,none,,,,,,,,,,,,,,,,
encoding,value,17,12735804,12741817,12738713.0,12739600.0,888.0,888.0,1565.5,1208.9,1591.0,891.0,none,,,,,,,,,,,,,,,,
encoding,value,17,12735804,12741817,12739833.0,12741000.0,1168.0,1168.0,1568.4,1216.9,1591.0,891.0,none,,,,,,,,,,,,,,,,
encoding,value,17,12735804,12741817,12741222.0,12742901.0,1680.0,595.0,1585.0,1191.7,1591.0,891.0,none,,,,,,,,,,,,,,,,
encoding,attention,17,12741817,12744834,12743149.0,12744429.0,1281.0,1281.0,1570.1,1184.2,1591.0,891.0,none,,,,,,,,,,,,,,,,
encoding,fixation,18,12744834,12745839,12744896.0,12745043.0,148.0,148.0,1585.7,1263.8,1591.0,891.0,none,,,,,,,,,,,,,,,,
encoding,fixation,18,12744834,12745839,12745079.0,12745633.0,555.0,555.0,1910.5,1119.2,1920.0,1080.0,fixation,,,,,,,,,,,,,,,,
encoding,image,18,12745839,12746850,12745902.0,12746061.0,160.0,160.0,1991.8,1141.7,2249.0,891.0,none,,,,,,,,,,,,,,,,
encoding,image,18,12745839,12746850,12746086.0,12746268.0,183.0,183.0,2225.0,1207.7,2249.0,891.0,none,,,,,,,,,,,,,,,,
encoding,image,18,12745839,12746850,12746275.0,12747107.0,833.0,575.0,2231.2,1235.0,2249.0,891.0,none,,,,,,,,,,,,,,,,
encoding,value,18,12746850,12752862,12747122.0,12747237.0,116.0,116.0,2254.8,1173.5,2249.0,891.0,none,,,,,,,,,,,,,,,,
encoding,value,18,12746850,12752862,12747466.0,12748311.0,846.0,846.0,2242.3,1166.1,2249.0,891.0,none,,,,,,,,,,,,,,,,
encoding,value,18,12746850,12752862,12748556.0,12749100.0,545.0,545.0,2226.7,1199.8,2249.0,891.0,none,,,,,,,,,,,,,,,,
encoding,value,18,12746850,12752862,12749111.0,12749533.0,423.0,423.0,2222.7,1257.4,2249.0,891.0,none,,,,,,,,,,,,,,,,
encoding,value,18,12746850,12752862,12749550.0,12749682.0,133.0,133.0,2237.4,1169.5,2249.0,891.0,none,,,,,,,,,,,,,,,,
encoding,value,18,12746850,12752862,12749929.0,12750641.0,713.0,713.0,2221.4,1174.3,2249.0,891.0,none,,,,,,,,,,,,,,,,
encoding,value,18,12746850,12752862,12750880.0,12751149.0,270.0,270.0,2160.7,1167.4,2249.0,891.0,none,,,,,,,,,,,,,,,,
encoding,value,18,12746850,12752862,12751171.0,12751595.0,425.0,425.0,1957.3,1160.1,1920.0,700.0,none,,,,,,,,,,,,,,,,
encoding,value,18,12746850,12752862,12751859.0,12752947.0,1089.0,1003.0,2209.9,1154.7,2249.0,891.0,none,,,,,,,,,,,,,,,,
encoding,attention,18,12752862,12755880,12753163.0,12753717.0,555.0,555.0,2242.0,1181.9,2249.0,891.0,none,,,,,,,,,,,,,,,,
encoding,attention,18,12752862,12755880,12753728.0,12754771.0,1044.0,1044.0,2188.8,1172.7,2249.0,891.0,none,,,,,,,,,,,,,,,,
encoding,attention,18,12752862,12755880,12755034.0,12755831.0,798.0,798.0,2202.3,1171.6,2249.0,891.0,none,,,,,,,,,,,,,,,,
encoding,fixation,19,13041915,13043420,13041929.0,13042174.0,246.0,246.0,2071.9,1329.9,2249.0,891.0,none,,,,,,,,,,,,,,,,
encoding,fixation,19,13041915,13043420,13042195.0,13042412.0,218.0,218.0,1977.4,1196.5,1920.0,700.0,none,,,,,,,,,,,,,,,,
encoding,fixation,19,13041915,13043420,13042700.0,13043383.0,684.0,684.0,1927.6,1129.2,1920.0,1080.0,fixation,,,,,,,,,,,,,,,,
encoding,image,19,13043421,13044432,13043654.0,13043863.0,210.0,210.0,1910.5,1225.7,1920.0,700.0,none,,,,,,,,,,,,,,,,
encoding,image,19,13043421,13044432,13043893.0,13044062.0,170.0,170.0,1947.0,875.8,1920.0,1460.0,none,,,,,,,,,,,,,,,,
encoding,image,19,13043421,13044432,13044079.0,13044695.0,617.0,353.0,1923.4,773.2,1920.0,1460.0,none,,,,,,,,,,,,,,,,
encoding,value,19,13044432,13050447,13044713.0,13045064.0,352.0,352.0,1913.4,635.8,1920.0,1460.0,none,,,,,,,,,,,,,,,,
encoding,value,19,13044432,13050447,13045305.0,13045738.0,434.0,434.0,1893.6,691.7,1920.0,1460.0,none,,,,,,,,,,,,,,,,
encoding,value,19,13044432,13050447,13045753.0,13047007.0,1255.0,1255.0,1916.0,765.5,1920.0,1460.0,none,,,,,,,,,,,,,,,,
encoding,value,19,13044432,13050447,13047253.0,13048218.0,966.0,966.0,1895.3,771.7,1920.0,1460.0,none,,,,,,,,,,,,,,,,
encoding,value,19,13044432,13050447,13048440.0,13049883.0,1444.0,1444.0,1922.1,807.8,1920.0,1460.0,none,,,,,,,,,,,,,,,,
encoding,value,19,13044432,13050447,13050136.0,13050726.0,591.0,311.0,1889.7,742.2,1920.0,1460.0,none,,,,,,,,,,,,,,,,
encoding,attention,19,13050447,13053466,13050738.0,13050942.0,205.0,205.0,1875.9,681.7,1920.0,1460.0,none,,,,,,,,,,,,,,,,
encoding,attention,19,13050447,13053466,13051216.0,13052402.0,1187.0,1187.0,1854.2,698.9000000000001,1920.0,1460.0,none,,,,,,,,,,,,,,,,
encoding,attention,19,13050447,13053466,13052415.0,13052979.0,565.0,565.0,1894.3,716.5999999999999,1920.0,1460.0,none,,,,,,,,,,,,,,,,
encoding,fixation,20,13053466,13053971,13053718.0,13054193.0,476.0,253.0,1905.9,1055.6,1920.0,1080.0,fixation,,,,,,,,,,,,,,,,
encoding,image,20,13053971,13054982,13054230.0,13055299.0,1070.0,752.0,2197.3,896.0999999999999,2249.0,1269.0,none,,,,,,,,,,,,,,,,
encoding,value,20,13054982,13060994,13055536.0,13056734.0,1199.0,1199.0,2193.9,846.4000000000001,2249.0,1269.0,none,,,,,,,,,,,,,,,,
encoding,value,20,13054982,13060994,13056980.0,13057421.0,442.0,442.0,2196.7,849.4000000000001,2249.0,1269.0,none,,,,,,,,,,,,,,,,
encoding,value,20,13054982,13060994,13057428.0,13058189.0,762.0,762.0,2194.1,885.0,2249.0,1269.0,none,,,,,,,,,,,,,,,,
encoding,value,20,13054982,13060994,13058410.0,13058879.0,470.0,470.0,2181.7,873.9000000000001,2249.0,1269.0,none,,,,,,,,,,,,,,,,
encoding,value,20,13054982,13060994,13058886.0,13059712.0,827.0,827.0,2188.0,894.8,2249.0,1269.0,none,,,,,,,,,,,,,,,,
encoding,value,20,13054982,13060994,13059720.0,13060458.0,739.0,739.0,2206.2,868.0999999999999,2249.0,1269.0,none,,,,,,,,,,,,,,,,
encoding,value,20,13054982,13060994,13060679.0,13061269.0,591.0,315.0,2205.4,923.3,2249.0,1269.0,none,,,,,,,,,,,,,,,,
encoding,attention,20,13060994,13064013,13061282.0,13061588.0,307.0,307.0,2219.4,862.2,2249.0,1269.0,none,,,,,,,,,,,,,,,,
encoding,attention,20,13060994,13064013,13061857.0,13063273.0,1417.0,1417.0,2180.0,856.3,2249.0,1269.0,none,,,,,,,,,,,,,,,,
encoding,attention,20,13060994,13064013,13063573.0,13063790.0,218.0,218.0,2199.4,870.0,2249.0,1269.0,none,,,,,,,,,,,,,,,,
encoding,fixation,21,13064013,13064519,13064326.0,13064579.0,254.0,193.0,1899.9,1134.9,1920.0,1080.0,fixation,,,,,,,,,,,,,,,,
encoding,image,21,13064519,13065531,13064589.0,13064735.0,147.0,147.0,1909.4,1098.1,1920.0,1080.0,fixation,,,,,,,,,,,,,,,,
encoding,image,21,13064519,13065531,13064762.0,13065187.0,426.0,426.0,1571.1,1241.6,1591.0,891.0,none,,,,,,,,,,,,,,,,
encoding,image,21,13064519,13065531,13065398.0,13065732.0,335.0,133.0,1635.0,1261.8,1591.0,891.0,none,,,,,,,,,,,,,,,,
encoding,value,21,13065532,13071544,13065747.0,13066757.0,1011.0,1011.0,1573.9,1193.0,1591.0,891.0,none,,,,,,,,,,,,,,,,
encoding,value,21,13065532,13071544,13066979.0,13069735.0,2757.0,2757.0,1559.6,1216.4,1591.0,891.0,none,,,,,,,,,,,,,,,,
encoding,value,21,13065532,13071544,13069940.0,13070321.0,382.0,382.0,1564.3,1284.1,1591.0,891.0,none,,,,,,,,,,,,,,,,
encoding,value,21,13065532,13071544,13070348.0,13070925.0,578.0,578.0,1582.4,1186.4,1591.0,891.0,none,,,,,,,,,,,,,,,,
encoding,value,21,13065532,13071544,13071159.0,13072068.0,910.0,385.0,1589.5,1193.4,1591.0,891.0,none,,,,,,,,,,,,,,,,
encoding,attention,21,13071544,13074563,13072081.0,13072779.0,699.0,699.0,1524.7,1183.8,1591.0,891.0,none,,,,,,,,,,,,,,,,
encoding,attention,21,13071544,13074563,13073003.0,13074084.0,1082.0,1082.0,1571.7,1210.0,1591.0,891.0,none,,,,,,,,,,,,,,,,
encoding,fixation,22,13074563,13075318,13074781.0,13074862.0,82.0,82.0,1880.1,1129.3,1920.0,1080.0,fixation,,,,,,,,,,,,,,,,
encoding,fixation,22,13074563,13075318,13075159.0,13075285.0,127.0,127.0,1828.1,1139.0,1591.0,891.0,none,,,,,,,,,,,,,,,,
encoding,fixation,22,13074563,13075318,13075295.0,13075535.0,241.0,23.0,1893.3,1101.1,1920.0,1080.0,fixation,,,,,,,,,,,,,,,,
encoding,image,22,13075318,13076331,13075585.0,13076534.0,950.0,746.0,1897.8,1376.4,1920.0,700.0,none,,,,,,,,,,,,,,,,
encoding,value,22,13076331,13082344,13076541.0,13076666.0,126.0,126.0,1910.0,1351.9,1920.0,700.0,none,,,,,,,,,,,,,,,,
encoding,value,22,13076331,13082344,13076928.0,13078231.0,1304.0,1304.0,1902.5,1362.3,1920.0,700.0,none,,,,,,,,,,,,,,,,
encoding,value,22,13076331,13082344,13078464.0,13079660.0,1197.0,1197.0,1901.7,1356.5,1920.0,700.0,none,,,,,,,,,,,,,,,,
encoding,value,22,13076331,13082344,13079668.0,13079813.0,146.0,146.0,1863.7,1348.7,1920.0,700.0,none,,,,,,,,,,,,,,,,
encoding,value,22,13076331,13082344,13080055.0,13080508.0,454.0,454.0,1893.7,1361.1,1920.0,700.0,none,,,,,,,,,,,,,,,,
encoding,value,22,13076331,13082344,13080794.0,13082908.0,2115.0,1550.0,1881.9,1356.7,1920.0,700.0,none,,,,,,,,,,,,,,,,
encoding,attention,22,13082344,13085362,13082921.0,13082999.0,79.0,79.0,1928.9,1353.4,1920.0,700.0,none,,,,,,,,,,,,,,,,
encoding,attention,22,13082344,13085362,13083225.0,13083604.0,380.0,380.0,1937.7,1374.8,1920.0,700.0,none,,,,,,,,,,,,,,,,
encoding,attention,22,13082344,13085362,13083621.0,13083961.0,341.0,341.0,1848.8,1354.7,1920.0,700.0,none,,,,,,,,,,,,,,,,
encoding,attention,22,13082344,13085362,13083981.0,13084386.0,406.0,406.0,1928.3,1424.8,1920.0,700.0,none,,,,,,,,,,,,,,,,
encoding,fixation,23,13085362,13086117,13085686.0,13085753.0,68.0,68.0,1890.3,1167.2,1920.0,700.0,none,,,,,,,,,,,,,,,,
encoding,fixation,23,13085362,13086117,13086050.0,13086209.0,160.0,67.0,1842.2,1156.6,1591.0,891.0,none,,,,,,,,,,,,,,,,
encoding,image,23,13086118,13087128,13086223.0,13086361.0,139.0,139.0,1886.8,1096.5,1920.0,1080.0,fixation,,,,,,,,,,,,,,,,
encoding,image,23,13086118,13087128,13086388.0,13086814.0,427.0,427.0,2182.6,1212.1,2249.0,891.0,none,,,,,,,,,,,,,,,,
encoding,image,23,13086118,13087128,13087042.0,13087360.0,319.0,86.0,2205.6,1232.7,2249.0,891.0,none,,,,,,,,,,,,,,,,
encoding,value,23,13087128,13093139,13087374.0,13087789.0,416.0,416.0,2232.2,1161.4,2249.0,891.0,none,,,,,,,,,,,,,,,,
encoding,value,23,13087128,13093139,13088040.0,13088303.0,264.0,264.0,2212.2,1185.0,2249.0,891.0,none,,,,,,,,,,,,,,,,
encoding,value,23,13087128,13093139,13088318.0,13089175.0,858.0,858.0,2168.3,1240.5,2249.0,891.0,none,,,,,,,,,,,,,,,,
encoding,value,23,13087128,13093139,13089189.0,13090769.0,1581.0,1581.0,2200.7,1173.5,2249.0,891.0,none,,,,,,,,,,,,,,,,
encoding,value,23,13087128,13093139,13090971.0,13093659.0,2689.0,2168.0,2197.8,1169.2,2249.0,891.0,none,,,,,,,,,,,,,,,,
encoding,attention,23,13093139,13096156,13093860.0,13093956.0,97.0,97.0,2149.5,1192.2,2249.0,891.0,none,,,,,,,,,,,,,,,,
encoding,attention,23,13093139,13096156,13093972.0,13094893.0,922.0,922.0,2235.5,1163.9,2249.0,891.0,none,,,,,,,,,,,,,,,,
encoding,fixation,24,13096156,13096911,13096378.0,13096530.0,153.0,153.0,1880.1,1088.2,1920.0,1080.0,fixation,,,,,,,,,,,,,,,,
encoding,fixation,24,13096156,13096911,13096802.0,13097120.0,319.0,109.0,1820.9,1110.3,1591.0,891.0,none,,,,,,,,,,,,,,,,
encoding,image,24,13096912,13097923,13097158.0,13098118.0,961.0,765.0,1561.8,926.5999999999999,1591.0,1269.0,none,,,,,,,,,,,,,,,,
encoding,value,24,13097923,13103936,13098133.0,13098525.0,393.0,393.0,1574.0,839.8,1591.0,1269.0,none,,,,,,,,,,,,,,,,
encoding,value,24,13097923,13103936,13098544.0,13099345.0,802.0,802.0,1663.8,959.7,1591.0,1269.0,none,,,,,,,,,,,,,,,,
encoding,value,24,13097923,13103936,13099589.0,13101239.0,1651.0,1651.0,1558.7,841.4000000000001,1591.0,1269.0,none,,,,,,,,,,,,,,,,
encoding,value,24,13097923,13103936,13101247.0,13103309.0,2063.0,2063.0,1569.3,901.9000000000001,1591.0,1269.0,none,,,,,,,,,,,,,,,,
encoding,value,24,13097923,13103936,13103534.0,13105259.0,1726.0,402.0,1553.5,865.2,1591.0,1269.0,none,,,,,,,,,,,,,,,,
encoding,attention,24,13103936,13106954,13105268.0,13105682.0,415.0,415.0,1584.3,873.4000000000001,1591.0,1269.0,none,,,,,,,,,,,,,,,,
encoding,attention,24,13103936,13106954,13105928.0,13106392.0,465.0,465.0,1595.8,878.8,1591.0,1269.0,none,,,,,,,,,,,,,,,,
encoding,fixation,25,13443799,13444304,13444115.0,13444271.0,157.0,157.0,1965.0,1155.4,2249.0,891.0,none,,,,,,,,,,,,,,,,
encoding,image,25,13444304,13445316,13444465.0,13444591.0,127.0,127.0,1950.3,1105.1,1920.0,1080.0,fixation,,,,,,,,,,,,,,,,
encoding,image,25,13444304,13445316,13444628.0,13445566.0,939.0,688.0,2244.0,938.0,2249.0,1269.0,none,,,,,,,,,,,,,,,,
encoding,value,25,13445316,13451330,13445576.0,13445923.0,348.0,348.0,2233.4,874.9000000000001,2249.0,1269.0,none,,,,,,,,,,,,,,,,
encoding,value,25,13445316,13451330,13446091.0,13446794.0,704.0,704.0,2211.6,868.0999999999999,2249.0,1269.0,none,,,,,,,,,,,,,,,,
encoding,value,25,13445316,13451330,13446801.0,13448076.0,1276.0,1276.0,2193.9,836.3,2249.0,1269.0,none,,,,,,,,,,,,,,,,
encoding,value,25,13445316,13451330,13448086.0,13448760.0,675.0,675.0,2225.1,917.4000000000001,2249.0,1269.0,none,,,,,,,,,,,,,,,,
encoding,value,25,13445316,13451330,13448928.0,13449182.0,255.0,255.0,2237.9,940.9000000000001,2249.0,1269.0,none,,,,,,,,,,,,,,,,
encoding,value,25,13445316,13451330,13449201.0,13451710.0,2510.0,2129.0,2209.2,841.9000000000001,2249.0,1269.0,none,,,,,,,,,,,,,,,,
encoding,attention,25,13451330,13454348,13451900.0,13453301.0,1402.0,1402.0,2251.7,833.2,2249.0,1269.0,none,,,,,,,,,,,,,,,,
encoding,fixation,26,13454348,13455604,13454584.0,13454784.0,201.0,201.0,1985.0,965.2,1920.0,1460.0,none,,,,,,,,,,,,,,,,
encoding,fixation,26,13454348,13455604,13454803.0,13455868.0,1066.0,801.0,1912.9,1046.0,1920.0,1080.0,fixation,,,,,,,,,,,,,,,,
encoding,image,26,13455604,13456614,13455889.0,13456036.0,148.0,148.0,1771.9,1143.7,1591.0,891.0,none,,,,,,,,,,,,,,,,
encoding,image,26,13455604,13456614,13456051.0,13456789.0,739.0,563.0,1607.0,1236.5,1591.0,891.0,none,,,,,,,,,,,,,,,,
encoding,value,26,13456614,13462628,13456803.0,13457152.0,350.0,350.0,1589.4,1179.5,1591.0,891.0,none,,,,,,,,,,,,,,,,
encoding,value,26,13456614,13462628,13457370.0,13459169.0,1800.0,1800.0,1570.5,1191.6,1591.0,891.0,none,,,,,,,,,,,,,,,,
encoding,value,26,13456614,13462628,13459363.0,13461025.0,1663.0,1663.0,1582.3,1221.9,1591.0,891.0,none,,,,,,,,,,,,,,,,
encoding,value,26,13456614,13462628,13461033.0,13461193.0,161.0,161.0,1564.6,1183.2,1591.0,891.0,none,,,,,,,,,,,,,,,,
encoding,value,26,13456614,13462628,13461381.0,13462878.0,1498.0,1247.0,1566.6,1229.0,1591.0,891.0,none,,,,,,,,,,,,,,,,
encoding,attention,26,13462628,13465646,13462888.0,13463636.0,749.0,749.0,1606.3,1209.2,1591.0,891.0,none,,,,,,,,,,,,,,,,
encoding,attention,26,13462628,13465646,13463794.0,13464197.0,404.0,404.0,1627.4,1185.5,1591.0,891.0,none,,,,,,,,,,,,,,,,
encoding,fixation,27,13465646,13466401,13465870.0,13466012.0,143.0,143.0,1903.2,1134.6,1920.0,1080.0,fixation,,,,,,,,,,,,,,,,
encoding,fixation,27,13465646,13466401,13466197.0,13466224.0,28.0,28.0,1800.4,968.2,1591.0,1269.0,none,,,,,,,,,,,,,,,,
encoding,fixation,27,13465646,13466401,13466233.0,13466375.0,143.0,143.0,1843.1,1162.6,1591.0,891.0,none,,,,,,,,,,,,,,,,
encoding,fixation,27,13465646,13466401,13466385.0,13466613.0,229.0,16.0,1907.2,1123.7,1920.0,1080.0,fixation,,,,,,,,,,,,,,,,
encoding,image,27,13466401,13467415,13466642.0,13467622.0,981.0,773.0,2235.0,1235.7,2249.0,891.0,none,,,,,,,,,,,,,,,,
encoding,value,27,13467415,13473427,13467635.0,13468020.0,386.0,386.0,2249.3,1170.7,2249.0,891.0,none,,,,,,,,,,,,,,,,
encoding,value,27,13467415,13473427,13468199.0,13469514.0,1316.0,1316.0,2230.8,1214.4,2249.0,891.0,none,,,,,,,,,,,,,,,,
encoding,value,27,13467415,13473427,13469522.0,13471050.0,1529.0,1529.0,2231.4,1193.3,2249.0,891.0,none,,,,,,,,,,,,,,,,
encoding,value,27,13467415,13473427,13471225.0,13472228.0,1004.0,1004.0,2215.2,1186.1,2249.0,891.0,none,,,,,,,,,,,,,,,,
encoding,value,27,13467415,13473427,13472238.0,13472987.0,750.0,750.0,2223.4,1246.0,2249.0,891.0,none,,,,,,,,,,,,,,,,
encoding,value,27,13467415,13473427,13473148.0,13473982.0,835.0,279.0,2234.1,1176.9,2249.0,891.0,none,,,,,,,,,,,,,,,,
encoding,attention,27,13473427,13476444,13473992.0,13474775.0,784.0,784.0,2195.9,1170.1,2249.0,891.0,none,,,,,,,,,,,,,,,,
encoding,attention,27,13473427,13476444,13474788.0,13475579.0,792.0,792.0,2231.4,1232.1,2249.0,891.0,none,,,,,,,,,,,,,,,,
encoding,fixation,28,13476445,13477450,13476749.0,13477292.0,544.0,544.0,2071.9,1193.3,2249.0,891.0,none,,,,,,,,,,,,,,,,
encoding,fixation,28,13476445,13477450,13477312.0,13477682.0,371.0,138.0,1912.6,1147.7,1920.0,1080.0,fixation,,,,,,,,,,,,,,,,
encoding,image,28,13477450,13478462,13477733.0,13477920.0,188.0,188.0,1893.9,818.0,1920.0,1460.0,none,,,,,,,,,,,,,,,,
encoding,image,28,13477450,13478462,13477929.0,13478687.0,759.0,533.0,1874.1,772.4000000000001,1920.0,1460.0,none,,,,,,,,,,,,,,,,
encoding,value,28,13478462,13484474,13478708.0,13478826.0,119.0,119.0,1881.5,670.8,1920.0,1460.0,none,,,,,,,,,,,,,,,,
encoding,value,28,13478462,13484474,13479076.0,13479330.0,255.0,255.0,1866.9,694.4000000000001,1920.0,1460.0,none,,,,,,,,,,,,,,,,
encoding,value,28,13478462,13484474,13479338.0,13481232.0,1895.0,1895.0,1871.5,719.8,1920.0,1460.0,none,,,,,,,,,,,,,,,,
encoding,value,28,13478462,13484474,13481467.0,13483160.0,1694.0,1694.0,1870.8,763.2,1920.0,1460.0,none,,,,,,,,,,,,,,,,
encoding,value,28,13478462,13484474,13483400.0,13484093.0,694.0,694.0,1857.9,787.0,1920.0,1460.0,none,,,,,,,,,,,,,,,,
encoding,value,28,13478462,13484474,13484113.0,13485058.0,946.0,361.0,1882.3,685.5999999999999,1920.0,1460.0,none,,,,,,,,,,,,,,,,
encoding,attention,28,13484474,13487493,13485314.0,13486476.0,1163.0,1163.0,1830.3,676.8,1920.0,1460.0,none,,,,,,,,,,,,,,,,
encoding,fixation,29,13487493,13489000,13487729.0,13488750.0,1022.0,1022.0,1859.5,1076.7,1920.0,1080.0,fixation,,,,,,,,,,,,,,,,
encoding,fixation,29,13487493,13489000,13488770.0,13489215.0,446.0,230.0,1713.3,1028.3,1591.0,1269.0,none,,,,,,,,,,,,,,,,
encoding,image,29,13489000,13490012,13489251.0,13489381.0,131.0,131.0,1876.0,1335.5,1920.0,700.0,none,,,,,,,,,,,,,,,,
encoding,image,29,13489000,13490012,13489391.0,13490207.0,817.0,621.0,1901.8,1412.4,1920.0,700.0,none,,,,,,,,,,,,,,,,
encoding,value,29,13490012,13496024,13490220.0,13490380.0,161.0,161.0,1898.8,1363.7,1920.0,700.0,none,,,,,,,,,,,,,,,,
encoding,value,29,13490012,13496024,13490575.0,13491139.0,565.0,565.0,1911.0,1340.4,1920.0,700.0,none,,,,,,,,,,,,,,,,
encoding,value,29,13490012,13496024,13491331.0,13493517.0,2187.0,2187.0,1887.9,1357.1,1920.0,700.0,none,,,,,,,,,,,,,,,,
encoding,value,29,13490012,13496024,13493531.0,13493571.0,41.0,41.0,1880.4,1418.2,1920.0,700.0,none,,,,,,,,,,,,,,,,
encoding,value,29,13490012,13496024,13493765.0,13494355.0,591.0,591.0,1886.8,1335.2,1920.0,700.0,none,,,,,,,,,,,,,,,,
encoding,value,29,13490012,13496024,13494363.0,13495784.0,1422.0,1422.0,1895.6,1370.8,1920.0,700.0,none,,,,,,,,,,,,,,,,
encoding,value,29,13490012,13496024,13495965.0,13497421.0,1457.0,59.0,1856.7,1350.8,1920.0,700.0,none,,,,,,,,,,,,,,,,
encoding,attention,29,13496024,13499042,13497636.0,13497761.0,126.0,126.0,1845.6,1369.6,1920.0,700.0,none,,,,,,,,,,,,,,,,
encoding,fixation,30,13499042,13500550,13499290.0,13499385.0,96.0,96.0,1873.1,1176.1,1920.0,700.0,none,,,,,,,,,,,,,,,,
encoding,fixation,30,13499042,13500550,13499591.0,13499872.0,282.0,282.0,1764.6,1173.3,1591.0,891.0,none,,,,,,,,,,,,,,,,
encoding,fixation,30,13499042,13500550,13499884.0,13500432.0,549.0,549.0,1650.0,1211.8,1591.0,891.0,none,,,,,,,,,,,,,,,,
encoding,fixation,30,13499042,13500550,13500458.0,13500737.0,280.0,92.0,1862.7,1142.9,1591.0,891.0,none,,,,,,,,,,,,,,,,
encoding,image,30,13500550,13501562,13500776.0,13501414.0,639.0,639.0,1562.8,932.0999999999999,1591.0,1269.0,none,,,,,,,,,,,,,,,,
encoding,value,30,13501562,13507573,13501618.0,13501792.0,175.0,175.0,1599.9,960.5,1591.0,1269.0,none,,,,,,,,,,,,,,,,
encoding,value,30,13501562,13507573,13501812.0,13502306.0,495.0,495.0,1569.9,853.0,1591.0,1269.0,none,,,,,,,,,,,,,,,,
encoding,value,30,13501562,13507573,13502578.0,13502745.0,168.0,168.0,1564.9,940.5,1591.0,1269.0,none,,,,,,,,,,,,,,,,
encoding,value,30,13501562,13507573,13502752.0,13504069.0,1318.0,1318.0,1566.2,937.5999999999999,1591.0,1269.0,none,,,,,,,,,,,,,,,,
encoding,value,30,13501562,13507573,13504316.0,13506032.0,1717.0,1717.0,1566.9,910.0,1591.0,1269.0,none,,,,,,,,,,,,,,,,
encoding,value,30,13501562,13507573,13506271.0,13507381.0,1111.0,1111.0,1560.3,869.7,1591.0,1269.0,none,,,,,,,,,,,,,,,,
encoding,attention,30,13507573,13510591,13507616.0,13507817.0,202.0,202.0,1660.2,922.0999999999999,1591.0,1269.0,none,,,,,,,,,,,,,,,,
encoding,attention,30,13507573,13510591,13507832.0,13509497.0,1666.0,1666.0,1596.8,866.5,1591.0,1269.0,none,,,,,,,,,,,,,,,,
encoding,attention,30,13507573,13510591,13509515.0,13509860.0,346.0,346.0,1566.3,920.2,1591.0,1269.0,none,,,,,,,,,,,,,,,,
encoding,attention,30,13507573,13510591,13510024.0,13510091.0,68.0,68.0,1604.7,934.5,1591.0,1269.0,none,,,,,,,,,,,,,,,,
encoding,attention,30,13507573,13510591,13510098.0,13510330.0,233.0,233.0,1602.3,913.4000000000001,1591.0,1269.0,none,,,,,,,,,,,,,,,,
encoding,fixation,31,13773929,13774935,13774184.0,13774915.0,732.0,732.0,1915.9,1101.7,1920.0,1080.0,fixation,,,,,,,,,,,,,,,,
encoding,image,31,13774935,13775946,13775146.0,13775281.0,136.0,136.0,1936.9,1161.1,1920.0,700.0,none,,,,,,,,,,,,,,,,
encoding,image,31,13774935,13775946,13775319.0,13775478.0,160.0,160.0,1651.2,994.3,1591.0,1269.0,none,,,,,,,,,,,,,,,,
encoding,image,31,13774935,13775946,13775491.0,13776136.0,646.0,455.0,1603.2,945.5999999999999,1591.0,1269.0,none,,,,,,,,,,,,,,,,
encoding,value,31,13775946,13781962,13776155.0,13776590.0,436.0,436.0,1592.7,830.0999999999999,1591.0,1269.0,none,,,,,,,,,,,,,,,,
encoding,value,31,13775946,13781962,13776838.0,13777223.0,386.0,386.0,1601.1,843.2,1591.0,1269.0,none,,,,,,,,,,,,,,,,
encoding,value,31,13775946,13781962,13777232.0,13777685.0,454.0,454.0,1594.6,909.0,1591.0,1269.0,none,,,,,,,,,,,,,,,,
encoding,value,31,13775946,13781962,13777701.0,13778363.0,663.0,663.0,1619.8,835.8,1591.0,1269.0,none,,,,,,,,,,,,,,,,
encoding,value,31,13775946,13781962,13778623.0,13779103.0,481.0,481.0,1616.3,925.5,1591.0,1269.0,none,,,,,,,,,,,,,,,,
encoding,value,31,13775946,13781962,13779122.0,13779632.0,511.0,511.0,1598.1,839.7,1591.0,1269.0,none,,,,,,,,,,,,,,,,
encoding,value,31,13775946,13781962,13779654.0,13781166.0,1513.0,1513.0,1614.7,940.7,1591.0,1269.0,none,,,,,,,,,,,,,,,,
encoding,value,31,13775946,13781962,13781383.0,13782613.0,1231.0,579.0,1608.2,904.2,1591.0,1269.0,none,,,,,,,,,,,,,,,,
encoding,attention,31,13781962,13784980,13782827.0,13782932.0,106.0,106.0,1572.0,881.9000000000001,1591.0,1269.0,none,,,,,,,,,,,,,,,,
encoding,attention,31,13781962,13784980,13782943.0,13783059.0,117.0,117.0,1580.8,862.0,1591.0,1269.0,none,,,,,,,,,,,,,,,,
encoding,attention,31,13781962,13784980,13783070.0,13783664.0,595.0,595.0,1635.6,858.8,1591.0,1269.0,none,,,,,,,,,,,,,,,,
encoding,attention,31,13781962,13784980,13783683.0,13784229.0,547.0,547.0,1602.1,973.0999999999999,1591.0,1269.0,none,,,,,,,,,,,,,,,,
encoding,fixation,32,13784980,13785986,13785212.0,13785434.0,223.0,223.0,1883.9,1078.5,1920.0,1080.0,fixation,,,,,,,,,,,,,,,,
encoding,fixation,32,13784980,13785986,13785686.0,13785720.0,35.0,35.0,1936.8,1153.8,1920.0,700.0,none,,,,,,,,,,,,,,,,
encoding,fixation,32,13784980,13785986,13785730.0,13786169.0,440.0,256.0,1927.4,1119.6,1920.0,1080.0,fixation,,,,,,,,,,,,,,,,
encoding,image,32,13785986,13786996,13786206.0,13787182.0,977.0,790.0,2195.9,918.7,2249.0,1269.0,none,,,,,,,,,,,,,,,,
encoding,value,32,13786997,13793009,13787197.0,13787308.0,112.0,112.0,2199.3,851.5999999999999,2249.0,1269.0,none,,,,,,,,,,,,,,,,
encoding,value,32,13786997,13793009,13787533.0,13789120.0,1588.0,1588.0,2198.1,875.2,2249.0,1269.0,none,,,,,,,,,,,,,,,,
encoding,value,32,13786997,13793009,13789371.0,13790927.0,1557.0,1557.0,2186.0,921.5999999999999,2249.0,1269.0,none,,,,,,,,,,,,,,,,
encoding,value,32,13786997,13793009,13791178.0,13791573.0,396.0,396.0,2189.8,955.7,2249.0,1269.0,none,,,,,,,,,,,,,,,,
encoding,value,32,13786997,13793009,13791592.0,13792416.0,825.0,825.0,2189.3,883.3,2249.0,1269.0,none,,,,,,,,,,,,,,,,
encoding,value,32,13786997,13793009,13792635.0,13793255.0,621.0,374.0,2199.3,961.5,2249.0,1269.0,none,,,,,,,,,,,,,,,,
encoding,attention,32,13793009,13796028,13793272.0,13794577.0,1306.0,1306.0,2219.6,859.5999999999999,2249.0,1269.0,none,,,,,,,,,,,,,,,,
encoding,attention,32,13793009,13796028,13794823.0,13795933.0,1111.0,1111.0,2223.0,967.0,2249.0,1269.0,none,,,,,,,,,,,,,,,,
encoding,fixation,33,13796028,13797033,13796213.0,13796402.0,190.0,190.0,2195.1,992.0999999999999,2249.0,1269.0,none,,,,,,,,,,,,,,,,
encoding,fixation,33,13796028,13797033,13796427.0,13796792.0,366.0,366.0,1900.0,1031.6,1920.0,1080.0,fixation,,,,,,,,,,,,,,,,
encoding,fixation,33,13796028,13797033,13796803.0,13797232.0,430.0,230.0,1791.9,973.9000000000001,1591.0,1269.0,none,,,,,,,,,,,,,,,,
encoding,image,33,13797033,13798044,13797269.0,13797412.0,144.0,144.0,1666.1,1184.8,1591.0,891.0,none,,,,,,,,,,,,,,,,
encoding,image,33,13797033,13798044,13797427.0,13797668.0,242.0,242.0,1603.2,1237.9,1591.0,891.0,none,,,,,,,,,,,,,,,,
encoding,image,33,13797033,13798044,13797675.0,13798239.0,565.0,369.0,1599.6,1271.3,1591.0,891.0,none,,,,,,,,,,,,,,,,
encoding,value,33,13798045,13804057,13798254.0,13798359.0,106.0,106.0,1598.4,1192.9,1591.0,891.0,none,,,,,,,,,,,,,,,,
encoding,value,33,13798045,13804057,13798576.0,13798649.0,74.0,74.0,1602.3,1239.6,1591.0,891.0,none,,,,,,,,,,,,,,,,
encoding,value,33,13798045,13804057,13798657.0,13799430.0,774.0,774.0,1592.9,1194.1,1591.0,891.0,none,,,,,,,,,,,,,,,,
encoding,value,33,13798045,13804057,13799439.0,13800085.0,647.0,647.0,1597.5,1243.8,1591.0,891.0,none,,,,,,,,,,,,,,,,
encoding,value,33,13798045,13804057,13800324.0,13800448.0,125.0,125.0,1598.3,1265.5,1591.0,891.0,none,,,,,,,,,,,,,,,,
encoding,value,33,13798045,13804057,13800456.0,13801142.0,687.0,687.0,1586.0,1217.2,1591.0,891.0,none,,,,,,,,,,,,,,,,
encoding,value,33,13798045,13804057,13801351.0,13801517.0,167.0,167.0,1561.5,1235.6,1591.0,891.0,none,,,,,,,,,,,,,,,,
encoding,value,33,13798045,13804057,13801524.0,13802370.0,847.0,847.0,1580.5,1191.3,1591.0,891.0,none,,,,,,,,,,,,,,,,
encoding,value,33,13798045,13804057,13802615.0,13803418.0,804.0,804.0,1578.8,1194.1,1591.0,891.0,none,,,,,,,,,,,,,,,,
encoding,value,33,13798045,13804057,13803665.0,13804652.0,988.0,392.0,1583.7,1192.8,1591.0,891.0,none,,,,,,,,,,,,,,,,
encoding,attention,33,13804057,13807075,13804869.0,13805082.0,214.0,214.0,1543.1,1224.5,1591.0,891.0,none,,,,,,,,,,,,,,,,
encoding,attention,33,13804057,13807075,13805090.0,13805717.0,628.0,628.0,1534.8,1191.3,1591.0,891.0,none,,,,,,,,,,,,,,,,
encoding,attention,33,13804057,13807075,13805728.0,13806427.0,700.0,700.0,1616.3,1210.7,1591.0,891.0,none,,,,,,,,,,,,,,,,
encoding,fixation,34,13807075,13808330,13807326.0,13807569.0,244.0,244.0,1729.1,1181.2,1591.0,891.0,none,,,,,,,,,,,,,,,,
encoding,fixation,34,13807075,13808330,13807593.0,13808617.0,1025.0,737.0,1905.0,1124.5,1920.0,1080.0,fixation,,,,,,,,,,,,,,,,
encoding,image,34,13808330,13809342,13808657.0,13808815.0,159.0,159.0,1915.6,824.5999999999999,1920.0,1460.0,none,,,,,,,,,,,,,,,,
encoding,image,34,13808330,13809342,13809129.0,13809614.0,486.0,213.0,1863.6,797.3,1920.0,1460.0,none,,,,,,,,,,,,,,,,
encoding,value,34,13809342,13815354,13809631.0,13809927.0,297.0,297.0,1878.3,687.0,1920.0,1460.0,none,,,,,,,,,,,,,,,,
encoding,value,34,13809342,13815354,13810252.0,13811016.0,765.0,765.0,1864.3,761.2,1920.0,1460.0,none,,,,,,,,,,,,,,,,
encoding,value,34,13809342,13815354,13811375.0,13812146.0,772.0,772.0,1842.7,806.3,1920.0,1460.0,none,,,,,,,,,,,,,,,,
encoding,value,34,13809342,13815354,13812154.0,13812339.0,186.0,186.0,1869.7,753.9000000000001,1920.0,1460.0,none,,,,,,,,,,,,,,,,
encoding,value,34,13809342,13815354,13812652.0,13813392.0,741.0,741.0,1874.7,749.0999999999999,1920.0,1460.0,none,,,,,,,,,,,,,,,,
encoding,value,34,13809342,13815354,13813731.0,13815407.0,1677.0,1623.0,1844.5,793.8,1920.0,1460.0,none,,,,,,,,,,,,,,,,
encoding,attention,34,13815354,13818371,13815419.0,13815724.0,306.0,306.0,1888.5,751.0999999999999,1920.0,1460.0,none,,,,,,,,,,,,,,,,
encoding,attention,34,13815354,13818371,13815997.0,13817029.0,1033.0,1033.0,1892.4,717.0999999999999,1920.0,1460.0,none,,,,,,,,,,,,,,,,
encoding,attention,34,13815354,13818371,13817041.0,13817701.0,661.0,661.0,1825.0,716.0999999999999,1920.0,1460.0,none,,,,,,,,,,,,,,,,
encoding,attention,34,13815354,13818371,13817712.0,13817744.0,33.0,33.0,1813.4,765.4000000000001,1920.0,1460.0,none,,,,,,,,,,,,,,,,
encoding,fixation,35,13818371,13818876,13818646.0,13818869.0,224.0,224.0,1895.7,1101.8,1920.0,1080.0,fixation,,,,,,,,,,,,,,,,
encoding,image,35,13818876,13819886,13818882.0,13819083.0,202.0,202.0,1885.8,1188.9,1920.0,700.0,none,,,,,,,,,,,,,,,,
encoding,image,35,13818876,13819886,13819102.0,13819210.0,109.0,109.0,1880.6,1309.7,1920.0,700.0,none,,,,,,,,,,,,,,,,
encoding,image,35,13818876,13819886,13819227.0,13819396.0,170.0,170.0,1888.6,1416.7,1920.0,700.0,none,,,,,,,,,,,,,,,,
encoding,image,35,13818876,13819886,13819405.0,13820130.0,726.0,481.0,1883.4,1457.2,1920.0,700.0,none,,,,,,,,,,,,,,,,
encoding,value,35,13819887,13825898,13820150.0,13820268.0,119.0,119.0,1887.6,1348.6,1920.0,700.0,none,,,,,,,,,,,,,,,,
encoding,value,35,13819887,13825898,13820461.0,13820497.0,37.0,37.0,1822.0,1007.0,1591.0,1269.0,none,,,,,,,,,,,,,,,,
encoding,value,35,13819887,13825898,13820540.0,13820953.0,414.0,414.0,1881.9,1382.1,1920.0,700.0,none,,,,,,,,,,,,,,,,
encoding,value,35,13819887,13825898,13820969.0,13821486.0,518.0,518.0,1855.4,1441.8,1920.0,700.0,none,,,,,,,,,,,,,,,,
encoding,value,35,13819887,13825898,13821499.0,13821713.0,215.0,215.0,1883.3,1391.4,1920.0,700.0,none,,,,,,,,,,,,,,,,
encoding,value,35,13819887,13825898,13821991.0,13822435.0,445.0,445.0,1862.9,1398.3,1920.0,700.0,none,,,,,,,,,,,,,,,,
encoding,value,35,13819887,13825898,13822764.0,13822912.0,149.0,149.0,1851.4,1446.8,1920.0,700.0,none,,,,,,,,,,,,,,,,
encoding,value,35,13819887,13825898,13822921.0,13823341.0,421.0,421.0,1852.8,1396.0,1920.0,700.0,none,,,,,,,,,,,,,,,,
encoding,value,35,13819887,13825898,13823351.0,13823751.0,401.0,401.0,1838.4,1460.3,1920.0,700.0,none,,,,,,,,,,,,,,,,
encoding,value,35,13819887,13825898,13824068.0,13825726.0,1659.0,1659.0,1845.0,1373.0,1920.0,700.0,none,,,,,,,,,,,,,,,,
encoding,attention,35,13825898,13828914,13826032.0,13826308.0,277.0,277.0,1815.0,1462.9,1920.0,700.0,none,,,,,,,,,,,,,,,,
encoding,attention,35,13825898,13828914,13826323.0,13827020.0,698.0,698.0,1852.1,1390.8,1920.0,700.0,none,,,,,,,,,,,,,,,,
encoding,attention,35,13825898,13828914,13827029.0,13827262.0,234.0,234.0,1865.9,1439.6,1920.0,700.0,none,,,,,,,,,,,,,,,,
encoding,attention,35,13825898,13828914,13827491.0,13827517.0,27.0,27.0,1859.4,1196.4,1920.0,700.0,none,,,,,,,,,,,,,,,,
encoding,attention,35,13825898,13828914,13827541.0,13827619.0,79.0,79.0,1903.9,1434.7,1920.0,700.0,none,,,,,,,,,,,,,,,,
encoding,fixation,36,13828914,13829669,13829243.0,13829272.0,30.0,30.0,1945.4,1273.0,1920.0,700.0,none,,,,,,,,,,,,,,,,
encoding,fixation,36,13828914,13829669,13829553.0,13829851.0,299.0,116.0,1938.8,1196.1,1920.0,700.0,none,,,,,,,,,,,,,,,,
encoding,image,36,13829669,13830681,13829879.0,13830856.0,978.0,802.0,2162.5,1248.9,2249.0,891.0,none,,,,,,,,,,,,,,,,
encoding,value,36,13830681,13836692,13831092.0,13832328.0,1237.0,1237.0,2180.9,1170.6,2249.0,891.0,none,,,,,,,,,,,,,,,,
encoding,value,36,13830681,13836692,13832572.0,13833534.0,963.0,963.0,2170.5,1174.0,2249.0,891.0,none,,,,,,,,,,,,,,,,
encoding,value,36,13830681,13836692,13833777.0,13835060.0,1284.0,1284.0,2149.9,1214.4,2249.0,891.0,none,,,,,,,,,,,,,,,,
encoding,value,36,13830681,13836692,13835068.0,13835525.0,458.0,458.0,2164.6,1178.5,2249.0,891.0,none,,,,,,,,,,,,,,,,
encoding,value,36,13830681,13836692,13835781.0,13836483.0,703.0,703.0,2150.7,1180.6,2249.0,891.0,none,,,,,,,,,,,,,,,,
encoding,attention,36,13836693,13839710,13836726.0,13837131.0,406.0,406.0,2146.0,1177.1,2249.0,891.0,none,,,,,,,,,,,,,,,,
encoding,attention,36,13836693,13839710,13837139.0,13837834.0,696.0,696.0,2200.3,1171.6,2249.0,891.0,none,,,,,,,,,,,,,,,,
encoding,attention,36,13836693,13839710,13837846.0,13838004.0,159.0,159.0,2113.9,1163.7,2249.0,891.0,none,,,,,,,,,,,,,,,,
encoding,attention,36,13836693,13839710,13838315.0,13838782.0,468.0,468.0,2148.9,1135.2,2249.0,891.0,none,,,,,,,,,,,,,,,,
encoding,attention,36,13836693,13839710,13838796.0,13839338.0,543.0,543.0,2150.9,1230.9,2249.0,891.0,none,,,,,,,,,,,,,,,,
encoding,fixation,37,14077807,14079313,14078088.0,14078358.0,271.0,271.0,1908.6,1177.5,1920.0,700.0,none,,,,,,,,,,,,,,,,
encoding,fixation,37,14077807,14079313,14078372.0,14078553.0,182.0,182.0,1911.4,1260.2,1920.0,700.0,none,,,,,,,,,,,,,,,,
encoding,fixation,37,14077807,14079313,14078747.0,14079226.0,480.0,480.0,1950.1,1081.1,1920.0,1080.0,fixation,,,,,,,,,,,,,,,,
encoding,fixation,37,14077807,14079313,14079234.0,14079509.0,276.0,79.0,1893.2,1075.6,1920.0,1080.0,fixation,,,,,,,,,,,,,,,,
encoding,image,37,14079313,14080325,14079534.0,14079684.0,151.0,151.0,1676.2,1166.6,1591.0,891.0,none,,,,,,,,,,,,,,,,
encoding,image,37,14079313,14080325,14079698.0,14080522.0,825.0,627.0,1619.5,1227.3,1591.0,891.0,none,,,,,,,,,,,,,,,,
encoding,value,37,14080325,14086339,14080540.0,14081221.0,682.0,682.0,1623.9,1191.6,1591.0,891.0,none,,,,,,,,,,,,,,,,
encoding,value,37,14080325,14086339,14081416.0,14081478.0,63.0,63.0,1602.2,1230.0,1591.0,891.0,none,,,,,,,,,,,,,,,,
encoding,value,37,14080325,14086339,14081485.0,14081731.0,247.0,247.0,1595.6,1204.4,1591.0,891.0,none,,,,,,,,,,,,,,,,
encoding,value,37,14080325,14086339,14081740.0,14085680.0,3941.0,3941.0,1599.4,1227.8,1591.0,891.0,none,,,,,,,,,,,,,,,,
encoding,value,37,14080325,14086339,14085870.0,14085918.0,49.0,49.0,1619.9,1227.4,1591.0,891.0,none,,,,,,,,,,,,,,,,
encoding,value,37,14080325,14086339,14085926.0,14088344.0,2419.0,413.0,1635.2,1185.1,1591.0,891.0,none,,,,,,,,,,,,,,,,
encoding,attention,37,14086339,14089356,14088602.0,14088673.0,72.0,72.0,1597.9,1274.6,1591.0,891.0,none,,,,,,,,,,,,,,,,
encoding,fixation,38,14089356,14089862,14089590.0,14090078.0,489.0,272.0,1914.5,1139.8,1920.0,1080.0,fixation,,,,,,,,,,,,,,,,
encoding,image,38,14089862,14090873,14090111.0,14090236.0,126.0,126.0,1911.9,1361.3,1920.0,700.0,none,,,,,,,,,,,,,,,,
encoding,image,38,14089862,14090873,14090246.0,14090818.0,573.0,573.0,1898.6,1441.1,1920.0,700.0,none,,,,,,,,,,,,,,,,
encoding,image,38,14089862,14090873,14090839.0,14091226.0,388.0,34.0,1908.3,1321.8,1920.0,700.0,none,,,,,,,,,,,,,,,,
encoding,value,38,14090873,14096884,14091409.0,14091464.0,56.0,56.0,1900.9,1431.9,1920.0,700.0,none,,,,,,,,,,,,,,,,
encoding,value,38,14090873,14096884,14091473.0,14092223.0,751.0,751.0,1896.2,1400.2,1920.0,700.0,none,,,,,,,,,,,,,,,,
encoding,value,38,14090873,14096884,14092437.0,14092498.0,62.0,62.0,1870.7,1397.8,1920.0,700.0,none,,,,,,,,,,,,,,,,
encoding,value,38,14090873,14096884,14092507.0,14093025.0,519.0,519.0,1876.2,1365.4,1920.0,700.0,none,,,,,,,,,,,,,,,,
encoding,value,38,14090873,14096884,14093035.0,14093741.0,707.0,707.0,1856.0,1415.6,1920.0,700.0,none,,,,,,,,,,,,,,,,
encoding,value,38,14090873,14096884,14093750.0,14094286.0,537.0,537.0,1891.8,1376.1,1920.0,700.0,none,,,,,,,,,,,,,,,,
encoding,value,38,14090873,14096884,14094491.0,14094964.0,474.0,474.0,1876.6,1393.3,1920.0,700.0,none,,,,,,,,,,,,,,,,
encoding,value,38,14090873,14096884,14094975.0,14097168.0,2194.0,1909.0,1867.9,1388.5,1920.0,700.0,none,,,,,,,,,,,,,,,,
encoding,attention,38,14096884,14099901,14097412.0,14098544.0,1133.0,1133.0,1866.5,1374.7,1920.0,700.0,none,,,,,,,,,,,,,,,,
encoding,attention,38,14096884,14099901,14098820.0,14098857.0,38.0,38.0,1916.8,1475.8,1920.0,700.0,none,,,,,,,,,,,,,,,,
encoding,fixation,39,14099902,14101406,14099984.0,14100338.0,355.0,355.0,1925.4,1370.1,1920.0,700.0,none,,,,,,,,,,,,,,,,
encoding,fixation,39,14099902,14101406,14100526.0,14100673.0,148.0,148.0,1968.1,1171.4,1920.0,700.0,none,,,,,,,,,,,,,,,,
encoding,fixation,39,14099902,14101406,14100688.0,14101597.0,910.0,718.0,1892.9,1115.4,1920.0,1080.0,fixation,,,,,,,,,,,,,,,,
encoding,image,39,14101407,14102418,14101638.0,14102213.0,576.0,576.0,1576.6,939.5999999999999,1591.0,1269.0,none,,,,,,,,,,,,,,,,
encoding,value,39,14102418,14108429,14102432.0,14102493.0,62.0,62.0,1588.1,968.0999999999999,1591.0,1269.0,none,,,,,,,,,,,,,,,,
encoding,value,39,14102418,14108429,14102501.0,14102634.0,134.0,134.0,1593.5,953.5,1591.0,1269.0,none,,,,,,,,,,,,,,,,
encoding,value,39,14102418,14108429,14102653.0,14103324.0,672.0,672.0,1587.9,849.5999999999999,1591.0,1269.0,none,,,,,,,,,,,,,,,,
encoding,value,39,14102418,14108429,14103573.0,14103645.0,73.0,73.0,1574.6,941.7,1591.0,1269.0,none,,,,,,,,,,,,,,,,
encoding,value,39,14102418,14108429,14103652.0,14104875.0,1224.0,1224.0,1568.9,907.2,1591.0,1269.0,none,,,,,,,,,,,,,,,,
encoding,value,39,14102418,14108429,14105124.0,14107333.0,2210.0,2210.0,1565.3,950.8,1591.0,1269.0,none,,,,,,,,,,,,,,,,
encoding,value,39,14102418,14108429,14107563.0,14108919.0,1357.0,866.0,1559.1,937.8,1591.0,1269.0,none,,,,,,,,,,,,,,,,
encoding,attention,39,14108429,14111448,14109147.0,14109191.0,45.0,45.0,1549.1,758.5,1591.0,1269.0,none,,,,,,,,,,,,,,,,
encoding,attention,39,14108429,14111448,14109197.0,14109586.0,390.0,390.0,1582.1,880.2,1591.0,1269.0,none,,,,,,,,,,,,,,,,
encoding,attention,39,14108429,14111448,14109603.0,14110231.0,629.0,629.0,1591.1,935.9000000000001,1591.0,1269.0,none,,,,,,,,,,,,,,,,
encoding,attention,39,14108429,14111448,14110247.0,14111120.0,874.0,874.0,1729.0,991.4000000000001,1591.0,1269.0,none,,,,,,,,,,,,,,,,
encoding,fixation,40,14111448,14112954,14111698.0,14111819.0,122.0,122.0,1869.6,1050.8,1920.0,1080.0,fixation,,,,,,,,,,,,,,,,
encoding,fixation,40,14111448,14112954,14112054.0,14112680.0,627.0,627.0,1927.1,1102.7,1920.0,1080.0,fixation,,,,,,,,,,,,,,,,
encoding,fixation,40,14111448,14112954,14112692.0,14113130.0,439.0,262.0,1912.4,1164.7,1920.0,700.0,none,,,,,,,,,,,,,,,,
encoding,image,40,14112954,14113965,14113176.0,14113538.0,363.0,363.0,2199.8,922.3,2249.0,1269.0,none,,,,,,,,,,,,,,,,
encoding,image,40,14112954,14113965,14113746.0,14114253.0,508.0,219.0,2236.5,957.0999999999999,2249.0,1269.0,none,,,,,,,,,,,,,,,,
encoding,value,40,14113965,14119978,14114269.0,14114508.0,240.0,240.0,2187.7,860.5999999999999,2249.0,1269.0,none,,,,,,,,,,,,,,,,
encoding,value,40,14113965,14119978,14114733.0,14115488.0,756.0,756.0,2193.7,867.9000000000001,2249.0,1269.0,none,,,,,,,,,,,,,,,,
encoding,value,40,14113965,14119978,14115499.0,14116282.0,784.0,784.0,2191.4,948.5999999999999,2249.0,1269.0,none,,,,,,,,,,,,,,,,
encoding,value,40,14113965,14119978,14116495.0,14118109.0,1615.0,1615.0,2202.2,966.4000000000001,2249.0,1269.0,none,,,,,,,,,,,,,,,,
encoding,value,40,14113965,14119978,14118344.0,14120325.0,1982.0,1634.0,2178.5,905.9000000000001,2249.0,1269.0,none,,,,,,,,,,,,,,,,
encoding,attention,40,14119978,14122995,14120537.0,14121435.0,899.0,899.0,2128.9,871.3,2249.0,1269.0,none,,,,,,,,,,,,,,,,
encoding,attention,40,14119978,14122995,14121458.0,14122512.0,1055.0,1055.0,1954.5,985.5999999999999,1920.0,1460.0,none,,,,,,,,,,,,,,,,
encoding,fixation,41,14122995,14124250,14123019.0,14123350.0,332.0,332.0,2003.4,981.4000000000001,2249.0,1269.0,none,,,,,,,,,,,,,,,,
encoding,fixation,41,14122995,14124250,14123548.0,14124064.0,517.0,517.0,1889.1,1085.5,1920.0,1080.0,fixation,,,,,,,,,,,,,,,,
encoding,fixation,41,14122995,14124250,14124074.0,14124450.0,377.0,176.0,1938.5,1130.5,1920.0,1080.0,fixation,,,,,,,,,,,,,,,,
encoding,image,41,14124250,14125262,14124474.0,14125190.0,717.0,717.0,2177.2,1244.9,2249.0,891.0,none,,,,,,,,,,,,,,,,
encoding,image,41,14124250,14125262,14125200.0,14125449.0,250.0,62.0,2138.1,1202.6,2249.0,891.0,none,,,,,,,,,,,,,,,,
encoding,value,41,14125262,14131273,14125462.0,14125606.0,145.0,145.0,2205.0,1178.5,2249.0,891.0,none,,,,,,,,,,,,,,,,
encoding,value,41,14125262,14131273,14125810.0,14126527.0,718.0,718.0,2205.2,1200.5,2249.0,891.0,none,,,,,,,,,,,,,,,,
encoding,value,41,14125262,14131273,14126735.0,14128016.0,1282.0,1282.0,2165.4,1171.8,2249.0,891.0,none,,,,,,,,,,,,,,,,
encoding,value,41,14125262,14131273,14128202.0,14128919.0,718.0,718.0,2168.1,1186.1,2249.0,891.0,none,,,,,,,,,,,,,,,,
encoding,value,41,14125262,14131273,14129136.0,14130229.0,1094.0,1094.0,2163.0,1176.2,2249.0,891.0,none,,,,,,,,,,,,,,,,
encoding,value,41,14125262,14131273,14130416.0,14131059.0,644.0,644.0,2166.2,1185.4,2249.0,891.0,none,,,,,,,,,,,,,,,,
encoding,attention,41,14131274,14134292,14131286.0,14132901.0,1616.0,1616.0,2139.4,1175.4,2249.0,891.0,none,,,,,,,,,,,,,,,,
encoding,attention,41,14131274,14134292,14132920.0,14133205.0,286.0,286.0,2070.2,1242.9,2249.0,891.0,none,,,,,,,,,,,,,,,,
encoding,attention,41,14131274,14134292,14133440.0,14133802.0,363.0,363.0,2175.4,1210.9,2249.0,891.0,none,,,,,,,,,,,,,,,,
encoding,fixation,42,14134292,14134798,14134534.0,14134622.0,89.0,89.0,1888.2,1120.1,1920.0,1080.0,fixation,,,,,,,,,,,,,,,,
encoding,image,42,14134798,14135810,14134811.0,14134902.0,92.0,92.0,1896.5,1158.0,1920.0,700.0,none,,,,,,,,,,,,,,,,
encoding,image,42,14134798,14135810,14134910.0,14135205.0,296.0,296.0,1892.0,1117.0,1920.0,1080.0,fixation,,,,,,,,,,,,,,,,
encoding,image,42,14134798,14135810,14135252.0,14136142.0,891.0,558.0,1837.4,761.7,1920.0,1460.0,none,,,,,,,,,,,,,,,,
encoding,value,42,14135810,14141822,14136158.0,14136333.0,176.0,176.0,1838.3,665.0,1920.0,1460.0,none,,,,,,,,,,,,,,,,
encoding,value,42,14135810,14141822,14136540.0,14137656.0,1117.0,1117.0,1837.9,738.7,1920.0,1460.0,none,,,,,,,,,,,,,,,,
encoding,value,42,14135810,14141822,14137933.0,14139007.0,1075.0,1075.0,1845.9,780.0,1920.0,1460.0,none,,,,,,,,,,,,,,,,
encoding,value,42,14135810,14141822,14139277.0,14140772.0,1496.0,1496.0,1813.0,736.4000000000001,1920.0,1460.0,none,,,,,,,,,,,,,,,,
encoding,value,42,14135810,14141822,14140784.0,14141923.0,1140.0,1038.0,1832.4,802.5999999999999,1920.0,1460.0,none,,,,,,,,,,,,,,,,
encoding,attention,42,14141823,14144841,14142133.0,14142861.0,729.0,729.0,1791.4,706.9000000000001,1920.0,1460.0,none,,,,,,,,,,,,,,,,
encoding,attention,42,14141823,14144841,14142915.0,14143381.0,467.0,467.0,1899.0,964.0999999999999,1920.0,1460.0,none,,,,,,,,,,,,,,,,
encoding,attention,42,14141823,14144841,14143684.0,14144501.0,818.0,818.0,1831.4,742.3,1920.0,1460.0,none,,,,,,,,,,,,,,,,
choice,choice,9,12461540,12466162,12462190.0,12462270.0,81.0,81.0,1956.5,1157.7,1920.0,700.0,none,,,,,,,,,,,,,,,,
choice,choice,9,12461540,12466162,12462279.0,12463556.0,1278.0,1278.0,1934.9,1104.5,1920.0,1080.0,fixation,,,,,,,,,,,,,,,,
choice,choice,9,12461540,12466162,12463783.0,12465692.0,1910.0,1910.0,1942.3,1098.4,1920.0,1080.0,fixation,,,,,,,,,,,,,,,,
choice,choice,10,12469208,12477069,12470133.0,12470825.0,693.0,693.0,2005.9,1156.1,2249.0,891.0,none,,,,,,,,,,,,,,,,
choice,choice,10,12469208,12477069,12471077.0,12471134.0,58.0,58.0,2021.4,1280.5,1920.0,700.0,none,,,,,,,,,,,,,,,,
choice,choice,10,12469208,12477069,12471142.0,12471486.0,345.0,345.0,2020.8,1237.5,2249.0,891.0,none,,,,,,,,,,,,,,,,
choice,choice,10,12469208,12477069,12471502.0,12473132.0,1631.0,1631.0,2126.3,1309.5,2249.0,891.0,none,,,,,,,,,,,,,,,,
choice,choice,10,12469208,12477069,12473343.0,12473889.0,547.0,547.0,2183.9,1270.8,2249.0,891.0,none,,,,,,,,,,,,,,,,
choice,choice,10,12469208,12477069,12473898.0,12474187.0,290.0,290.0,2162.3,1301.6,2249.0,891.0,none,,,,,,,,,,,,,,,,
choice,choice,10,12469208,12477069,12474234.0,12475065.0,832.0,832.0,2250.1,1471.3,2249.0,891.0,none,,,,,,,,,,,,,,,,
choice,choice,10,12469208,12477069,12475074.0,12475351.0,278.0,278.0,2288.2,1417.2,2249.0,891.0,none,,,,,,,,,,,,,,,,
choice,choice,10,12469208,12477069,12475426.0,12475611.0,186.0,186.0,2448.5,1914.3,,,none,,,,,,,,,,,,,,,,
choice,choice,10,12469208,12477069,12475624.0,12475883.0,260.0,260.0,2496.9,1863.3,,,none,,,,,,,,,,,,,,,,
choice,choice,10,12469208,12477069,12475896.0,12476206.0,311.0,311.0,2588.0,1805.2,,,none,,,,,,,,,,,,,,,,
choice,choice,10,12469208,12477069,12476259.0,12476680.0,422.0,422.0,2076.1,1506.9,1920.0,700.0,none,,,,,,,,,,,,,,,,
choice,choice,11,12480367,12486793,12480707.0,12480877.0,171.0,171.0,2013.5,1221.9,2249.0,891.0,none,,,,,,,,,,,,,,,,
choice,choice,11,12480367,12486793,12480984.0,12481424.0,441.0,441.0,2017.3,1903.6,,,none,,,,,,,,,,,,,,,,
choice,choice,11,12480367,12486793,12481470.0,12481652.0,183.0,183.0,1939.5,1515.3,1920.0,700.0,none,,,,,,,,,,,,,,,,
choice,choice,11,12480367,12486793,12481914.0,12482296.0,383.0,383.0,1931.9,1205.3,1920.0,700.0,none,,,,,,,,,,,,,,,,
choice,choice,11,12480367,12486793,12482306.0,12482625.0,320.0,320.0,1975.5,1140.1,2249.0,891.0,none,,,,,,,,,,,,,,,,
choice,choice,11,12480367,12486793,12482888.0,12483702.0,815.0,815.0,1969.5,1088.3,1920.0,1080.0,fixation,,,,,,,,,,,,,,,,
choice,choice,11,12480367,12486793,12484095.0,12485621.0,1527.0,1527.0,1959.5,1078.7,1920.0,1080.0,fixation,,,,,,,,,,,,,,,,
choice,choice,11,12480367,12486793,12485839.0,12487057.0,1219.0,954.0,1950.2,1077.6,1920.0,1080.0,fixation,,,,,,,,,,,,,,,,
choice,choice,12,12489591,12493025,12490324.0,12491559.0,1236.0,1236.0,1939.2,1104.7,1920.0,1080.0,fixation,,,,,,,,,,,,,,,,
choice,choice,12,12489591,12493025,12491811.0,12492778.0,968.0,968.0,1910.3,1061.9,1920.0,1080.0,fixation,,,,,,,,,,,,,,,,
choice,choice,12,12489591,12493025,12492805.0,12492893.0,89.0,89.0,1562.6,1000.5,1591.0,1269.0,none,,,,,,,,,,,,,,,,
choice,choice,12,12489591,12493025,12492921.0,12493237.0,317.0,104.0,1238.1,793.9000000000001,,,none,,,,,,,,,,,,,,,,
choice,choice,13,12496575,12501470,12496946.0,12496985.0,40.0,40.0,1723.8,2480.0,,,none,,,,,,,,,,,,,,,,
choice,choice,13,12496575,12501470,12496996.0,12497042.0,47.0,47.0,1760.3,2361.4,,,none,,,,,,,,,,,,,,,,
choice,choice,13,12496575,12501470,12497108.0,12497292.0,185.0,185.0,1729.1,3618.9,,,none,,,,,,,,,,,,,,,,
choice,choice,13,12496575,12501470,12497366.0,12498108.0,743.0,743.0,2039.1,1605.1,1920.0,700.0,none,,,,,,,,,,,,,,,,
choice,choice,13,12496575,12501470,12498293.0,12500242.0,1950.0,1950.0,1964.0,1093.3,1920.0,1080.0,fixation,,,,,,,,,,,,,,,,
choice,choice,13,12496575,12501470,12500443.0,12502372.0,1930.0,1027.0,1969.6,1088.0,1920.0,1080.0,fixation,,,,,,,,,,,,,,,,
choice,choice,14,12504017,12510771,12504641.0,12506525.0,1885.0,1885.0,1964.8,1087.5,1920.0,1080.0,fixation,,,,,,,,,,,,,,,,
choice,choice,14,12504017,12510771,12506754.0,12507950.0,1197.0,1197.0,1968.4,1090.9,1920.0,1080.0,fixation,,,,,,,,,,,,,,,,
choice,choice,14,12504017,12510771,12508215.0,12509585.0,1371.0,1371.0,1971.1,1095.9,1920.0,1080.0,fixation,,,,,,,,,,,,,,,,
choice,choice,14,12504017,12510771,12509867.0,12511137.0,1271.0,904.0,1988.2,1094.8,1920.0,1080.0,fixation,,,,,,,,,,,,,,,,
choice,choice,15,12513567,12515525,12514945.0,12516061.0,1117.0,580.0,1963.6,1096.1,1920.0,1080.0,fixation,,,,,,,,,,,,,,,,
choice,choice,16,12519071,12521239,12519929.0,12521495.0,1567.0,1310.0,1967.9,1097.6,1920.0,1080.0,fixation,,,,,,,,,,,,,,,,
choice,choice,17,12833690,12835027,12833951.0,12834186.0,236.0,236.0,1902.8,1090.1,1920.0,1080.0,fixation,,,,,,,,,,,,,,,,
choice,choice,17,12833690,12835027,12834393.0,12835166.0,774.0,634.0,1898.3,1093.6,1920.0,1080.0,fixation,,,,,,,,,,,,,,,,
choice,choice,18,12838574,12847860,12839675.0,12839945.0,271.0,271.0,1834.8,1667.7,,,none,,,,,,,,,,,,,,,,
choice,choice,18,12838574,12847860,12839987.0,12840869.0,883.0,883.0,1968.4,1354.8,1920.0,700.0,none,,,,,,,,,,,,,,,,
choice,choice,18,12838574,12847860,12841127.0,12842021.0,895.0,895.0,2039.6,1192.0,2249.0,891.0,none,,,,,,,,,,,,,,,,
choice,choice,18,12838574,12847860,12842270.0,12842969.0,700.0,700.0,1897.5,1110.0,1920.0,1080.0,fixation,,,,,,,,,,,,,,,,
choice,choice,18,12838574,12847860,12843164.0,12843882.0,719.0,719.0,1878.6,1110.3,1920.0,1080.0,fixation,,,,,,,,,,,,,,,,
choice,choice,18,12838574,12847860,12844166.0,12844917.0,752.0,752.0,1916.0,1086.5,1920.0,1080.0,fixation,,,,,,,,,,,,,,,,
choice,choice,18,12838574,12847860,12844945.0,12845532.0,588.0,588.0,1872.8,1236.2,1920.0,700.0,none,,,,,,,,,,,,,,,,
choice,choice,18,12838574,12847860,12845543.0,12845784.0,242.0,242.0,1882.1,1304.2,1920.0,700.0,none,,,,,,,,,,,,,,,,
choice,choice,18,12838574,12847860,12845801.0,12846217.0,417.0,417.0,1872.9,1416.7,1920.0,700.0,none,,,,,,,,,,,,,,,,
choice,choice,18,12838574,12847860,12846480.0,12848012.0,1533.0,1380.0,1922.1,1089.9,1920.0,1080.0,fixation,,,,,,,,,,,,,,,,
choice,choice,19,12850407,12852489,12850699.0,12851131.0,433.0,433.0,1888.5,1082.8,1920.0,1080.0,fixation,,,,,,,,,,,,,,,,
choice,choice,19,12850407,12852489,12851456.0,12852389.0,934.0,934.0,1892.6,1081.8,1920.0,1080.0,fixation,,,,,,,,,,,,,,,,
choice,choice,19,12850407,12852489,12852400.0,12852690.0,291.0,89.0,1918.3,1081.3,1920.0,1080.0,fixation,,,,,,,,,,,,,,,,
choice,choice,20,12856038,12862306,12856356.0,12856389.0,34.0,34.0,2323.5,1797.2,,,none,,,,,,,,,,,,,,,,
choice,choice,20,12856038,12862306,12856396.0,12856804.0,409.0,409.0,2433.3,1796.2,,,none,,,,,,,,,,,,,,,,
choice,choice,20,12856038,12862306,12856847.0,12857240.0,394.0,394.0,2240.5,1550.4,2249.0,891.0,none,,,,,,,,,,,,,,,,
choice,choice,20,12856038,12862306,12857253.0,12857695.0,443.0,443.0,2168.4,1511.2,1920.0,700.0,none,,,,,,,,,,,,,,,,
choice,choice,20,12856038,12862306,12857733.0,12857882.0,150.0,150.0,1897.9,1140.5,1920.0,1080.0,fixation,,,,,,,,,,,,,,,,
choice,choice,20,12856038,12862306,12858148.0,12859785.0,1638.0,1638.0,1935.3,1091.2,1920.0,1080.0,fixation,,,,,,,,,,,,,,,,
choice,choice,20,12856038,12862306,12860066.0,12860851.0,786.0,786.0,1936.1,1083.8,1920.0,1080.0,fixation,,,,,,,,,,,,,,,,
choice,choice,20,12856038,12862306,12861136.0,12861958.0,823.0,823.0,1938.5,1086.0,1920.0,1080.0,fixation,,,,,,,,,,,,,,,,
choice,choice,20,12856038,12862306,12861966.0,12862069.0,104.0,104.0,1887.7,1075.6,1920.0,1080.0,fixation,,,,,,,,,,,,,,,,
choice,choice,21,12865352,12868316,12865625.0,12867004.0,1380.0,1380.0,1944.3,1085.0,1920.0,1080.0,fixation,,,,,,,,,,,,,,,,
choice,choice,21,12865352,12868316,12867274.0,12868990.0,1717.0,1042.0,1931.5,1101.5,1920.0,1080.0,fixation,,,,,,,,,,,,,,,,
choice,choice,22,12870863,12874203,12871467.0,12871695.0,229.0,229.0,1271.1,607.5,,,none,,,,,,,,,,,,,,,,
choice,choice,22,12870863,12874203,12871709.0,12872092.0,384.0,384.0,1212.8,666.5,,,none,,,,,,,,,,,,,,,,
choice,choice,22,12870863,12874203,12872157.0,12873126.0,970.0,970.0,1826.3,951.8,1591.0,1269.0,none,,,,,,,,,,,,,,,,
choice,choice,22,12870863,12874203,12873430.0,12873967.0,538.0,538.0,1896.4,968.9000000000001,1920.0,1460.0,none,,,,,,,,,,,,,,,,
choice,choice,22,12870863,12874203,12874028.0,12874114.0,87.0,87.0,1290.5,724.5,,,none,,,,,,,,,,,,,,,,
choice,choice,22,12870863,12874203,12874146.0,12874396.0,251.0,57.0,1060.8,570.5,,,none,,,,,,,,,,,,,,,,
choice,choice,23,12877500,12881091,12878126.0,12879695.0,1570.0,1570.0,1916.4,1089.1,1920.0,1080.0,fixation,,,,,,,,,,,,,,,,
choice,choice,23,12877500,12881091,12880040.0,12881000.0,961.0,961.0,1912.2,1090.5,1920.0,1080.0,fixation,,,,,,,,,,,,,,,,
choice,choice,23,12877500,12881091,12881052.0,12881294.0,243.0,39.0,1454.6,905.5999999999999,1591.0,1269.0,none,,,,,,,,,,,,,,,,
choice,choice,24,12883889,12887655,12883902.0,12884140.0,239.0,239.0,1264.1,697.5,,,none,,,,,,,,,,,,,,,,
choice,choice,24,12883889,12887655,12884190.0,12884368.0,179.0,179.0,1877.5,1044.7,1920.0,1080.0,fixation,,,,,,,,,,,,,,,,
choice,choice,24,12883889,12887655,12884379.0,12884720.0,342.0,342.0,1911.6,1097.2,1920.0,1080.0,fixation,,,,,,,,,,,,,,,,
choice,choice,24,12883889,12887655,12884965.0,12885503.0,539.0,539.0,1911.2,1130.1,1920.0,1080.0,fixation,,,,,,,,,,,,,,,,
choice,choice,24,12883889,12887655,12885736.0,12885997.0,262.0,262.0,1903.9,1099.0,1920.0,1080.0,fixation,,,,,,,,,,,,,,,,
choice,choice,24,12883889,12887655,12886071.0,12886702.0,632.0,632.0,1271.8,715.4000000000001,,,none,,,,,,,,,,,,,,,,
choice,choice,24,12883889,12887655,12886774.0,12887019.0,246.0,246.0,1890.1,1026.9,1920.0,1080.0,fixation,,,,,,,,,,,,,,,,
choice,choice,24,12883889,12887655,12887027.0,12887507.0,481.0,481.0,1915.8,1061.2,1920.0,1080.0,fixation,,,,,,,,,,,,,,,,
choice,choice,24,12883889,12887655,12887568.0,12888547.0,980.0,87.0,1124.8,538.9000000000001,,,none,,,,,,,,,,,,,,,,
choice,choice,25,13183123,13190113,13183218.0,13185997.0,2780.0,2780.0,1926.5,1112.4,1920.0,1080.0,fixation,,,,,,,,,,,,,,,,
choice,choice,25,13183123,13190113,13186234.0,13187552.0,1319.0,1319.0,1927.5,1101.7,1920.0,1080.0,fixation,,,,,,,,,,,,,,,,
choice,choice,25,13183123,13190113,13187833.0,13188189.0,357.0,357.0,1928.5,1097.5,1920.0,1080.0,fixation,,,,,,,,,,,,,,,,
choice,choice,25,13183123,13190113,13188212.0,13188486.0,275.0,275.0,1828.5,1077.7,1591.0,1269.0,none,,,,,,,,,,,,,,,,
choice,choice,25,13183123,13190113,13188512.0,13189148.0,637.0,637.0,1627.4,1014.9000000000001,1591.0,1269.0,none,,,,,,,,,,,,,,,,
choice,choice,25,13183123,13190113,13189172.0,13190347.0,1176.0,941.0,1885.8,1081.5,1920.0,1080.0,fixation,,,,,,,,,,,,,,,,
choice,choice,26,13192909,13196129,13193460.0,13195371.0,1912.0,1912.0,1888.4,1123.3,1920.0,1080.0,fixation,,,,,,,,,,,,,,,,
choice,choice,26,13192909,13196129,13195557.0,13196380.0,824.0,572.0,1893.1,1130.9,1920.0,1080.0,fixation,,,,,,,,,,,,,,,,
choice,choice,27,13199178,13200323,13199595.0,13199723.0,129.0,129.0,1632.6,1052.5,1591.0,1269.0,none,,,,,,,,,,,,,,,,
choice,choice,27,13199178,13200323,13199748.0,13200040.0,293.0,293.0,1874.1,1098.0,1920.0,1080.0,fixation,,,,,,,,,,,,,,,,
choice,choice,27,13199178,13200323,13200260.0,13201118.0,859.0,63.0,1889.2,1097.7,1920.0,1080.0,fixation,,,,,,,,,,,,,,,,
choice,choice,28,13203618,13210803,13206388.0,13206625.0,238.0,238.0,1684.8,960.5999999999999,1591.0,1269.0,none,,,,,,,,,,,,,,,,
choice,choice,28,13203618,13210803,13206641.0,13207155.0,515.0,515.0,1826.4,944.4000000000001,1591.0,1269.0,none,,,,,,,,,,,,,,,,
choice,choice,28,13203618,13210803,13207390.0,13208380.0,991.0,991.0,1884.2,950.0,1920.0,1460.0,none,,,,,,,,,,,,,,,,
choice,choice,28,13203618,13210803,13208411.0,13209179.0,769.0,769.0,1650.1,917.2,1591.0,1269.0,none,,,,,,,,,,,,,,,,
choice,choice,28,13203618,13210803,13209195.0,13209225.0,31.0,31.0,1760.1,917.5999999999999,1591.0,1269.0,none,,,,,,,,,,,,,,,,
choice,choice,28,13203618,13210803,13209477.0,13210048.0,572.0,572.0,1843.3,953.7,1591.0,1269.0,none,,,,,,,,,,,,,,,,
choice,choice,28,13203618,13210803,13210064.0,13210579.0,516.0,516.0,1958.8,943.0999999999999,1920.0,1460.0,none,,,,,,,,,,,,,,,,
choice,choice,28,13203618,13210803,13210601.0,13211012.0,412.0,202.0,1901.7,1087.6,1920.0,1080.0,fixation,,,,,,,,,,,,,,,,
choice,choice,29,13214104,13215827,13214585.0,13215731.0,1147.0,1147.0,1928.5,1091.7,1920.0,1080.0,fixation,,,,,,,,,,,,,,,,
choice,choice,29,13214104,13215827,13215783.0,13216095.0,313.0,44.0,1301.6,842.0,,,none,,,,,,,,,,,,,,,,
choice,choice,30,13218873,13221220,13219342.0,13220114.0,773.0,773.0,1917.8,1117.9,1920.0,1080.0,fixation,,,,,,,,,,,,,,,,
choice,choice,30,13218873,13221220,13220376.0,13221712.0,1337.0,844.0,1925.5,1121.6,1920.0,1080.0,fixation,,,,,,,,,,,,,,,,
choice,choice,31,13224767,13230220,13225291.0,13225646.0,356.0,356.0,1938.5,1099.5,1920.0,1080.0,fixation,,,,,,,,,,,,,,,,
choice,choice,31,13224767,13230220,13225958.0,13229206.0,3249.0,3249.0,1918.3,1111.1,1920.0,1080.0,fixation,,,,,,,,,,,,,,,,
choice,choice,31,13224767,13230220,13229217.0,13229749.0,533.0,533.0,2088.7,1179.2,2249.0,891.0,none,,,,,,,,,,,,,,,,
choice,choice,31,13224767,13230220,13230016.0,13230119.0,104.0,104.0,2019.9,1149.6,2249.0,891.0,none,,,,,,,,,,,,,,,,
choice,choice,31,13224767,13230220,13230189.0,13230470.0,282.0,31.0,1263.4,766.4000000000001,,,none,,,,,,,,,,,,,,,,
choice,choice,32,13233016,13238148,13233565.0,13234453.0,889.0,889.0,1904.1,1104.3,1920.0,1080.0,fixation,,,,,,,,,,,,,,,,
choice,choice,32,13233016,13238148,13234524.0,13234904.0,381.0,381.0,1293.5,711.7,,,none,,,,,,,,,,,,,,,,
choice,choice,32,13233016,13238148,13234958.0,13235142.0,185.0,185.0,1885.6,1051.6,1920.0,1080.0,fixation,,,,,,,,,,,,,,,,
choice,choice,32,13233016,13238148,13235150.0,13236269.0,1120.0,1120.0,1909.4,1091.7,1920.0,1080.0,fixation,,,,,,,,,,,,,,,,
choice,choice,32,13233016,13238148,13236507.0,13236603.0,97.0,97.0,1890.1,1135.2,1920.0,1080.0,fixation,,,,,,,,,,,,,,,,
choice,choice,32,13233016,13238148,13236611.0,13237134.0,524.0,524.0,1885.6,1102.6,1920.0,1080.0,fixation,,,,,,,,,,,,,,,,
choice,choice,32,13233016,13238148,13237164.0,13237391.0,228.0,228.0,1605.7,1002.4000000000001,1591.0,1269.0,none,,,,,,,,,,,,,,,,
choice,choice,32,13233016,13238148,13237415.0,13238343.0,929.0,733.0,1877.3,1084.0,1920.0,1080.0,fixation,,,,,,,,,,,,,,,,
choice,choice,33,13587296,13592122,13587901.0,13589398.0,1498.0,1498.0,1941.9,1088.1,1920.0,1080.0,fixation,,,,,,,,,,,,,,,,
choice,choice,33,13587296,13592122,13589633.0,13590233.0,601.0,601.0,1929.1,983.0999999999999,1920.0,1460.0,none,,,,,,,,,,,,,,,,
choice,choice,33,13587296,13592122,13590250.0,13590488.0,239.0,239.0,1900.5,1053.1,1920.0,1080.0,fixation,,,,,,,,,,,,,,,,
choice,choice,33,13587296,13592122,13590741.0,13591637.0,897.0,897.0,1916.4,1097.0,1920.0,1080.0,fixation,,,,,,,,,,,,,,,,
choice,choice,33,13587296,13592122,13591710.0,13591954.0,245.0,245.0,1349.8,761.2,,,none,,,,,,,,,,,,,,,,
choice,choice,33,13587296,13592122,13591973.0,13592323.0,351.0,149.0,1214.7,725.5999999999999,,,none,,,,,,,,,,,,,,,,
choice,choice,34,13594668,13601907,13595040.0,13595630.0,591.0,591.0,1991.9,1057.4,2249.0,1269.0,none,,,,,,,,,,,,,,,,
choice,choice,34,13594668,13601907,13595831.0,13596159.0,329.0,329.0,2101.4,988.9000000000001,2249.0,1269.0,none,,,,,,,,,,,,,,,,
choice,choice,34,13594668,13601907,13596401.0,13596837.0,437.0,437.0,2149.4,1039.0,2249.0,1269.0,none,,,,,,,,,,,,,,,,
choice,choice,34,13594668,13601907,13596856.0,13597645.0,790.0,790.0,2034.0,1024.6,2249.0,1269.0,none,,,,,,,,,,,,,,,,
choice,choice,34,13594668,13601907,13597877.0,13598994.0,1118.0,1118.0,1932.4,1082.7,1920.0,1080.0,fixation,,,,,,,,,,,,,,,,
choice,choice,34,13594668,13601907,13599001.0,13599134.0,134.0,134.0,1979.2,1118.7,2249.0,891.0,none,,,,,,,,,,,,,,,,
choice,choice,34,13594668,13601907,13599156.0,13600380.0,1225.0,1225.0,2029.6,1261.8,2249.0,891.0,none,,,,,,,,,,,,,,,,
choice,choice,34,13594668,13601907,13600634.0,13601298.0,665.0,665.0,2134.0,1178.2,2249.0,891.0,none,,,,,,,,,,,,,,,,
choice,choice,34,13594668,13601907,13601319.0,13601509.0,191.0,191.0,2002.7,1128.6,2249.0,891.0,none,,,,,,,,,,,,,,,,
choice,choice,34,13594668,13601907,13601587.0,13602206.0,620.0,320.0,1345.3,769.0999999999999,,,none,,,,,,,,,,,,,,,,
choice,choice,35,13604955,13609060,13605412.0,13606155.0,744.0,744.0,1955.1,1077.7,1920.0,1080.0,fixation,,,,,,,,,,,,,,,,
choice,choice,35,13604955,13609060,13606167.0,13606654.0,488.0,488.0,1890.9,1065.3,1920.0,1080.0,fixation,,,,,,,,,,,,,,,,
choice,choice,35,13604955,13609060,13606897.0,13607374.0,478.0,478.0,1979.1,1123.6,2249.0,891.0,none,,,,,,,,,,,,,,,,
choice,choice,35,13604955,13609060,13607395.0,13609349.0,1955.0,1665.0,1922.7,1093.3,1920.0,1080.0,fixation,,,,,,,,,,,,,,,,
choice,choice,36,13611856,13617946,13612390.0,13614491.0,2102.0,2102.0,1983.5,1042.0,2249.0,1269.0,none,,,,,,,,,,,,,,,,
choice,choice,36,13611856,13617946,13614840.0,13616332.0,1493.0,1493.0,1949.5,1070.6,1920.0,1080.0,fixation,,,,,,,,,,,,,,,,
choice,choice,36,13611856,13617946,13616607.0,13617639.0,1033.0,1033.0,2006.3,1083.1,2249.0,891.0,none,,,,,,,,,,,,,,,,
choice,choice,36,13611856,13617946,13617713.0,13617812.0,100.0,100.0,1366.2,781.9000000000001,,,none,,,,,,,,,,,,,,,,
choice,choice,36,13611856,13617946,13617840.0,13618148.0,309.0,106.0,1101.7,590.5999999999999,,,none,,,,,,,,,,,,,,,,
choice,choice,37,13620744,13621452,13620975.0,13621193.0,219.0,219.0,2014.1,1070.3,2249.0,1269.0,none,,,,,,,,,,,,,,,,
choice,choice,37,13620744,13621452,13621238.0,13621465.0,228.0,214.0,1321.2,755.2,,,none,,,,,,,,,,,,,,,,
choice,choice,38,13624500,13625827,13625057.0,13625711.0,655.0,655.0,1953.7,1062.6,1920.0,1080.0,fixation,,,,,,,,,,,,,,,,
choice,choice,38,13624500,13625827,13625732.0,13626142.0,411.0,95.0,1804.3,1041.5,1591.0,1269.0,none,,,,,,,,,,,,,,,,
choice,choice,39,13628874,13629652,13629423.0,13629893.0,471.0,229.0,1956.9,1088.7,1920.0,1080.0,fixation,,,,,,,,,,,,,,,,
choice,choice,40,13632448,13633461,13632561.0,13632896.0,336.0,336.0,1947.3,1075.0,1920.0,1080.0,fixation,,,,,,,,,,,,,,,,
choice,choice,40,13632448,13633461,13632960.0,13633111.0,152.0,152.0,1351.4,770.3,,,none,,,,,,,,,,,,,,,,
choice,choice,40,13632448,13633461,13633122.0,13633384.0,263.0,263.0,1247.0,718.7,,,none,,,,,,,,,,,,,,,,
choice,choice,40,13632448,13633461,13633403.0,13633665.0,263.0,58.0,1124.1,571.3,,,none,,,,,,,,,,,,,,,,
choice,choice,41,13910404,13913825,13911413.0,13911506.0,94.0,94.0,1972.0,1323.8,1920.0,700.0,none,,,,,,,,,,,,,,,,
choice,choice,41,13910404,13913825,13911521.0,13912125.0,605.0,605.0,2027.6,1375.2,1920.0,700.0,none,,,,,,,,,,,,,,,,
choice,choice,41,13910404,13913825,13912395.0,13912765.0,371.0,371.0,2116.9,1307.4,2249.0,891.0,none,,,,,,,,,,,,,,,,
choice,choice,41,13910404,13913825,13912780.0,13913186.0,407.0,407.0,2004.3,1276.8,1920.0,700.0,none,,,,,,,,,,,,,,,,
choice,choice,41,13910404,13913825,13913219.0,13913792.0,574.0,574.0,1903.0,1108.3,1920.0,1080.0,fixation,,,,,,,,,,,,,,,,
choice,choice,41,13910404,13913825,13913811.0,13914099.0,289.0,14.0,1831.4,1058.5,1591.0,1269.0,none,,,,,,,,,,,,,,,,
choice,choice,42,13917370,13925667,13917495.0,13917652.0,158.0,158.0,1938.6,1099.6,1920.0,1080.0,fixation,,,,,,,,,,,,,,,,
choice,choice,42,13917370,13925667,13917907.0,13918743.0,837.0,837.0,2014.7,1084.4,2249.0,891.0,none,,,,,,,,,,,,,,,,
choice,choice,42,13917370,13925667,13919014.0,13919485.0,472.0,472.0,2003.8,1087.5,2249.0,891.0,none,,,,,,,,,,,,,,,,
choice,choice,42,13917370,13925667,13919498.0,13920168.0,671.0,671.0,1913.3,1094.1,1920.0,1080.0,fixation,,,,,,,,,,,,,,,,
choice,choice,42,13917370,13925667,13920396.0,13921331.0,936.0,936.0,1955.8,1127.0,1920.0,1080.0,fixation,,,,,,,,,,,,,,,,
choice,choice,42,13917370,13925667,13921612.0,13922666.0,1055.0,1055.0,2047.5,1117.8,2249.0,891.0,none,,,,,,,,,,,,,,,,
choice,choice,42,13917370,13925667,13922870.0,13923537.0,668.0,668.0,1972.4,1182.8,1920.0,700.0,none,,,,,,,,,,,,,,,,
choice,choice,42,13917370,13925667,13923581.0,13924673.0,1093.0,1093.0,1955.1,1463.2,1920.0,700.0,none,,,,,,,,,,,,,,,,
choice,choice,42,13917370,13925667,13924931.0,13925020.0,90.0,90.0,1985.1,1518.6,1920.0,700.0,none,,,,,,,,,,,,,,,,
choice,choice,42,13917370,13925667,13925029.0,13925449.0,421.0,421.0,1980.6,1462.6,1920.0,700.0,none,,,,,,,,,,,,,,,,
choice,choice,42,13917370,13925667,13925513.0,13925646.0,134.0,134.0,1399.8,874.5,1591.0,1269.0,none,,,,,,,,,,,,,,,,
choice,choice,43,13928215,13936882,13928678.0,13929555.0,878.0,878.0,1903.1,1100.8,1920.0,1080.0,fixation,,,,,,,,,,,,,,,,
choice,choice,43,13928215,13936882,13929781.0,13931098.0,1318.0,1318.0,1917.6,1113.4,1920.0,1080.0,fixation,,,,,,,,,,,,,,,,
choice,choice,43,13928215,13936882,13931346.0,13932424.0,1079.0,1079.0,1937.9,1105.9,1920.0,1080.0,fixation,,,,,,,,,,,,,,,,
choice,choice,43,13928215,13936882,13932689.0,13933191.0,503.0,503.0,1968.1,1102.0,1920.0,1080.0,fixation,,,,,,,,,,,,,,,,
choice,choice,43,13928215,13936882,13933211.0,13933509.0,299.0,299.0,1821.0,1070.9,1591.0,1269.0,none,,,,,,,,,,,,,,,,
choice,choice,43,13928215,13936882,13933822.0,13934486.0,665.0,665.0,1797.1,1080.1,1591.0,891.0,none,,,,,,,,,,,,,,,,
choice,choice,43,13928215,13936882,13934498.0,13934853.0,356.0,356.0,1896.7,1068.0,1920.0,1080.0,fixation,,,,,,,,,,,,,,,,
choice,choice,43,13928215,13936882,13935103.0,13936594.0,1492.0,1492.0,1957.3,1121.1,1920.0,1080.0,fixation,,,,,,,,,,,,,,,,
choice,choice,43,13928215,13936882,13936603.0,13936828.0,226.0,226.0,1947.5,1082.2,1920.0,1080.0,fixation,,,,,,,,,,,,,,,,
choice,choice,43,13928215,13936882,13936836.0,13937209.0,374.0,46.0,1910.2,1090.4,1920.0,1080.0,fixation,,,,,,,,,,,,,,,,
choice,choice,44,13939428,13940936,13939560.0,13939836.0,277.0,277.0,1955.9,1076.7,1920.0,1080.0,fixation,,,,,,,,,,,,,,,,
choice,choice,44,13939428,13940936,13939847.0,13941642.0,1796.0,1089.0,1915.3,1091.0,1920.0,1080.0,fixation,,,,,,,,,,,,,,,,
choice,choice,45,13943982,13944553,13944376.0,13944514.0,139.0,139.0,1825.8,1092.6,1591.0,891.0,none,,,,,,,,,,,,,,,,
choice,choice,45,13943982,13944553,13944522.0,13944862.0,341.0,31.0,1898.3,1093.3,1920.0,1080.0,fixation,,,,,,,,,,,,,,,,
choice,choice,46,13947099,13951579,13947810.0,13948359.0,550.0,550.0,1976.2,1073.9,1920.0,1080.0,fixation,,,,,,,,,,,,,,,,
choice,choice,46,13947099,13951579,13948370.0,13948961.0,592.0,592.0,1899.3,1060.5,1920.0,1080.0,fixation,,,,,,,,,,,,,,,,
choice,choice,46,13947099,13951579,13948970.0,13949551.0,582.0,582.0,1928.5,1072.5,1920.0,1080.0,fixation,,,,,,,,,,,,,,,,
choice,choice,46,13947099,13951579,13949782.0,13950760.0,979.0,979.0,1969.9,1045.3,1920.0,1080.0,fixation,,,,,,,,,,,,,,,,
choice,choice,46,13947099,13951579,13950779.0,13951385.0,607.0,607.0,1866.2,979.0999999999999,1920.0,1460.0,none,,,,,,,,,,,,,,,,
choice,choice,46,13947099,13951579,13951398.0,13951736.0,339.0,181.0,1916.2,1036.9,1920.0,1080.0,fixation,,,,,,,,,,,,,,,,
choice,choice,47,13954374,13959020,13956296.0,13957435.0,1140.0,1140.0,1974.1,1079.6,1920.0,1080.0,fixation,,,,,,,,,,,,,,,,
choice,choice,47,13954374,13959020,13957462.0,13957779.0,318.0,318.0,1823.9,1039.9,1591.0,1269.0,none,,,,,,,,,,,,,,,,
choice,choice,47,13954374,13959020,13957796.0,13958419.0,624.0,624.0,1950.6,1038.4,1920.0,1080.0,fixation,,,,,,,,,,,,,,,,
choice,choice,47,13954374,13959020,13958725.0,13959176.0,452.0,295.0,1932.2,1105.8,1920.0,1080.0,fixation,,,,,,,,,,,,,,,,
choice,choice,48,13961814,13963939,13962024.0,13962630.0,607.0,607.0,1933.8,1131.6,1920.0,1080.0,fixation,,,,,,,,,,,,,,,,
choice,choice,48,13961814,13963939,13962922.0,13963303.0,382.0,382.0,1931.2,1081.8,1920.0,1080.0,fixation,,,,,,,,,,,,,,,,
choice,choice,48,13961814,13963939,13963312.0,13963824.0,513.0,513.0,1884.6,1092.8,1920.0,1080.0,fixation,,,,,,,,,,,,,,,,
choice,choice,48,13961814,13963939,13963884.0,13964166.0,283.0,55.0,1254.1,764.4000000000001,,,none,,,,,,,,,,,,,,,,
choice,choice,49,14226398,14233614,14226599.0,14226781.0,183.0,183.0,1900.3,1140.1,1920.0,1080.0,fixation,,,,,,,,,,,,,,,,
choice,choice,49,14226398,14233614,14226841.0,14227085.0,245.0,245.0,1191.1,711.0,,,none,,,,,,,,,,,,,,,,
choice,choice,49,14226398,14233614,14227099.0,14227480.0,382.0,382.0,1129.1,725.7,,,none,,,,,,,,,,,,,,,,
choice,choice,49,14226398,14233614,14227519.0,14227786.0,268.0,268.0,999.7,596.2,,,none,,,,,,,,,,,,,,,,
choice,choice,49,14226398,14233614,14227819.0,14227997.0,179.0,179.0,1383.4,848.9000000000001,,,none,,,,,,,,,,,,,,,,
choice,choice,49,14226398,14233614,14228042.0,14229385.0,1344.0,1344.0,1829.5,982.0,1591.0,1269.0,none,,,,,,,,,,,,,,,,
choice,choice,49,14226398,14233614,14229448.0,14229753.0,306.0,306.0,1212.6,690.8,,,none,,,,,,,,,,,,,,,,
choice,choice,49,14226398,14233614,14229764.0,14230010.0,247.0,247.0,1294.1,705.2,,,none,,,,,,,,,,,,,,,,
choice,choice,49,14226398,14233614,14230032.0,14230380.0,349.0,349.0,1496.1,781.4000000000001,1591.0,1269.0,none,,,,,,,,,,,,,,,,
choice,choice,49,14226398,14233614,14230653.0,14231437.0,785.0,785.0,1678.3,907.3,1591.0,1269.0,none,,,,,,,,,,,,,,,,
choice,choice,49,14226398,14233614,14231450.0,14232253.0,804.0,804.0,1752.3,903.9000000000001,1591.0,1269.0,none,,,,,,,,,,,,,,,,
choice,choice,49,14226398,14233614,14232280.0,14232646.0,367.0,367.0,1489.6,843.5999999999999,1591.0,1269.0,none,,,,,,,,,,,,,,,,
choice,choice,49,14226398,14233614,14232665.0,14233205.0,541.0,541.0,1631.8,853.5999999999999,1591.0,1269.0,none,,,,,,,,,,,,,,,,
choice,choice,49,14226398,14233614,14233227.0,14233517.0,291.0,291.0,1817.4,843.5,1920.0,1460.0,none,,,,,,,,,,,,,,,,
choice,choice,49,14226398,14233614,14233543.0,14233880.0,338.0,71.0,1878.0,1041.8,1920.0,1080.0,fixation,,,,,,,,,,,,,,,,
choice,choice,50,14236911,14238167,14237482.0,14238104.0,623.0,623.0,1898.7,1067.8,1920.0,1080.0,fixation,,,,,,,,,,,,,,,,
choice,choice,50,14236911,14238167,14238113.0,14238508.0,396.0,54.0,1854.2,1076.2,1920.0,1080.0,fixation,,,,,,,,,,,,,,,,
choice,choice,51,14241713,14245463,14242344.0,14243261.0,918.0,918.0,1868.3,1107.4,1920.0,1080.0,fixation,,,,,,,,,,,,,,,,
choice,choice,51,14241713,14245463,14243269.0,14243883.0,615.0,615.0,1942.7,1097.7,1920.0,1080.0,fixation,,,,,,,,,,,,,,,,
choice,choice,51,14241713,14245463,14244121.0,14244892.0,772.0,772.0,2007.4,1136.8,2249.0,891.0,none,,,,,,,,,,,,,,,,
choice,choice,51,14241713,14245463,14244921.0,14245152.0,232.0,232.0,1710.6,988.0999999999999,1591.0,1269.0,none,,,,,,,,,,,,,,,,
choice,choice,51,14241713,14245463,14245178.0,14245848.0,671.0,285.0,1910.1,1087.2,1920.0,1080.0,fixation,,,,,,,,,,,,,,,,
choice,choice,52,14248008,14250040,14248283.0,14249266.0,984.0,984.0,1877.6,1126.6,1920.0,1080.0,fixation,,,,,,,,,,,,,,,,
choice,choice,52,14248008,14250040,14249465.0,14249866.0,402.0,402.0,1911.3,1092.9,1920.0,1080.0,fixation,,,,,,,,,,,,,,,,
choice,choice,52,14248008,14250040,14249876.0,14250517.0,642.0,164.0,1859.4,1056.0,1920.0,1080.0,fixation,,,,,,,,,,,,,,,,
choice,choice,53,14252587,14255103,14252683.0,14254060.0,1378.0,1378.0,1878.6,1113.8,1920.0,1080.0,fixation,,,,,,,,,,,,,,,,
choice,choice,53,14252587,14255103,14254337.0,14255372.0,1036.0,766.0,1896.7,1107.5,1920.0,1080.0,fixation,,,,,,,,,,,,,,,,
choice,choice,54,14258151,14264937,14258253.0,14258440.0,188.0,188.0,1211.5,504.9000000000001,,,none,,,,,,,,,,,,,,,,
choice,choice,54,14258151,14264937,14258478.0,14258516.0,39.0,39.0,1261.4,710.7,,,none,,,,,,,,,,,,,,,,
choice,choice,54,14258151,14264937,14258556.0,14258945.0,390.0,390.0,1565.5,936.5,1591.0,1269.0,none,,,,,,,,,,,,,,,,
choice,choice,54,14258151,14264937,14258969.0,14259416.0,448.0,448.0,1765.3,995.5999999999999,1591.0,1269.0,none,,,,,,,,,,,,,,,,
choice,choice,54,14258151,14264937,14259661.0,14260849.0,1189.0,1189.0,1933.1,1069.7,1920.0,1080.0,fixation,,,,,,,,,,,,,,,,
choice,choice,54,14258151,14264937,14261145.0,14261889.0,745.0,745.0,1942.5,1093.7,1920.0,1080.0,fixation,,,,,,,,,,,,,,,,
choice,choice,54,14258151,14264937,14261900.0,14262718.0,819.0,819.0,1853.6,1080.1,1920.0,1080.0,fixation,,,,,,,,,,,,,,,,
choice,choice,54,14258151,14264937,14262728.0,14262824.0,97.0,97.0,1878.5,1067.9,1920.0,1080.0,fixation,,,,,,,,,,,,,,,,
choice,choice,54,14258151,14264937,14263060.0,14263798.0,739.0,739.0,2014.2,1092.7,2249.0,891.0,none,,,,,,,,,,,,,,,,
choice,choice,54,14258151,14264937,14263815.0,14264099.0,285.0,285.0,1895.9,1096.7,1920.0,1080.0,fixation,,,,,,,,,,,,,,,,
choice,choice,54,14258151,14264937,14264112.0,14264919.0,808.0,808.0,1809.9,1112.2,1591.0,891.0,none,,,,,,,,,,,,,,,,
choice,choice,54,14258151,14264937,14264934.0,14265226.0,293.0,3.0,1701.6,1085.0,1591.0,891.0,none,,,,,,,,,,,,,,,,
choice,choice,55,14267486,14272418,14268104.0,14268887.0,784.0,784.0,1927.2,1079.7,1920.0,1080.0,fixation,,,,,,,,,,,,,,,,
choice,choice,55,14267486,14272418,14269113.0,14269977.0,865.0,865.0,1941.2,1121.1,1920.0,1080.0,fixation,,,,,,,,,,,,,,,,
choice,choice,55,14267486,14272418,14270002.0,14270054.0,53.0,53.0,1761.3,1095.0,1591.0,891.0,none,,,,,,,,,,,,,,,,
choice,choice,55,14267486,14272418,14270308.0,14271029.0,722.0,722.0,1941.9,1113.5,1920.0,1080.0,fixation,,,,,,,,,,,,,,,,
choice,choice,55,14267486,14272418,14271286.0,14272097.0,812.0,812.0,2035.8,1110.5,2249.0,891.0,none,,,,,,,,,,,,,,,,
choice,choice,55,14267486,14272418,14272158.0,14272235.0,78.0,78.0,1518.5,953.8,1591.0,1269.0,none,,,,,,,,,,,,,,,,
choice,choice,55,14267486,14272418,14272278.0,14272373.0,96.0,96.0,1255.4,767.5,,,none,,,,,,,,,,,,,,,,
choice,choice,55,14267486,14272418,14272401.0,14272685.0,285.0,17.0,1091.7,632.5,,,none,,,,,,,,,,,,,,,,
choice,choice,56,14275213,14277904,14275492.0,14276571.0,1080.0,1080.0,1911.3,1087.0,1920.0,1080.0,fixation,,,,,,,,,,,,,,,,
choice,choice,56,14275213,14277904,14276817.0,14277748.0,932.0,932.0,1936.5,1088.1,1920.0,1080.0,fixation,,,,,,,,,,,,,,,,
choice,choice,56,14275213,14277904,14277757.0,14278118.0,362.0,147.0,1881.7,1079.2,1920.0,1080.0,fixation,,,,,,,,,,,,,,,,
memory,free_recall,2,12561975,12579198,12562693.0,12563571.0,879.0,879.0,1910.6,1280.0,1920.0,700.0,Animal_Sea_Pattern_Small,,,2.0,,,,,,,,,,,,,
memory,free_recall,2,12561975,12579198,12563581.0,12564384.0,804.0,804.0,1974.0,1239.1,1920.0,700.0,Animal_Sea_Pattern_Small,,,2.0,,,,,,,,,,,,,
memory,free_recall,2,12561975,12579198,12564394.0,12565067.0,674.0,674.0,2011.3,1246.3,1920.0,700.0,Animal_Sea_Pattern_Small,,,2.0,,,,,,,,,,,,,
memory,free_recall,2,12561975,12579198,12565074.0,12565382.0,309.0,309.0,2037.1,1236.3,2249.0,891.0,Object_Land_Solid_Large,,,2.0,,,,,,,,,,,,,
memory,free_recall,2,12561975,12579198,12565567.0,12565781.0,215.0,215.0,2024.5,1208.6,2249.0,891.0,Object_Land_Solid_Large,,,2.0,,,,,,,,,,,,,
memory,free_recall,2,12561975,12579198,12565800.0,12565999.0,200.0,200.0,1929.6,1202.8,1920.0,700.0,Animal_Sea_Pattern_Small,,,2.0,,,,,,,,,,,,,
memory,free_recall,2,12561975,12579198,12566022.0,12566993.0,972.0,972.0,1697.2,1188.6,1591.0,891.0,Object_Land_Pattern_Small,,,2.0,,,,,,,,,,,,,
memory,free_recall,2,12561975,12579198,12567256.0,12567718.0,463.0,463.0,1804.1,1029.1,1591.0,1269.0,Animal_Land_Pattern_Small,,,2.0,,,,,,,,,,,,,
memory,free_recall,2,12561975,12579198,12567959.0,12569084.0,1126.0,1126.0,1871.0,1025.3,1591.0,1269.0,Animal_Land_Pattern_Small,,,2.0,,,,,,,,,,,,,
memory,free_recall,2,12561975,12579198,12569320.0,12570560.0,1241.0,1241.0,1941.8,1048.2,1920.0,1080.0,fixation,,,2.0,,,,,,,,,,,,,
memory,free_recall,2,12561975,12579198,12570570.0,12570859.0,290.0,290.0,2036.5,1024.3,2249.0,1269.0,Animal_Sea_Solid_Large,,,2.0,,,,,,,,,,,,,
memory,free_recall,2,12561975,12579198,12571045.0,12571285.0,241.0,241.0,2073.7,1025.2,2249.0,1269.0,Animal_Sea_Solid_Large,,,2.0,,,,,,,,,,,,,
memory,free_recall,2,12561975,12579198,12571539.0,12572934.0,1396.0,1396.0,2161.6,934.5,2249.0,1269.0,Animal_Sea_Solid_Large,,,2.0,,,,,,,,,,,,,
memory,free_recall,2,12561975,12579198,12572944.0,12573872.0,929.0,929.0,2141.8,941.0,2249.0,1269.0,Animal_Sea_Solid_Large,,,2.0,,,,,,,,,,,,,
memory,free_recall,2,12561975,12579198,12574105.0,12574358.0,254.0,254.0,2124.2,942.5,2249.0,1269.0,Animal_Sea_Solid_Large,,,2.0,,,,,,,,,,,,,
memory,free_recall,2,12561975,12579198,12574652.0,12575970.0,1319.0,1319.0,2150.3,930.0999999999999,2249.0,1269.0,Animal_Sea_Solid_Large,,,2.0,,,,,,,,,,,,,
memory,free_recall,2,12561975,12579198,12576183.0,12576377.0,195.0,195.0,2123.3,984.5,2249.0,1269.0,Animal_Sea_Solid_Large,,,2.0,,,,,,,,,,,,,
memory,free_recall,2,12561975,12579198,12576399.0,12576582.0,184.0,184.0,1966.7,1007.4000000000001,2249.0,1269.0,Animal_Sea_Solid_Large,,,2.0,,,,,,,,,,,,,
memory,free_recall,2,12561975,12579198,12576592.0,12577480.0,889.0,889.0,1920.3,1029.7,1920.0,1080.0,fixation,,,2.0,,,,,,,,,,,,,
memory,free_recall,2,12561975,12579198,12577491.0,12577944.0,454.0,454.0,1858.7,1070.4,1920.0,1080.0,fixation,,,2.0,,,,,,,,,,,,,
memory,free_recall,2,12561975,12579198,12577959.0,12578484.0,526.0,526.0,1879.8,1127.6,1920.0,1080.0,fixation,,,2.0,,,,,,,,,,,,,
memory,free_recall,3,12933444,12946640,12933745.0,12934839.0,1095.0,1095.0,1920.3,1108.7,1920.0,1080.0,fixation,,,3.0,,,,,,,,,,,,,
memory,free_recall,3,12933444,12946640,12935008.0,12935580.0,573.0,573.0,1919.2,1045.4,1920.0,1080.0,fixation,,,3.0,,,,,,,,,,,,,
memory,free_recall,3,12933444,12946640,12935603.0,12936329.0,727.0,727.0,1797.2,946.5999999999999,1591.0,1269.0,Object_Land_Solid_Small,,,3.0,,,,,,,,,,,,,
memory,free_recall,3,12933444,12946640,12936554.0,12936719.0,166.0,166.0,1762.9,950.3,1591.0,1269.0,Object_Land_Solid_Small,,,3.0,,,,,,,,,,,,,
memory,free_recall,3,12933444,12946640,12936736.0,12937397.0,662.0,662.0,1869.2,928.0999999999999,1920.0,1460.0,Animal_Land_Pattern_Large,,,3.0,,,,,,,,,,,,,
memory,free_recall,3,12933444,12946640,12937418.0,12937711.0,294.0,294.0,1975.0,993.5,2249.0,1269.0,Animal_Sea_Solid_Large,,,3.0,,,,,,,,,,,,,
memory,free_recall,3,12933444,12946640,12937933.0,12939122.0,1190.0,1190.0,1895.7,1028.9,1920.0,1080.0,fixation,,,3.0,,,,,,,,,,,,,
memory,free_recall,3,12933444,12946640,12939342.0,12939732.0,391.0,391.0,1928.5,1058.9,1920.0,1080.0,fixation,,,3.0,,,,,,,,,,,,,
memory,free_recall,3,12933444,12946640,12939745.0,12940149.0,405.0,405.0,1877.5,1063.2,1920.0,1080.0,fixation,,,3.0,,,,,,,,,,,,,
memory,free_recall,3,12933444,12946640,12940160.0,12940729.0,570.0,570.0,1823.1,1090.9,1591.0,891.0,Animal_Sea_Solid_Small,,,3.0,,,,,,,,,,,,,
memory,free_recall,3,12933444,12946640,12940744.0,12940961.0,218.0,218.0,1918.4,1076.4,1920.0,1080.0,fixation,,,3.0,,,,,,,,,,,,,
memory,free_recall,3,12933444,12946640,12941137.0,12942059.0,923.0,923.0,1992.9,1003.0,2249.0,1269.0,Animal_Sea_Solid_Large,,,3.0,,,,,,,,,,,,,
memory,free_recall,3,12933444,12946640,12942069.0,12943563.0,1495.0,1495.0,1909.7,1063.4,1920.0,1080.0,fixation,,,3.0,,,,,,,,,,,,,
memory,free_recall,3,12933444,12946640,12943571.0,12943954.0,384.0,384.0,1894.6,1075.1,1920.0,1080.0,fixation,,,3.0,,,,,,,,,,,,,
memory,free_recall,3,12933444,12946640,12944162.0,12945372.0,1211.0,1211.0,1906.0,1085.1,1920.0,1080.0,fixation,,,3.0,,,,,,,,,,,,,
memory,free_recall,4,13253340,13268077,13253629.0,13254567.0,939.0,939.0,1885.4,1110.9,1920.0,1080.0,fixation,,,4.0,,,,,,,,,,,,,
memory,free_recall,4,13253340,13268077,13254832.0,13254990.0,159.0,159.0,1852.6,1066.3,1920.0,1080.0,fixation,,,4.0,,,,,,,,,,,,,
memory,free_recall,4,13253340,13268077,13255011.0,13255323.0,313.0,313.0,1722.0,1113.7,1591.0,891.0,Animal_Sea_Solid_Small,,,4.0,,,,,,,,,,,,,
memory,free_recall,4,13253340,13268077,13255344.0,13255834.0,491.0,491.0,1882.4,1067.3,1920.0,1080.0,fixation,,,4.0,,,,,,,,,,,,,
memory,free_recall,4,13253340,13268077,13255846.0,13256099.0,254.0,254.0,1814.7,1088.1,1591.0,891.0,Animal_Sea_Solid_Small,,,4.0,,,,,,,,,,,,,
memory,free_recall,4,13253340,13268077,13256113.0,13256517.0,405.0,405.0,1894.8,1073.6,1920.0,1080.0,fixation,,,4.0,,,,,,,,,,,,,
memory,free_recall,4,13253340,13268077,13256714.0,13257879.0,1166.0,1166.0,1890.2,1102.1,1920.0,1080.0,fixation,,,4.0,,,,,,,,,,,,,
memory,free_recall,4,13253340,13268077,13257899.0,13258471.0,573.0,573.0,1912.1,994.0999999999999,1920.0,1460.0,Animal_Land_Solid_Small,,,4.0,,,,,,,,,,,,,
memory,free_recall,4,13253340,13268077,13258684.0,13259580.0,897.0,897.0,1959.5,882.0,1920.0,1460.0,Animal_Land_Solid_Small,,,4.0,,,,,,,,,,,,,
memory,free_recall,4,13253340,13268077,13259817.0,13260298.0,482.0,482.0,1951.3,916.7,1920.0,1460.0,Animal_Land_Solid_Small,,,4.0,,,,,,,,,,,,,
memory,free_recall,4,13253340,13268077,13260312.0,13260772.0,461.0,461.0,1853.8,926.5,1920.0,1460.0,Animal_Land_Solid_Small,,,4.0,,,,,,,,,,,,,
memory,free_recall,4,13253340,13268077,13260795.0,13262770.0,1976.0,1976.0,2057.0,879.7,2249.0,1269.0,Object_Sea_Pattern_Large,,,4.0,,,,,,,,,,,,,
memory,free_recall,4,13253340,13268077,13262961.0,13263214.0,254.0,254.0,1965.9,875.7,1920.0,1460.0,Animal_Land_Solid_Small,,,4.0,,,,,,,,,,,,,
memory,free_recall,4,13253340,13268077,13263226.0,13263737.0,512.0,512.0,1899.1,878.3,1920.0,1460.0,Animal_Land_Solid_Small,,,4.0,,,,,,,,,,,,,
memory,free_recall,4,13253340,13268077,13263752.0,13264143.0,392.0,392.0,1823.2,825.9000000000001,1920.0,1460.0,Animal_Land_Solid_Small,,,4.0,,,,,,,,,,,,,
memory,free_recall,4,13253340,13268077,13264458.0,13265333.0,876.0,876.0,1913.6,877.8,1920.0,1460.0,Animal_Land_Solid_Small,,,4.0,,,,,,,,,,,,,
memory,free_recall,4,13253340,13268077,13265363.0,13265714.0,352.0,352.0,2636.7,837.8,,,none,,,4.0,,,,,,,,,,,,,
memory,free_recall,4,13253340,13268077,13265763.0,13265995.0,233.0,233.0,2112.8,855.0,2249.0,1269.0,Object_Sea_Pattern_Large,,,4.0,,,,,,,,,,,,,
memory,free_recall,4,13253340,13268077,13266014.0,13266170.0,157.0,157.0,1978.4,846.3,1920.0,1460.0,Animal_Land_Solid_Small,,,4.0,,,,,,,,,,,,,
memory,free_recall,4,13253340,13268077,13266463.0,13266880.0,418.0,418.0,1859.7,910.5,1920.0,1460.0,Animal_Land_Solid_Small,,,4.0,,,,,,,,,,,,,
memory,free_recall,4,13253340,13268077,13266894.0,13267058.0,165.0,165.0,1827.9,985.2,1591.0,1269.0,Object_Land_Solid_Small,,,4.0,,,,,,,,,,,,,
memory,free_recall,5,13661472,13680105,13661736.0,13661955.0,220.0,220.0,1989.9,1162.8,2249.0,891.0,Object_Sea_Pattern_Small,,,5.0,,,,,,,,,,,,,
memory,free_recall,5,13661472,13680105,13661966.0,13663038.0,1073.0,1073.0,1952.5,1089.7,1920.0,1080.0,fixation,,,5.0,,,,,,,,,,,,,
memory,free_recall,5,13661472,13680105,13663246.0,13663948.0,703.0,703.0,1964.7,1081.1,1920.0,1080.0,fixation,,,5.0,,,,,,,,,,,,,
memory,free_recall,5,13661472,13680105,13663964.0,13665434.0,1471.0,1471.0,1901.3,1048.7,1920.0,1080.0,fixation,,,5.0,,,,,,,,,,,,,
memory,free_recall,5,13661472,13680105,13665696.0,13666516.0,821.0,821.0,1849.8,1018.2,1591.0,1269.0,Animal_Land_Pattern_Small,,,5.0,,,,,,,,,,,,,
memory,free_recall,5,13661472,13680105,13666532.0,13667027.0,496.0,496.0,1954.7,976.3,1920.0,1460.0,Object_Sea_Solid_Large,,,5.0,,,,,,,,,,,,,
memory,free_recall,5,13661472,13680105,13667040.0,13667379.0,340.0,340.0,2058.1,976.2,2249.0,1269.0,Animal_Land_Solid_Large,,,5.0,,,,,,,,,,,,,
memory,free_recall,5,13661472,13680105,13667394.0,13668187.0,794.0,794.0,1995.9,993.0999999999999,2249.0,1269.0,Animal_Land_Solid_Large,,,5.0,,,,,,,,,,,,,
memory,free_recall,5,13661472,13680105,13668474.0,13669469.0,996.0,996.0,2007.6,928.3,2249.0,1269.0,Animal_Land_Solid_Large,,,5.0,,,,,,,,,,,,,
memory,free_recall,5,13661472,13680105,13669714.0,13670209.0,496.0,496.0,2192.3,907.0999999999999,2249.0,1269.0,Animal_Land_Solid_Large,,,5.0,,,,,,,,,,,,,
memory,free_recall,5,13661472,13680105,13670231.0,13671139.0,909.0,909.0,2021.9,871.8,1920.0,1460.0,Object_Sea_Solid_Large,,,5.0,,,,,,,,,,,,,
memory,free_recall,5,13661472,13680105,13671147.0,13671671.0,525.0,525.0,2064.2,874.9000000000001,2249.0,1269.0,Animal_Land_Solid_Large,,,5.0,,,,,,,,,,,,,
memory,free_recall,5,13661472,13680105,13671690.0,13671928.0,239.0,239.0,1899.4,905.5999999999999,1920.0,1460.0,Object_Sea_Solid_Large,,,5.0,,,,,,,,,,,,,
memory,free_recall,5,13661472,13680105,13672538.0,13673196.0,659.0,659.0,1800.6,923.3,1591.0,1269.0,Animal_Land_Pattern_Small,,,5.0,,,,,,,,,,,,,
memory,free_recall,5,13661472,13680105,13673715.0,13674055.0,341.0,341.0,1832.7,871.4000000000001,1920.0,1460.0,Object_Sea_Solid_Large,,,5.0,,,,,,,,,,,,,
memory,free_recall,5,13661472,13680105,13674078.0,13674840.0,763.0,763.0,1650.6,805.7,1591.0,1269.0,Animal_Land_Pattern_Small,,,5.0,,,,,,,,,,,,,
memory,free_recall,5,13661472,13680105,13675130.0,13675464.0,335.0,335.0,1671.9,861.3,1591.0,1269.0,Animal_Land_Pattern_Small,,,5.0,,,,,,,,,,,,,
memory,free_recall,5,13661472,13680105,13675504.0,13675755.0,252.0,252.0,1892.5,880.5999999999999,1920.0,1460.0,Object_Sea_Solid_Large,,,5.0,,,,,,,,,,,,,
memory,free_recall,5,13661472,13680105,13675790.0,13676168.0,379.0,379.0,1691.6,884.0999999999999,1591.0,1269.0,Animal_Land_Pattern_Small,,,5.0,,,,,,,,,,,,,
memory,free_recall,5,13661472,13680105,13676184.0,13676671.0,488.0,488.0,1594.2,892.4000000000001,1591.0,1269.0,Animal_Land_Pattern_Small,,,5.0,,,,,,,,,,,,,
memory,free_recall,5,13661472,13680105,13677000.0,13677354.0,355.0,355.0,1703.0,900.0,1591.0,1269.0,Animal_Land_Pattern_Small,,,5.0,,,,,,,,,,,,,
memory,free_recall,5,13661472,13680105,13677370.0,13679136.0,1767.0,1767.0,1793.9,895.2,1591.0,1269.0,Animal_Land_Pattern_Small,,,5.0,,,,,,,,,,,,,
memory,free_recall,5,13661472,13680105,13679509.0,13680002.0,494.0,494.0,1813.4,926.0999999999999,1591.0,1269.0,Animal_Land_Pattern_Small,,,5.0,,,,,,,,,,,,,
memory,free_recall,5,13661472,13680105,13680021.0,13680094.0,74.0,74.0,1884.9,982.5,1920.0,1460.0,Object_Sea_Solid_Large,,,5.0,,,,,,,,,,,,,
memory,free_recall,6,13975956,13992520,13976278.0,13977758.0,1481.0,1481.0,1903.7,1099.6,1920.0,1080.0,fixation,,,6.0,,,,,,,,,,,,,
memory,free_recall,6,13975956,13992520,13977999.0,13978231.0,233.0,233.0,2008.6,992.0999999999999,2249.0,1269.0,Animal_Sea_Solid_Large,,,6.0,,,,,,,,,,,,,
memory,free_recall,6,13975956,13992520,13978246.0,13978493.0,248.0,248.0,1930.9,961.8,1920.0,1460.0,Animal_Land_Pattern_Large,,,6.0,,,,,,,,,,,,,
