phase,event,onset,offset,trial_number,game,image,outcome,choice,correct,rt,letter,match,response,option,true_value,true_position,recalled_position,
encoding,fixation,17.597224500001175,18.857639166992158,1,1,Object_Land_Pattern_Large,2,,,,,,,,,,,
encoding,image,18.857764874992426,19.875536375009688,1,1,Object_Land_Pattern_Large,2,,,,,,,,,,,
encoding,value,19.875652499991702,25.891220791992964,1,1,Object_Land_Pattern_Large,2,,,,,,,,,,,
encoding,attention,25.891335666994564,28.905321041995194,1,1,Object_Land_Pattern_Large,2,None,None,None,,,,,,,,
encoding,fixation,28.90544662499451,30.16066162500647,2,1,Animal_Land_Solid_Small,-1,,,,,,,,,,,
encoding,image,30.160784500010777,31.171817791997455,2,1,Animal_Land_Solid_Small,-1,,,,,,,,,,,
encoding,value,31.171938292012783,37.18333429199993,2,1,Animal_Land_Solid_Small,-1,,,,,,,,,,,
encoding,attention,37.18344424999668,40.19994354201481,2,1,Animal_Land_Solid_Small,-1,-6,0,0.15318416600348428,,,,,,,,
encoding,fixation,40.200110625009984,41.705458874988835,3,1,Object_Land_Solid_Small,-2,,,,,,,,,,,
encoding,image,41.70556754199788,42.716577167011565,3,1,Object_Land_Solid_Small,-2,,,,,,,,,,,
encoding,value,42.71670679200906,48.72846083401237,3,1,Object_Land_Solid_Small,-2,,,,,,,,,,,
encoding,attention,48.72857154201483,51.74551116701332,3,1,Object_Land_Solid_Small,-2,-2,1,2.9429997080005705,,,,,,,,
encoding,fixation,51.7457121250045,52.749616709013935,4,1,Object_Sea_Pattern_Large,2,,,,,,,,,,,
encoding,image,52.749751083989395,53.75971408400801,4,1,Object_Sea_Pattern_Large,2,,,,,,,,,,,
encoding,value,53.7598320840043,59.77145787500194,4,1,Object_Sea_Pattern_Large,2,,,,,,,,,,,
encoding,attention,59.771574542013695,62.784214542014524,4,1,Object_Sea_Pattern_Large,2,None,None,None,,,,,,,,
encoding,fixation,62.784349833993474,63.78957095899386,5,1,Animal_Sea_Pattern_Large,-5,,,,,,,,,,,
encoding,image,63.78970462500001,64.8009481249901,5,1,Animal_Sea_Pattern_Large,-5,,,,,,,,,,,
encoding,value,64.80107874999521,70.81175300001632,5,1,Animal_Sea_Pattern_Large,-5,,,,,,,,,,,
encoding,attention,70.81188724999083,73.86062625001068,5,1,Animal_Sea_Pattern_Large,-5,None,None,None,,,,,,,,
encoding,fixation,73.86078604200156,75.11605949999648,6,1,Animal_Sea_Solid_Small,4,,,,,,,,,,,
encoding,image,75.11617300001672,76.12706870900001,6,1,Animal_Sea_Solid_Small,4,,,,,,,,,,,
encoding,value,76.12718179199146,82.13829837500816,6,1,Animal_Sea_Solid_Small,4,,,,,,,,,,,
encoding,attention,82.13842233401374,85.15055245900294,6,1,Animal_Sea_Solid_Small,4,None,None,None,,,,,,,,
n-back,,,,1,1,,,,1,None,N,False,None,,,,,
n-back,,,,2,1,,,,0,None,B,True,None,,,,,
n-back,,,,3,1,,,,1,None,V,False,None,,,,,
n-back,,,,4,1,,,,1,None,Z,False,None,,,,,
n-back,,,,5,1,,,,1,0.5714821250003297,V,True,1,,,,,
n-back,,,,6,1,,,,1,None,N,False,None,,,,,
n-back,,,,7,1,,,,0,None,V,True,None,,,,,
n-back,,,,8,1,,,,1,None,X,False,None,,,,,
n-back,,,,9,1,,,,1,None,Z,False,None,,,,,
n-back,,,,10,1,,,,1,0.5452514580101706,X,True,1,,,,,
n-back,,,,11,1,,,,1,None,X,False,None,,,,,
n-back,,,,12,1,,,,1,None,Z,False,None,,,,,
n-back,,,,13,1,,,,1,0.7587754170235712,X,True,1,,,,,
n-back,,,,14,1,,,,1,None,C,False,None,,,,,
n-back,,,,15,1,,,,1,None,C,False,None,,,,,
n-back,,,,16,1,,,,1,None,Z,False,None,,,,,
n-back,,,,17,1,,,,1,None,N,False,None,,,,,
n-back,,,,18,1,,,,1,None,V,False,None,,,,,
n-back,,,,19,1,,,,1,None,C,False,None,,,,,
n-back,,,,20,1,,,,0,0.32266291600535624,N,False,1,,,,,
n-back,,,,21,1,,,,0,None,C,True,None,,,,,
n-back,,,,22,1,,,,1,None,Z,False,None,,,,,
n-back,,,,23,1,,,,1,None,X,False,None,,,,,
n-back,,,,24,1,,,,1,None,C,False,None,,,,,
n-back,,,,25,1,,,,1,1.0887510000029579,X,True,1,,,,,
n-back,,,,26,1,,,,1,None,N,False,None,,,,,
n-back,,,,27,1,,,,0,None,X,True,None,,,,,
n-back,,,,28,1,,,,1,0.9173617089982145,N,True,1,,,,,
n-back,,,,29,1,,,,0,None,X,True,None,,,,,
n-back,,,,30,1,,,,1,None,C,False,None,,,,,
choice,fixation,188.93812100001378,189.944451709016,1,1,,,,,,,,,Large,,,,
choice,option,189.9538792920066,191.0739144590043,1,1,,,,,,,,,Large,,,,
choice,choice,191.07404674999998,196.81981554199592,1,1,,,1,0,4.736382959003095,,,,Large,,,,
choice,fixation,196.81994470901554,197.57506195901078,2,1,,,,,,,,,Small,,,,
choice,option,197.58391191699775,198.61185595899587,2,1,,,,,,,,,Small,,,,
choice,choice,198.61199529201258,204.43871616700199,2,1,,,2,0,4.816464667004766,,,,Small,,,,
choice,fixation,204.43890208398807,204.94429887499427,3,1,,,,,,,,,Animal,,,,
choice,option,204.95404574999702,205.9833229590149,3,1,,,,,,,,,Animal,,,,
choice,choice,205.98343150000437,212.74558429198805,3,1,,,1,0,5.747211125009926,,,,Animal,,,,
choice,fixation,212.74570837500505,213.25091937501566,4,1,,,,,,,,,Pattern,,,,
choice,option,213.2603177500132,214.2874711670156,4,1,,,,,,,,,Pattern,,,,
choice,choice,214.28761175001273,218.99256270899787,4,1,,,1,0,3.6953728329972364,,,,Pattern,,,,
choice,fixation,218.99268612501328,220.50107258401113,5,1,,,,,,,,,Sea,,,,
choice,option,220.50966554199113,221.5381330419914,5,1,,,,,,,,,Sea,,,,
choice,choice,221.53831670898944,226.47059120901395,5,1,,,1,1,3.922808332979912,,,,Sea,,,,
choice,fixation,226.47071699998924,227.47588962499867,6,1,,,,,,,,,Solid,,,,
choice,option,227.4848981249961,228.51074516700464,6,1,,,,,,,,,Solid,,,,
choice,choice,228.51087216701126,233.3453320839908,6,1,,,2,0,3.8246209159842692,,,,Solid,,,,
choice,fixation,233.3454951249878,234.10058287499123,7,1,,,,,,,,,Land,,,,
choice,option,234.10942458399222,235.136008417001,7,1,,,,,,,,,Land,,,,
choice,choice,235.13613387499936,239.80435987500823,7,1,,,1,0,3.658940333989449,,,,Land,,,,
choice,fixation,239.80451104199165,240.80936608399497,8,1,,,,,,,,,Object,,,,
choice,option,240.819175792014,241.84647858398966,8,1,,,,,,,,,Object,,,,
choice,choice,241.8465887090133,246.15231725000194,8,1,,,2,0,3.295943624980282,,,,Object,,,,
memory,free_recall,442.0189312089933,461.380630959,0,1,,,,,,,,,,,,,
memory,value_recall,505.7723946250044,508.9393677920161,1,1,Animal_Land_Solid_Small,,,,3.163680124998791,,,,,-1,,,
memory,value_recall,510.23682600000757,515.2347764169972,2,1,Object_Sea_Pattern_Large,,,,4.993549457984045,,,,,2,,,
memory,value_recall,516.2829182090063,520.7006798750081,3,1,Object_Land_Solid_Small,,,,4.414949250000063,,,,,-2,,,
memory,value_recall,522.4964580420055,527.7872462090163,4,1,Object_Land_Pattern_Large,,,,5.286846000002697,,,,,2,,,
memory,value_recall,529.0834756249969,532.2031016669935,5,1,Animal_Sea_Solid_Small,,,,3.115278582990868,,,,,4,,,
memory,value_recall,533.4996845420101,536.5560487500043,6,1,Animal_Sea_Pattern_Large,,,,3.052213041984942,,,,,-5,,,
memory,spatial_recall,557.5624587920029,567.608701374993,6,1,Object_Land_Solid_Small,,,1,10.04315700000734,,,,,,"[-329, -190]","[-329, -190]",
memory,spatial_recall,568.9208090419997,575.1252471670159,6,1,Object_Land_Pattern_Large,,,1,6.20045662499615,,,,,,"[0, 380]","[0, 380]",
memory,spatial_recall,576.6813564999902,579.4089233340055,6,1,Animal_Land_Solid_Small,,,1,2.7232813329901546,,,,,,"[0, -380]","[0, -380]",
memory,spatial_recall,581.4677569170017,583.924916042015,6,1,Object_Sea_Pattern_Large,,,1,2.453262374998303,,,,,,"[329, -190]","[329, -190]",
memory,spatial_recall,585.9813595419982,588.8718192919914,6,1,Animal_Sea_Pattern_Large,,,1,2.886400874995161,,,,,,"[329, 189]","[329, 189]",
memory,spatial_recall,590.6764628340025,594.328647834016,6,1,Animal_Sea_Solid_Small,,,1,3.6470978329889476,,,,,,"[-329, 190]","[-329, 190]",
encoding,fixation,21.521570292010438,22.7782015420089,7,2,Object_Sea_Solid_Large,-9,,,,,,,,,,,
encoding,image,22.77832320801099,23.793473166995682,7,2,Object_Sea_Solid_Large,-9,,,,,,,,,,,
encoding,value,23.793575999996392,29.806560249999166,7,2,Object_Sea_Solid_Large,-9,,,,,,,,,,,
encoding,attention,29.80668133299332,32.82730454200646,7,2,Object_Sea_Solid_Large,-9,-9,1,1.3323005420097616,,,,,,,,
encoding,fixation,32.82745479198638,34.332523582997965,8,2,Object_Land_Solid_Large,8,,,,,,,,,,,
encoding,image,34.332642666995525,35.34407733299304,8,2,Object_Land_Solid_Large,8,,,,,,,,,,,
encoding,value,35.344194542005425,41.3550443330023,8,2,Object_Land_Solid_Large,8,,,,,,,,,,,
encoding,attention,41.3551555830054,44.37457283301046,8,2,Object_Land_Solid_Large,8,+8,1,0.7860397910117172,,,,,,,,
encoding,fixation,44.374723541986896,44.87976833299035,9,2,Animal_Sea_Solid_Large,9,,,,,,,,,,,
encoding,image,44.87987991698901,45.89240474998951,9,2,Animal_Sea_Solid_Large,9,,,,,,,,,,,
encoding,value,45.892532208003104,51.90414816699922,9,2,Animal_Sea_Solid_Large,9,,,,,,,,,,,
encoding,attention,51.90426949999528,54.92622120800661,9,2,Animal_Sea_Solid_Large,9,+9,1,0.6185000830155332,,,,,,,,
encoding,fixation,54.92637870798353,56.43132337499992,10,2,Object_Land_Pattern_Small,7,,,,,,,,,,,
encoding,image,56.431436624989146,57.44357345800381,10,2,Object_Land_Pattern_Small,7,,,,,,,,,,,
encoding,value,57.44372862498858,63.45597412501229,10,2,Object_Land_Pattern_Small,7,,,,,,,,,,,
encoding,attention,63.4560877920012,66.47352508298354,10,2,Object_Land_Pattern_Small,7,+7,1,0.65545216598548,,,,,,,,
encoding,fixation,66.47367249999661,67.97854466698482,11,2,Animal_Sea_Pattern_Small,-3,,,,,,,,,,,
encoding,image,67.97865137498593,68.9924191669852,11,2,Animal_Sea_Pattern_Small,-3,,,,,,,,,,,
encoding,value,68.99253695798689,75.00439841698972,11,2,Animal_Sea_Pattern_Small,-3,,,,,,,,,,,
encoding,attention,75.00450949999504,78.02328799999668,11,2,Animal_Sea_Pattern_Small,-3,-3,1,1.2740104159747716,,,,,,,,
encoding,fixation,78.02344187500421,78.52848270800314,12,2,Animal_Land_Pattern_Small,-1,,,,,,,,,,,
encoding,image,78.52859995799372,79.53969729199889,12,2,Animal_Land_Pattern_Small,-1,,,,,,,,,,,
encoding,value,79.53982141698361,85.55135762499413,12,2,Animal_Land_Pattern_Small,-1,,,,,,,,,,,
encoding,attention,85.55154600000242,88.56819670798723,12,2,Animal_Land_Pattern_Small,-1,-1,1,0.8126992500037886,,,,,,,,
n-back,,,,31,2,,,,1,None,X,False,None,,,,,
n-back,,,,32,2,,,,1,None,Z,False,None,,,,,
n-back,,,,33,2,,,,1,None,V,False,None,,,,,
n-back,,,,34,2,,,,1,None,N,False,None,,,,,
n-back,,,,35,2,,,,1,None,N,False,None,,,,,
n-back,,,,36,2,,,,0,0.4124665840063244,V,False,1,,,,,
n-back,,,,37,2,,,,1,None,X,False,None,,,,,
n-back,,,,38,2,,,,1,None,B,False,None,,,,,
n-back,,,,39,2,,,,1,None,Z,False,None,,,,,
n-back,,,,40,2,,,,1,None,V,False,None,,,,,
n-back,,,,41,2,,,,1,0.6836310409998987,Z,True,1,,,,,
n-back,,,,42,2,,,,0,None,V,True,None,,,,,
n-back,,,,43,2,,,,0,None,Z,True,None,,,,,
n-back,,,,44,2,,,,1,None,X,False,None,,,,,
n-back,,,,45,2,,,,1,None,C,False,None,,,,,
n-back,,,,46,2,,,,1,0.5477081660064869,X,True,1,,,,,
n-back,,,,47,2,,,,0,None,C,True,None,,,,,
n-back,,,,48,2,,,,1,None,N,False,None,,,,,
n-back,,,,49,2,,,,1,None,X,False,None,,,,,
n-back,,,,50,2,,,,1,0.584768750006333,N,True,1,,,,,
n-back,,,,51,2,,,,1,None,B,False,None,,,,,
n-back,,,,52,2,,,,1,None,Z,False,None,,,,,
n-back,,,,53,2,,,,1,None,Z,False,None,,,,,
n-back,,,,54,2,,,,1,0.39027504200930707,Z,True,1,,,,,
n-back,,,,55,2,,,,1,None,N,False,None,,,,,
n-back,,,,56,2,,,,1,None,C,False,None,,,,,
n-back,,,,57,2,,,,1,None,B,False,None,,,,,
n-back,,,,58,2,,,,1,0.3541257920151111,C,True,1,,,,,
n-back,,,,59,2,,,,0,None,B,True,None,,,,,
n-back,,,,60,2,,,,0,None,C,True,None,,,,,
choice,fixation,170.0052213750023,170.7602045419917,9,2,,,,,,,,,Pattern,,,,
choice,option,170.76906408299692,171.79525812499924,9,2,,,,,,,,,Pattern,,,,
choice,choice,171.79538175000926,177.42282266699476,9,2,,,1,1,4.617277500015916,,,,Pattern,,,,
choice,fixation,177.42295283300336,178.42786579200765,10,2,,,,,,,,,Large,,,,
choice,option,178.43675129199983,179.4634422500094,10,2,,,,,,,,,Large,,,,
choice,choice,179.46356945799198,188.32996387500316,10,2,,,1,1,7.855851999978768,,,,Large,,,,
choice,fixation,188.3300882919866,189.5850566670124,11,2,,,,,,,,,Object,,,,
choice,option,189.5946774999902,190.62117658299394,11,2,,,,,,,,,Object,,,,
choice,choice,190.62129362500855,198.05268154200166,11,2,,,2,0,6.421390667004744,,,,Object,,,,
choice,fixation,198.05281233298592,198.80994387500687,12,2,,,,,,,,,Small,,,,
choice,option,198.81901241699234,199.84484745800728,12,2,,,,,,,,,Small,,,,
choice,choice,199.84498612501193,204.28590124999755,12,2,,,2,0,3.4301382080011535,,,,Small,,,,
choice,fixation,204.28605366699048,205.7934826670098,13,2,,,,,,,,,Solid,,,,
choice,option,205.8026705830125,206.8285047079844,13,2,,,,,,,,,Solid,,,,
choice,choice,206.82862145800027,212.72933408300742,13,2,,,1,1,4.891246582992608,,,,Solid,,,,
choice,fixation,212.72945487499237,213.2349447919987,14,2,,,,,,,,,Animal,,,,
choice,option,213.24418770798366,214.27033916700748,14,2,,,,,,,,,Animal,,,,
choice,choice,214.27046270799474,222.03023683300125,14,2,,,2,0,6.749419583007693,,,,Animal,,,,
choice,fixation,222.03037699998822,222.7852135419962,15,2,,,,,,,,,Land,,,,
choice,option,222.79398625000613,223.81973679200746,15,2,,,,,,,,,Land,,,,
choice,choice,223.8198527499917,226.78288854198763,15,2,,,1,1,1.9509117079724092,,,,Land,,,,
choice,fixation,226.78302904200973,228.2885285000084,16,2,,,,,,,,,Sea,,,,
choice,option,228.29686974998913,229.3236952080042,16,2,,,,,,,,,Sea,,,,
choice,choice,229.32380899999407,232.49746995800524,16,2,,,1,0,2.164059791015461,,,,Sea,,,,
memory,free_recall,272.2259029170091,289.4479645419924,6,2,,,,,,,,,,,,,
memory,value_recall,301.809987332992,305.46553379201214,7,2,Animal_Land_Pattern_Small,,,,3.651485167007195,,,,,-1,,,
memory,value_recall,307.0112258330046,312.04255795798963,8,2,Animal_Sea_Solid_Large,,,,5.027308499993524,,,,,9,,,
memory,value_recall,313.8386576669873,318.8000344579923,9,2,Object_Land_Pattern_Small,,,,4.956697707995772,,,,,7,,,
memory,value_recall,320.84563016699394,326.3212624579901,10,2,Object_Sea_Solid_Large,,,,5.47165512497304,,,,,-9,,,
memory,value_recall,328.1170121670002,330.552756124991,11,2,Animal_Sea_Pattern_Small,,,,2.431566583982203,,,,,-3,,,
memory,value_recall,331.6001501249848,333.658130374999,12,2,Object_Land_Solid_Large,,,,2.0553046250133775,,,,,8,,,
memory,spatial_recall,340.830855667009,343.5190281670075,12,2,Object_Land_Pattern_Small,,,1,2.684294874983607,,,,,,"[-329, 190]","[-329, 190]",
memory,spatial_recall,344.83085574998404,347.24888229198405,12,2,Object_Sea_Solid_Large,,,1,2.4130499589955434,,,,,,"[0, -380]","[0, -380]",
memory,spatial_recall,349.30112362498767,352.43558229200426,12,2,Object_Land_Solid_Large,,,1,3.130148124997504,,,,,,"[329, 189]","[329, 189]",
memory,spatial_recall,354.2435401669936,358.1019712499983,12,2,Animal_Sea_Pattern_Small,,,1,3.854396500013536,,,,,,"[0, 380]","[0, 380]",
memory,spatial_recall,360.1630215829937,363.30248183300137,12,2,Animal_Sea_Solid_Large,,,1,3.1355088330165017,,,,,,"[329, -190]","[329, -190]",
memory,spatial_recall,364.8604664170125,367.1027190829918,12,2,Animal_Land_Pattern_Small,,,1,2.238243874977343,,,,,,"[-329, -190]","[-329, -190]",
encoding,fixation,18.10621658299351,18.86260233298526,13,3,Animal_Land_Pattern_Large,-6,,,,,,,,,,,
encoding,image,18.862707416992635,19.87378137500491,13,3,Animal_Land_Pattern_Large,-6,,,,,,,,,,,
encoding,value,19.873894374992233,25.88689779199194,13,3,Animal_Land_Pattern_Large,-6,,,,,,,,,,,
encoding,attention,25.88701466700877,28.904689999995753,13,3,Animal_Land_Pattern_Large,-6,-6,1,1.047193917009281,,,,,,,,
encoding,fixation,28.90483633300755,30.161503957991954,14,3,Animal_Sea_Solid_Large,8,,,,,,,,,,,
encoding,image,30.16161574999569,31.173462207982084,14,3,Animal_Sea_Solid_Large,8,,,,,,,,,,,
encoding,value,31.17357866698876,37.1855969169992,14,3,Animal_Sea_Solid_Large,8,,,,,,,,,,,
encoding,attention,37.18578587498632,40.20284112499212,14,3,Animal_Sea_Solid_Large,8,+8,1,1.1726698749989737,,,,,,,,
encoding,fixation,40.202991124999244,40.95813449998968,15,3,Object_Land_Pattern_Large,-7,,,,,,,,,,,
encoding,image,40.95824899998843,41.970136041985825,15,3,Object_Land_Pattern_Large,-7,,,,,,,,,,,
encoding,value,41.97025583300274,47.98282812500838,15,3,Object_Land_Pattern_Large,-7,,,,,,,,,,,
encoding,attention,47.982947167009115,51.00270145799732,15,3,Object_Land_Pattern_Large,-7,-7,1,0.9907432920008432,,,,,,,,
encoding,fixation,51.002872582990676,52.00814416698995,16,3,Object_Land_Solid_Small,3,,,,,,,,,,,
encoding,image,52.00826483298442,53.01976995798759,16,3,Object_Land_Solid_Small,3,,,,,,,,,,,
encoding,value,53.01987774998997,59.03294183299295,16,3,Object_Land_Solid_Small,3,,,,,,,,,,,
encoding,attention,59.033062917005736,62.053356624994194,16,3,Object_Land_Solid_Small,3,+1,0,0.9790406250103842,,,,,,,,
encoding,fixation,62.05351445800625,63.55908087498392,17,3,Animal_Sea_Solid_Small,-8,,,,,,,,,,,
encoding,image,63.559237749985186,64.56966862498666,17,3,Animal_Sea_Solid_Small,-8,,,,,,,,,,,
encoding,value,64.569786499982,70.5820665420033,17,3,Animal_Sea_Solid_Small,-8,,,,,,,,,,,
encoding,attention,70.58219754198217,73.59919520799303,17,3,Animal_Sea_Solid_Small,-8,-8,1,0.6246730000129901,,,,,,,,
encoding,fixation,73.59934641700238,74.60417499998584,18,3,Object_Sea_Pattern_Small,2,,,,,,,,,,,
encoding,image,74.60429112499696,75.61527654199745,18,3,Object_Sea_Pattern_Small,2,,,,,,,,,,,
encoding,value,75.61540433298796,81.62691383299534,18,3,Object_Sea_Pattern_Small,2,,,,,,,,,,,
encoding,attention,81.62706883298233,84.64447062500403,18,3,Object_Sea_Pattern_Small,2,+2,1,1.3313577499939129,,,,,,,,
n-back,,,,61,3,,,,0,None,N,True,None,,,,,
n-back,,,,62,3,,,,1,None,X,False,None,,,,,
n-back,,,,63,3,,,,1,None,Z,False,None,,,,,
n-back,,,,64,3,,,,1,0.3375841249944642,X,True,1,,,,,
n-back,,,,65,3,,,,0,None,Z,True,None,,,,,
n-back,,,,66,3,,,,1,None,B,False,None,,,,,
n-back,,,,67,3,,,,1,0.6754921250103507,Z,True,1,,,,,
n-back,,,,68,3,,,,1,None,C,False,None,,,,,
n-back,,,,69,3,,,,1,None,N,False,None,,,,,
n-back,,,,70,3,,,,1,0.3708235420053825,C,True,1,,,,,
n-back,,,,71,3,,,,1,None,C,False,None,,,,,
n-back,,,,72,3,,,,1,None,Z,False,None,,,,,
n-back,,,,73,3,,,,1,0.386147000011988,C,True,1,,,,,
n-back,,,,74,3,,,,1,None,X,False,None,,,,,
n-back,,,,75,3,,,,0,None,C,True,None,,,,,
n-back,,,,76,3,,,,1,None,V,False,None,,,,,
n-back,,,,77,3,,,,1,None,V,False,None,,,,,
n-back,,,,78,3,,,,1,None,B,False,None,,,,,
n-back,,,,79,3,,,,1,0.34383837500354275,V,True,1,,,,,
n-back,,,,80,3,,,,0,None,B,True,None,,,,,
n-back,,,,81,3,,,,1,None,B,False,None,,,,,
n-back,,,,82,3,,,,1,None,C,False,None,,,,,
n-back,,,,83,3,,,,1,None,X,False,None,,,,,
n-back,,,,84,3,,,,1,None,B,False,None,,,,,
n-back,,,,85,3,,,,1,None,N,False,None,,,,,
n-back,,,,86,3,,,,1,None,V,False,None,,,,,
n-back,,,,87,3,,,,1,None,C,False,None,,,,,
n-back,,,,88,3,,,,1,0.3361175419995561,V,True,1,,,,,
n-back,,,,89,3,,,,1,None,V,False,None,,,,,
n-back,,,,90,3,,,,1,None,C,False,None,,,,,
choice,fixation,160.410248375003,161.41498262499226,17,3,,,,,,,,,Solid,,,,
choice,option,161.42391237500124,162.45048945798771,17,3,,,,,,,,,Solid,,,,
choice,choice,162.45063124998705,164.7929621670046,17,3,,,2,0,1.3325359580048826,,,,Solid,,,,
choice,fixation,164.7931866250001,166.29896216699854,18,3,,,,,,,,,Pattern,,,,
choice,option,166.3083806670038,167.3347225000034,18,3,,,,,,,,,Pattern,,,,
choice,choice,167.3348455420055,177.6261664170015,18,3,,,2,1,9.280953374982346,,,,Pattern,,,,
choice,fixation,177.62630995799555,178.13217799999984,19,3,,,,,,,,,Small,,,,
choice,option,178.14109979200293,179.16689608298475,19,3,,,,,,,,,Small,,,,
choice,choice,179.1670147079858,182.2552985829825,19,3,,,1,0,2.0781399169936776,,,,Small,,,,
choice,fixation,182.25543354198453,183.76056412499747,20,3,,,,,,,,,Animal,,,,
choice,option,183.7695341249928,184.79828216700116,20,3,,,,,,,,,Animal,,,,
choice,choice,184.79840129200602,192.07133954198798,20,3,,,2,1,6.263173959014239,,,,Animal,,,,
choice,fixation,192.07146599999396,193.0763977500028,21,3,,,,,,,,,Large,,,,
choice,option,193.08553449998726,194.11200324998936,21,3,,,,,,,,,Large,,,,
choice,choice,194.11212541698478,198.08233245799784,21,3,,,2,1,2.9589774159830995,,,,Large,,,,
choice,fixation,198.08245529199485,198.58747091700207,22,3,,,,,,,,,Object,,,,
choice,option,198.5968496669957,199.62260154201067,22,3,,,,,,,,,Object,,,,
choice,choice,199.62279254200985,203.96810487500625,22,3,,,1,0,3.3355232090107165,,,,Object,,,,
choice,fixation,203.9682264580042,205.22317474999,23,3,,,,,,,,,Land,,,,
choice,option,205.23219587499625,206.25874295798712,23,3,,,,,,,,,Land,,,,
choice,choice,206.2588526670006,210.8565292499843,23,3,,,1,0,3.5845553330145776,,,,Land,,,,
choice,fixation,210.85668366699247,211.61171729199123,24,3,,,,,,,,,Sea,,,,
choice,option,211.62031704199035,212.64829254199867,24,3,,,,,,,,,Sea,,,,
choice,choice,212.64842241699807,217.4195189999882,24,3,,,2,0,3.761364332982339,,,,Sea,,,,
memory,free_recall,262.2008365000074,275.3955295420019,12,3,,,,,,,,,,,,,
memory,value_recall,287.04286124999635,292.85881429200526,13,3,Animal_Land_Pattern_Large,,,,5.811277082975721,,,,,-6,,,
memory,value_recall,294.15806729200995,296.0272548329958,14,3,Object_Sea_Pattern_Small,,,,1.8625932080030907,,,,,2,,,
memory,value_recall,298.07359933300177,300.77049220798654,15,3,Object_Land_Pattern_Large,,,,2.692880749993492,,,,,-7,,,
memory,value_recall,301.814969708008,306.9695294999983,16,3,Animal_Sea_Solid_Small,,,,5.151275333017111,,,,,-8,,,
memory,value_recall,309.01471049999236,310.75390370798414,17,3,Object_Land_Solid_Small,,,,1.7349555419932585,,,,,3,,,
memory,value_recall,312.2989495419897,319.1140069999965,18,3,Animal_Sea_Solid_Large,,,,6.81092495797202,,,,,8,,,
memory,spatial_recall,329.10999012499815,331.37368766698637,18,3,Object_Land_Solid_Small,,,1,2.260352666984545,,,,,,"[-329, -190]","[-329, -190]",
memory,spatial_recall,332.43564625,335.2416924170102,18,3,Object_Land_Pattern_Large,,,1,2.8036524160124827,,,,,,"[0, 380]","[0, 380]",
memory,spatial_recall,337.04991454200353,338.91087945800973,18,3,Animal_Sea_Solid_Small,,,1,1.8569592499989085,,,,,,"[-329, 190]","[-329, 190]",
memory,spatial_recall,340.2224320000096,342.2078446249943,18,3,Animal_Sea_Solid_Large,,,1,1.9814416670124047,,,,,,"[329, -190]","[329, -190]",
memory,spatial_recall,344.01656858299975,345.6316845419933,18,3,Object_Sea_Pattern_Small,,,1,1.611138000007486,,,,,,"[329, 189]","[329, 189]",
memory,spatial_recall,346.6825837499928,348.6375183330092,18,3,Animal_Land_Pattern_Large,,,1,1.9515893750067335,,,,,,"[0, -380]","[0, -380]",
encoding,fixation,9.118793250003364,10.624477458011825,19,4,Animal_Land_Solid_Small,-9,,,,,,,,,,,
encoding,image,10.62460275000194,11.635439583013067,19,4,Animal_Land_Solid_Small,-9,,,,,,,,,,,
encoding,value,11.635552374995314,17.65096800000174,19,4,Animal_Land_Solid_Small,-9,,,,,,,,,,,
encoding,attention,17.651114417007193,20.669242208008654,19,4,Animal_Land_Solid_Small,-9,-9,1,1.5899120410031173,,,,,,,,
encoding,fixation,20.66940329200588,21.17439933301648,20,4,Object_Sea_Pattern_Large,-4,,,,,,,,,,,
encoding,image,21.174517957988428,22.185322667006403,20,4,Object_Sea_Pattern_Large,-4,,,,,,,,,,,
encoding,value,22.18545516699669,28.197415750008076,20,4,Object_Sea_Pattern_Large,-4,,,,,,,,,,,
encoding,attention,28.197605207999004,31.216579708008794,20,4,Object_Sea_Pattern_Large,-4,-4,1,1.517764874995919,,,,,,,,
encoding,fixation,31.216769457998453,31.72182204198907,21,4,Animal_Sea_Solid_Small,2,,,,,,,,,,,
encoding,image,31.72192675000406,32.73446670800331,21,4,Animal_Sea_Solid_Small,2,,,,,,,,,,,
encoding,value,32.734588416991755,38.74666324999998,21,4,Animal_Sea_Solid_Small,2,,,,,,,,,,,
encoding,attention,38.74677537500975,41.76523749998887,21,4,Animal_Sea_Solid_Small,2,+2,1,0.9107158750121016,,,,,,,,
encoding,fixation,41.76538154200534,42.52027920799446,22,4,Object_Land_Pattern_Large,2,,,,,,,,,,,
encoding,image,42.52039516699733,43.533432208001614,22,4,Object_Land_Pattern_Large,2,,,,,,,,,,,
encoding,value,43.53356487498968,49.5459262499935,22,4,Object_Land_Pattern_Large,2,,,,,,,,,,,
encoding,attention,49.546055375016294,52.564377750008134,22,4,Object_Land_Pattern_Large,2,+2,1,0.9666222910163924,,,,,,,,
encoding,fixation,52.56461104200571,53.319759417005116,23,4,Animal_Sea_Pattern_Large,4,,,,,,,,,,,
encoding,image,53.31987362500513,54.33038645799388,23,4,Animal_Sea_Pattern_Large,4,,,,,,,,,,,
encoding,value,54.33050441701198,60.3409850000171,23,4,Animal_Sea_Pattern_Large,4,,,,,,,,,,,
encoding,attention,60.341104082996026,63.35790979201556,23,4,Animal_Sea_Pattern_Large,4,+4,1,1.255572415975621,,,,,,,,
encoding,fixation,63.35812437499408,64.11321833299007,24,4,Object_Land_Solid_Small,6,,,,,,,,,,,
encoding,image,64.11333779199049,65.12459170800867,24,4,Object_Land_Solid_Small,6,,,,,,,,,,,
encoding,value,65.12470020799083,71.13732308300678,24,4,Object_Land_Solid_Small,6,,,,,,,,,,,
encoding,attention,71.13752158300485,74.15553395799361,24,4,Object_Land_Solid_Small,6,+6,1,1.0012025420146529,,,,,,,,
n-back,,,,91,4,,,,0,None,B,True,None,,,,,
n-back,,,,92,4,,,,0,None,V,True,None,,,,,
n-back,,,,93,4,,,,1,None,C,False,None,,,,,
n-back,,,,94,4,,,,1,None,N,False,None,,,,,
n-back,,,,95,4,,,,1,None,N,False,None,,,,,
n-back,,,,96,4,,,,1,None,X,False,None,,,,,
n-back,,,,97,4,,,,1,None,X,False,None,,,,,
n-back,,,,98,4,,,,1,0.41430595802376047,X,True,1,,,,,
n-back,,,,99,4,,,,1,None,N,False,None,,,,,
n-back,,,,100,4,,,,1,None,B,False,None,,,,,
n-back,,,,101,4,,,,1,0.7590727089846041,N,True,1,,,,,
n-back,,,,102,4,,,,1,None,Z,False,None,,,,,
n-back,,,,103,4,,,,0,None,N,True,None,,,,,
n-back,,,,104,4,,,,1,None,N,False,None,,,,,
n-back,,,,105,4,,,,1,None,C,False,None,,,,,
n-back,,,,106,4,,,,1,None,V,False,None,,,,,
n-back,,,,107,4,,,,1,None,X,False,None,,,,,
n-back,,,,108,4,,,,0,None,V,True,None,,,,,
n-back,,,,109,4,,,,1,None,N,False,None,,,,,
n-back,,,,110,4,,,,0,None,V,True,None,,,,,
n-back,,,,111,4,,,,1,None,C,False,None,,,,,
n-back,,,,112,4,,,,1,None,Z,False,None,,,,,
n-back,,,,113,4,,,,1,0.3556296249735169,C,True,1,,,,,
n-back,,,,114,4,,,,1,None,V,False,None,,,,,
n-back,,,,115,4,,,,1,None,B,False,None,,,,,
n-back,,,,116,4,,,,0,0.7041697500098962,C,False,1,,,,,
n-back,,,,117,4,,,,0,None,B,True,None,,,,,
n-back,,,,118,4,,,,1,None,B,False,None,,,,,
n-back,,,,119,4,,,,1,None,C,False,None,,,,,
n-back,,,,120,4,,,,1,0.3643428329960443,B,True,1,,,,,
choice,fixation,148.53222699998878,149.28713350000908,25,4,,,,,,,,,Land,,,,
choice,option,149.29502300001332,150.32069525000406,25,4,,,,,,,,,Land,,,,
choice,choice,150.32079912500922,158.31676583300577,25,4,,,1,0,6.985403749975376,,,,Land,,,,
choice,fixation,158.31693308299873,159.07193800000823,26,4,,,,,,,,,Object,,,,
choice,option,159.08125474999542,160.10703941699467,26,4,,,,,,,,,Object,,,,
choice,choice,160.10716545800096,164.33412883299752,26,4,,,2,0,3.215086208016146,,,,Object,,,,
choice,fixation,164.33427187500638,165.33920712501276,27,4,,,,,,,,,Sea,,,,
choice,option,165.34817541699158,166.37517429201398,27,4,,,,,,,,,Sea,,,,
choice,choice,166.37533004200668,168.52491533299326,27,4,,,1,1,1.140263084002072,,,,Sea,,,,
choice,fixation,168.52504300000146,169.77991191699402,28,4,,,,,,,,,Large,,,,
choice,option,169.78875574999256,170.81469145801384,28,4,,,,,,,,,Large,,,,
choice,choice,170.81483970800764,179.00575608300278,28,4,,,2,0,7.181175625009928,,,,Large,,,,
choice,fixation,179.00590587500483,180.26096529199276,29,4,,,,,,,,,Animal,,,,
choice,option,180.27055824999115,181.30046012499952,29,4,,,,,,,,,Animal,,,,
choice,choice,181.3005701249931,184.02921308300574,29,4,,,1,0,1.7187918749987148,,,,Animal,,,,
choice,fixation,184.02935674999026,185.03461008300656,30,4,,,,,,,,,Small,,,,
choice,option,185.04348058300093,186.06919791700784,30,4,,,,,,,,,Small,,,,
choice,choice,186.06931766698835,189.42215100000612,30,4,,,1,0,2.343460000003688,,,,Small,,,,
choice,fixation,189.4222727919987,190.9273641250038,31,4,,,,,,,,,Solid,,,,
choice,option,190.9369171250146,191.96266295801615,31,4,,,,,,,,,Solid,,,,
choice,choice,191.9628028330044,198.42152125001303,31,4,,,2,1,5.449042415973963,,,,Solid,,,,
choice,fixation,198.42166095800349,199.17690091699478,32,4,,,,,,,,,Pattern,,,,
choice,option,199.1858022499946,200.2121602499974,32,4,,,,,,,,,Pattern,,,,
choice,choice,200.21227204200113,206.34892316701007,32,4,,,1,1,5.126479083002778,,,,Pattern,,,,
memory,free_recall,220.53520700000809,235.27088095800718,18,4,,,,,,,,,,,,,
memory,value_recall,241.06437654199544,250.83161125000333,19,4,Animal_Sea_Pattern_Large,,,,9.76311933400575,,,,,4,,,
memory,value_recall,252.87685487500858,258.5752615829988,20,4,Animal_Sea_Solid_Small,,,,5.691601750004338,,,,,2,,,
memory,value_recall,259.87017395801377,267.95768320799107,21,4,Object_Sea_Pattern_Large,,,,8.083419957984006,,,,,-4,,,
memory,value_recall,269.253516124998,273.1427306669939,22,4,Animal_Land_Solid_Small,,,,3.885055666003609,,,,,-9,,,
memory,value_recall,275.1877902080014,278.032735374989,23,4,Object_Land_Pattern_Large,,,,2.8409489170007873,,,,,2,,,
memory,value_recall,279.32829916701303,286.9097845419892,24,4,Object_Land_Solid_Small,,,,7.577260082995053,,,,,6,,,
memory,spatial_recall,291.53546616699896,294.6837724169891,24,4,Animal_Land_Solid_Small,,,1,3.1442742079962045,,,,,,"[0, -380]","[0, -380]",
memory,spatial_recall,295.74271900000167,299.2896699999983,24,4,Animal_Sea_Solid_Small,,,1,3.5443588749913033,,,,,,"[-329, 190]","[-329, 190]",
memory,spatial_recall,300.84824145800667,302.3100339169905,24,4,Object_Land_Pattern_Large,,,1,1.4577911249944009,,,,,,"[0, 380]","[0, 380]",
memory,spatial_recall,304.11779662501067,306.65001158299856,24,4,Object_Land_Solid_Small,,,1,2.5280309579975437,,,,,,"[-329, -190]","[-329, -190]",
memory,spatial_recall,308.4602576250036,310.9794121670129,24,4,Object_Sea_Pattern_Large,,,1,2.513774040999124,,,,,,"[329, -190]","[329, -190]",
memory,spatial_recall,312.5386473330145,316.5657036670018,24,4,Animal_Sea_Pattern_Large,,,1,4.023039166000672,,,,,,"[329, 189]","[329, 189]",
encoding,fixation,9.00931049999781,9.515119999996386,25,5,Animal_Land_Solid_Large,-5,,,,,,,,,,,
encoding,image,9.515233708021697,10.526686625002185,25,5,Animal_Land_Solid_Large,-5,,,,,,,,,,,
encoding,value,10.526803208020283,16.54048279201379,25,5,Animal_Land_Solid_Large,-5,,,,,,,,,,,
encoding,attention,16.54066216701176,19.55829100002302,25,5,Animal_Land_Solid_Large,-5,-5,1,1.1893993749981746,,,,,,,,
encoding,fixation,19.558510708011454,20.813758000003872,26,5,Animal_Sea_Solid_Small,-2,,,,,,,,,,,
encoding,image,20.813866667012917,21.82458499999484,26,5,Animal_Sea_Solid_Small,-2,,,,,,,,,,,
encoding,value,21.824696916999528,27.837204000010388,26,5,Animal_Sea_Solid_Small,-2,,,,,,,,,,,
encoding,attention,27.83733745801146,30.855484792002244,26,5,Animal_Sea_Solid_Small,-2,-2,1,1.2357601670082659,,,,,,,,
encoding,fixation,30.85564166700351,31.61072975001298,27,5,Object_Sea_Pattern_Small,-7,,,,,,,,,,,
encoding,image,31.610837667016312,32.62459291701089,27,5,Object_Sea_Pattern_Small,-7,,,,,,,,,,,
encoding,value,32.624701916996855,38.63619991700398,27,5,Object_Sea_Pattern_Small,-7,,,,,,,,,,,
encoding,attention,38.63629595801467,41.65363262500614,27,5,Object_Sea_Pattern_Small,-7,-7,1,1.0417756250244565,,,,,,,,
encoding,fixation,41.65385800000513,42.65922358300304,28,5,Object_Sea_Solid_Large,8,,,,,,,,,,,
encoding,image,42.65934149999521,43.67053233299521,28,5,Object_Sea_Solid_Large,8,,,,,,,,,,,
encoding,value,43.670643083023606,49.68272216699552,28,5,Object_Sea_Solid_Large,8,,,,,,,,,,,
encoding,attention,49.68284045800101,52.70119404201978,28,5,Object_Sea_Solid_Large,8,+8,1,1.661583332985174,,,,,,,,
encoding,fixation,52.70135937500163,54.208025958010694,29,5,Object_Land_Pattern_Large,-4,,,,,,,,,,,
encoding,image,54.20814962501754,55.219976833002875,29,5,Object_Land_Pattern_Large,-4,,,,,,,,,,,
encoding,value,55.22009133300162,61.23262516700197,29,5,Object_Land_Pattern_Large,-4,,,,,,,,,,,
encoding,attention,61.23274445801508,64.25037350002094,29,5,Object_Land_Pattern_Large,-4,-4,1,0.7064753749873489,,,,,,,,
encoding,fixation,64.25055662501836,65.75818825000897,30,5,Animal_Land_Pattern_Small,8,,,,,,,,,,,
encoding,image,65.75836620799964,66.76968662501895,30,5,Animal_Land_Pattern_Small,8,,,,,,,,,,,
encoding,value,66.76979425002355,72.78085820801789,30,5,Animal_Land_Pattern_Small,8,,,,,,,,,,,
encoding,attention,72.78099204201135,75.79884050000692,30,5,Animal_Land_Pattern_Small,8,+8,1,1.5813612090132665,,,,,,,,
n-back,,,,121,5,,,,0,None,X,True,None,,,,,
n-back,,,,122,5,,,,1,None,C,False,None,,,,,
n-back,,,,123,5,,,,1,None,B,False,None,,,,,
n-back,,,,124,5,,,,0,1.2672312500071712,X,False,1,,,,,
n-back,,,,125,5,,,,1,None,N,False,None,,,,,
n-back,,,,126,5,,,,1,None,Z,False,None,,,,,
n-back,,,,127,5,,,,1,None,X,False,None,,,,,
n-back,,,,128,5,,,,1,None,C,False,None,,,,,
n-back,,,,129,5,,,,1,None,N,False,None,,,,,
n-back,,,,130,5,,,,1,0.42513158297515474,C,True,1,,,,,
n-back,,,,131,5,,,,1,None,V,False,None,,,,,
n-back,,,,132,5,,,,1,None,B,False,None,,,,,
n-back,,,,133,5,,,,1,None,B,False,None,,,,,
n-back,,,,134,5,,,,1,None,C,False,None,,,,,
n-back,,,,135,5,,,,1,1.3623167090117931,B,True,1,,,,,
n-back,,,,136,5,,,,0,None,C,True,None,,,,,
n-back,,,,137,5,,,,1,None,C,False,None,,,,,
n-back,,,,138,5,,,,1,0.3529013339721132,C,True,1,,,,,
n-back,,,,139,5,,,,1,None,Z,False,None,,,,,
n-back,,,,140,5,,,,0,None,C,True,None,,,,,
n-back,,,,141,5,,,,1,0.4107150000054389,Z,True,1,,,,,
n-back,,,,142,5,,,,1,None,N,False,None,,,,,
n-back,,,,143,5,,,,1,None,X,False,None,,,,,
n-back,,,,144,5,,,,1,None,B,False,None,,,,,
n-back,,,,145,5,,,,1,1.0911581669934094,X,True,1,,,,,
n-back,,,,146,5,,,,0,None,B,True,None,,,,,
n-back,,,,147,5,,,,1,None,Z,False,None,,,,,
n-back,,,,148,5,,,,1,None,C,False,None,,,,,
n-back,,,,149,5,,,,0,None,Z,True,None,,,,,
n-back,,,,150,5,,,,1,None,V,False,None,,,,,
choice,fixation,150.20950300002005,151.46466312502162,33,5,,,,,,,,,Large,,,,
choice,option,151.47274733299855,152.50014129199553,33,5,,,,,,,,,Large,,,,
choice,choice,152.50025116701727,158.33202925001387,33,5,,,2,1,4.818113791989163,,,,Large,,,,
choice,fixation,158.3321783330175,158.83719587500673,34,5,,,,,,,,,Sea,,,,
choice,option,158.8457650420023,159.8722214169975,34,5,,,,,,,,,Sea,,,,
choice,choice,159.87238404201344,168.11672345802072,34,5,,,2,1,7.2346780829830095,,,,Sea,,,,
choice,fixation,168.11690799999633,169.12206337501993,35,5,,,,,,,,,Object,,,,
choice,option,169.13126412499696,170.15866179199656,35,5,,,,,,,,,Object,,,,
choice,choice,170.15877112501767,175.269219083013,35,5,,,1,0,4.10063000000082,,,,Object,,,,
choice,fixation,175.26933779200772,176.02421825000783,36,5,,,,,,,,,Small,,,,
choice,option,176.03308516700054,177.0591777920199,36,5,,,,,,,,,Small,,,,
choice,choice,177.05929625002318,184.1548804170161,36,5,,,2,1,6.0857872090127785,,,,Small,,,,
choice,fixation,184.15500808300567,184.9098367500119,37,5,,,,,,,,,Animal,,,,
choice,option,184.919105375011,185.94661266700132,37,5,,,,,,,,,Animal,,,,
choice,choice,185.9467246250133,187.6608517919958,37,5,,,1,1,0.7042413330054842,,,,Animal,,,,
choice,fixation,187.66097095800797,188.66599729200243,38,5,,,,,,,,,Solid,,,,
choice,option,188.67584820801858,189.70297199999914,38,5,,,,,,,,,Solid,,,,
choice,choice,189.70308300000033,192.0349356670049,38,5,,,1,1,1.3216848750016652,,,,Solid,,,,
choice,fixation,192.03507075001835,193.04167495801812,39,5,,,,,,,,,Pattern,,,,
choice,option,193.05059487500694,194.07625075001852,39,5,,,,,,,,,Pattern,,,,
choice,choice,194.07636112501496,195.86027554201428,39,5,,,2,1,0.7745223749952856,,,,Pattern,,,,
choice,fixation,195.86042199999793,196.6152447500208,40,5,,,,,,,,,Land,,,,
choice,option,196.62386125000194,197.649903292011,40,5,,,,,,,,,Land,,,,
choice,choice,197.65002604201436,199.66897691701888,40,5,,,1,0,1.0087407079990953,,,,Land,,,,
memory,free_recall,226.6725475419953,245.30577991702012,24,5,,,,,,,,,,,,,
memory,value_recall,253.81187370800762,260.73516129201744,25,5,Object_Land_Pattern_Large,,,,6.919185249978909,,,,,-4,,,
memory,value_recall,261.7818828750169,264.6213923750038,26,5,Animal_Sea_Solid_Small,,,,2.835845208988758,,,,,-2,,,
memory,value_recall,265.6674427080143,269.3902260000177,27,5,Animal_Land_Pattern_Small,,,,3.7190698749909643,,,,,8,,,
memory,value_recall,271.18681204199675,275.5493829170009,28,5,Object_Sea_Pattern_Small,,,,4.358471957995789,,,,,-7,,,
memory,value_recall,277.34624958300265,279.5669840830087,29,5,Animal_Land_Solid_Large,,,,2.2167703750019427,,,,,-5,,,
memory,value_recall,281.11169558300753,285.2242398330127,30,5,Object_Sea_Solid_Large,,,,4.108266333001666,,,,,8,,,
memory,spatial_recall,290.9142419999989,292.5579857499979,30,5,Object_Sea_Solid_Large,,,1,1.639307083998574,,,,,,"[0, -380]","[0, -380]",
memory,spatial_recall,294.3718322920031,296.6171482920181,30,5,Object_Land_Pattern_Large,,,1,2.2412872500135563,,,,,,"[0, 380]","[0, 380]",
memory,spatial_recall,297.92529920800007,300.3668777499988,30,5,Animal_Sea_Solid_Small,,,1,2.437630332977278,,,,,,"[-329, 190]","[-329, 190]",
memory,spatial_recall,301.42500524999923,307.5997588330065,30,5,Animal_Land_Pattern_Small,,,1,6.170765916991513,,,,,,"[-329, -190]","[-329, -190]",
memory,spatial_recall,309.41060766699957,312.0835945419967,30,5,Object_Sea_Pattern_Small,,,1,2.6706188330135774,,,,,,"[329, 189]","[329, 189]",
memory,spatial_recall,313.1425733329961,316.10455375001766,30,5,Animal_Land_Solid_Large,,,1,2.959503499994753,,,,,,"[329, -190]","[329, -190]",
encoding,fixation,9.796667833987158,10.801886333996663,31,6,Object_Land_Solid_Small,9,,,,,,,,,,,
encoding,image,10.802009791979799,11.813402959000086,31,6,Object_Land_Solid_Small,9,,,,,,,,,,,
encoding,value,11.813526124984492,17.82923237499199,31,6,Object_Land_Solid_Small,9,,,,,,,,,,,
encoding,attention,17.82935283400002,20.847009499993874,31,6,Object_Land_Solid_Small,9,+9,1,1.3963270840176847,,,,,,,,
encoding,fixation,20.847218458977295,21.852367833984317,32,6,Animal_Sea_Solid_Large,-1,,,,,,,,,,,
encoding,image,21.852484542003367,22.863194292003755,32,6,Animal_Sea_Solid_Large,-1,,,,,,,,,,,
encoding,value,22.86331479198998,28.87584974998026,32,6,Animal_Sea_Solid_Large,-1,,,,,,,,,,,
encoding,attention,28.876044208998792,31.89407099998789,32,6,Animal_Sea_Solid_Large,-1,-1,1,0.9575301670120098,,,,,,,,
encoding,fixation,31.89422979200026,32.89943858399056,33,6,Object_Land_Pattern_Small,-1,,,,,,,,,,,
encoding,image,32.8996014999866,33.91093266700045,33,6,Object_Land_Pattern_Small,-1,,,,,,,,,,,
encoding,value,33.91107595898211,39.92273370898329,33,6,Object_Land_Pattern_Small,-1,,,,,,,,,,,
encoding,attention,39.92285662499489,42.94077779198415,33,6,Object_Land_Pattern_Small,-1,-1,1,1.3174863749882206,,,,,,,,
encoding,fixation,42.94093395897653,44.196124166977825,34,6,Animal_Land_Pattern_Large,-3,,,,,,,,,,,
encoding,image,44.19624349998776,45.20759045900195,34,6,Animal_Land_Pattern_Large,-3,,,,,,,,,,,
encoding,value,45.20770591698238,51.21957770898007,34,6,Animal_Land_Pattern_Large,-3,,,,,,,,,,,
encoding,attention,51.219694792001974,54.236718208994716,34,6,Animal_Land_Pattern_Large,-3,-3,1,2.055673000024399,,,,,,,,
encoding,fixation,54.236881208984414,54.7417393749929,35,6,Object_Sea_Solid_Small,-4,,,,,,,,,,,
encoding,image,54.74186020900379,55.75188724999316,35,6,Object_Sea_Solid_Small,-4,,,,,,,,,,,
encoding,value,55.751999959000386,61.76273904199479,35,6,Object_Sea_Solid_Small,-4,,,,,,,,,,,
encoding,attention,61.76284862498869,64.77884233399527,35,6,Object_Sea_Solid_Small,-4,-4,1,0.5758812080021016,,,,,,,,
encoding,fixation,64.77901462500449,65.5340984170034,36,6,Animal_Sea_Pattern_Large,6,,,,,,,,,,,
encoding,image,65.53426587500144,66.54615408400423,36,6,Animal_Sea_Pattern_Large,6,,,,,,,,,,,
encoding,value,66.54628254199633,72.55725674997666,36,6,Animal_Sea_Pattern_Large,6,,,,,,,,,,,
encoding,attention,72.55735483398894,75.57481770898448,36,6,Animal_Sea_Pattern_Large,6,+6,1,0.7963992080185562,,,,,,,,
n-back,,,,151,6,,,,1,None,V,False,None,,,,,
n-back,,,,152,6,,,,1,None,Z,False,None,,,,,
n-back,,,,153,6,,,,1,None,B,False,None,,,,,
n-back,,,,154,6,,,,1,None,X,False,None,,,,,
n-back,,,,155,6,,,,1,None,Z,False,None,,,,,
n-back,,,,156,6,,,,0,None,X,True,None,,,,,
n-back,,,,157,6,,,,0,None,Z,True,None,,,,,
n-back,,,,158,6,,,,1,None,V,False,None,,,,,
n-back,,,,159,6,,,,1,None,B,False,None,,,,,
n-back,,,,160,6,,,,1,0.4486432920093648,V,True,1,,,,,
n-back,,,,161,6,,,,1,None,Z,False,None,,,,,
n-back,,,,162,6,,,,1,None,C,False,None,,,,,
n-back,,,,163,6,,,,1,0.4907664580096025,Z,True,1,,,,,
n-back,,,,164,6,,,,1,None,Z,False,None,,,,,
n-back,,,,165,6,,,,0,None,Z,True,None,,,,,
n-back,,,,166,6,,,,1,None,X,False,None,,,,,
n-back,,,,167,6,,,,1,0.32064529199851677,Z,True,1,,,,,
n-back,,,,168,6,,,,1,None,B,False,None,,,,,
n-back,,,,169,6,,,,0,None,Z,True,None,,,,,
n-back,,,,170,6,,,,1,0.36382229198352434,B,True,1,,,,,
n-back,,,,171,6,,,,1,None,C,False,None,,,,,
n-back,,,,172,6,,,,1,None,Z,False,None,,,,,
n-back,,,,173,6,,,,1,None,B,False,None,,,,,
n-back,,,,174,6,,,,1,None,X,False,None,,,,,
n-back,,,,175,6,,,,1,None,C,False,None,,,,,
n-back,,,,176,6,,,,1,None,Z,False,None,,,,,
n-back,,,,177,6,,,,1,None,B,False,None,,,,,
n-back,,,,178,6,,,,1,None,V,False,None,,,,,
n-back,,,,179,6,,,,0,None,B,True,None,,,,,
n-back,,,,180,6,,,,1,0.44618862500647083,V,True,1,,,,,
choice,fixation,143.97563070899923,145.22890345897758,41,6,,,,,,,,,Solid,,,,
choice,option,145.23814012500225,146.26534845898277,41,6,,,,,,,,,Solid,,,,
choice,choice,146.26546091699856,150.69134374998976,41,6,,,1,1,3.416379416012205,,,,Solid,,,,
choice,fixation,150.6914997919812,152.19691108400002,42,6,,,,,,,,,Sea,,,,
choice,option,152.20477537499391,153.2310411669896,42,6,,,,,,,,,Sea,,,,
choice,choice,153.23116799999843,162.53419066697825,42,6,,,1,1,8.292686667002272,,,,Sea,,,,
choice,fixation,162.53430899998057,163.03919724997832,43,6,,,,,,,,,Object,,,,
choice,option,163.04870529199252,164.0756074169767,43,6,,,,,,,,,Object,,,,
choice,choice,164.0757195839833,173.74791708399425,43,6,,,1,1,8.6619502499816,,,,Object,,,,
choice,fixation,173.74805133399786,174.2530640839832,44,6,,,,,,,,,Land,,,,
choice,option,174.26206174999243,175.28795933400397,44,6,,,,,,,,,Land,,,,
choice,choice,175.28806812499533,177.8020412089827,44,6,,,1,1,1.5044380000035744,,,,Land,,,,
choice,fixation,177.80217704200186,178.80719237498124,45,6,,,,,,,,,Small,,,,
choice,option,178.8162877089926,179.84248212497914,45,6,,,,,,,,,Small,,,,
choice,choice,179.84259862499312,181.4175481669954,45,6,,,2,0,0.5656344580056611,,,,Small,,,,
choice,fixation,181.4176939589961,181.9226000419876,46,6,,,,,,,,,Animal,,,,
choice,option,181.93168712500483,182.95877483399818,46,6,,,,,,,,,Animal,,,,
choice,choice,182.95890641698497,188.44380908398307,46,6,,,2,0,4.475349541986361,,,,Animal,,,,
choice,fixation,188.44393691699952,189.19884987498517,47,6,,,,,,,,,Large,,,,
choice,option,189.20753120898735,190.2333024169784,47,6,,,,,,,,,Large,,,,
choice,choice,190.23340337499394,195.8839230419835,47,6,,,2,0,4.641314582986524,,,,Large,,,,
choice,fixation,195.8840461249929,196.63887320898357,48,6,,,,,,,,,Pattern,,,,
choice,option,196.6477112499997,197.6732715840044,48,6,,,,,,,,,Pattern,,,,
choice,choice,197.67338487500092,200.8037926669931,48,6,,,1,1,2.1201121670019347,,,,Pattern,,,,
memory,free_recall,211.81402220900054,228.3776131249906,30,6,,,,,,,,,,,,,
memory,value_recall,234.9731812090031,241.96573699999135,31,6,Animal_Land_Pattern_Large,,,,6.987977959011914,,,,,-3,,,
memory,value_recall,244.0120442089974,250.5099442919891,32,6,Object_Land_Solid_Small,,,,6.4937937920039985,,,,,9,,,
memory,value_recall,252.55487500000163,255.64736645898665,33,6,Animal_Sea_Pattern_Large,,,,3.0858192919986323,,,,,6,,,
memory,value_recall,256.69257304200437,259.5190023339819,34,6,Animal_Sea_Solid_Large,,,,2.8229995839938056,,,,,-1,,,
memory,value_recall,261.06449283400434,263.3891178339836,35,6,Object_Sea_Solid_Small,,,,2.3206099170201924,,,,,-4,,,
memory,value_recall,265.1851689169998,270.14379708399065,36,6,Object_Land_Pattern_Small,,,,4.954540000006091,,,,,-1,,,
memory,spatial_recall,275.56263362499885,277.85461637499975,36,6,Animal_Sea_Solid_Large,,,1,2.2895730000163894,,,,,,"[329, -190]","[329, -190]",
memory,spatial_recall,279.91739879199304,281.8759610419802,36,6,Animal_Land_Pattern_Large,,,1,1.955389707989525,,,,,,"[0, -380]","[0, -380]",
memory,spatial_recall,283.4367004169908,285.07802499999525,36,6,Object_Land_Pattern_Small,,,1,1.6373850829841103,,,,,,"[-329, 190]","[-329, 190]",
memory,spatial_recall,286.3864722089784,288.11150841700146,36,6,Object_Land_Solid_Small,,,1,1.7210785830102395,,,,,,"[-329, -190]","[-329, -190]",
memory,spatial_recall,289.4164665839926,290.87525833398104,36,6,Object_Sea_Solid_Small,,,1,1.4548254999972414,,,,,,"[0, 380]","[0, 380]",
memory,spatial_recall,292.68362720898585,296.8019459999923,36,6,Animal_Sea_Pattern_Large,,,1,4.114381916995626,,,,,,"[329, 189]","[329, 189]",
encoding,fixation,5.63421954200021,7.140196874999674,37,7,Object_Land_Pattern_Small,6,,,,,,,,,,,
encoding,image,7.140308917005314,8.152217082999414,37,7,Object_Land_Pattern_Small,6,,,,,,,,,,,
encoding,value,8.15234237498953,14.165599208005005,37,7,Object_Land_Pattern_Small,6,,,,,,,,,,,
encoding,attention,14.165709416993195,17.18306375000975,37,7,Object_Land_Pattern_Small,6,+6,1,1.1778725410113111,,,,,,,,
encoding,fixation,17.18321558300522,17.688423292012885,38,7,Object_Sea_Solid_Small,4,,,,,,,,,,,
encoding,image,17.688523167016683,18.69915170801687,38,7,Object_Sea_Solid_Small,4,,,,,,,,,,,
encoding,value,18.699281083012465,24.710268958006054,38,7,Object_Sea_Solid_Small,4,,,,,,,,,,,
encoding,attention,24.710406958009116,27.727577624988044,38,7,Object_Sea_Solid_Small,4,+4,1,0.657168207981158,,,,,,,,
encoding,fixation,27.727736708009616,29.232606792007573,39,7,Animal_Land_Pattern_Small,-6,,,,,,,,,,,
encoding,image,29.232730957999593,30.244001375016524,39,7,Animal_Land_Pattern_Small,-6,,,,,,,,,,,
encoding,value,30.244118000002345,36.25518833301612,39,7,Animal_Land_Pattern_Small,-6,,,,,,,,,,,
encoding,attention,36.25529699999606,39.27373124999576,39,7,Animal_Land_Pattern_Small,-6,-6,1,0.8537100829998963,,,,,,,,
encoding,fixation,39.274026833008975,40.77920058299787,40,7,Animal_Land_Solid_Large,1,,,,,,,,,,,
encoding,image,40.77932304199203,41.79057895799633,40,7,Animal_Land_Solid_Large,1,,,,,,,,,,,
encoding,value,41.79069512500428,47.803058666992,40,7,Animal_Land_Solid_Large,1,,,,,,,,,,,
encoding,attention,47.80318379201344,50.820217417000094,40,7,Animal_Land_Solid_Large,1,+1,1,1.1409646669926587,,,,,,,,
encoding,fixation,50.82038208300946,52.07552395798848,41,7,Animal_Sea_Pattern_Large,4,,,,,,,,,,,
encoding,image,52.07564545801142,53.08694499998819,41,7,Animal_Sea_Pattern_Large,4,,,,,,,,,,,
encoding,value,53.08706237500883,59.09822545800125,41,7,Animal_Sea_Pattern_Large,4,,,,,,,,,,,
encoding,attention,59.09833391700522,62.117040083016036,41,7,Animal_Sea_Pattern_Large,4,+4,1,1.3014349580043927,,,,,,,,
encoding,fixation,62.11721004199353,62.62225254200166,42,7,Object_Sea_Solid_Large,-9,,,,,,,,,,,
encoding,image,62.62235766701633,63.63474008301273,42,7,Object_Sea_Solid_Large,-9,,,,,,,,,,,
encoding,value,63.634864916995866,69.64694612499443,42,7,Object_Sea_Solid_Large,-9,,,,,,,,,,,
encoding,attention,69.64709466701606,72.66550033300882,42,7,Object_Sea_Solid_Large,-9,-9,1,0.7500239170040004,,,,,,,,
n-back,,,,181,7,,,,1,None,B,False,None,,,,,
n-back,,,,182,7,,,,1,None,C,False,None,,,,,
n-back,,,,183,7,,,,1,0.6090552920068149,B,True,1,,,,,
n-back,,,,184,7,,,,1,None,V,False,None,,,,,
n-back,,,,185,7,,,,1,None,Z,False,None,,,,,
n-back,,,,186,7,,,,1,0.548380583000835,V,True,1,,,,,
n-back,,,,187,7,,,,1,None,B,False,None,,,,,
n-back,,,,188,7,,,,0,None,V,True,None,,,,,
n-back,,,,189,7,,,,1,None,X,False,None,,,,,
n-back,,,,190,7,,,,1,None,N,False,None,,,,,
n-back,,,,191,7,,,,1,None,B,False,None,,,,,
n-back,,,,192,7,,,,1,None,X,False,None,,,,,
n-back,,,,193,7,,,,1,None,Z,False,None,,,,,
n-back,,,,194,7,,,,1,None,C,False,None,,,,,
n-back,,,,195,7,,,,1,0.8411586250003893,Z,True,1,,,,,
n-back,,,,196,7,,,,0,None,C,True,None,,,,,
n-back,,,,197,7,,,,1,None,V,False,None,,,,,
n-back,,,,198,7,,,,1,None,X,False,None,,,,,
n-back,,,,199,7,,,,0,None,V,True,None,,,,,
n-back,,,,200,7,,,,0,None,X,True,None,,,,,
n-back,,,,201,7,,,,1,None,Z,False,None,,,,,
n-back,,,,202,7,,,,1,None,Z,False,None,,,,,
n-back,,,,203,7,,,,1,None,B,False,None,,,,,
n-back,,,,204,7,,,,1,None,C,False,None,,,,,
n-back,,,,205,7,,,,1,0.4756167920131702,B,True,1,,,,,
n-back,,,,206,7,,,,0,None,C,True,None,,,,,
n-back,,,,207,7,,,,0,None,B,True,None,,,,,
n-back,,,,208,7,,,,1,None,N,False,None,,,,,
n-back,,,,209,7,,,,1,None,V,False,None,,,,,
n-back,,,,210,7,,,,1,None,V,False,None,,,,,
choice,fixation,151.6774407500052,153.1807264579984,49,7,,,,,,,,,Pattern,,,,
choice,option,153.1895160000131,154.21900962499785,49,7,,,,,,,,,Pattern,,,,
choice,choice,154.21913958300138,162.43994316700264,49,7,,,1,1,7.211079416010762,,,,Pattern,,,,
choice,fixation,162.44009816698963,163.69511487500858,50,7,,,,,,,,,Solid,,,,
choice,option,163.7049884579901,164.7310450829973,50,7,,,,,,,,,Solid,,,,
choice,choice,164.73116270799073,166.99226862500655,50,7,,,1,0,1.251492125011282,,,,Solid,,,,
choice,fixation,166.99252066700137,168.49768766699708,51,7,,,,,,,,,Large,,,,
choice,option,168.5061606669915,169.53296229199623,51,7,,,,,,,,,Large,,,,
choice,choice,169.53307458301424,174.28842466700007,51,7,,,2,1,3.7454683749820106,,,,Large,,,,
choice,fixation,174.2885462080012,174.79343645801418,52,7,,,,,,,,,Sea,,,,
choice,option,174.80203779198928,175.82815604200005,52,7,,,,,,,,,Sea,,,,
choice,choice,175.8282683750149,178.86543962499127,52,7,,,2,1,2.0233851660159416,,,,Sea,,,,
choice,fixation,178.86558670800878,179.37056524999207,53,7,,,,,,,,,Object,,,,
choice,option,179.37994487499236,180.40620579200913,53,7,,,,,,,,,Object,,,,
choice,choice,180.40631762499106,183.9284487499972,53,7,,,1,1,2.5120962079963647,,,,Object,,,,
choice,fixation,183.928662041988,184.93454720801674,54,7,,,,,,,,,Small,,,,
choice,option,184.9435884580016,185.96983579199878,54,7,,,,,,,,,Small,,,,
choice,choice,185.9699441670091,193.76107045801473,54,7,,,1,1,6.7814577499812,,,,Small,,,,
choice,fixation,193.76121095800772,194.2694456249883,55,7,,,,,,,,,Animal,,,,
choice,option,194.2786323330074,195.3049854169949,55,7,,,,,,,,,Animal,,,,
choice,choice,195.30509637499927,201.24192012500134,55,7,,,1,0,4.927414833015064,,,,Animal,,,,
choice,fixation,201.24205345800146,201.99692333300482,56,7,,,,,,,,,Land,,,,
choice,option,202.00570433301618,203.03167774999747,56,7,,,,,,,,,Land,,,,
choice,choice,203.03179275000002,206.72827337498893,56,7,,,1,1,2.68653391697444,,,,Land,,,,
memory,free_recall,219.37785916699795,241.06926316700992,36,7,,,,,,,,,,,,,
memory,value_recall,245.45667954199598,251.96347424999112,37,7,Animal_Sea_Pattern_Large,,,,6.504220709000947,,,,,4,,,
memory,value_recall,253.2597467500018,256.8439056669886,38,7,Object_Sea_Solid_Large,,,,3.579725540999789,,,,,-9,,,
memory,value_recall,258.638577500009,262.06628779199673,39,7,Animal_Land_Solid_Large,,,,3.4234247079875786,,,,,1,,,
memory,value_recall,263.86188516698894,265.8747995420126,40,7,Object_Land_Pattern_Small,,,,2.0077482920023613,,,,,6,,,
memory,value_recall,267.6698251249909,271.0594987499935,41,7,Object_Sea_Solid_Small,,,,3.3855652080092113,,,,,4,,,
memory,value_recall,272.60429591700085,277.2196767500136,42,7,Animal_Land_Pattern_Small,,,,4.611255208001239,,,,,-6,,,
memory,spatial_recall,281.0358218330075,282.8108641250001,42,7,Object_Land_Pattern_Small,,,1,1.771011290984461,,,,,,"[-329, 190]","[-329, 190]",
memory,spatial_recall,284.12194712500786,287.5943537919957,42,7,Animal_Land_Pattern_Small,,,1,3.468095832999097,,,,,,"[-329, -190]","[-329, -190]",
memory,spatial_recall,289.6470014580118,290.81062895798823,42,7,Animal_Sea_Pattern_Large,,,1,1.1582301659800578,,,,,,"[329, 189]","[329, 189]",
memory,spatial_recall,291.8644862920046,293.1111471670156,42,7,Animal_Land_Solid_Large,,,1,1.2435917920083739,,,,,,"[329, -190]","[329, -190]",
memory,spatial_recall,295.17190849999315,298.0442827079969,42,7,Object_Sea_Solid_Large,,,1,2.8682059999846388,,,,,,"[0, -380]","[0, -380]",
memory,spatial_recall,299.6006526249985,303.5004263329902,42,7,Object_Sea_Solid_Small,,,1,3.8958103750192095,,,,,,"[0, 380]","[0, 380]",
