phase,event,onset,offset,trial_number,game,image,outcome,choice,correct,rt,letter,match,response,option,true_value,true_position,recalled_position,
encoding,fixation,18.8612102920888,20.37825629208237,1,1,Animal_Land_Pattern_Large,5,,,,,,,,,,,
encoding,image,20.37838962499518,21.398648417089134,1,1,Animal_Land_Pattern_Large,5,,,,,,,,,,,
encoding,value,21.398778000031598,27.414479917031713,1,1,Animal_Land_Pattern_Large,5,,,,,,,,,,,
encoding,attention,27.41465745808091,30.432047792011872,1,1,Animal_Land_Pattern_Large,5,+5,1,1.2127481669886038,,,,,,,,
encoding,fixation,30.432210957980715,31.187216666992754,2,1,Object_Land_Solid_Large,-1,,,,,,,,,,,
encoding,image,31.18730987503659,32.19722679199185,2,1,Object_Land_Solid_Large,-1,,,,,,,,,,,
encoding,value,32.19732337503228,38.20847358298488,2,1,Object_Land_Solid_Large,-1,,,,,,,,,,,
encoding,attention,38.20859841699712,41.22676662507001,2,1,Object_Land_Solid_Large,-1,-1,1,0.7051691659726202,,,,,,,,
encoding,fixation,41.2269238330191,41.98200841702055,3,1,Object_Land_Solid_Small,-5,,,,,,,,,,,
encoding,image,41.98213916702662,42.99309508304577,3,1,Object_Land_Solid_Small,-5,,,,,,,,,,,
encoding,value,42.99320174998138,49.0048492080532,3,1,Object_Land_Solid_Small,-5,,,,,,,,,,,
encoding,attention,49.00497754209209,52.02509795804508,3,1,Object_Land_Solid_Small,-5,-5,1,0.5969998750369996,,,,,,,,
encoding,fixation,52.02524800004903,53.530207542004064,4,1,Animal_Sea_Pattern_Large,1,,,,,,,,,,,
encoding,image,53.53033320803661,54.540701333084144,4,1,Animal_Sea_Pattern_Large,1,,,,,,,,,,,
encoding,value,54.54082583298441,60.55172008299269,4,1,Animal_Sea_Pattern_Large,1,,,,,,,,,,,
encoding,attention,60.55183287500404,63.56831195799168,4,1,Animal_Sea_Pattern_Large,1,+1,1,0.6421320419758558,,,,,,,,
encoding,fixation,63.568451333092526,64.32349154201802,5,1,Animal_Sea_Pattern_Small,-7,,,,,,,,,,,
encoding,image,64.32360200001858,65.33468924998306,5,1,Animal_Sea_Pattern_Small,-7,,,,,,,,,,,
encoding,value,65.33479220804293,71.34663679206278,5,1,Animal_Sea_Pattern_Small,-7,,,,,,,,,,,
encoding,attention,71.34674191707745,74.36391237506177,5,1,Animal_Sea_Pattern_Small,-7,-7,1,2.287173166987486,,,,,,,,
encoding,fixation,74.36406250006985,75.62313133303542,6,1,Object_Sea_Solid_Small,7,,,,,,,,,,,
encoding,image,75.62325325002894,76.63367941707838,6,1,Object_Sea_Solid_Small,7,,,,,,,,,,,
encoding,value,76.633805999998,82.64376937504858,6,1,Object_Sea_Solid_Small,7,,,,,,,,,,,
encoding,attention,82.64387312508188,85.69639766705222,6,1,Object_Sea_Solid_Small,7,+7,1,2.044555750093423,,,,,,,,
n-back,,,,1,1,,,,1,None,B,False,None,,,,,
n-back,,,,2,1,,,,0,None,B,True,None,,,,,
n-back,,,,3,1,,,,1,0.8573293749941513,B,True,1,,,,,
n-back,,,,4,1,,,,1,None,V,False,None,,,,,
n-back,,,,5,1,,,,1,None,N,False,None,,,,,
n-back,,,,6,1,,,,1,None,B,False,None,,,,,
n-back,,,,7,1,,,,1,None,Z,False,None,,,,,
n-back,,,,8,1,,,,1,0.8125580409541726,B,True,1,,,,,
n-back,,,,9,1,,,,1,None,X,False,None,,,,,
n-back,,,,10,1,,,,0,0.9046731250127777,X,False,1,,,,,
n-back,,,,11,1,,,,1,0.6868762499652803,X,True,1,,,,,
n-back,,,,12,1,,,,1,None,Z,False,None,,,,,
n-back,,,,13,1,,,,1,None,V,False,None,,,,,
n-back,,,,14,1,,,,1,None,V,False,None,,,,,
n-back,,,,15,1,,,,1,None,Z,False,None,,,,,
n-back,,,,16,1,,,,1,None,X,False,None,,,,,
n-back,,,,17,1,,,,1,0.8321773339994252,Z,True,1,,,,,
n-back,,,,18,1,,,,1,None,Z,False,None,,,,,
n-back,,,,19,1,,,,0,None,Z,True,None,,,,,
n-back,,,,20,1,,,,1,None,X,False,None,,,,,
n-back,,,,21,1,,,,1,None,N,False,None,,,,,
n-back,,,,22,1,,,,1,0.7814392499858513,X,True,1,,,,,
n-back,,,,23,1,,,,0,None,N,True,None,,,,,
n-back,,,,24,1,,,,1,None,B,False,None,,,,,
n-back,,,,25,1,,,,1,None,Z,False,None,,,,,
n-back,,,,26,1,,,,1,1.193423749995418,B,True,1,,,,,
n-back,,,,27,1,,,,1,None,B,False,None,,,,,
n-back,,,,28,1,,,,0,None,B,True,None,,,,,
n-back,,,,29,1,,,,1,None,N,False,None,,,,,
n-back,,,,30,1,,,,1,None,X,False,None,,,,,
choice,fixation,179.74237066705246,180.7486635830719,1,1,,,,,,,,,Animal,,,,
choice,option,180.75829133298248,181.99298325006384,1,1,,,,,,,,,Animal,,,,
choice,choice,181.99308716703672,195.34189058304764,1,1,,,2,1,12.338066875003278,,,,Animal,,,,
choice,fixation,195.34200933307875,196.5973381670192,2,1,,,,,,,,,Land,,,,
choice,option,196.60688445798587,197.63422183308285,2,1,,,,,,,,,Land,,,,
choice,choice,197.6343293330865,212.9018835000461,2,1,,,2,1,14.256583416019566,,,,Land,,,,
choice,fixation,212.90200791705865,213.90703104203567,3,1,,,,,,,,,Large,,,,
choice,option,213.91611170803662,214.94335041707382,3,1,,,,,,,,,Large,,,,
choice,choice,214.9434532080777,223.22213087498676,3,1,,,1,1,7.267857666010968,,,,Large,,,,
choice,fixation,223.22230212506838,224.4772832080489,4,1,,,,,,,,,Object,,,,
choice,option,224.4868224579841,225.51297891698778,4,1,,,,,,,,,Object,,,,
choice,choice,225.51309300004505,249.58150520804338,4,1,,,1,1,23.057488374994136,,,,Object,,,,
choice,fixation,249.5816321669845,250.33711495809257,5,1,,,,,,,,,Pattern,,,,
choice,option,250.34639037505258,251.37248037499376,5,1,,,,,,,,,Pattern,,,,
choice,choice,251.37260970799252,260.57153245806694,5,1,,,2,1,8.188803375000134,,,,Pattern,,,,
choice,fixation,260.5716580830049,261.8265292500146,6,1,,,,,,,,,Solid,,,,
choice,option,261.835697832983,262.8627013330115,6,1,,,,,,,,,Solid,,,,
choice,choice,262.8628152080346,269.12555729201995,6,1,,,1,1,5.252752249944024,,,,Solid,,,,
choice,fixation,269.1256931250682,270.13090908306185,7,1,,,,,,,,,Sea,,,,
choice,option,270.13949325005524,271.1672182920156,7,1,,,,,,,,,Sea,,,,
choice,choice,271.16737804200966,273.98797837505117,7,1,,,1,1,1.8111851669382304,,,,Sea,,,,
choice,fixation,273.988100583083,274.9932037499966,8,1,,,,,,,,,Small,,,,
choice,option,275.0019586670678,276.0283599999966,8,1,,,,,,,,,Small,,,,
choice,choice,276.02855229203124,279.3391066250624,8,1,,,2,1,2.301793250022456,,,,Small,,,,
memory,free_recall,372.6702327920357,387.81459737499245,0,1,,,,,,,,,,,,,
memory,value_recall,454.95120637502987,458.6543854579795,1,1,Animal_Sea_Pattern_Small,,,,3.7000943329185247,,,,,-7,,,
memory,value_recall,460.2006567500066,465.92654216708615,2,1,Animal_Sea_Pattern_Large,,,,5.722012749989517,,,,,1,,,
memory,value_recall,466.97193524998147,470.21277924999595,3,1,Object_Sea_Solid_Small,,,,3.2383408340392634,,,,,7,,,
memory,value_recall,472.0087643750012,475.7650844580494,4,1,Animal_Land_Pattern_Large,,,,3.7523517499212176,,,,,5,,,
memory,value_recall,476.81193312502,479.7427197920624,5,1,Object_Land_Solid_Large,,,,2.927585583063774,,,,,-1,,,
memory,value_recall,481.7879604580812,484.78117083304096,6,1,Object_Land_Solid_Small,,,,2.989068458089605,,,,,-5,,,
memory,spatial_recall,505.4443860000465,512.2865072080167,6,1,Object_Land_Solid_Large,,,1,6.837529790936969,,,,,,"[329, 189]","[329, 189]",
memory,spatial_recall,513.8453547920799,516.9626902079908,6,1,Object_Land_Solid_Small,,,1,3.11300491692964,,,,,,"[-329, -190]","[-329, -190]",
memory,spatial_recall,518.0222988330061,519.9346618750133,6,1,Animal_Sea_Pattern_Small,,,1,1.909929750021547,,,,,,"[0, 380]","[0, 380]",
memory,spatial_recall,521.7456917500822,523.3960531250341,6,1,Animal_Land_Pattern_Large,,,1,1.6464959579752758,,,,,,"[0, -380]","[0, -380]",
memory,spatial_recall,524.4423133750679,526.0785452499986,6,1,Animal_Sea_Pattern_Large,,,1,1.6339346249587834,,,,,,"[-329, 190]","[-329, 190]",
memory,spatial_recall,527.1193592920899,528.6297028750414,6,1,Object_Sea_Solid_Small,,,1,1.5073542089667171,,,,,,"[329, -190]","[329, -190]",
encoding,fixation,6.475330542074516,6.980460000107996,7,2,Object_Sea_Pattern_Large,9,,,,,,,,,,,
encoding,image,6.980575375026092,7.991916542057879,7,2,Object_Sea_Pattern_Large,9,,,,,,,,,,,
encoding,value,7.992036333074793,14.006393250077963,7,2,Object_Sea_Pattern_Large,9,,,,,,,,,,,
encoding,attention,14.006498000002466,17.024277417105623,7,2,Object_Sea_Pattern_Large,9,+9,1,1.185199291096069,,,,,,,,
encoding,fixation,17.024438917054795,18.53119308303576,8,2,Animal_Land_Pattern_Small,1,,,,,,,,,,,
encoding,image,18.531317458022386,19.542695833020844,8,2,Animal_Land_Pattern_Small,1,,,,,,,,,,,
encoding,value,19.54280108306557,25.553663167054765,8,2,Animal_Land_Pattern_Small,1,,,,,,,,,,,
encoding,attention,25.553808458033018,28.570860042003915,8,2,Animal_Land_Pattern_Small,1,+1,1,0.6632810001028702,,,,,,,,
encoding,fixation,28.571011375053786,30.076011417084374,9,2,Object_Sea_Pattern_Small,-7,,,,,,,,,,,
encoding,image,30.076119875069708,31.087035042000934,9,2,Object_Sea_Pattern_Small,-7,,,,,,,,,,,
encoding,value,31.08714925008826,37.09900154208299,9,2,Object_Sea_Pattern_Small,-7,,,,,,,,,,,
encoding,attention,37.099115375080146,40.11620191705879,9,2,Object_Sea_Pattern_Small,-7,-7,1,0.660132999997586,,,,,,,,
encoding,fixation,40.11635745805688,40.87173791707028,10,2,Animal_Land_Solid_Large,1,,,,,,,,,,,
encoding,image,40.871818125015125,41.882737458101474,10,2,Animal_Land_Solid_Large,1,,,,,,,,,,,
encoding,value,41.882869375054725,47.89489029208198,10,2,Animal_Land_Solid_Large,1,,,,,,,,,,,
encoding,attention,47.89501704205759,50.912652417086065,10,2,Animal_Land_Solid_Large,1,+1,1,0.49687229190021753,,,,,,,,
encoding,fixation,50.91280904202722,52.16782170801889,11,2,Object_Land_Solid_Small,-9,,,,,,,,,,,
encoding,image,52.16793216706719,53.18081750010606,11,2,Object_Land_Solid_Small,-9,,,,,,,,,,,
encoding,value,53.1809083330445,59.19234887510538,11,2,Object_Land_Solid_Small,-9,,,,,,,,,,,
encoding,attention,59.19245754205622,62.20966329204384,11,2,Object_Land_Solid_Small,-9,-9,1,0.9672766249859706,,,,,,,,
encoding,fixation,62.20981212507468,63.71496637503151,12,2,Animal_Sea_Solid_Large,-9,,,,,,,,,,,
encoding,image,63.71508229209576,64.7265010830015,12,2,Animal_Sea_Solid_Large,-9,,,,,,,,,,,
encoding,value,64.72667454206385,70.73827104200609,12,2,Animal_Sea_Solid_Large,-9,,,,,,,,,,,
encoding,attention,70.7383970420342,73.75523929204792,12,2,Animal_Sea_Solid_Large,-9,-9,1,1.3329242090694606,,,,,,,,
n-back,,,,31,2,,,,1,None,Z,False,None,,,,,
n-back,,,,32,2,,,,1,None,B,False,None,,,,,
n-back,,,,33,2,,,,1,0.5959812080254778,Z,True,1,,,,,
n-back,,,,34,2,,,,1,None,Z,False,None,,,,,
n-back,,,,35,2,,,,1,0.5565877920016646,Z,True,1,,,,,
n-back,,,,36,2,,,,1,None,V,False,None,,,,,
n-back,,,,37,2,,,,1,0.6141180000267923,Z,True,1,,,,,
n-back,,,,38,2,,,,1,None,Z,False,None,,,,,
n-back,,,,39,2,,,,1,None,X,False,None,,,,,
n-back,,,,40,2,,,,1,None,C,False,None,,,,,
n-back,,,,41,2,,,,1,None,C,False,None,,,,,
n-back,,,,42,2,,,,1,None,B,False,None,,,,,
n-back,,,,43,2,,,,1,None,X,False,None,,,,,
n-back,,,,44,2,,,,1,0.8331375420093536,B,True,1,,,,,
n-back,,,,45,2,,,,1,0.9208194999955595,X,True,1,,,,,
n-back,,,,46,2,,,,0,None,B,True,None,,,,,
n-back,,,,47,2,,,,1,None,V,False,None,,,,,
n-back,,,,48,2,,,,1,None,V,False,None,,,,,
n-back,,,,49,2,,,,1,None,B,False,None,,,,,
n-back,,,,50,2,,,,1,0.6864388749236241,V,True,1,,,,,
n-back,,,,51,2,,,,1,None,C,False,None,,,,,
n-back,,,,52,2,,,,1,None,C,False,None,,,,,
n-back,,,,53,2,,,,1,None,B,False,None,,,,,
n-back,,,,54,2,,,,1,None,V,False,None,,,,,
n-back,,,,55,2,,,,1,None,C,False,None,,,,,
n-back,,,,56,2,,,,1,1.006618957966566,V,True,1,,,,,
n-back,,,,57,2,,,,1,None,Z,False,None,,,,,
n-back,,,,58,2,,,,0,0.8459359999978915,C,False,1,,,,,
n-back,,,,59,2,,,,0,None,Z,True,None,,,,,
n-back,,,,60,2,,,,1,1.4815455409698188,C,True,1,,,,,
choice,fixation,152.4131345830392,153.41638204210903,9,2,,,,,,,,,Land,,,,
choice,option,153.4246900420403,154.45258895808365,9,2,,,,,,,,,Land,,,,
choice,choice,154.4526901670033,175.21096758299973,9,2,,,2,1,19.747027875040658,,,,Land,,,,
choice,fixation,175.2111360830022,176.7163327500457,10,2,,,,,,,,,Large,,,,
choice,option,176.7251375830965,177.75129137502518,10,2,,,,,,,,,Large,,,,
choice,choice,177.75138787506148,189.57238462509122,10,2,,,2,0,10.80698737502098,,,,Large,,,,
choice,fixation,189.57251912506763,190.07781666703522,11,2,,,,,,,,,Animal,,,,
choice,option,190.08735816704575,191.1153156250948,11,2,,,,,,,,,Animal,,,,
choice,choice,191.11543950007763,213.53906770807225,11,2,,,1,0,21.413059125072323,,,,Animal,,,,
choice,fixation,213.5392036670819,214.79417829203885,12,2,,,,,,,,,Sea,,,,
choice,option,214.8023534170352,215.83103925001342,12,2,,,,,,,,,Sea,,,,
choice,choice,215.83114066708367,228.4643147920724,12,2,,,2,1,11.622723667067476,,,,Sea,,,,
choice,fixation,228.46444070804864,228.9693763750838,13,2,,,,,,,,,Small,,,,
choice,option,228.97844945802353,230.0043969580438,13,2,,,,,,,,,Small,,,,
choice,choice,230.00450966705102,239.70508858305402,13,2,,,2,1,8.690614124992862,,,,Small,,,,
choice,fixation,239.7052162080072,240.46017891704105,14,2,,,,,,,,,Object,,,,
choice,option,240.46957320801448,241.49786845804192,14,2,,,,,,,,,Object,,,,
choice,choice,241.49797787505668,249.1286060831044,14,2,,,2,1,6.621130750048906,,,,Object,,,,
choice,fixation,249.12874575005844,250.13390891707968,15,2,,,,,,,,,Solid,,,,
choice,option,250.14334633306134,251.16899195802398,15,2,,,,,,,,,Solid,,,,
choice,choice,251.1691071250243,259.7604822081048,15,2,,,2,1,7.580716666998342,,,,Solid,,,,
choice,fixation,259.76063395803794,261.2658641251037,16,2,,,,,,,,,Pattern,,,,
choice,option,261.27482512500137,262.30103604204487,16,2,,,,,,,,,Pattern,,,,
choice,choice,262.3011609580135,267.97684608306736,16,2,,,1,1,4.666229874943383,,,,Pattern,,,,
memory,free_recall,296.506550500053,309.69192362506874,6,2,,,,,,,,,,,,,
memory,value_recall,317.92172295809723,321.6843620830914,7,2,Animal_Sea_Solid_Large,,,,3.7583327919710428,,,,,-9,,,
memory,value_recall,322.7302963749971,325.9990244579967,8,2,Object_Sea_Pattern_Small,,,,3.2654196670046076,,,,,-7,,,
memory,value_recall,327.5446893750923,329.38851066702046,9,2,Animal_Land_Solid_Large,,,,1.839721041964367,,,,,1,,,
memory,value_recall,330.4335113330744,332.2113866250729,10,2,Object_Land_Solid_Small,,,,1.7746445829980075,,,,,-9,,,
memory,value_recall,334.2566503750859,336.91460625000764,11,2,Object_Sea_Pattern_Large,,,,2.652541832998395,,,,,9,,,
memory,value_recall,338.2101587500656,339.9703197920462,12,2,Animal_Land_Pattern_Small,,,,1.7561835419619456,,,,,1,,,
memory,spatial_recall,348.55988970806357,352.8090998750413,12,2,Object_Sea_Pattern_Large,,,1,4.245123957982287,,,,,,"[0, -380]","[0, -380]",
memory,spatial_recall,354.1249651670223,356.3629537500674,12,2,Object_Land_Solid_Small,,,1,2.2341506250668317,,,,,,"[-329, -190]","[-329, -190]",
memory,spatial_recall,358.17310270806774,359.57326558302157,12,2,Animal_Land_Solid_Large,,,1,1.3960949999745935,,,,,,"[0, 380]","[0, 380]",
memory,spatial_recall,361.38250595808495,362.53087112505455,12,2,Animal_Land_Pattern_Small,,,1,1.1444734591059387,,,,,,"[329, -190]","[329, -190]",
memory,spatial_recall,363.57947825000156,365.9227117920527,12,2,Animal_Sea_Solid_Large,,,1,2.339449708000757,,,,,,"[329, 189]","[329, 189]",
memory,spatial_recall,367.48096270801034,369.3028535420308,12,2,Object_Sea_Pattern_Small,,,1,1.8178050420247018,,,,,,"[-329, 190]","[-329, 190]",
encoding,fixation,3.4783752920338884,4.733628000016324,13,3,Animal_Sea_Solid_Small,8,,,,,,,,,,,
encoding,image,4.733749417006038,5.744861708953977,13,3,Animal_Sea_Solid_Small,8,,,,,,,,,,,
encoding,value,5.744980458985083,11.757597791962326,13,3,Animal_Sea_Solid_Small,8,,,,,,,,,,,
encoding,attention,11.757701499969698,14.776125209056772,13,3,Animal_Sea_Solid_Small,8,+8,1,0.8620229159714654,,,,,,,,
encoding,fixation,14.776323792058975,15.53223837504629,14,3,Object_Sea_Solid_Large,-2,,,,,,,,,,,
encoding,image,15.532354334020056,16.54377895896323,14,3,Object_Sea_Solid_Large,-2,,,,,,,,,,,
encoding,value,16.543899083975703,22.55654958402738,14,3,Object_Sea_Solid_Large,-2,,,,,,,,,,,
encoding,attention,22.55665925005451,25.574507917044684,14,3,Object_Sea_Solid_Large,-2,-2,1,0.6370496250456199,,,,,,,,
encoding,fixation,25.574691834044643,27.080264708958566,15,3,Animal_Sea_Pattern_Large,-2,,,,,,,,,,,
encoding,image,27.08038412500173,28.090760917053558,15,3,Animal_Sea_Pattern_Large,-2,,,,,,,,,,,
encoding,value,28.090873292065226,34.10151570895687,15,3,Animal_Sea_Pattern_Large,-2,,,,,,,,,,,
encoding,attention,34.10161266697105,37.1170759589877,15,3,Animal_Sea_Pattern_Large,-2,-2,1,0.62489691702649,,,,,,,,
encoding,fixation,37.117224958958104,38.37290545902215,16,3,Animal_Land_Solid_Small,-2,,,,,,,,,,,
encoding,image,38.3730369170662,39.38371470896527,16,3,Animal_Land_Solid_Small,-2,,,,,,,,,,,
encoding,value,39.38387799996417,45.39464608405251,16,3,Animal_Land_Solid_Small,-2,,,,,,,,,,,
encoding,attention,45.39475416706409,48.41134762496222,16,3,Animal_Land_Solid_Small,-2,-2,1,0.5984155830228701,,,,,,,,
encoding,fixation,48.411495374981314,49.9165916669881,17,3,Object_Land_Pattern_Large,2,,,,,,,,,,,
encoding,image,49.916769000003114,50.92878970899619,17,3,Object_Land_Pattern_Large,2,,,,,,,,,,,
encoding,value,50.92892441700678,56.942635708954185,17,3,Object_Land_Pattern_Large,2,,,,,,,,,,,
encoding,attention,56.94273595896084,59.96067212498747,17,3,Object_Land_Pattern_Large,2,+2,1,0.6609246250009164,,,,,,,,
encoding,fixation,59.96082245896105,60.71612129197456,18,3,Object_Land_Pattern_Small,2,,,,,,,,,,,
encoding,image,60.71622349997051,61.72783741704188,18,3,Object_Land_Pattern_Small,2,,,,,,,,,,,
encoding,value,61.72795095900074,67.7394469169667,18,3,Object_Land_Pattern_Small,2,,,,,,,,,,,
encoding,attention,67.73956200003158,70.75677958398592,18,3,Object_Land_Pattern_Small,2,+2,1,1.1195114169968292,,,,,,,,
n-back,,,,61,3,,,,1,None,N,False,None,,,,,
n-back,,,,62,3,,,,0,None,Z,True,None,,,,,
n-back,,,,63,3,,,,1,None,V,False,None,,,,,
n-back,,,,64,3,,,,1,None,B,False,None,,,,,
n-back,,,,65,3,,,,1,1.4176726250443608,V,True,1,,,,,
n-back,,,,66,3,,,,1,0.924120333045721,B,True,1,,,,,
n-back,,,,67,3,,,,1,None,N,False,None,,,,,
n-back,,,,68,3,,,,1,None,N,False,None,,,,,
n-back,,,,69,3,,,,1,0.5438590419944376,N,True,1,,,,,
n-back,,,,70,3,,,,1,0.6362558749970049,N,True,1,,,,,
n-back,,,,71,3,,,,1,None,Z,False,None,,,,,
n-back,,,,72,3,,,,1,None,X,False,None,,,,,
n-back,,,,73,3,,,,1,0.6685179999331012,Z,True,1,,,,,
n-back,,,,74,3,,,,1,0.6912184579996392,X,True,1,,,,,
n-back,,,,75,3,,,,1,None,N,False,None,,,,,
n-back,,,,76,3,,,,1,None,V,False,None,,,,,
n-back,,,,77,3,,,,1,None,Z,False,None,,,,,
n-back,,,,78,3,,,,1,None,Z,False,None,,,,,
n-back,,,,79,3,,,,1,0.43074870808050036,Z,True,1,,,,,
n-back,,,,80,3,,,,1,None,C,False,None,,,,,
n-back,,,,81,3,,,,1,None,N,False,None,,,,,
n-back,,,,82,3,,,,1,0.6594130829907954,C,True,1,,,,,
n-back,,,,83,3,,,,1,None,Z,False,None,,,,,
n-back,,,,84,3,,,,1,None,N,False,None,,,,,
n-back,,,,85,3,,,,1,None,B,False,None,,,,,
n-back,,,,86,3,,,,1,None,X,False,None,,,,,
n-back,,,,87,3,,,,1,0.6513870001072064,B,True,1,,,,,
n-back,,,,88,3,,,,1,None,N,False,None,,,,,
n-back,,,,89,3,,,,1,None,C,False,None,,,,,
n-back,,,,90,3,,,,0,0.5555731669301167,X,False,1,,,,,
choice,fixation,146.0959770840127,146.59927512495779,17,3,,,,,,,,,Land,,,,
choice,option,146.6078047499759,147.63643229205627,17,3,,,,,,,,,Land,,,,
choice,choice,147.63655645900872,181.8548195840558,17,3,,,1,1,33.20751295797527,,,,Land,,,,
choice,fixation,181.85494458395988,182.3598800000036,18,3,,,,,,,,,Solid,,,,
choice,option,182.36930420901626,183.39558216696605,18,3,,,,,,,,,Solid,,,,
choice,choice,183.39569412497804,204.7507269589696,18,3,,,1,1,20.344239125028253,,,,Solid,,,,
choice,fixation,204.75085308402777,206.0061672499869,19,3,,,,,,,,,Large,,,,
choice,option,206.0144771670457,207.0410944999894,19,3,,,,,,,,,Large,,,,
choice,choice,207.04120358405635,215.42829604202416,19,3,,,2,1,7.376978749991395,,,,Large,,,,
choice,fixation,215.42841375002172,216.1827337499708,20,3,,,,,,,,,Object,,,,
choice,option,216.1922851250274,217.217984042014,20,3,,,,,,,,,Object,,,,
choice,choice,217.2180984170409,224.25408412504476,20,3,,,1,1,6.0246376659488305,,,,Object,,,,
choice,fixation,224.2542034999933,225.75944024999626,21,3,,,,,,,,,Small,,,,
choice,option,225.76843329204712,226.79470375005621,21,3,,,,,,,,,Small,,,,
choice,choice,226.7948025839869,229.9969648750266,21,3,,,1,1,2.1925120829837397,,,,Small,,,,
choice,fixation,229.99710350006353,231.00218908395618,22,3,,,,,,,,,Animal,,,,
choice,option,231.01125320896972,232.03824424999766,22,3,,,,,,,,,Animal,,,,
choice,choice,232.03836708399467,234.10008500004187,22,3,,,1,1,1.0523985410109162,,,,Animal,,,,
choice,fixation,234.1002042919863,235.60533895902336,23,3,,,,,,,,,Pattern,,,,
choice,option,235.61445724999066,236.64016075001564,23,3,,,,,,,,,Pattern,,,,
choice,choice,236.64027425006498,248.15829925006256,23,3,,,1,1,10.507461083005182,,,,Pattern,,,,
choice,fixation,248.1584272920154,249.66336904198397,24,3,,,,,,,,,Sea,,,,
choice,option,249.67190329206642,250.69803808396682,24,3,,,,,,,,,Sea,,,,
choice,choice,250.69813345896546,254.67205908405595,24,3,,,1,1,2.9600398329785094,,,,Sea,,,,
memory,free_recall,262.5119890420465,273.6082128339913,12,3,,,,,,,,,,,,,
memory,value_recall,277.90569629205856,283.84779191704,13,3,Animal_Land_Solid_Small,,,,5.938180000055581,,,,,-2,,,
memory,value_recall,285.3944365000352,288.25636512506753,14,3,Object_Land_Pattern_Small,,,,2.8580275831045583,,,,,2,,,
memory,value_recall,290.3025143749546,291.88695095898584,15,3,Animal_Sea_Solid_Small,,,,1.5803366670152172,,,,,8,,,
memory,value_recall,292.92587320902385,294.2406680419808,16,3,Object_Land_Pattern_Large,,,,1.3115787080023438,,,,,2,,,
memory,value_recall,295.2832494589966,296.83127120905556,17,3,Object_Sea_Solid_Large,,,,1.5447274579200894,,,,,-2,,,
memory,value_recall,298.12710124999285,299.7067616250133,18,3,Animal_Sea_Pattern_Large,,,,1.575317749986425,,,,,-2,,,
memory,spatial_recall,303.8606229169527,307.62698995904066,18,3,Animal_Sea_Pattern_Large,,,1,3.7622995829442516,,,,,,"[-329, 190]","[-329, 190]",
memory,spatial_recall,309.18606283399276,310.59646429202985,18,3,Animal_Land_Solid_Small,,,1,1.406519667012617,,,,,,"[329, -190]","[329, -190]",
memory,spatial_recall,312.15264970902354,313.8994685000507,18,3,Object_Land_Pattern_Small,,,1,1.7428903749678284,,,,,,"[0, -380]","[0, -380]",
memory,spatial_recall,315.9642531670397,317.304923000047,18,3,Object_Sea_Solid_Large,,,1,1.3355583338998258,,,,,,"[-329, -190]","[-329, -190]",
memory,spatial_recall,318.60723616706673,320.0799531249795,18,3,Object_Land_Pattern_Large,,,1,1.4685700410045683,,,,,,"[0, 380]","[0, 380]",
memory,spatial_recall,322.1400994589785,323.6332134170225,18,3,Animal_Sea_Solid_Small,,,1,1.489107665955089,,,,,,"[329, 189]","[329, 189]",
encoding,fixation,3.625131000066176,5.12978825008031,19,4,Object_Land_Solid_Small,-9,,,,,,,,,,,
encoding,image,5.12988604104612,6.1412297079805285,19,4,Object_Land_Solid_Small,-9,,,,,,,,,,,
encoding,value,6.141361040994525,12.154533124994487,19,4,Object_Land_Solid_Small,-9,,,,,,,,,,,
encoding,attention,12.154697166057304,15.172855583019555,19,4,Object_Land_Solid_Small,-9,-9,1,0.9365176249993965,,,,,,,,
encoding,fixation,15.172989750048146,16.42822254099883,20,4,Object_Sea_Solid_Small,7,,,,,,,,,,,
encoding,image,16.428333125077188,17.438887499971315,20,4,Object_Sea_Solid_Small,7,,,,,,,,,,,
encoding,value,17.439003625069745,23.449817750020884,20,4,Object_Sea_Solid_Small,7,,,,,,,,,,,
encoding,attention,23.449959916062653,26.467449666000903,20,4,Object_Sea_Solid_Small,7,+7,1,1.6105660420143977,,,,,,,,
encoding,fixation,26.467603500001132,27.22268837504089,21,4,Animal_Sea_Pattern_Small,4,,,,,,,,,,,
encoding,image,27.222787416074425,28.23799350007903,21,4,Animal_Sea_Pattern_Small,4,,,,,,,,,,,
encoding,value,28.23811137501616,34.25039420800749,21,4,Animal_Sea_Pattern_Small,4,,,,,,,,,,,
encoding,attention,34.2505226660287,37.26857720804401,21,4,Animal_Sea_Pattern_Small,4,+4,1,1.1245939589571208,,,,,,,,
encoding,fixation,37.26872870803345,38.273720624973066,22,4,Animal_Land_Pattern_Large,7,,,,,,,,,,,
encoding,image,38.27382200001739,39.285052124992944,22,4,Animal_Land_Pattern_Large,7,,,,,,,,,,,
encoding,value,39.2851693329867,45.29627050005365,22,4,Animal_Land_Pattern_Large,7,,,,,,,,,,,
encoding,attention,45.29637450003065,48.313371040974744,22,4,Animal_Land_Pattern_Large,7,+7,1,1.4853943339549005,,,,,,,,
encoding,fixation,48.31351337500382,48.818953333073296,23,4,Object_Land_Solid_Large,1,,,,,,,,,,,
encoding,image,48.81909408303909,49.828387166024186,23,4,Object_Land_Solid_Large,1,,,,,,,,,,,
encoding,value,49.82854654104449,55.83890049997717,23,4,Object_Land_Solid_Large,1,,,,,,,,,,,
encoding,attention,55.83900816598907,58.85596687498037,23,4,Object_Land_Solid_Large,1,+1,1,1.3571655000559986,,,,,,,,
encoding,fixation,58.856114000082016,59.611092125065625,24,4,Animal_Sea_Pattern_Large,-7,,,,,,,,,,,
encoding,image,59.61119733308442,60.6226773330709,24,4,Animal_Sea_Pattern_Large,-7,,,,,,,,,,,
encoding,value,60.622786250081845,66.63352783303708,24,4,Animal_Sea_Pattern_Large,-7,,,,,,,,,,,
encoding,attention,66.63366545806639,69.65016249998007,24,4,Animal_Sea_Pattern_Large,-7,-7,1,1.2441147919744253,,,,,,,,
n-back,,,,91,4,,,,0,None,N,True,None,,,,,
n-back,,,,92,4,,,,0,None,B,True,None,,,,,
n-back,,,,93,4,,,,1,None,Z,False,None,,,,,
n-back,,,,94,4,,,,1,None,Z,False,None,,,,,
n-back,,,,95,4,,,,1,0.5103747498942539,Z,True,1,,,,,
n-back,,,,96,4,,,,1,None,N,False,None,,,,,
n-back,,,,97,4,,,,1,None,C,False,None,,,,,
n-back,,,,98,4,,,,1,None,Z,False,None,,,,,
n-back,,,,99,4,,,,1,0.40285229205619544,C,True,1,,,,,
n-back,,,,100,4,,,,1,None,N,False,None,,,,,
n-back,,,,101,4,,,,1,None,Z,False,None,,,,,
n-back,,,,102,4,,,,1,0.41884204105008394,N,True,1,,,,,
n-back,,,,103,4,,,,1,0.5791649159509689,Z,True,1,,,,,
n-back,,,,104,4,,,,1,None,X,False,None,,,,,
n-back,,,,105,4,,,,1,None,V,False,None,,,,,
n-back,,,,106,4,,,,1,None,Z,False,None,,,,,
n-back,,,,107,4,,,,1,0.4218812499893829,V,True,1,,,,,
n-back,,,,108,4,,,,1,0.41934787505306304,Z,True,1,,,,,
n-back,,,,109,4,,,,1,0.7283459579339251,V,True,1,,,,,
n-back,,,,110,4,,,,1,None,X,False,None,,,,,
n-back,,,,111,4,,,,1,None,N,False,None,,,,,
n-back,,,,112,4,,,,1,0.5510520419338718,X,True,1,,,,,
n-back,,,,113,4,,,,1,None,C,False,None,,,,,
n-back,,,,114,4,,,,1,None,C,False,None,,,,,
n-back,,,,115,4,,,,1,None,N,False,None,,,,,
n-back,,,,116,4,,,,1,None,Z,False,None,,,,,
n-back,,,,117,4,,,,1,None,V,False,None,,,,,
n-back,,,,118,4,,,,1,None,C,False,None,,,,,
n-back,,,,119,4,,,,1,None,X,False,None,,,,,
n-back,,,,120,4,,,,1,None,N,False,None,,,,,
choice,fixation,150.09579954098444,150.84917158307508,25,4,,,,,,,,,Land,,,,
choice,option,150.85769441607408,151.88547854102217,25,4,,,,,,,,,Land,,,,
choice,choice,151.8856321660569,167.9825780830579,25,4,,,1,0,15.08604804193601,,,,Land,,,,
choice,fixation,167.98270187503658,168.73752279102337,26,4,,,,,,,,,Object,,,,
choice,option,168.7468490410829,169.77244920807425,26,4,,,,,,,,,Object,,,,
choice,choice,169.77256016607862,183.97804083302617,26,4,,,1,0,13.194192833034322,,,,Object,,,,
choice,fixation,183.97818545799237,184.48377900000196,27,4,,,,,,,,,Animal,,,,
choice,option,184.49337066605221,185.52014616597444,27,4,,,,,,,,,Animal,,,,
choice,choice,185.52027216600254,193.2863536659861,27,4,,,1,1,6.755183957982808,,,,Animal,,,,
choice,fixation,193.2864663330838,194.5413698750781,28,4,,,,,,,,,Small,,,,
choice,option,194.5502910410287,195.57745300000533,28,4,,,,,,,,,Small,,,,
choice,choice,195.57761462498456,208.3110642080428,28,4,,,1,1,11.721790582989343,,,,Small,,,,
choice,fixation,208.31125441601034,209.06617750006262,29,4,,,,,,,,,Solid,,,,
choice,option,209.07542233297136,210.10113537497818,29,4,,,,,,,,,Solid,,,,
choice,choice,210.1012422500644,226.83257308299653,29,4,,,2,1,15.720312208984978,,,,Solid,,,,
choice,fixation,226.83271512505598,228.33757841598708,30,4,,,,,,,,,Large,,,,
choice,option,228.34602945798542,229.3729960829951,30,4,,,,,,,,,Large,,,,
choice,choice,229.3731305000838,238.44770150003023,30,4,,,1,1,8.06427795800846,,,,Large,,,,
choice,fixation,238.4479024159955,239.705815791036,31,4,,,,,,,,,Sea,,,,
choice,option,239.71444129105657,240.74042599997483,31,4,,,,,,,,,Sea,,,,
choice,choice,240.740552125033,247.9446641249815,31,4,,,1,1,6.194624542025849,,,,Sea,,,,
choice,fixation,247.94478087499738,248.70023733307607,32,4,,,,,,,,,Pattern,,,,
choice,option,248.70929762499873,249.73789833299816,32,4,,,,,,,,,Pattern,,,,
choice,choice,249.73801808303688,255.37500950007234,32,4,,,1,1,4.627517707995139,,,,Pattern,,,,
memory,free_recall,273.2078080410138,284.58963320800103,18,4,,,,,,,,,,,,,
memory,value_recall,293.4019442080753,295.2079505410511,19,4,Object_Land_Solid_Large,,,,1.802141541033052,,,,,1,,,
memory,value_recall,296.75530116597656,301.1453544580145,20,4,Object_Sea_Solid_Small,,,,4.385755542083643,,,,,7,,,
memory,value_recall,302.19017199997324,304.28942366607953,21,4,Object_Land_Solid_Small,,,,2.09596004197374,,,,,-9,,,
memory,value_recall,305.8350455000764,307.3531647910131,22,4,Animal_Sea_Pattern_Small,,,,1.5139009999111295,,,,,4,,,
memory,value_recall,308.394180333009,309.48121595801786,23,4,Animal_Land_Pattern_Large,,,,1.084424417000264,,,,,7,,,
memory,value_recall,311.52862008300144,314.153891999973,24,4,Animal_Sea_Pattern_Large,,,,2.6211360410088673,,,,,-7,,,
memory,spatial_recall,318.4545968750026,320.4968700830359,24,4,Object_Sea_Solid_Small,,,1,2.03829570801463,,,,,,"[329, -190]","[329, -190]",
memory,spatial_recall,321.55427333305124,323.35350758302957,24,4,Animal_Sea_Pattern_Large,,,1,1.7967306250939146,,,,,,"[-329, 190]","[-329, 190]",
memory,spatial_recall,324.4105311250314,326.7791742500849,24,4,Animal_Land_Pattern_Large,,,1,2.366291290964,,,,,,"[0, -380]","[0, -380]",
memory,spatial_recall,328.8312379580457,330.7295115829911,24,4,Object_Land_Solid_Large,,,1,1.894055875018239,,,,,,"[329, 189]","[329, 189]",
memory,spatial_recall,331.78823962504975,333.26297137502115,24,4,Animal_Sea_Pattern_Small,,,1,1.4708641670877114,,,,,,"[0, 380]","[0, 380]",
memory,spatial_recall,334.57230154098943,335.82624654099345,24,4,Object_Land_Solid_Small,,,1,1.2500132089480758,,,,,,"[-329, -190]","[-329, -190]",
encoding,fixation,4.142541541950777,5.147906792000867,25,5,Object_Sea_Pattern_Large,-3,,,,,,,,,,,
encoding,image,5.148012083955109,6.159257624996826,25,5,Object_Sea_Pattern_Large,-3,,,,,,,,,,,
encoding,value,6.15937558398582,12.173128666938283,25,5,Object_Sea_Pattern_Large,-3,,,,,,,,,,,
encoding,attention,12.173235583934002,15.191605209023692,25,5,Object_Sea_Pattern_Large,-3,-3,1,1.2841280830325559,,,,,,,,
encoding,fixation,15.191809084033594,15.69682162499521,26,5,Animal_Land_Pattern_Small,-7,,,,,,,,,,,
encoding,image,15.696975291939452,16.708272250019945,26,5,Animal_Land_Pattern_Small,-7,,,,,,,,,,,
encoding,value,16.708396291942336,22.721309624961577,26,5,Animal_Land_Pattern_Small,-7,,,,,,,,,,,
encoding,attention,22.72150058404077,25.741296999971382,26,5,Animal_Land_Pattern_Small,-7,-7,1,0.8973460419801995,,,,,,,,
encoding,fixation,25.741495791939087,27.246829584008083,27,5,Animal_Land_Solid_Large,9,,,,,,,,,,,
encoding,image,27.246935124974698,28.2584052500315,27,5,Animal_Land_Solid_Large,9,,,,,,,,,,,
encoding,value,28.258528791950084,34.27155354199931,27,5,Animal_Land_Solid_Large,9,,,,,,,,,,,
encoding,attention,34.27167591697071,37.290989791974425,27,5,Animal_Land_Solid_Large,9,+9,1,0.5919250830775127,,,,,,,,
encoding,fixation,37.29113374999724,37.79608724999707,28,5,Object_Land_Solid_Small,-5,,,,,,,,,,,
encoding,image,37.796180333942175,38.80651195894461,28,5,Object_Land_Solid_Small,-5,,,,,,,,,,,
encoding,value,38.8066775839543,44.82151449995581,28,5,Object_Land_Solid_Small,-5,,,,,,,,,,,
encoding,attention,44.82163545896765,47.834992334013805,28,5,Object_Land_Solid_Small,-5,None,None,None,,,,,,,,
encoding,fixation,47.83512454200536,48.58999312494416,29,5,Animal_Sea_Solid_Large,-5,,,,,,,,,,,
encoding,image,48.59008925000671,49.60248191701248,29,5,Animal_Sea_Solid_Large,-5,,,,,,,,,,,
encoding,value,49.602589749963954,55.614235333981924,29,5,Animal_Sea_Solid_Large,-5,,,,,,,,,,,
encoding,attention,55.614357749931514,58.63193691696506,29,5,Animal_Sea_Solid_Large,-5,-5,1,0.7241924579720944,,,,,,,,
encoding,fixation,58.63210620894097,59.886344959028065,30,5,Object_Sea_Pattern_Small,9,,,,,,,,,,,
encoding,image,59.88646249996964,60.89727395900991,30,5,Object_Sea_Pattern_Small,9,,,,,,,,,,,
encoding,value,60.89738545904402,66.90892862493638,30,5,Object_Sea_Pattern_Small,9,,,,,,,,,,,
encoding,attention,66.9090485839406,69.92650095897261,30,5,Object_Sea_Pattern_Small,9,+9,1,1.0155289999675006,,,,,,,,
n-back,,,,121,5,,,,1,None,N,False,None,,,,,
n-back,,,,122,5,,,,1,None,Z,False,None,,,,,
n-back,,,,123,5,,,,1,None,X,False,None,,,,,
n-back,,,,124,5,,,,1,None,B,False,None,,,,,
n-back,,,,125,5,,,,1,None,V,False,None,,,,,
n-back,,,,126,5,,,,1,None,Z,False,None,,,,,
n-back,,,,127,5,,,,1,0.5657781669870019,V,True,1,,,,,
n-back,,,,128,5,,,,1,None,N,False,None,,,,,
n-back,,,,129,5,,,,1,None,C,False,None,,,,,
n-back,,,,130,5,,,,1,None,V,False,None,,,,,
n-back,,,,131,5,,,,1,0.4095435419585556,C,True,1,,,,,
n-back,,,,132,5,,,,1,None,B,False,None,,,,,
n-back,,,,133,5,,,,1,0.8223370829364285,C,True,1,,,,,
n-back,,,,134,5,,,,1,0.7536649589892477,B,True,1,,,,,
n-back,,,,135,5,,,,1,None,X,False,None,,,,,
n-back,,,,136,5,,,,1,0.39626308297738433,B,True,1,,,,,
n-back,,,,137,5,,,,1,None,V,False,None,,,,,
n-back,,,,138,5,,,,1,None,X,False,None,,,,,
n-back,,,,139,5,,,,0,0.7388807920506224,X,False,1,,,,,
n-back,,,,140,5,,,,1,0.6457637920975685,X,True,1,,,,,
n-back,,,,141,5,,,,1,None,B,False,None,,,,,
n-back,,,,142,5,,,,1,None,C,False,None,,,,,
n-back,,,,143,5,,,,1,0.5150127079105005,B,True,1,,,,,
n-back,,,,144,5,,,,1,None,V,False,None,,,,,
n-back,,,,145,5,,,,1,0.4666571249254048,B,True,1,,,,,
n-back,,,,146,5,,,,1,0.6760579170659184,V,True,1,,,,,
n-back,,,,147,5,,,,1,None,C,False,None,,,,,
n-back,,,,148,5,,,,1,0.6433459999971092,V,True,1,,,,,
n-back,,,,149,5,,,,1,None,N,False,None,,,,,
n-back,,,,150,5,,,,1,None,B,False,None,,,,,
choice,fixation,145.5028324170271,147.00630533404183,33,5,,,,,,,,,Object,,,,
choice,option,147.01518633402884,148.0427022089716,33,5,,,,,,,,,Object,,,,
choice,choice,148.04281987494323,168.0903885839507,33,5,,,1,1,19.036868416937068,,,,Object,,,,
choice,fixation,168.09051804197952,169.09550370892975,34,5,,,,,,,,,Sea,,,,
choice,option,169.10393795894925,170.130444334005,34,5,,,,,,,,,Sea,,,,
choice,choice,170.1305580419721,179.94644291698933,34,5,,,1,1,8.802479250007309,,,,Sea,,,,
choice,fixation,179.94656645902433,180.70459420897532,35,5,,,,,,,,,Large,,,,
choice,option,180.71337533392943,181.7396174169844,35,5,,,,,,,,,Large,,,,
choice,choice,181.73971058393363,194.74844358395785,35,5,,,1,1,11.9978993749246,,,,Large,,,,
choice,fixation,194.74857475003228,196.0036000419641,36,5,,,,,,,,,Pattern,,,,
choice,option,196.01288099994417,197.03886879200581,36,5,,,,,,,,,Pattern,,,,
choice,choice,197.03898104198743,205.23539716703817,36,5,,,1,0,7.186649541021325,,,,Pattern,,,,
choice,fixation,205.23557291703764,205.74062795902137,37,5,,,,,,,,,Animal,,,,
choice,option,205.75003925000783,206.77693666704,37,5,,,,,,,,,Animal,,,,
choice,choice,206.7770467089722,217.47620145895053,37,5,,,2,1,9.688739584060386,,,,Animal,,,,
choice,fixation,217.47632024995983,218.23128633399028,38,5,,,,,,,,,Solid,,,,
choice,option,218.24076175002847,219.26681054197252,38,5,,,,,,,,,Solid,,,,
choice,choice,219.2669480839977,229.65072395897005,38,5,,,2,1,9.37356112501584,,,,Solid,,,,
choice,fixation,229.65085379197262,230.40585075004492,39,5,,,,,,,,,Land,,,,
choice,option,230.41422904201318,231.44043166702613,39,5,,,,,,,,,Land,,,,
choice,choice,231.44053474999964,248.47836233396083,39,5,,,2,1,16.027387458947487,,,,Land,,,,
choice,fixation,248.47849912499078,249.48396108404268,40,5,,,,,,,,,Small,,,,
choice,option,249.49336854193825,250.51940704195295,40,5,,,,,,,,,Small,,,,
choice,choice,250.51951370900497,260.1590947089717,40,5,,,2,1,8.628625291981734,,,,Small,,,,
memory,free_recall,268.7190888340119,281.15624699997716,24,5,,,,,,,,,,,,,
memory,value_recall,284.6496896670433,286.95621045900043,25,5,Animal_Sea_Solid_Large,,,,2.3022227080073208,,,,,-5,,,
memory,value_recall,288.75102983403485,290.3504727089312,26,5,Object_Land_Solid_Small,,,,1.5954340420430526,,,,,-5,,,
memory,value_recall,292.3959022089839,293.88592399994377,27,5,Animal_Land_Pattern_Small,,,,1.486019208910875,,,,,-7,,,
memory,value_recall,295.68136420904193,297.036340749939,28,5,Object_Sea_Pattern_Small,,,,1.3508251670282334,,,,,9,,,
memory,value_recall,298.8311613750411,300.510290834005,29,5,Object_Sea_Pattern_Large,,,,1.6743590839905664,,,,,-3,,,
memory,value_recall,302.3051537090214,304.4056570000248,30,5,Animal_Land_Solid_Large,,,,2.096643332974054,,,,,9,,,
memory,spatial_recall,308.6421423340216,312.079377542017,30,5,Object_Land_Solid_Small,,,1,3.4332445829641074,,,,,,"[-329, -190]","[-329, -190]",
memory,spatial_recall,313.3910685420269,315.39573429198936,30,5,Animal_Land_Pattern_Small,,,1,2.0005836670752615,,,,,,"[329, -190]","[329, -190]",
memory,spatial_recall,317.4553673749324,318.61953320901375,30,5,Object_Sea_Pattern_Large,,,1,1.1602325829444453,,,,,,"[0, -380]","[0, -380]",
memory,spatial_recall,319.9187259169994,322.1002442500321,30,5,Animal_Sea_Solid_Large,,,1,2.177503291051835,,,,,,"[329, 189]","[329, 189]",
memory,spatial_recall,323.6593080839375,325.612182874931,30,5,Object_Sea_Pattern_Small,,,1,1.948566082981415,,,,,,"[-329, 190]","[-329, 190]",
memory,spatial_recall,327.67138129193336,328.94530991697684,30,5,Animal_Land_Solid_Large,,,1,1.2700487088877708,,,,,,"[0, 380]","[0, 380]",
encoding,fixation,2.5704396669752896,3.8264600419206545,31,6,Object_Land_Pattern_Large,7,,,,,,,,,,,
encoding,image,3.8265860839746892,4.838706791982986,31,6,Object_Land_Pattern_Large,7,,,,,,,,,,,
encoding,value,4.838830166961998,10.853393625002354,31,6,Object_Land_Pattern_Large,7,,,,,,,,,,,
encoding,attention,10.853555292007513,13.872729874914512,31,6,Object_Land_Pattern_Large,7,+7,1,0.8558301669545472,,,,,,,,
encoding,fixation,13.872901333961636,14.627904583932832,32,6,Animal_Land_Solid_Small,-2,,,,,,,,,,,
encoding,image,14.628022708930075,15.639076083898544,32,6,Animal_Land_Solid_Small,-2,,,,,,,,,,,
encoding,value,15.639190666959621,21.65096737490967,32,6,Animal_Land_Solid_Small,-2,,,,,,,,,,,
encoding,attention,21.651102499919944,24.669019208988175,32,6,Animal_Land_Solid_Small,-2,-2,1,0.6508575839689001,,,,,,,,
encoding,fixation,24.669191666995175,25.424062334001064,33,6,Object_Land_Pattern_Small,-4,,,,,,,,,,,
encoding,image,25.42416874994524,26.435211709002033,33,6,Object_Land_Pattern_Small,-4,,,,,,,,,,,
encoding,value,26.43531874998007,32.44696904195007,33,6,Object_Land_Pattern_Small,-4,,,,,,,,,,,
encoding,attention,32.44707887491677,35.46403529192321,33,6,Object_Land_Pattern_Small,-4,-4,1,0.7614379579899833,,,,,,,,
encoding,fixation,35.46417900000233,36.722560458933,34,6,Animal_Sea_Pattern_Large,-4,,,,,,,,,,,
encoding,image,36.722697166958824,37.733235416933894,34,6,Animal_Sea_Pattern_Large,-4,,,,,,,,,,,
encoding,value,37.73335162492003,43.744101624935865,34,6,Animal_Sea_Pattern_Large,-4,,,,,,,,,,,
encoding,attention,43.744219666928984,46.76014229201246,34,6,Animal_Sea_Pattern_Large,-4,-4,1,0.6005371669307351,,,,,,,,
encoding,fixation,46.760290666949004,47.2656293339096,35,6,Animal_Sea_Solid_Small,7,,,,,,,,,,,
encoding,image,47.265731083927676,48.27641845890321,35,6,Animal_Sea_Solid_Small,7,,,,,,,,,,,
encoding,value,48.27652641700115,54.288255249965005,35,6,Animal_Sea_Solid_Small,7,,,,,,,,,,,
encoding,attention,54.288382999948226,57.30569891689811,35,6,Animal_Sea_Solid_Small,7,+7,1,1.6069662499940023,,,,,,,,
encoding,fixation,57.3058447499061,58.06091020896565,36,6,Object_Sea_Solid_Large,-4,,,,,,,,,,,
encoding,image,58.06103754194919,59.07266066700686,36,6,Object_Sea_Solid_Large,-4,,,,,,,,,,,
encoding,value,59.07277591701131,65.08451012498699,36,6,Object_Sea_Solid_Large,-4,,,,,,,,,,,
encoding,attention,65.08461912500206,68.10400191694498,36,6,Object_Sea_Solid_Large,-4,-4,1,1.6338139170547947,,,,,,,,
n-back,,,,151,6,,,,1,None,C,False,None,,,,,
n-back,,,,152,6,,,,1,None,B,False,None,,,,,
n-back,,,,153,6,,,,1,None,X,False,None,,,,,
n-back,,,,154,6,,,,1,None,N,False,None,,,,,
n-back,,,,155,6,,,,1,0.47676458302885294,X,True,1,,,,,
n-back,,,,156,6,,,,0,None,N,True,None,,,,,
n-back,,,,157,6,,,,1,None,C,False,None,,,,,
n-back,,,,158,6,,,,1,None,Z,False,None,,,,,
n-back,,,,159,6,,,,1,None,N,False,None,,,,,
n-back,,,,160,6,,,,1,None,C,False,None,,,,,
n-back,,,,161,6,,,,1,None,V,False,None,,,,,
n-back,,,,162,6,,,,1,0.6445118749979883,C,True,1,,,,,
n-back,,,,163,6,,,,1,None,B,False,None,,,,,
n-back,,,,164,6,,,,1,0.35581370908766985,C,True,1,,,,,
n-back,,,,165,6,,,,1,None,V,False,None,,,,,
n-back,,,,166,6,,,,1,None,V,False,None,,,,,
n-back,,,,167,6,,,,1,0.4157152499537915,V,True,1,,,,,
n-back,,,,168,6,,,,1,None,Z,False,None,,,,,
n-back,,,,169,6,,,,1,None,X,False,None,,,,,
n-back,,,,170,6,,,,1,None,N,False,None,,,,,
n-back,,,,171,6,,,,1,0.40594404202420264,X,True,1,,,,,
n-back,,,,172,6,,,,1,None,C,False,None,,,,,
n-back,,,,173,6,,,,1,1.1482638330198824,X,True,1,,,,,
n-back,,,,174,6,,,,1,0.6646404159255326,C,True,1,,,,,
n-back,,,,175,6,,,,1,None,Z,False,None,,,,,
n-back,,,,176,6,,,,1,None,V,False,None,,,,,
n-back,,,,177,6,,,,1,None,X,False,None,,,,,
n-back,,,,178,6,,,,1,0.7806255830219015,V,True,1,,,,,
n-back,,,,179,6,,,,1,None,C,False,None,,,,,
n-back,,,,180,6,,,,1,0.6122444999637082,V,True,1,,,,,
choice,fixation,142.99383795890026,143.99717008392327,41,6,,,,,,,,,Land,,,,
choice,option,144.00546520890202,145.03288591699675,41,6,,,,,,,,,Land,,,,
choice,choice,145.03302745893598,180.86481075000484,41,6,,,1,1,34.82091787504032,,,,Land,,,,
choice,fixation,180.8649531250121,182.12231679190882,42,6,,,,,,,,,Animal,,,,
choice,option,182.1316634999821,183.15880758396816,42,6,,,,,,,,,Animal,,,,
choice,choice,183.15902954200283,193.45855091698468,42,6,,,1,1,9.28916908300016,,,,Animal,,,,
choice,fixation,193.45867199997883,194.7134666669881,43,6,,,,,,,,,Large,,,,
choice,option,194.72216537490021,195.7479280839907,43,6,,,,,,,,,Large,,,,
choice,choice,195.74804279196542,205.89453716692515,43,6,,,2,1,9.135290417005308,,,,Large,,,,
choice,fixation,205.89466508396436,207.39982358401176,44,6,,,,,,,,,Solid,,,,
choice,option,207.4092110840138,208.43751366692595,44,6,,,,,,,,,Solid,,,,
choice,choice,208.4376298339339,225.20071658398956,44,6,,,1,1,15.752294708043337,,,,Solid,,,,
choice,fixation,225.2008332919795,226.45562283392064,45,6,,,,,,,,,Small,,,,
choice,option,226.46426995890215,227.49105466692708,45,6,,,,,,,,,Small,,,,
choice,choice,227.49115766701289,250.51299124991056,45,6,,,2,0,22.01103254093323,,,,Small,,,,
choice,fixation,250.5131248749094,251.76746887492482,46,6,,,,,,,,,Sea,,,,
choice,option,251.77568133396562,252.80309308390133,46,6,,,,,,,,,Sea,,,,
choice,choice,252.80321283394005,260.5132264170097,46,6,,,1,0,6.700038500013761,,,,Sea,,,,
choice,fixation,260.5133473749738,261.0183399169473,47,6,,,,,,,,,Object,,,,
choice,option,261.0276273339987,262.05339320900384,47,6,,,,,,,,,Object,,,,
choice,choice,262.0535075839143,270.494849708979,47,6,,,1,0,7.431222124956548,,,,Object,,,,
choice,fixation,270.49497174995486,271.24994787492324,48,6,,,,,,,,,Pattern,,,,
choice,option,271.25898895889986,272.2851879999507,48,6,,,,,,,,,Pattern,,,,
choice,choice,272.2852984169731,278.4077434169594,48,6,,,1,0,5.113205374917015,,,,Pattern,,,,
memory,free_recall,294.354442874901,306.95332966698334,30,6,,,,,,,,,,,,,
memory,value_recall,309.6726849589031,313.6574664999498,31,6,Object_Land_Pattern_Small,,,,3.980853666900657,,,,,-4,,,
memory,value_recall,314.95503399998415,316.60908295901027,32,6,Animal_Sea_Solid_Small,,,,1.6498184580123052,,,,,7,,,
memory,value_recall,317.65005016699433,319.3871415419271,33,6,Animal_Sea_Pattern_Large,,,,1.7338788750348613,,,,,-4,,,
memory,value_recall,321.1822762499796,323.5389316669898,34,6,Object_Land_Pattern_Large,,,,2.352373459027149,,,,,7,,,
memory,value_recall,325.08414125000127,326.87393045891076,35,6,Object_Sea_Solid_Large,,,,1.7857478329678997,,,,,-4,,,
memory,value_recall,328.92131108394824,330.5610344170127,36,6,Animal_Land_Solid_Small,,,,1.6356771249556914,,,,,-2,,,
memory,spatial_recall,334.362747541978,336.8294988339767,36,6,Animal_Sea_Pattern_Large,,,1,2.4627657079836354,,,,,,"[-329, 190]","[-329, 190]",
memory,spatial_recall,338.39423999993596,342.1434414999094,36,6,Object_Sea_Solid_Large,,,1,3.7449683339800686,,,,,,"[-329, -190]","[-329, -190]",
memory,spatial_recall,343.95308833394665,345.0461438749917,36,6,Object_Land_Pattern_Large,,,1,1.0889188749715686,,,,,,"[0, 380]","[0, 380]",
memory,spatial_recall,346.59582104196306,349.0633634169353,36,6,Animal_Land_Solid_Small,,,1,2.4633466250961646,,,,,,"[329, -190]","[329, -190]",
memory,spatial_recall,351.12191733391955,354.01770354190376,36,6,Animal_Sea_Solid_Small,,,1,2.891908541903831,,,,,,"[329, 189]","[329, 189]",
memory,spatial_recall,355.07925599999726,357.1462715419475,36,6,Object_Land_Pattern_Small,,,1,2.0647447500377893,,,,,,"[0, -380]","[0, -380]",
encoding,fixation,5.608571166987531,6.113899125019088,37,7,Animal_Sea_Pattern_Small,-5,,,,,,,,,,,
encoding,image,6.114044416928664,7.127901374944486,37,7,Animal_Sea_Pattern_Small,-5,,,,,,,,,,,
encoding,value,7.128015500027686,13.144580624997616,37,7,Animal_Sea_Pattern_Small,-5,,,,,,,,,,,
encoding,attention,13.144726708997041,16.163511874969117,37,7,Animal_Sea_Pattern_Small,-5,-5,1,0.5528478330234066,,,,,,,,
encoding,fixation,16.163659374928102,17.669166249921545,38,7,Object_Land_Solid_Large,-9,,,,,,,,,,,
encoding,image,17.669267333927564,18.679777708952315,38,7,Object_Land_Solid_Large,-9,,,,,,,,,,,
encoding,value,18.67988841701299,24.69272854202427,38,7,Object_Land_Solid_Large,-9,,,,,,,,,,,
encoding,attention,24.69287245895248,27.70966824993957,38,7,Object_Land_Solid_Large,-9,-9,1,1.0563157920259982,,,,,,,,
encoding,fixation,27.70982616697438,28.714894542004913,39,7,Animal_Land_Pattern_Large,1,,,,,,,,,,,
encoding,image,28.715001249918714,29.72599791700486,39,7,Animal_Land_Pattern_Large,1,,,,,,,,,,,
encoding,value,29.726116916979663,35.738266499945894,39,7,Animal_Land_Pattern_Large,1,,,,,,,,,,,
encoding,attention,35.73837687494233,38.75535062502604,39,7,Animal_Land_Pattern_Large,1,+1,1,0.8510428339941427,,,,,,,,
encoding,fixation,38.75549241702538,39.51189804193564,40,7,Object_Sea_Solid_Large,2,,,,,,,,,,,
encoding,image,39.51200574997347,40.523887958959676,40,7,Object_Sea_Solid_Large,2,,,,,,,,,,,
encoding,value,40.52400612493511,46.53579695895314,40,7,Object_Sea_Solid_Large,2,,,,,,,,,,,
encoding,attention,46.53591558395419,49.553379209013656,40,7,Object_Sea_Solid_Large,2,+2,1,0.6518397079780698,,,,,,,,
encoding,fixation,49.55353037500754,50.05871354194824,41,7,Object_Sea_Pattern_Small,2,,,,,,,,,,,
encoding,image,50.05881750001572,51.0699831249658,41,7,Object_Sea_Pattern_Small,2,,,,,,,,,,,
encoding,value,51.070184791926295,57.08121420897078,41,7,Object_Sea_Pattern_Small,2,,,,,,,,,,,
encoding,attention,57.08133191696834,60.097486083977856,41,7,Object_Sea_Pattern_Small,2,+2,1,0.81203670904506,,,,,,,,
encoding,fixation,60.09764929197263,61.352678499999456,42,7,Animal_Land_Solid_Small,1,,,,,,,,,,,
encoding,image,61.3527929589618,62.36332508397754,42,7,Animal_Land_Solid_Small,1,,,,,,,,,,,
encoding,value,62.36342287494335,68.37490112497471,42,7,Animal_Land_Solid_Small,1,,,,,,,,,,,
encoding,attention,68.37501704192255,71.39195283397567,42,7,Animal_Land_Solid_Small,1,+1,1,0.8133477079682052,,,,,,,,
n-back,,,,181,7,,,,1,None,Z,False,None,,,,,
n-back,,,,182,7,,,,1,None,X,False,None,,,,,
n-back,,,,183,7,,,,1,None,B,False,None,,,,,
n-back,,,,184,7,,,,1,0.6279944170964882,X,True,1,,,,,
n-back,,,,185,7,,,,1,None,Z,False,None,,,,,
n-back,,,,186,7,,,,1,None,Z,False,None,,,,,
n-back,,,,187,7,,,,1,0.5240274589741603,Z,True,1,,,,,
n-back,,,,188,7,,,,1,None,C,False,None,,,,,
n-back,,,,189,7,,,,1,0.35102599998936057,Z,True,1,,,,,
n-back,,,,190,7,,,,1,0.3851112499833107,C,True,1,,,,,
n-back,,,,191,7,,,,1,None,C,False,None,,,,,
n-back,,,,192,7,,,,1,None,N,False,None,,,,,
n-back,,,,193,7,,,,1,0.3698657499626279,C,True,1,,,,,
n-back,,,,194,7,,,,1,None,C,False,None,,,,,
n-back,,,,195,7,,,,1,None,V,False,None,,,,,
n-back,,,,196,7,,,,1,None,B,False,None,,,,,
n-back,,,,197,7,,,,1,0.4442744579864666,V,True,1,,,,,
n-back,,,,198,7,,,,1,None,X,False,None,,,,,
n-back,,,,199,7,,,,1,None,C,False,None,,,,,
n-back,,,,200,7,,,,1,None,Z,False,None,,,,,
n-back,,,,201,7,,,,1,None,N,False,None,,,,,
n-back,,,,202,7,,,,1,0.40878387505654246,Z,True,1,,,,,
n-back,,,,203,7,,,,1,None,B,False,None,,,,,
n-back,,,,204,7,,,,1,None,X,False,None,,,,,
n-back,,,,205,7,,,,1,0.7304744579596445,B,True,1,,,,,
n-back,,,,206,7,,,,1,0.5702589999418706,X,True,1,,,,,
n-back,,,,207,7,,,,1,None,X,False,None,,,,,
n-back,,,,208,7,,,,0,0.4456886249827221,B,False,1,,,,,
n-back,,,,209,7,,,,1,0.6531440829858184,X,True,1,,,,,
n-back,,,,210,7,,,,1,None,C,False,None,,,,,
choice,fixation,143.62935791700147,144.13257120898925,49,7,,,,,,,,,Solid,,,,
choice,option,144.14151841693092,145.16632141696755,49,7,,,,,,,,,Solid,,,,
choice,choice,145.1664387920173,158.54365258396138,49,7,,,2,1,12.365650417050347,,,,Solid,,,,
choice,fixation,158.54377112502698,159.29883787501603,50,7,,,,,,,,,Small,,,,
choice,option,159.3075435840292,160.33349812496454,50,7,,,,,,,,,Small,,,,
choice,choice,160.33361624996178,172.06972120900173,50,7,,,2,1,10.725417791050859,,,,Small,,,,
choice,fixation,172.06985183397774,172.5773602919653,51,7,,,,,,,,,Pattern,,,,
choice,option,172.58609520900063,173.6120199590223,51,7,,,,,,,,,Pattern,,,,
choice,choice,173.6121199169429,184.02320520894136,51,7,,,2,1,9.400387874920852,,,,Pattern,,,,
choice,fixation,184.02333020896185,184.52828224992845,52,7,,,,,,,,,Land,,,,
choice,option,184.53687524993438,185.56282916700002,52,7,,,,,,,,,Land,,,,
choice,choice,185.5629845840158,192.85416791692842,52,7,,,2,1,6.281259207986295,,,,Land,,,,
choice,fixation,192.8542871249374,193.3594064170029,53,7,,,,,,,,,Large,,,,
choice,option,193.36778441700153,194.39474845898803,53,7,,,,,,,,,Large,,,,
choice,choice,194.39492091699503,201.80610341695137,53,7,,,2,1,6.40163429104723,,,,Large,,,,
choice,fixation,201.80623008392286,203.0611627920298,54,7,,,,,,,,,Sea,,,,
choice,option,203.06991487496998,204.09609691693913,54,7,,,,,,,,,Sea,,,,
choice,choice,204.0962162920041,212.19837195891887,54,7,,,2,1,7.092488958965987,,,,Sea,,,,
choice,fixation,212.19851220899727,213.2034173749853,55,7,,,,,,,,,Animal,,,,
choice,option,213.2129322499968,214.23914258403238,55,7,,,,,,,,,Animal,,,,
choice,choice,214.23925404192414,223.5645435419865,55,7,,,2,1,8.314516582991928,,,,Animal,,,,
choice,fixation,223.56467641692143,225.06969541695435,56,7,,,,,,,,,Object,,,,
choice,option,225.079197541927,226.10534112493042,56,7,,,,,,,,,Object,,,,
choice,choice,226.10552979202475,229.57315495901275,56,7,,,2,1,2.457128416048363,,,,Object,,,,
memory,free_recall,247.5678011670243,262.319689291995,36,7,,,,,,,,,,,,,
memory,value_recall,265.7009049169719,269.29278233402874,37,7,Object_Land_Solid_Large,,,,3.5878178329439834,,,,,-9,,,
memory,value_recall,270.3370361669222,274.33574316697195,38,7,Object_Sea_Solid_Large,,,,3.9955185409635305,,,,,2,,,
memory,value_recall,276.1337500839727,279.65897424996365,39,7,Animal_Sea_Pattern_Small,,,,3.5212446249788627,,,,,-5,,,
memory,value_recall,281.4535690000048,282.5121593750082,40,7,Animal_Land_Solid_Small,,,,1.052625666023232,,,,,1,,,
memory,value_recall,283.5543992499588,284.2805604169844,41,7,Animal_Land_Pattern_Large,,,,0.7226838750066236,,,,,1,,,
memory,value_recall,285.5705320419511,286.8710098339943,42,7,Object_Sea_Pattern_Small,,,,1.2963555000023916,,,,,2,,,
memory,spatial_recall,289.90422145894263,292.32245145901106,42,7,Object_Sea_Solid_Large,,,1,2.4132089170161635,,,,,,"[-329, -190]","[-329, -190]",
memory,spatial_recall,293.38640254200436,294.52287874999456,42,7,Animal_Land_Solid_Small,,,1,1.1314420000417158,,,,,,"[329, -190]","[329, -190]",
memory,spatial_recall,296.58523075003177,298.01022812502924,42,7,Animal_Sea_Pattern_Small,,,1,1.4208422499941662,,,,,,"[0, 380]","[0, 380]",
memory,spatial_recall,299.56330212496687,301.01847566699143,42,7,Object_Land_Solid_Large,,,1,1.451111999922432,,,,,,"[329, 189]","[329, 189]",
memory,spatial_recall,302.82984195894096,304.43557750002947,42,7,Animal_Land_Pattern_Large,,,1,1.6018004169454798,,,,,,"[0, -380]","[0, -380]",
memory,spatial_recall,305.48372387501877,306.46842654200736,42,7,Object_Sea_Pattern_Small,,,1,0.9822086669737473,,,,,,"[-329, 190]","[-329, 190]",
