phase,event,trial_number,eyetracker_onset,eyetracker_offset,fix_start,fix_end,fix_duration_full,fix_duration_bounded,fix_x,fix_y,roi_x,roi_y,roi_content,onset,offset,game,image,outcome,choice,correct,rt,letter,match,response,option,true_value,true_position,recalled_position,Unnamed: 18
encoding,fixation,1,3539157,3540674,3539391.0,3541052.0,1662.0,1283.0,1893.1,1068.3,1920.0,1080.0,fixation,18.8612102920888,20.37825629208237,1.0,Animal_Land_Pattern_Large,5.0,,,,,,,,,,,
encoding,image,1,3540674,3541694,3541098.0,3541293.0,196.0,196.0,1876.4,731.5,1920.0,1460.0,Animal_Land_Pattern_Large,20.37838962499518,21.398648417089134,1.0,Animal_Land_Pattern_Large,5.0,,,,,,,,,,,
encoding,image,1,3540674,3541694,3541525.0,3541630.0,106.0,106.0,1870.7,862.0999999999999,1920.0,1460.0,Animal_Land_Pattern_Large,20.37838962499518,21.398648417089134,1.0,Animal_Land_Pattern_Large,5.0,,,,,,,,,,,
encoding,image,1,3540674,3541694,3541676.0,3541892.0,217.0,18.0,1820.3,945.9000000000001,1591.0,1269.0,Object_Land_Solid_Small,20.37838962499518,21.398648417089134,1.0,Animal_Land_Pattern_Large,5.0,,,,,,,,,,,
encoding,value,1,3541695,3547710,3541954.0,3542400.0,447.0,447.0,1904.5,634.4000000000001,1920.0,1460.0,Animal_Land_Pattern_Large,21.3987780000316,27.414479917031713,1.0,Animal_Land_Pattern_Large,5.0,,,,,,,,,,,
encoding,value,1,3541695,3547710,3542444.0,3542475.0,32.0,32.0,1877.2,852.5999999999999,1920.0,1460.0,Animal_Land_Pattern_Large,21.3987780000316,27.414479917031713,1.0,Animal_Land_Pattern_Large,5.0,,,,,,,,,,,
encoding,value,1,3541695,3547710,3542490.0,3542525.0,36.0,36.0,1878.6,831.0,1920.0,1460.0,Animal_Land_Pattern_Large,21.3987780000316,27.414479917031713,1.0,Animal_Land_Pattern_Large,5.0,,,,,,,,,,,
encoding,value,1,3541695,3547710,3542551.0,3544343.0,1793.0,1793.0,1897.6,632.0,1920.0,1460.0,Animal_Land_Pattern_Large,21.3987780000316,27.414479917031713,1.0,Animal_Land_Pattern_Large,5.0,,,,,,,,,,,
encoding,value,1,3541695,3547710,3544359.0,3544620.0,262.0,262.0,1878.3,702.5,1920.0,1460.0,Animal_Land_Pattern_Large,21.3987780000316,27.414479917031713,1.0,Animal_Land_Pattern_Large,5.0,,,,,,,,,,,
encoding,value,1,3541695,3547710,3545897.0,3545952.0,56.0,56.0,1840.4,864.4000000000001,1920.0,1460.0,Animal_Land_Pattern_Large,21.3987780000316,27.414479917031713,1.0,Animal_Land_Pattern_Large,5.0,,,,,,,,,,,
encoding,value,1,3541695,3547710,3545985.0,3546005.0,21.0,21.0,1836.7,863.0999999999999,1920.0,1460.0,Animal_Land_Pattern_Large,21.3987780000316,27.414479917031713,1.0,Animal_Land_Pattern_Large,5.0,,,,,,,,,,,
encoding,value,1,3541695,3547710,3546760.0,3546918.0,159.0,159.0,1853.9,831.0,1920.0,1460.0,Animal_Land_Pattern_Large,21.3987780000316,27.414479917031713,1.0,Animal_Land_Pattern_Large,5.0,,,,,,,,,,,
encoding,value,1,3541695,3547710,3546999.0,3547181.0,183.0,183.0,1887.4,660.5999999999999,1920.0,1460.0,Animal_Land_Pattern_Large,21.3987780000316,27.414479917031713,1.0,Animal_Land_Pattern_Large,5.0,,,,,,,,,,,
encoding,value,1,3541695,3547710,3547190.0,3548279.0,1090.0,520.0,1913.3,602.9000000000001,1920.0,1460.0,Animal_Land_Pattern_Large,21.3987780000316,27.414479917031713,1.0,Animal_Land_Pattern_Large,5.0,,,,,,,,,,,
encoding,attention,1,3547710,3550728,3548293.0,3549222.0,930.0,930.0,1877.6,579.0,1920.0,1460.0,Animal_Land_Pattern_Large,27.41465745808091,30.432047792011872,1.0,Animal_Land_Pattern_Large,5.0,5.0,1.0,1.2127481669886038,,,,,,,,
encoding,attention,1,3547710,3550728,3549599.0,3549695.0,97.0,97.0,1845.3,915.3,1920.0,1460.0,Animal_Land_Pattern_Large,27.41465745808091,30.432047792011872,1.0,Animal_Land_Pattern_Large,5.0,5.0,1.0,1.2127481669886038,,,,,,,,
encoding,attention,1,3547710,3550728,3549731.0,3550564.0,834.0,834.0,1885.8,702.2,1920.0,1460.0,Animal_Land_Pattern_Large,27.41465745808091,30.432047792011872,1.0,Animal_Land_Pattern_Large,5.0,5.0,1.0,1.2127481669886038,,,,,,,,
encoding,fixation,2,3550728,3551483,3550971.0,3551804.0,834.0,512.0,1910.0,1052.4,1920.0,1080.0,fixation,30.432210957980715,31.187216666992754,1.0,Object_Land_Solid_Large,-1.0,,,,,,,,,,,
encoding,image,2,3551483,3552493,3551844.0,3551969.0,126.0,126.0,2138.2,1194.5,2249.0,891.0,Object_Land_Solid_Large,31.18730987503659,32.19722679199185,1.0,Object_Land_Solid_Large,-1.0,,,,,,,,,,,
encoding,image,2,3551483,3552493,3551983.0,3552764.0,782.0,510.0,2235.1,1225.8,2249.0,891.0,Object_Land_Solid_Large,31.18730987503659,32.19722679199185,1.0,Object_Land_Solid_Large,-1.0,,,,,,,,,,,
encoding,value,2,3552493,3558505,3552782.0,3553005.0,224.0,224.0,2247.4,1116.5,2249.0,891.0,Object_Land_Solid_Large,32.19732337503228,38.20847358298488,1.0,Object_Land_Solid_Large,-1.0,,,,,,,,,,,
encoding,value,2,3552493,3558505,3553209.0,3553232.0,24.0,24.0,2228.6,1125.0,2249.0,891.0,Object_Land_Solid_Large,32.19732337503228,38.20847358298488,1.0,Object_Land_Solid_Large,-1.0,,,,,,,,,,,
encoding,value,2,3552493,3558505,3553419.0,3553441.0,23.0,23.0,2230.9,1269.0,2249.0,891.0,Object_Land_Solid_Large,32.19732337503228,38.20847358298488,1.0,Object_Land_Solid_Large,-1.0,,,,,,,,,,,
encoding,value,2,3552493,3558505,3553466.0,3553865.0,400.0,400.0,2226.1,1137.7,2249.0,891.0,Object_Land_Solid_Large,32.19732337503228,38.20847358298488,1.0,Object_Land_Solid_Large,-1.0,,,,,,,,,,,
encoding,value,2,3552493,3558505,3554154.0,3554200.0,47.0,47.0,2240.3,1302.3,2249.0,891.0,Object_Land_Solid_Large,32.19732337503228,38.20847358298488,1.0,Object_Land_Solid_Large,-1.0,,,,,,,,,,,
encoding,value,2,3552493,3558505,3554217.0,3554846.0,630.0,630.0,2251.1,1202.7,2249.0,891.0,Object_Land_Solid_Large,32.19732337503228,38.20847358298488,1.0,Object_Land_Solid_Large,-1.0,,,,,,,,,,,
encoding,value,2,3552493,3558505,3554865.0,3558940.0,4076.0,3640.0,2231.5,1124.8,2249.0,891.0,Object_Land_Solid_Large,32.19732337503228,38.20847358298488,1.0,Object_Land_Solid_Large,-1.0,,,,,,,,,,,
encoding,attention,2,3558505,3561523,3559151.0,3559175.0,25.0,25.0,2285.8,1236.1,2249.0,891.0,Object_Land_Solid_Large,38.20859841699712,41.22676662507001,1.0,Object_Land_Solid_Large,-1.0,-1.0,1.0,0.7051691659726202,,,,,,,,
encoding,attention,2,3558505,3561523,3559201.0,3559486.0,286.0,286.0,2286.6,1155.8,2249.0,891.0,Object_Land_Solid_Large,38.20859841699712,41.22676662507001,1.0,Object_Land_Solid_Large,-1.0,-1.0,1.0,0.7051691659726202,,,,,,,,
encoding,attention,2,3558505,3561523,3559746.0,3559772.0,27.0,27.0,2282.5,1269.7,2249.0,891.0,Object_Land_Solid_Large,38.20859841699712,41.22676662507001,1.0,Object_Land_Solid_Large,-1.0,-1.0,1.0,0.7051691659726202,,,,,,,,
encoding,attention,2,3558505,3561523,3559798.0,3560135.0,338.0,338.0,2285.7,1154.8,2249.0,891.0,Object_Land_Solid_Large,38.20859841699712,41.22676662507001,1.0,Object_Land_Solid_Large,-1.0,-1.0,1.0,0.7051691659726202,,,,,,,,
encoding,fixation,3,3561523,3562279,3561743.0,3562782.0,1040.0,536.0,1906.5,1042.1,1920.0,1080.0,fixation,41.2269238330191,41.98200841702055,1.0,Object_Land_Solid_Small,-5.0,,,,,,,,,,,
encoding,image,3,3562279,3563290,3563118.0,3563188.0,71.0,71.0,1555.6,942.3,1591.0,1269.0,Object_Land_Solid_Small,41.98213916702662,42.99309508304577,1.0,Object_Land_Solid_Small,-5.0,,,,,,,,,,,
encoding,image,3,3562279,3563290,3563195.0,3563488.0,294.0,95.0,1593.3,890.4000000000001,1591.0,1269.0,Object_Land_Solid_Small,41.98213916702662,42.99309508304577,1.0,Object_Land_Solid_Small,-5.0,,,,,,,,,,,
encoding,value,3,3563290,3569302,3563505.0,3563927.0,423.0,423.0,1604.2,779.4000000000001,1591.0,1269.0,Object_Land_Solid_Small,42.99320174998138,49.0048492080532,1.0,Object_Land_Solid_Small,-5.0,,,,,,,,,,,
encoding,value,3,3563290,3569302,3564213.0,3564415.0,203.0,203.0,1650.0,864.5999999999999,1591.0,1269.0,Object_Land_Solid_Small,42.99320174998138,49.0048492080532,1.0,Object_Land_Solid_Small,-5.0,,,,,,,,,,,
encoding,value,3,3563290,3569302,3565414.0,3565451.0,38.0,38.0,1657.3,1075.6,1591.0,1269.0,Object_Land_Solid_Small,42.99320174998138,49.0048492080532,1.0,Object_Land_Solid_Small,-5.0,,,,,,,,,,,
encoding,value,3,3563290,3569302,3565493.0,3565959.0,467.0,467.0,1566.8,843.5999999999999,1591.0,1269.0,Object_Land_Solid_Small,42.99320174998138,49.0048492080532,1.0,Object_Land_Solid_Small,-5.0,,,,,,,,,,,
encoding,value,3,3563290,3569302,3566304.0,3567241.0,938.0,938.0,1610.4,912.8,1591.0,1269.0,Object_Land_Solid_Small,42.99320174998138,49.0048492080532,1.0,Object_Land_Solid_Small,-5.0,,,,,,,,,,,
encoding,value,3,3563290,3569302,3567260.0,3570159.0,2900.0,2042.0,1610.2,805.7,1591.0,1269.0,Object_Land_Solid_Small,42.99320174998138,49.0048492080532,1.0,Object_Land_Solid_Small,-5.0,,,,,,,,,,,
encoding,attention,3,3569302,3572322,3570676.0,3570968.0,293.0,293.0,1631.4,809.5,1591.0,1269.0,Object_Land_Solid_Small,49.00497754209209,52.02509795804508,1.0,Object_Land_Solid_Small,-5.0,-5.0,1.0,0.5969998750369996,,,,,,,,
encoding,fixation,4,3572322,3573827,3572545.0,3574029.0,1485.0,1282.0,1922.0,1061.5,1920.0,1080.0,fixation,52.02524800004903,53.530207542004064,1.0,Animal_Sea_Pattern_Large,1.0,,,,,,,,,,,
encoding,image,4,3573828,3574838,3574050.0,3574179.0,130.0,130.0,1755.1,1135.0,1591.0,891.0,Animal_Sea_Pattern_Large,53.53033320803661,54.540701333084144,1.0,Animal_Sea_Pattern_Large,1.0,,,,,,,,,,,
encoding,image,4,3573828,3574838,3574198.0,3574426.0,229.0,229.0,1626.1,1219.8,1591.0,891.0,Animal_Sea_Pattern_Large,53.53033320803661,54.540701333084144,1.0,Animal_Sea_Pattern_Large,1.0,,,,,,,,,,,
encoding,image,4,3573828,3574838,3574737.0,3575133.0,397.0,101.0,1575.4,1240.4,1591.0,891.0,Animal_Sea_Pattern_Large,53.53033320803661,54.540701333084144,1.0,Animal_Sea_Pattern_Large,1.0,,,,,,,,,,,
encoding,value,4,3574838,3580849,3575152.0,3575532.0,381.0,381.0,1598.8,1149.2,1591.0,891.0,Animal_Sea_Pattern_Large,54.54082583298441,60.55172008299269,1.0,Animal_Sea_Pattern_Large,1.0,,,,,,,,,,,
encoding,value,4,3574838,3580849,3575789.0,3576692.0,904.0,904.0,1594.6,1156.5,1591.0,891.0,Animal_Sea_Pattern_Large,54.54082583298441,60.55172008299269,1.0,Animal_Sea_Pattern_Large,1.0,,,,,,,,,,,
encoding,value,4,3574838,3580849,3576969.0,3581734.0,4766.0,3880.0,1606.1,1145.8,1591.0,891.0,Animal_Sea_Pattern_Large,54.54082583298441,60.55172008299269,1.0,Animal_Sea_Pattern_Large,1.0,,,,,,,,,,,
encoding,attention,4,3580849,3583866,3582006.0,3582537.0,532.0,532.0,1603.9,1231.2,1591.0,891.0,Animal_Sea_Pattern_Large,60.55183287500404,63.56831195799168,1.0,Animal_Sea_Pattern_Large,1.0,1.0,1.0,0.6421320419758558,,,,,,,,
encoding,attention,4,3580849,3583866,3582823.0,3583362.0,540.0,540.0,1647.4,1192.7,1591.0,891.0,Animal_Sea_Pattern_Large,60.55183287500404,63.56831195799168,1.0,Animal_Sea_Pattern_Large,1.0,1.0,1.0,0.6421320419758558,,,,,,,,
encoding,fixation,5,3583866,3584621,3584080.0,3584892.0,813.0,541.0,1918.2,1058.2,1920.0,1080.0,fixation,63.568451333092526,64.32349154201802,1.0,Animal_Sea_Pattern_Small,-7.0,,,,,,,,,,,
encoding,image,5,3584621,3585632,3584936.0,3585230.0,295.0,295.0,1950.4,1373.7,1920.0,700.0,Animal_Sea_Pattern_Small,64.32360200001858,65.33468924998306,1.0,Animal_Sea_Pattern_Small,-7.0,,,,,,,,,,,
encoding,image,5,3584621,3585632,3585523.0,3585561.0,39.0,39.0,1938.4,1473.1,1920.0,700.0,Animal_Sea_Pattern_Small,64.32360200001858,65.33468924998306,1.0,Animal_Sea_Pattern_Small,-7.0,,,,,,,,,,,
encoding,image,5,3584621,3585632,3585577.0,3586058.0,482.0,55.0,1958.0,1395.8,1920.0,700.0,Animal_Sea_Pattern_Small,64.32360200001858,65.33468924998306,1.0,Animal_Sea_Pattern_Small,-7.0,,,,,,,,,,,
encoding,value,5,3585633,3591645,3586072.0,3586737.0,666.0,666.0,1938.8,1326.6,1920.0,700.0,Animal_Sea_Pattern_Small,65.33479220804293,71.34663679206278,1.0,Animal_Sea_Pattern_Small,-7.0,,,,,,,,,,,
encoding,value,5,3585633,3591645,3586747.0,3587436.0,690.0,690.0,1948.1,1377.1,1920.0,700.0,Animal_Sea_Pattern_Small,65.33479220804293,71.34663679206278,1.0,Animal_Sea_Pattern_Small,-7.0,,,,,,,,,,,
encoding,value,5,3585633,3591645,3587661.0,3587708.0,48.0,48.0,1892.9,1460.2,1920.0,700.0,Animal_Sea_Pattern_Small,65.33479220804293,71.34663679206278,1.0,Animal_Sea_Pattern_Small,-7.0,,,,,,,,,,,
encoding,value,5,3585633,3591645,3587718.0,3589583.0,1866.0,1866.0,1928.6,1407.2,1920.0,700.0,Animal_Sea_Pattern_Small,65.33479220804293,71.34663679206278,1.0,Animal_Sea_Pattern_Small,-7.0,,,,,,,,,,,
encoding,value,5,3585633,3591645,3589600.0,3590085.0,486.0,486.0,1919.6,1263.4,1920.0,700.0,Animal_Sea_Pattern_Small,65.33479220804293,71.34663679206278,1.0,Animal_Sea_Pattern_Small,-7.0,,,,,,,,,,,
encoding,value,5,3585633,3591645,3590273.0,3591319.0,1047.0,1047.0,1908.3,1313.4,1920.0,700.0,Animal_Sea_Pattern_Small,65.33479220804293,71.34663679206278,1.0,Animal_Sea_Pattern_Small,-7.0,,,,,,,,,,,
encoding,value,5,3585633,3591645,3591532.0,3591574.0,43.0,43.0,1812.4,1202.6,1591.0,891.0,Animal_Sea_Pattern_Large,65.33479220804293,71.34663679206278,1.0,Animal_Sea_Pattern_Small,-7.0,,,,,,,,,,,
encoding,value,5,3585633,3591645,3591588.0,3591919.0,332.0,57.0,1894.3,1108.1,1920.0,1080.0,fixation,65.33479220804293,71.34663679206278,1.0,Animal_Sea_Pattern_Small,-7.0,,,,,,,,,,,
encoding,attention,5,3591645,3594662,3591969.0,3592578.0,610.0,610.0,1934.9,1329.0,1920.0,700.0,Animal_Sea_Pattern_Small,71.34674191707745,74.36391237506177,1.0,Animal_Sea_Pattern_Small,-7.0,-7.0,1.0,2.287173166987486,,,,,,,,
encoding,attention,5,3591645,3594662,3592596.0,3594205.0,1610.0,1610.0,1863.4,1330.1,1920.0,700.0,Animal_Sea_Pattern_Small,71.34674191707745,74.36391237506177,1.0,Animal_Sea_Pattern_Small,-7.0,-7.0,1.0,2.287173166987486,,,,,,,,
encoding,attention,5,3591645,3594662,3594330.0,3594467.0,138.0,138.0,1921.9,1352.2,1920.0,700.0,Animal_Sea_Pattern_Small,71.34674191707745,74.36391237506177,1.0,Animal_Sea_Pattern_Small,-7.0,-7.0,1.0,2.287173166987486,,,,,,,,
encoding,fixation,6,3594662,3595921,3594824.0,3594854.0,31.0,31.0,1893.3,1403.9,1920.0,700.0,Animal_Sea_Pattern_Small,74.36406250006985,75.62313133303542,1.0,Object_Sea_Solid_Small,7.0,,,,,,,,,,,
encoding,fixation,6,3594662,3595921,3594897.0,3595016.0,120.0,120.0,1912.4,1075.2,1920.0,1080.0,fixation,74.36406250006985,75.62313133303542,1.0,Object_Sea_Solid_Small,7.0,,,,,,,,,,,
encoding,fixation,6,3594662,3595921,3595274.0,3595943.0,670.0,647.0,1906.6,1102.5,1920.0,1080.0,fixation,74.36406250006985,75.62313133303542,1.0,Object_Sea_Solid_Small,7.0,,,,,,,,,,,
encoding,image,6,3595922,3596932,3595951.0,3596045.0,95.0,95.0,1909.4,1054.7,1920.0,1080.0,fixation,75.62325325002894,76.63367941707838,1.0,Object_Sea_Solid_Small,7.0,,,,,,,,,,,
encoding,image,6,3595922,3596932,3596147.0,3596637.0,491.0,491.0,1914.4,1060.8,1920.0,1080.0,fixation,75.62325325002894,76.63367941707838,1.0,Object_Sea_Solid_Small,7.0,,,,,,,,,,,
encoding,value,6,3596932,3602942,3597039.0,3597314.0,276.0,276.0,1916.2,1061.3,1920.0,1080.0,fixation,76.633805999998,82.64376937504858,1.0,Object_Sea_Solid_Small,7.0,,,,,,,,,,,
encoding,value,6,3596932,3602942,3597513.0,3598046.0,534.0,534.0,2219.1,834.5,2249.0,1269.0,Object_Sea_Solid_Small,76.633805999998,82.64376937504858,1.0,Object_Sea_Solid_Small,7.0,,,,,,,,,,,
encoding,value,6,3596932,3602942,3598237.0,3598269.0,33.0,33.0,2240.1,999.8,2249.0,1269.0,Object_Sea_Solid_Small,76.633805999998,82.64376937504858,1.0,Object_Sea_Solid_Small,7.0,,,,,,,,,,,
encoding,value,6,3596932,3602942,3598286.0,3598412.0,127.0,127.0,2249.7,877.3,2249.0,1269.0,Object_Sea_Solid_Small,76.633805999998,82.64376937504858,1.0,Object_Sea_Solid_Small,7.0,,,,,,,,,,,
encoding,value,6,3596932,3602942,3598642.0,3598684.0,43.0,43.0,2164.8,993.7,2249.0,1269.0,Object_Sea_Solid_Small,76.633805999998,82.64376937504858,1.0,Object_Sea_Solid_Small,7.0,,,,,,,,,,,
encoding,value,6,3596932,3602942,3598699.0,3598846.0,148.0,148.0,2170.0,868.7,2249.0,1269.0,Object_Sea_Solid_Small,76.633805999998,82.64376937504858,1.0,Object_Sea_Solid_Small,7.0,,,,,,,,,,,
encoding,value,6,3596932,3602942,3599060.0,3599111.0,52.0,52.0,2215.7,991.7,2249.0,1269.0,Object_Sea_Solid_Small,76.633805999998,82.64376937504858,1.0,Object_Sea_Solid_Small,7.0,,,,,,,,,,,
encoding,value,6,3596932,3602942,3599136.0,3599194.0,59.0,59.0,2221.8,868.2,2249.0,1269.0,Object_Sea_Solid_Small,76.633805999998,82.64376937504858,1.0,Object_Sea_Solid_Small,7.0,,,,,,,,,,,
encoding,value,6,3596932,3602942,3599446.0,3599488.0,43.0,43.0,2166.4,1038.5,2249.0,1269.0,Object_Sea_Solid_Small,76.633805999998,82.64376937504858,1.0,Object_Sea_Solid_Small,7.0,,,,,,,,,,,
encoding,value,6,3596932,3602942,3599502.0,3599578.0,77.0,77.0,2169.4,1012.4000000000001,2249.0,1269.0,Object_Sea_Solid_Small,76.633805999998,82.64376937504858,1.0,Object_Sea_Solid_Small,7.0,,,,,,,,,,,
encoding,value,6,3596932,3602942,3599643.0,3599675.0,33.0,33.0,2167.0,1035.9,2249.0,1269.0,Object_Sea_Solid_Small,76.633805999998,82.64376937504858,1.0,Object_Sea_Solid_Small,7.0,,,,,,,,,,,
encoding,value,6,3596932,3602942,3599682.0,3599887.0,206.0,206.0,2162.3,916.4000000000001,2249.0,1269.0,Object_Sea_Solid_Small,76.633805999998,82.64376937504858,1.0,Object_Sea_Solid_Small,7.0,,,,,,,,,,,
encoding,value,6,3596932,3602942,3600138.0,3600167.0,30.0,30.0,2164.4,1024.8,2249.0,1269.0,Object_Sea_Solid_Small,76.633805999998,82.64376937504858,1.0,Object_Sea_Solid_Small,7.0,,,,,,,,,,,
encoding,value,6,3596932,3602942,3600176.0,3600285.0,110.0,110.0,2162.1,928.5999999999999,2249.0,1269.0,Object_Sea_Solid_Small,76.633805999998,82.64376937504858,1.0,Object_Sea_Solid_Small,7.0,,,,,,,,,,,
encoding,value,6,3596932,3602942,3600296.0,3600399.0,104.0,104.0,2199.8,875.7,2249.0,1269.0,Object_Sea_Solid_Small,76.633805999998,82.64376937504858,1.0,Object_Sea_Solid_Small,7.0,,,,,,,,,,,
encoding,value,6,3596932,3602942,3600699.0,3600759.0,61.0,61.0,2193.7,935.0,2249.0,1269.0,Object_Sea_Solid_Small,76.633805999998,82.64376937504858,1.0,Object_Sea_Solid_Small,7.0,,,,,,,,,,,
encoding,value,6,3596932,3602942,3601012.0,3601065.0,54.0,54.0,2181.5,944.2,2249.0,1269.0,Object_Sea_Solid_Small,76.633805999998,82.64376937504858,1.0,Object_Sea_Solid_Small,7.0,,,,,,,,,,,
encoding,value,6,3596932,3602942,3601485.0,3603185.0,1701.0,1457.0,2203.6,836.5,2249.0,1269.0,Object_Sea_Solid_Small,76.633805999998,82.64376937504858,1.0,Object_Sea_Solid_Small,7.0,,,,,,,,,,,
encoding,attention,6,3602942,3605995,3603203.0,3603478.0,276.0,276.0,2243.2,766.4000000000001,2249.0,1269.0,Object_Sea_Solid_Small,82.64387312508188,85.69639766705222,1.0,Object_Sea_Solid_Small,7.0,7.0,1.0,2.044555750093423,,,,,,,,
encoding,attention,6,3602942,3605995,3603713.0,3603736.0,24.0,24.0,2184.1,909.3,2249.0,1269.0,Object_Sea_Solid_Small,82.64387312508188,85.69639766705222,1.0,Object_Sea_Solid_Small,7.0,7.0,1.0,2.044555750093423,,,,,,,,
encoding,attention,6,3602942,3605995,3604019.0,3604051.0,33.0,33.0,2235.0,1009.2,2249.0,1269.0,Object_Sea_Solid_Small,82.64387312508188,85.69639766705222,1.0,Object_Sea_Solid_Small,7.0,7.0,1.0,2.044555750093423,,,,,,,,
encoding,attention,6,3602942,3605995,3604070.0,3604721.0,652.0,652.0,2216.3,846.9000000000001,2249.0,1269.0,Object_Sea_Solid_Small,82.64387312508188,85.69639766705222,1.0,Object_Sea_Solid_Small,7.0,7.0,1.0,2.044555750093423,,,,,,,,
encoding,attention,6,3602942,3605995,3604738.0,3605295.0,558.0,558.0,2257.8,794.4000000000001,2249.0,1269.0,Object_Sea_Solid_Small,82.64387312508188,85.69639766705222,1.0,Object_Sea_Solid_Small,7.0,7.0,1.0,2.044555750093423,,,,,,,,
encoding,attention,6,3602942,3605995,3605578.0,3605828.0,251.0,251.0,2176.9,790.0999999999999,2249.0,1269.0,Object_Sea_Solid_Small,82.64387312508188,85.69639766705222,1.0,Object_Sea_Solid_Small,7.0,7.0,1.0,2.044555750093423,,,,,,,,
encoding,fixation,7,4077701,4078206,4077929.0,4078395.0,467.0,277.0,1938.6,1081.2,1920.0,1080.0,fixation,6.475330542074516,6.980460000107996,2.0,Object_Sea_Pattern_Large,9.0,,,,,,,,,,,
encoding,image,7,4078206,4079218,4078435.0,4079397.0,963.0,783.0,1943.5,689.2,1920.0,1460.0,Object_Sea_Pattern_Large,6.980575375026092,7.991916542057879,2.0,Object_Sea_Pattern_Large,9.0,,,,,,,,,,,
encoding,value,7,4079218,4085232,4079414.0,4080265.0,852.0,852.0,1932.3,600.4000000000001,1920.0,1460.0,Object_Sea_Pattern_Large,7.992036333074793,14.006393250077965,2.0,Object_Sea_Pattern_Large,9.0,,,,,,,,,,,
encoding,value,7,4079218,4085232,4080275.0,4081193.0,919.0,919.0,1928.2,679.4000000000001,1920.0,1460.0,Object_Sea_Pattern_Large,7.992036333074793,14.006393250077965,2.0,Object_Sea_Pattern_Large,9.0,,,,,,,,,,,
encoding,value,7,4079218,4085232,4081202.0,4085748.0,4547.0,4030.0,1928.5,617.4000000000001,1920.0,1460.0,Object_Sea_Pattern_Large,7.992036333074793,14.006393250077965,2.0,Object_Sea_Pattern_Large,9.0,,,,,,,,,,,
encoding,attention,7,4085232,4088250,4085928.0,4085985.0,58.0,58.0,1914.3,874.5999999999999,1920.0,1460.0,Object_Sea_Pattern_Large,14.006498000002466,17.024277417105623,2.0,Object_Sea_Pattern_Large,9.0,9.0,1.0,1.185199291096069,,,,,,,,
encoding,attention,7,4085232,4088250,4086003.0,4087096.0,1094.0,1094.0,1927.7,704.9000000000001,1920.0,1460.0,Object_Sea_Pattern_Large,14.006498000002466,17.024277417105623,2.0,Object_Sea_Pattern_Large,9.0,9.0,1.0,1.185199291096069,,,,,,,,
encoding,attention,7,4085232,4088250,4087281.0,4087322.0,42.0,42.0,1853.0,854.0999999999999,1920.0,1460.0,Object_Sea_Pattern_Large,14.006498000002466,17.024277417105623,2.0,Object_Sea_Pattern_Large,9.0,9.0,1.0,1.185199291096069,,,,,,,,
encoding,attention,7,4085232,4088250,4087348.0,4087821.0,474.0,474.0,1913.5,674.0999999999999,1920.0,1460.0,Object_Sea_Pattern_Large,14.006498000002466,17.024277417105623,2.0,Object_Sea_Pattern_Large,9.0,9.0,1.0,1.185199291096069,,,,,,,,
encoding,attention,7,4085232,4088250,4088115.0,4088137.0,23.0,23.0,1907.7,926.0,1920.0,1460.0,Object_Sea_Pattern_Large,14.006498000002466,17.024277417105623,2.0,Object_Sea_Pattern_Large,9.0,9.0,1.0,1.185199291096069,,,,,,,,
encoding,fixation,8,4088251,4089757,4088546.0,4089928.0,1383.0,1211.0,1929.3,1056.3,1920.0,1080.0,fixation,17.024438917054795,18.53119308303576,2.0,Animal_Land_Pattern_Small,1.0,,,,,,,,,,,
encoding,image,8,4089757,4090769,4089969.0,4090120.0,152.0,152.0,2236.3,910.4000000000001,2249.0,1269.0,Animal_Land_Pattern_Small,18.531317458022382,19.542695833020844,2.0,Animal_Land_Pattern_Small,1.0,,,,,,,,,,,
encoding,image,8,4089757,4090769,4090130.0,4090463.0,334.0,334.0,2264.6,872.8,2249.0,1269.0,Animal_Land_Pattern_Small,18.531317458022382,19.542695833020844,2.0,Animal_Land_Pattern_Small,1.0,,,,,,,,,,,
encoding,image,8,4089757,4090769,4090736.0,4090907.0,172.0,33.0,2264.7,900.8,2249.0,1269.0,Animal_Land_Pattern_Small,18.531317458022382,19.542695833020844,2.0,Animal_Land_Pattern_Small,1.0,,,,,,,,,,,
encoding,value,8,4090769,4096780,4090915.0,4091086.0,172.0,172.0,2224.0,875.2,2249.0,1269.0,Animal_Land_Pattern_Small,19.54280108306557,25.553663167054765,2.0,Animal_Land_Pattern_Small,1.0,,,,,,,,,,,
encoding,value,8,4090769,4096780,4091102.0,4091406.0,305.0,305.0,2249.0,791.0999999999999,2249.0,1269.0,Animal_Land_Pattern_Small,19.54280108306557,25.553663167054765,2.0,Animal_Land_Pattern_Small,1.0,,,,,,,,,,,
encoding,value,8,4090769,4096780,4091600.0,4091675.0,76.0,76.0,2268.4,916.3,2249.0,1269.0,Animal_Land_Pattern_Small,19.54280108306557,25.553663167054765,2.0,Animal_Land_Pattern_Small,1.0,,,,,,,,,,,
encoding,value,8,4090769,4096780,4091695.0,4091976.0,282.0,282.0,2247.8,788.2,2249.0,1269.0,Animal_Land_Pattern_Small,19.54280108306557,25.553663167054765,2.0,Animal_Land_Pattern_Small,1.0,,,,,,,,,,,
encoding,value,8,4090769,4096780,4092188.0,4092281.0,94.0,94.0,2235.4,968.9000000000001,2249.0,1269.0,Animal_Land_Pattern_Small,19.54280108306557,25.553663167054765,2.0,Animal_Land_Pattern_Small,1.0,,,,,,,,,,,
encoding,value,8,4090769,4096780,4092313.0,4092523.0,211.0,211.0,2221.6,828.7,2249.0,1269.0,Animal_Land_Pattern_Small,19.54280108306557,25.553663167054765,2.0,Animal_Land_Pattern_Small,1.0,,,,,,,,,,,
encoding,value,8,4090769,4096780,4092535.0,4093363.0,829.0,829.0,2233.7,879.0,2249.0,1269.0,Animal_Land_Pattern_Small,19.54280108306557,25.553663167054765,2.0,Animal_Land_Pattern_Small,1.0,,,,,,,,,,,
encoding,value,8,4090769,4096780,4093522.0,4093570.0,49.0,49.0,2163.1,998.5999999999999,2249.0,1269.0,Animal_Land_Pattern_Small,19.54280108306557,25.553663167054765,2.0,Animal_Land_Pattern_Small,1.0,,,,,,,,,,,
encoding,value,8,4090769,4096780,4093594.0,4093901.0,308.0,308.0,2183.9,878.8,2249.0,1269.0,Animal_Land_Pattern_Small,19.54280108306557,25.553663167054765,2.0,Animal_Land_Pattern_Small,1.0,,,,,,,,,,,
encoding,value,8,4090769,4096780,4093910.0,4094828.0,919.0,919.0,2229.3,867.7,2249.0,1269.0,Animal_Land_Pattern_Small,19.54280108306557,25.553663167054765,2.0,Animal_Land_Pattern_Small,1.0,,,,,,,,,,,
encoding,value,8,4090769,4096780,4094841.0,4096215.0,1375.0,1375.0,2247.5,782.5,2249.0,1269.0,Animal_Land_Pattern_Small,19.54280108306557,25.553663167054765,2.0,Animal_Land_Pattern_Small,1.0,,,,,,,,,,,
encoding,value,8,4090769,4096780,4096222.0,4096802.0,581.0,558.0,2254.9,786.2,2249.0,1269.0,Animal_Land_Pattern_Small,19.54280108306557,25.553663167054765,2.0,Animal_Land_Pattern_Small,1.0,,,,,,,,,,,
encoding,attention,8,4096780,4099798,4096809.0,4097215.0,407.0,407.0,2258.6,782.5999999999999,2249.0,1269.0,Animal_Land_Pattern_Small,25.553808458033014,28.570860042003915,2.0,Animal_Land_Pattern_Small,1.0,1.0,1.0,0.6632810001028702,,,,,,,,
encoding,attention,8,4096780,4099798,4097225.0,4097723.0,499.0,499.0,2206.4,779.4000000000001,2249.0,1269.0,Animal_Land_Pattern_Small,25.553808458033014,28.570860042003915,2.0,Animal_Land_Pattern_Small,1.0,1.0,1.0,0.6632810001028702,,,,,,,,
encoding,attention,8,4096780,4099798,4097841.0,4097918.0,78.0,78.0,2182.8,819.2,2249.0,1269.0,Animal_Land_Pattern_Small,25.553808458033014,28.570860042003915,2.0,Animal_Land_Pattern_Small,1.0,1.0,1.0,0.6632810001028702,,,,,,,,
encoding,attention,8,4096780,4099798,4097957.0,4098183.0,227.0,227.0,2191.2,770.5999999999999,2249.0,1269.0,Animal_Land_Pattern_Small,25.553808458033014,28.570860042003915,2.0,Animal_Land_Pattern_Small,1.0,1.0,1.0,0.6632810001028702,,,,,,,,
encoding,attention,8,4096780,4099798,4098443.0,4098474.0,32.0,32.0,2254.6,1044.2,2249.0,1269.0,Animal_Land_Pattern_Small,25.553808458033014,28.570860042003915,2.0,Animal_Land_Pattern_Small,1.0,1.0,1.0,0.6632810001028702,,,,,,,,
encoding,fixation,9,4099798,4101303,4100051.0,4101469.0,1419.0,1252.0,1936.5,1047.1,1920.0,1080.0,fixation,28.571011375053786,30.076011417084377,2.0,Object_Sea_Pattern_Small,-7.0,,,,,,,,,,,
encoding,image,9,4101303,4102314,4101494.0,4101656.0,163.0,163.0,1640.1,1210.5,1591.0,891.0,Object_Sea_Pattern_Small,30.076119875069708,31.087035042000934,2.0,Object_Sea_Pattern_Small,-7.0,,,,,,,,,,,
encoding,image,9,4101303,4102314,4101664.0,4102318.0,655.0,650.0,1594.6,1231.0,1591.0,891.0,Object_Sea_Pattern_Small,30.076119875069708,31.087035042000934,2.0,Object_Sea_Pattern_Small,-7.0,,,,,,,,,,,
encoding,value,9,4102314,4108326,4102464.0,4102561.0,98.0,98.0,1695.8,1216.4,1591.0,891.0,Object_Sea_Pattern_Small,31.08714925008826,37.09900154208299,2.0,Object_Sea_Pattern_Small,-7.0,,,,,,,,,,,
encoding,value,9,4102314,4108326,4102576.0,4102897.0,322.0,322.0,1601.2,1231.1,1591.0,891.0,Object_Sea_Pattern_Small,31.08714925008826,37.09900154208299,2.0,Object_Sea_Pattern_Small,-7.0,,,,,,,,,,,
encoding,value,9,4102314,4108326,4102915.0,4103844.0,930.0,930.0,1597.0,1159.3,1591.0,891.0,Object_Sea_Pattern_Small,31.08714925008826,37.09900154208299,2.0,Object_Sea_Pattern_Small,-7.0,,,,,,,,,,,
encoding,value,9,4102314,4108326,4104020.0,4104333.0,314.0,314.0,1576.6,1172.4,1591.0,891.0,Object_Sea_Pattern_Small,31.08714925008826,37.09900154208299,2.0,Object_Sea_Pattern_Small,-7.0,,,,,,,,,,,
encoding,value,9,4102314,4108326,4104471.0,4104505.0,35.0,35.0,1626.5,1212.0,1591.0,891.0,Object_Sea_Pattern_Small,31.08714925008826,37.09900154208299,2.0,Object_Sea_Pattern_Small,-7.0,,,,,,,,,,,
encoding,value,9,4102314,4108326,4104523.0,4105040.0,518.0,518.0,1712.8,1172.8,1591.0,891.0,Object_Sea_Pattern_Small,31.08714925008826,37.09900154208299,2.0,Object_Sea_Pattern_Small,-7.0,,,,,,,,,,,
encoding,value,9,4102314,4108326,4105232.0,4105437.0,206.0,206.0,1556.4,1221.9,1591.0,891.0,Object_Sea_Pattern_Small,31.08714925008826,37.09900154208299,2.0,Object_Sea_Pattern_Small,-7.0,,,,,,,,,,,
encoding,value,9,4102314,4108326,4105678.0,4105824.0,147.0,147.0,1600.8,1235.7,1591.0,891.0,Object_Sea_Pattern_Small,31.08714925008826,37.09900154208299,2.0,Object_Sea_Pattern_Small,-7.0,,,,,,,,,,,
encoding,value,9,4102314,4108326,4105832.0,4107704.0,1873.0,1873.0,1592.0,1160.5,1591.0,891.0,Object_Sea_Pattern_Small,31.08714925008826,37.09900154208299,2.0,Object_Sea_Pattern_Small,-7.0,,,,,,,,,,,
encoding,value,9,4102314,4108326,4107839.0,4108781.0,943.0,487.0,1599.0,1141.0,1591.0,891.0,Object_Sea_Pattern_Small,31.08714925008826,37.09900154208299,2.0,Object_Sea_Pattern_Small,-7.0,,,,,,,,,,,
encoding,attention,9,4108326,4111343,4108792.0,4109228.0,437.0,437.0,1560.5,1146.5,1591.0,891.0,Object_Sea_Pattern_Small,37.099115375080146,40.11620191705879,2.0,Object_Sea_Pattern_Small,-7.0,-7.0,1.0,0.660132999997586,,,,,,,,
encoding,attention,9,4108326,4111343,4109471.0,4109527.0,57.0,57.0,1649.3,1171.3,1591.0,891.0,Object_Sea_Pattern_Small,37.099115375080146,40.11620191705879,2.0,Object_Sea_Pattern_Small,-7.0,-7.0,1.0,0.660132999997586,,,,,,,,
encoding,attention,9,4108326,4111343,4109779.0,4109925.0,147.0,147.0,1618.5,1173.5,1591.0,891.0,Object_Sea_Pattern_Small,37.099115375080146,40.11620191705879,2.0,Object_Sea_Pattern_Small,-7.0,-7.0,1.0,0.660132999997586,,,,,,,,
encoding,attention,9,4108326,4111343,4110154.0,4110282.0,129.0,129.0,2040.3,1059.4,2249.0,1269.0,Animal_Land_Pattern_Small,37.099115375080146,40.11620191705879,2.0,Object_Sea_Pattern_Small,-7.0,-7.0,1.0,0.660132999997586,,,,,,,,
encoding,attention,9,4108326,4111343,4110495.0,4110527.0,33.0,33.0,1929.7,1180.9,1920.0,700.0,Animal_Land_Solid_Large,37.099115375080146,40.11620191705879,2.0,Object_Sea_Pattern_Small,-7.0,-7.0,1.0,0.660132999997586,,,,,,,,
encoding,attention,9,4108326,4111343,4110542.0,4110601.0,60.0,60.0,1938.3,1081.8,1920.0,1080.0,fixation,37.099115375080146,40.11620191705879,2.0,Object_Sea_Pattern_Small,-7.0,-7.0,1.0,0.660132999997586,,,,,,,,
encoding,attention,9,4108326,4111343,4110626.0,4111078.0,453.0,453.0,1618.9,1179.1,1591.0,891.0,Object_Sea_Pattern_Small,37.099115375080146,40.11620191705879,2.0,Object_Sea_Pattern_Small,-7.0,-7.0,1.0,0.660132999997586,,,,,,,,
encoding,fixation,10,4111344,4112099,4111652.0,4112128.0,477.0,447.0,1869.2,1080.7,1920.0,1080.0,fixation,40.11635745805688,40.87173791707028,2.0,Animal_Land_Solid_Large,1.0,,,,,,,,,,,
encoding,image,10,4112099,4113110,4112138.0,4112317.0,180.0,180.0,1887.0,1120.0,1920.0,1080.0,fixation,40.871818125015125,41.882737458101474,2.0,Animal_Land_Solid_Large,1.0,,,,,,,,,,,
encoding,image,10,4112099,4113110,4112356.0,4113292.0,937.0,754.0,1944.5,1416.3,1920.0,700.0,Animal_Land_Solid_Large,40.871818125015125,41.882737458101474,2.0,Animal_Land_Solid_Large,1.0,,,,,,,,,,,
encoding,value,10,4113110,4119122,4113312.0,4113873.0,562.0,562.0,1920.2,1304.7,1920.0,700.0,Animal_Land_Solid_Large,41.882869375054725,47.89489029208198,2.0,Animal_Land_Solid_Large,1.0,,,,,,,,,,,
encoding,value,10,4113110,4119122,4114043.0,4114076.0,34.0,34.0,1896.4,1376.8,1920.0,700.0,Animal_Land_Solid_Large,41.882869375054725,47.89489029208198,2.0,Animal_Land_Solid_Large,1.0,,,,,,,,,,,
encoding,value,10,4113110,4119122,4114086.0,4114516.0,431.0,431.0,1925.6,1323.7,1920.0,700.0,Animal_Land_Solid_Large,41.882869375054725,47.89489029208198,2.0,Animal_Land_Solid_Large,1.0,,,,,,,,,,,
encoding,value,10,4113110,4119122,4114531.0,4119884.0,5354.0,4591.0,1924.4,1338.5,1920.0,700.0,Animal_Land_Solid_Large,41.882869375054725,47.89489029208198,2.0,Animal_Land_Solid_Large,1.0,,,,,,,,,,,
encoding,attention,10,4119122,4122140,4120030.0,4120251.0,222.0,222.0,1936.6,1419.7,1920.0,700.0,Animal_Land_Solid_Large,47.89501704205759,50.912652417086065,2.0,Animal_Land_Solid_Large,1.0,1.0,1.0,0.4968722919002175,,,,,,,,
encoding,attention,10,4119122,4122140,4120397.0,4120431.0,35.0,35.0,1934.4,1460.6,1920.0,700.0,Animal_Land_Solid_Large,47.89501704205759,50.912652417086065,2.0,Animal_Land_Solid_Large,1.0,1.0,1.0,0.4968722919002175,,,,,,,,
encoding,attention,10,4119122,4122140,4120439.0,4120639.0,201.0,201.0,1950.8,1417.0,1920.0,700.0,Animal_Land_Solid_Large,47.89501704205759,50.912652417086065,2.0,Animal_Land_Solid_Large,1.0,1.0,1.0,0.4968722919002175,,,,,,,,
encoding,attention,10,4119122,4122140,4120800.0,4120825.0,26.0,26.0,1960.8,1459.9,1920.0,700.0,Animal_Land_Solid_Large,47.89501704205759,50.912652417086065,2.0,Animal_Land_Solid_Large,1.0,1.0,1.0,0.4968722919002175,,,,,,,,
encoding,attention,10,4119122,4122140,4120833.0,4121388.0,556.0,556.0,1947.7,1415.9,1920.0,700.0,Animal_Land_Solid_Large,47.89501704205759,50.912652417086065,2.0,Animal_Land_Solid_Large,1.0,1.0,1.0,0.4968722919002175,,,,,,,,
encoding,attention,10,4119122,4122140,4121536.0,4121692.0,157.0,157.0,1880.6,1411.7,1920.0,700.0,Animal_Land_Solid_Large,47.89501704205759,50.912652417086065,2.0,Animal_Land_Solid_Large,1.0,1.0,1.0,0.4968722919002175,,,,,,,,
encoding,fixation,11,4122140,4123396,4122385.0,4123116.0,732.0,732.0,1931.3,1150.4,1920.0,700.0,Animal_Land_Solid_Large,50.91280904202722,52.16782170801889,2.0,Object_Land_Solid_Small,-9.0,,,,,,,,,,,
encoding,fixation,11,4122140,4123396,4123138.0,4123600.0,463.0,258.0,2132.5,1240.0,2249.0,891.0,Animal_Sea_Solid_Large,50.91280904202722,52.16782170801889,2.0,Object_Land_Solid_Small,-9.0,,,,,,,,,,,
encoding,image,11,4123396,4124409,4123648.0,4123821.0,174.0,174.0,1624.7,905.8,1591.0,1269.0,Object_Land_Solid_Small,52.16793216706719,53.18081750010606,2.0,Object_Land_Solid_Small,-9.0,,,,,,,,,,,
encoding,image,11,4123396,4124409,4123830.0,4124009.0,180.0,180.0,1585.6,875.9000000000001,1591.0,1269.0,Object_Land_Solid_Small,52.16793216706719,53.18081750010606,2.0,Object_Land_Solid_Small,-9.0,,,,,,,,,,,
encoding,image,11,4123396,4124409,4124265.0,4124591.0,327.0,144.0,1585.3,892.0,1591.0,1269.0,Object_Land_Solid_Small,52.16793216706719,53.18081750010606,2.0,Object_Land_Solid_Small,-9.0,,,,,,,,,,,
encoding,value,11,4124409,4130420,4124610.0,4125038.0,429.0,429.0,1596.2,786.7,1591.0,1269.0,Object_Land_Solid_Small,53.1809083330445,59.19234887510538,2.0,Object_Land_Solid_Small,-9.0,,,,,,,,,,,
encoding,value,11,4124409,4130420,4125329.0,4125378.0,50.0,50.0,1648.9,841.7,1591.0,1269.0,Object_Land_Solid_Small,53.1809083330445,59.19234887510538,2.0,Object_Land_Solid_Small,-9.0,,,,,,,,,,,
encoding,value,11,4124409,4130420,4127008.0,4127077.0,70.0,70.0,1445.9,858.7,1591.0,1269.0,Object_Land_Solid_Small,53.1809083330445,59.19234887510538,2.0,Object_Land_Solid_Small,-9.0,,,,,,,,,,,
encoding,value,11,4124409,4130420,4127164.0,4127269.0,106.0,106.0,1538.2,919.5999999999999,1591.0,1269.0,Object_Land_Solid_Small,53.1809083330445,59.19234887510538,2.0,Object_Land_Solid_Small,-9.0,,,,,,,,,,,
encoding,value,11,4124409,4130420,4127405.0,4127757.0,353.0,353.0,1559.3,941.8,1591.0,1269.0,Object_Land_Solid_Small,53.1809083330445,59.19234887510538,2.0,Object_Land_Solid_Small,-9.0,,,,,,,,,,,
encoding,value,11,4124409,4130420,4128070.0,4130231.0,2162.0,2162.0,1607.4,796.5999999999999,1591.0,1269.0,Object_Land_Solid_Small,53.1809083330445,59.19234887510538,2.0,Object_Land_Solid_Small,-9.0,,,,,,,,,,,
encoding,value,11,4124409,4130420,4130244.0,4130627.0,384.0,176.0,1597.0,848.8,1591.0,1269.0,Object_Land_Solid_Small,53.1809083330445,59.19234887510538,2.0,Object_Land_Solid_Small,-9.0,,,,,,,,,,,
encoding,attention,11,4130420,4133438,4130641.0,4131113.0,473.0,473.0,1605.7,782.7,1591.0,1269.0,Object_Land_Solid_Small,59.19245754205622,62.20966329204384,2.0,Object_Land_Solid_Small,-9.0,-9.0,1.0,0.9672766249859706,,,,,,,,
encoding,attention,11,4130420,4133438,4131123.0,4131630.0,508.0,508.0,1567.4,780.3,1591.0,1269.0,Object_Land_Solid_Small,59.19245754205622,62.20966329204384,2.0,Object_Land_Solid_Small,-9.0,-9.0,1.0,0.9672766249859706,,,,,,,,
encoding,attention,11,4130420,4133438,4132345.0,4132364.0,20.0,20.0,1765.7,1278.5,1591.0,891.0,Object_Sea_Pattern_Small,59.19245754205622,62.20966329204384,2.0,Object_Land_Solid_Small,-9.0,-9.0,1.0,0.9672766249859706,,,,,,,,
encoding,attention,11,4130420,4133438,4132376.0,4133183.0,808.0,808.0,1848.9,1243.7,1920.0,700.0,Animal_Land_Solid_Large,59.19245754205622,62.20966329204384,2.0,Object_Land_Solid_Small,-9.0,-9.0,1.0,0.9672766249859706,,,,,,,,
encoding,fixation,12,4133438,4134943,4134126.0,4134613.0,488.0,488.0,1821.2,1156.4,1591.0,891.0,Object_Sea_Pattern_Small,62.20981212507468,63.71496637503151,2.0,Animal_Sea_Solid_Large,-9.0,,,,,,,,,,,
encoding,fixation,12,4133438,4134943,4134760.0,4134801.0,42.0,42.0,1883.1,1205.7,1920.0,700.0,Animal_Land_Solid_Large,62.20981212507468,63.71496637503151,2.0,Animal_Sea_Solid_Large,-9.0,,,,,,,,,,,
encoding,fixation,12,4133438,4134943,4134810.0,4135621.0,812.0,133.0,1917.0,1146.5,1920.0,1080.0,fixation,62.20981212507468,63.71496637503151,2.0,Animal_Sea_Solid_Large,-9.0,,,,,,,,,,,
encoding,image,12,4134943,4135955,4135758.0,4135779.0,22.0,22.0,1593.6,1364.7,1591.0,891.0,Object_Sea_Pattern_Small,63.71508229209576,64.7265010830015,2.0,Animal_Sea_Solid_Large,-9.0,,,,,,,,,,,
encoding,image,12,4134943,4135955,4135790.0,4136368.0,579.0,165.0,1629.5,1263.5,1591.0,891.0,Object_Sea_Pattern_Small,63.71508229209576,64.7265010830015,2.0,Animal_Sea_Solid_Large,-9.0,,,,,,,,,,,
encoding,value,12,4135955,4141967,4136413.0,4136559.0,147.0,147.0,2185.4,1148.1,2249.0,891.0,Animal_Sea_Solid_Large,64.72667454206385,70.73827104200609,2.0,Animal_Sea_Solid_Large,-9.0,,,,,,,,,,,
encoding,value,12,4135955,4141967,4136570.0,4136781.0,212.0,212.0,2237.5,1128.2,2249.0,891.0,Animal_Sea_Solid_Large,64.72667454206385,70.73827104200609,2.0,Animal_Sea_Solid_Large,-9.0,,,,,,,,,,,
encoding,value,12,4135955,4141967,4136804.0,4137721.0,918.0,918.0,2218.9,1242.5,2249.0,891.0,Animal_Sea_Solid_Large,64.72667454206385,70.73827104200609,2.0,Animal_Sea_Solid_Large,-9.0,,,,,,,,,,,
encoding,value,12,4135955,4141967,4137759.0,4137862.0,104.0,104.0,2201.4,1126.4,2249.0,891.0,Animal_Sea_Solid_Large,64.72667454206385,70.73827104200609,2.0,Animal_Sea_Solid_Large,-9.0,,,,,,,,,,,
encoding,value,12,4135955,4141967,4137872.0,4139779.0,1908.0,1908.0,2198.1,1215.0,2249.0,891.0,Animal_Sea_Solid_Large,64.72667454206385,70.73827104200609,2.0,Animal_Sea_Solid_Large,-9.0,,,,,,,,,,,
encoding,value,12,4135955,4141967,4139794.0,4143590.0,3797.0,2173.0,2228.9,1116.5,2249.0,891.0,Animal_Sea_Solid_Large,64.72667454206385,70.73827104200609,2.0,Animal_Sea_Solid_Large,-9.0,,,,,,,,,,,
encoding,attention,12,4141967,4144984,4143679.0,4143744.0,66.0,66.0,2166.4,1124.4,2249.0,891.0,Animal_Sea_Solid_Large,70.7383970420342,73.75523929204792,2.0,Animal_Sea_Solid_Large,-9.0,-9.0,1.0,1.3329242090694606,,,,,,,,
encoding,attention,12,4141967,4144984,4143751.0,4143872.0,122.0,122.0,2171.7,1116.8,2249.0,891.0,Animal_Sea_Solid_Large,70.7383970420342,73.75523929204792,2.0,Animal_Sea_Solid_Large,-9.0,-9.0,1.0,1.3329242090694606,,,,,,,,
encoding,attention,12,4141967,4144984,4143993.0,4144205.0,213.0,213.0,2204.6,1138.0,2249.0,891.0,Animal_Sea_Solid_Large,70.7383970420342,73.75523929204792,2.0,Animal_Sea_Solid_Large,-9.0,-9.0,1.0,1.3329242090694606,,,,,,,,
encoding,attention,12,4141967,4144984,4144366.0,4144435.0,70.0,70.0,1981.8,1200.0,1920.0,700.0,Animal_Land_Solid_Large,70.7383970420342,73.75523929204792,2.0,Animal_Sea_Solid_Large,-9.0,-9.0,1.0,1.3329242090694606,,,,,,,,
encoding,attention,12,4141967,4144984,4144445.0,4144695.0,251.0,251.0,1999.7,1154.5,2249.0,891.0,Animal_Sea_Solid_Large,70.7383970420342,73.75523929204792,2.0,Animal_Sea_Solid_Large,-9.0,-9.0,1.0,1.3329242090694606,,,,,,,,
encoding,attention,12,4141967,4144984,4144893.0,4144926.0,34.0,34.0,1998.5,1282.6,1920.0,700.0,Animal_Land_Solid_Large,70.7383970420342,73.75523929204792,2.0,Animal_Sea_Solid_Large,-9.0,-9.0,1.0,1.3329242090694606,,,,,,,,
encoding,fixation,13,4459197,4460452,4459437.0,4460144.0,708.0,708.0,1891.9,1073.0,1920.0,1080.0,fixation,3.4783752920338884,4.733628000016324,3.0,Animal_Sea_Solid_Small,8.0,,,,,,,,,,,
encoding,fixation,13,4459197,4460452,4460168.0,4460567.0,400.0,284.0,1911.0,1175.4,1920.0,700.0,Object_Land_Pattern_Large,3.4783752920338884,4.733628000016324,3.0,Animal_Sea_Solid_Small,8.0,,,,,,,,,,,
encoding,image,13,4460452,4461463,4460591.0,4460709.0,119.0,119.0,1932.5,1004.8,1920.0,1460.0,Object_Land_Pattern_Small,4.733749417006038,5.744861708953977,3.0,Animal_Sea_Solid_Small,8.0,,,,,,,,,,,
encoding,image,13,4460452,4461463,4460750.0,4461757.0,1008.0,713.0,2229.2,1213.4,2249.0,891.0,Animal_Sea_Solid_Small,4.733749417006038,5.744861708953977,3.0,Animal_Sea_Solid_Small,8.0,,,,,,,,,,,
encoding,value,13,4461463,4467476,4461775.0,4463464.0,1690.0,1690.0,2244.5,1127.8,2249.0,891.0,Animal_Sea_Solid_Small,5.744980458985083,11.757597791962326,3.0,Animal_Sea_Solid_Small,8.0,,,,,,,,,,,
encoding,value,13,4461463,4467476,4463490.0,4463895.0,406.0,406.0,2219.5,1246.2,2249.0,891.0,Animal_Sea_Solid_Small,5.744980458985083,11.757597791962326,3.0,Animal_Sea_Solid_Small,8.0,,,,,,,,,,,
encoding,value,13,4461463,4467476,4463990.0,4464893.0,904.0,904.0,2226.0,1235.7,2249.0,891.0,Animal_Sea_Solid_Small,5.744980458985083,11.757597791962326,3.0,Animal_Sea_Solid_Small,8.0,,,,,,,,,,,
encoding,value,13,4461463,4467476,4465027.0,4466362.0,1336.0,1336.0,2199.7,1231.5,2249.0,891.0,Animal_Sea_Solid_Small,5.744980458985083,11.757597791962326,3.0,Animal_Sea_Solid_Small,8.0,,,,,,,,,,,
encoding,value,13,4461463,4467476,4466383.0,4466770.0,388.0,388.0,2212.7,1167.1,2249.0,891.0,Animal_Sea_Solid_Small,5.744980458985083,11.757597791962326,3.0,Animal_Sea_Solid_Small,8.0,,,,,,,,,,,
encoding,value,13,4461463,4467476,4466791.0,4467679.0,889.0,685.0,2200.0,1239.3,2249.0,891.0,Animal_Sea_Solid_Small,5.744980458985083,11.757597791962326,3.0,Animal_Sea_Solid_Small,8.0,,,,,,,,,,,
encoding,attention,13,4467476,4470495,4467698.0,4467873.0,176.0,176.0,2191.1,1149.5,2249.0,891.0,Animal_Sea_Solid_Small,11.757701499969698,14.776125209056772,3.0,Animal_Sea_Solid_Small,8.0,8.0,1.0,0.8620229159714654,,,,,,,,
encoding,attention,13,4467476,4470495,4467881.0,4468051.0,171.0,171.0,2237.9,1138.6,2249.0,891.0,Animal_Sea_Solid_Small,11.757701499969698,14.776125209056772,3.0,Animal_Sea_Solid_Small,8.0,8.0,1.0,0.8620229159714654,,,,,,,,
encoding,attention,13,4467476,4470495,4468063.0,4468577.0,515.0,515.0,2169.5,1137.1,2249.0,891.0,Animal_Sea_Solid_Small,11.757701499969698,14.776125209056772,3.0,Animal_Sea_Solid_Small,8.0,8.0,1.0,0.8620229159714654,,,,,,,,
encoding,attention,13,4467476,4470495,4468725.0,4468841.0,117.0,117.0,2216.1,1206.3,2249.0,891.0,Animal_Sea_Solid_Small,11.757701499969698,14.776125209056772,3.0,Animal_Sea_Solid_Small,8.0,8.0,1.0,0.8620229159714654,,,,,,,,
encoding,fixation,14,4470495,4471251,4470733.0,4471404.0,672.0,518.0,1928.6,1113.2,1920.0,1080.0,fixation,14.776323792058976,15.53223837504629,3.0,Object_Sea_Solid_Large,-2.0,,,,,,,,,,,
encoding,image,14,4471251,4472263,4471436.0,4471586.0,151.0,151.0,1636.1,920.4000000000001,1591.0,1269.0,Object_Sea_Solid_Large,15.532354334020056,16.54377895896323,3.0,Object_Sea_Solid_Large,-2.0,,,,,,,,,,,
encoding,image,14,4471251,4472263,4471597.0,4471913.0,317.0,317.0,1575.1,893.9000000000001,1591.0,1269.0,Object_Sea_Solid_Large,15.532354334020056,16.54377895896323,3.0,Object_Sea_Solid_Large,-2.0,,,,,,,,,,,
encoding,image,14,4471251,4472263,4472185.0,4472670.0,486.0,78.0,1579.3,886.0,1591.0,1269.0,Object_Sea_Solid_Large,15.532354334020056,16.54377895896323,3.0,Object_Sea_Solid_Large,-2.0,,,,,,,,,,,
encoding,value,14,4472263,4478276,4472685.0,4473087.0,403.0,403.0,1561.1,823.5999999999999,1591.0,1269.0,Object_Sea_Solid_Large,16.543899083975703,22.55654958402738,3.0,Object_Sea_Solid_Large,-2.0,,,,,,,,,,,
encoding,value,14,4472263,4478276,4473107.0,4473402.0,296.0,296.0,1566.5,898.3,1591.0,1269.0,Object_Sea_Solid_Large,16.543899083975703,22.55654958402738,3.0,Object_Sea_Solid_Large,-2.0,,,,,,,,,,,
encoding,value,14,4472263,4478276,4473424.0,4474045.0,622.0,622.0,1558.7,782.0,1591.0,1269.0,Object_Sea_Solid_Large,16.543899083975703,22.55654958402738,3.0,Object_Sea_Solid_Large,-2.0,,,,,,,,,,,
encoding,value,14,4472263,4478276,4474240.0,4474315.0,76.0,76.0,1648.5,871.2,1591.0,1269.0,Object_Sea_Solid_Large,16.543899083975703,22.55654958402738,3.0,Object_Sea_Solid_Large,-2.0,,,,,,,,,,,
encoding,value,14,4472263,4478276,4474329.0,4475267.0,939.0,939.0,1565.2,845.8,1591.0,1269.0,Object_Sea_Solid_Large,16.543899083975703,22.55654958402738,3.0,Object_Sea_Solid_Large,-2.0,,,,,,,,,,,
encoding,value,14,4472263,4478276,4475274.0,4477423.0,2150.0,2150.0,1568.8,825.9000000000001,1591.0,1269.0,Object_Sea_Solid_Large,16.543899083975703,22.55654958402738,3.0,Object_Sea_Solid_Large,-2.0,,,,,,,,,,,
encoding,value,14,4472263,4478276,4477431.0,4479139.0,1709.0,845.0,1581.8,799.5,1591.0,1269.0,Object_Sea_Solid_Large,16.543899083975703,22.55654958402738,3.0,Object_Sea_Solid_Large,-2.0,,,,,,,,,,,
encoding,attention,14,4478276,4481294,4479421.0,4479633.0,213.0,213.0,1560.5,910.7,1591.0,1269.0,Object_Sea_Solid_Large,22.55665925005451,25.574507917044684,3.0,Object_Sea_Solid_Large,-2.0,-2.0,1.0,0.6370496250456199,,,,,,,,
encoding,attention,14,4478276,4481294,4479898.0,4480062.0,165.0,165.0,1556.9,899.0,1591.0,1269.0,Object_Sea_Solid_Large,22.55665925005451,25.574507917044684,3.0,Object_Sea_Solid_Large,-2.0,-2.0,1.0,0.6370496250456199,,,,,,,,
encoding,attention,14,4478276,4481294,4480077.0,4480259.0,183.0,183.0,1599.2,818.4000000000001,1591.0,1269.0,Object_Sea_Solid_Large,22.55665925005451,25.574507917044684,3.0,Object_Sea_Solid_Large,-2.0,-2.0,1.0,0.6370496250456199,,,,,,,,
encoding,attention,14,4478276,4481294,4480574.0,4481276.0,703.0,703.0,1573.6,830.5,1591.0,1269.0,Object_Sea_Solid_Large,22.55665925005451,25.574507917044684,3.0,Object_Sea_Solid_Large,-2.0,-2.0,1.0,0.6370496250456199,,,,,,,,
encoding,fixation,15,4481294,4482800,4481765.0,4482966.0,1202.0,1035.0,1885.9,1107.9,1920.0,1080.0,fixation,25.574691834044643,27.08026470895857,3.0,Animal_Sea_Pattern_Large,-2.0,,,,,,,,,,,
encoding,image,15,4482800,4483810,4482991.0,4483212.0,222.0,222.0,1615.5,1222.0,1591.0,891.0,Animal_Sea_Pattern_Large,27.08038412500173,28.09076091705356,3.0,Animal_Sea_Pattern_Large,-2.0,,,,,,,,,,,
encoding,image,15,4482800,4483810,4483222.0,4484102.0,881.0,588.0,1555.7,1238.0,1591.0,891.0,Animal_Sea_Pattern_Large,27.08038412500173,28.09076091705356,3.0,Animal_Sea_Pattern_Large,-2.0,,,,,,,,,,,
encoding,value,15,4483810,4489821,4484119.0,4484464.0,346.0,346.0,1581.7,1162.0,1591.0,891.0,Animal_Sea_Pattern_Large,28.090873292065226,34.10151570895687,3.0,Animal_Sea_Pattern_Large,-2.0,,,,,,,,,,,
encoding,value,15,4483810,4489821,4484667.0,4484851.0,185.0,185.0,1541.2,1168.5,1591.0,891.0,Animal_Sea_Pattern_Large,28.090873292065226,34.10151570895687,3.0,Animal_Sea_Pattern_Large,-2.0,,,,,,,,,,,
encoding,value,15,4483810,4489821,4484872.0,4485401.0,530.0,530.0,1564.9,1265.1,1591.0,891.0,Animal_Sea_Pattern_Large,28.090873292065226,34.10151570895687,3.0,Animal_Sea_Pattern_Large,-2.0,,,,,,,,,,,
encoding,value,15,4483810,4489821,4485418.0,4485653.0,236.0,236.0,1672.1,1214.0,1591.0,891.0,Animal_Sea_Pattern_Large,28.090873292065226,34.10151570895687,3.0,Animal_Sea_Pattern_Large,-2.0,,,,,,,,,,,
encoding,value,15,4483810,4489821,4485840.0,4485873.0,34.0,34.0,1368.3,1385.0,,,none,28.090873292065226,34.10151570895687,3.0,Animal_Sea_Pattern_Large,-2.0,,,,,,,,,,,
encoding,value,15,4483810,4489821,4485891.0,4486250.0,360.0,360.0,1514.4,1246.6,1591.0,891.0,Animal_Sea_Pattern_Large,28.090873292065226,34.10151570895687,3.0,Animal_Sea_Pattern_Large,-2.0,,,,,,,,,,,
encoding,value,15,4483810,4489821,4486450.0,4486698.0,249.0,249.0,1584.6,1239.5,1591.0,891.0,Animal_Sea_Pattern_Large,28.090873292065226,34.10151570895687,3.0,Animal_Sea_Pattern_Large,-2.0,,,,,,,,,,,
encoding,value,15,4483810,4489821,4486714.0,4489025.0,2312.0,2312.0,1560.2,1179.7,1591.0,891.0,Animal_Sea_Pattern_Large,28.090873292065226,34.10151570895687,3.0,Animal_Sea_Pattern_Large,-2.0,,,,,,,,,,,
encoding,value,15,4483810,4489821,4489033.0,4490076.0,1044.0,788.0,1563.4,1161.3,1591.0,891.0,Animal_Sea_Pattern_Large,28.090873292065226,34.10151570895687,3.0,Animal_Sea_Pattern_Large,-2.0,,,,,,,,,,,
encoding,attention,15,4489821,4492837,4490084.0,4490701.0,618.0,618.0,1602.4,1145.1,1591.0,891.0,Animal_Sea_Pattern_Large,34.10161266697105,37.1170759589877,3.0,Animal_Sea_Pattern_Large,-2.0,-2.0,1.0,0.62489691702649,,,,,,,,
encoding,attention,15,4489821,4492837,4490914.0,4491827.0,914.0,914.0,1528.9,1260.0,1591.0,891.0,Animal_Sea_Pattern_Large,34.10161266697105,37.1170759589877,3.0,Animal_Sea_Pattern_Large,-2.0,-2.0,1.0,0.62489691702649,,,,,,,,
encoding,attention,15,4489821,4492837,4492061.0,4492354.0,294.0,294.0,1578.5,1235.1,1591.0,891.0,Animal_Sea_Pattern_Large,34.10161266697105,37.1170759589877,3.0,Animal_Sea_Pattern_Large,-2.0,-2.0,1.0,0.62489691702649,,,,,,,,
encoding,attention,15,4489821,4492837,4492571.0,4492832.0,262.0,262.0,1520.3,1274.7,1591.0,891.0,Animal_Sea_Pattern_Large,34.10161266697105,37.1170759589877,3.0,Animal_Sea_Pattern_Large,-2.0,-2.0,1.0,0.62489691702649,,,,,,,,
encoding,fixation,16,4492837,4494093,4493134.0,4493460.0,327.0,327.0,1579.6,1217.8,1591.0,891.0,Animal_Sea_Pattern_Large,37.117224958958104,38.37290545902215,3.0,Animal_Land_Solid_Small,-2.0,,,,,,,,,,,
encoding,fixation,16,4492837,4494093,4493480.0,4493837.0,358.0,358.0,1811.8,1174.1,1591.0,891.0,Animal_Sea_Pattern_Large,37.117224958958104,38.37290545902215,3.0,Animal_Land_Solid_Small,-2.0,,,,,,,,,,,
encoding,fixation,16,4492837,4494093,4493850.0,4494277.0,428.0,243.0,1923.5,1212.9,1920.0,700.0,Object_Land_Pattern_Large,37.117224958958104,38.37290545902215,3.0,Animal_Land_Solid_Small,-2.0,,,,,,,,,,,
encoding,image,16,4494093,4495104,4494319.0,4494497.0,179.0,179.0,2206.2,902.4000000000001,2249.0,1269.0,Animal_Land_Solid_Small,38.3730369170662,39.38371470896527,3.0,Animal_Land_Solid_Small,-2.0,,,,,,,,,,,
encoding,image,16,4494093,4495104,4494506.0,4495010.0,505.0,505.0,2236.4,887.0,2249.0,1269.0,Animal_Land_Solid_Small,38.3730369170662,39.38371470896527,3.0,Animal_Land_Solid_Small,-2.0,,,,,,,,,,,
encoding,image,16,4494093,4495104,4495040.0,4495441.0,402.0,64.0,2137.2,1150.0,2249.0,891.0,Animal_Sea_Solid_Small,38.3730369170662,39.38371470896527,3.0,Animal_Land_Solid_Small,-2.0,,,,,,,,,,,
encoding,value,16,4495104,4501115,4495583.0,4495641.0,59.0,59.0,2184.7,1049.0,2249.0,1269.0,Animal_Land_Solid_Small,39.38387799996417,45.39464608405251,3.0,Animal_Land_Solid_Small,-2.0,,,,,,,,,,,
encoding,value,16,4495104,4501115,4495661.0,4495693.0,33.0,33.0,2185.0,955.5,2249.0,1269.0,Animal_Land_Solid_Small,39.38387799996417,45.39464608405251,3.0,Animal_Land_Solid_Small,-2.0,,,,,,,,,,,
encoding,value,16,4495104,4501115,4495716.0,4496469.0,754.0,754.0,2203.8,784.0,2249.0,1269.0,Animal_Land_Solid_Small,39.38387799996417,45.39464608405251,3.0,Animal_Land_Solid_Small,-2.0,,,,,,,,,,,
encoding,value,16,4495104,4501115,4496831.0,4497401.0,571.0,571.0,2153.5,1056.8,2249.0,1269.0,Animal_Land_Solid_Small,39.38387799996417,45.39464608405251,3.0,Animal_Land_Solid_Small,-2.0,,,,,,,,,,,
encoding,value,16,4495104,4501115,4497409.0,4498209.0,801.0,801.0,2186.8,953.0,2249.0,1269.0,Animal_Land_Solid_Small,39.38387799996417,45.39464608405251,3.0,Animal_Land_Solid_Small,-2.0,,,,,,,,,,,
encoding,value,16,4495104,4501115,4498218.0,4500200.0,1983.0,1983.0,2212.5,894.2,2249.0,1269.0,Animal_Land_Solid_Small,39.38387799996417,45.39464608405251,3.0,Animal_Land_Solid_Small,-2.0,,,,,,,,,,,
encoding,value,16,4495104,4501115,4500222.0,4501462.0,1241.0,893.0,2206.6,796.3,2249.0,1269.0,Animal_Land_Solid_Small,39.38387799996417,45.39464608405251,3.0,Animal_Land_Solid_Small,-2.0,,,,,,,,,,,
encoding,attention,16,4501115,4504132,4501472.0,4501942.0,471.0,471.0,2158.9,777.2,2249.0,1269.0,Animal_Land_Solid_Small,45.39475416706409,48.41134762496222,3.0,Animal_Land_Solid_Small,-2.0,-2.0,1.0,0.5984155830228701,,,,,,,,
encoding,attention,16,4501115,4504132,4502178.0,4502221.0,44.0,44.0,2130.3,1187.7,2249.0,891.0,Animal_Sea_Solid_Small,45.39475416706409,48.41134762496222,3.0,Animal_Land_Solid_Small,-2.0,-2.0,1.0,0.5984155830228701,,,,,,,,
encoding,attention,16,4501115,4504132,4502239.0,4502542.0,304.0,304.0,2140.8,1106.6,2249.0,891.0,Animal_Sea_Solid_Small,45.39475416706409,48.41134762496222,3.0,Animal_Land_Solid_Small,-2.0,-2.0,1.0,0.5984155830228701,,,,,,,,
encoding,attention,16,4501115,4504132,4502769.0,4502984.0,216.0,216.0,2135.7,1131.7,2249.0,891.0,Animal_Sea_Solid_Small,45.39475416706409,48.41134762496222,3.0,Animal_Land_Solid_Small,-2.0,-2.0,1.0,0.5984155830228701,,,,,,,,
encoding,fixation,17,4504132,4505637,4504385.0,4504595.0,211.0,211.0,1947.1,1061.2,1920.0,1080.0,fixation,48.411495374981314,49.9165916669881,3.0,Object_Land_Pattern_Large,2.0,,,,,,,,,,,
encoding,fixation,17,4504132,4505637,4504606.0,4505147.0,542.0,542.0,1885.2,1070.3,1920.0,1080.0,fixation,48.411495374981314,49.9165916669881,3.0,Object_Land_Pattern_Large,2.0,,,,,,,,,,,
encoding,fixation,17,4504132,4505637,4505170.0,4505812.0,643.0,467.0,1959.6,1195.9,1920.0,700.0,Object_Land_Pattern_Large,48.411495374981314,49.9165916669881,3.0,Object_Land_Pattern_Large,2.0,,,,,,,,,,,
encoding,image,17,4505637,4506649,4505853.0,4506833.0,981.0,796.0,1888.5,1415.9,1920.0,700.0,Object_Land_Pattern_Large,49.916769000003114,50.92878970899619,3.0,Object_Land_Pattern_Large,2.0,,,,,,,,,,,
encoding,value,17,4506649,4512663,4506852.0,4507104.0,253.0,253.0,1885.6,1327.2,1920.0,700.0,Object_Land_Pattern_Large,50.92892441700678,56.942635708954185,3.0,Object_Land_Pattern_Large,2.0,,,,,,,,,,,
encoding,value,17,4506649,4512663,4507122.0,4507772.0,651.0,651.0,1896.8,1398.2,1920.0,700.0,Object_Land_Pattern_Large,50.92892441700678,56.942635708954185,3.0,Object_Land_Pattern_Large,2.0,,,,,,,,,,,
encoding,value,17,4506649,4512663,4507798.0,4507848.0,51.0,51.0,1861.8,1276.8,1920.0,700.0,Object_Land_Pattern_Large,50.92892441700678,56.942635708954185,3.0,Object_Land_Pattern_Large,2.0,,,,,,,,,,,
encoding,value,17,4506649,4512663,4507860.0,4508243.0,384.0,384.0,1899.3,1427.8,1920.0,700.0,Object_Land_Pattern_Large,50.92892441700678,56.942635708954185,3.0,Object_Land_Pattern_Large,2.0,,,,,,,,,,,
encoding,value,17,4506649,4512663,4508391.0,4508544.0,154.0,154.0,2027.1,1429.3,1920.0,700.0,Object_Land_Pattern_Large,50.92892441700678,56.942635708954185,3.0,Object_Land_Pattern_Large,2.0,,,,,,,,,,,
encoding,value,17,4506649,4512663,4508562.0,4509558.0,997.0,997.0,1891.4,1396.3,1920.0,700.0,Object_Land_Pattern_Large,50.92892441700678,56.942635708954185,3.0,Object_Land_Pattern_Large,2.0,,,,,,,,,,,
encoding,value,17,4506649,4512663,4509566.0,4509998.0,433.0,433.0,1904.1,1336.7,1920.0,700.0,Object_Land_Pattern_Large,50.92892441700678,56.942635708954185,3.0,Object_Land_Pattern_Large,2.0,,,,,,,,,,,
encoding,value,17,4506649,4512663,4510012.0,4511086.0,1075.0,1075.0,1917.0,1394.0,1920.0,700.0,Object_Land_Pattern_Large,50.92892441700678,56.942635708954185,3.0,Object_Land_Pattern_Large,2.0,,,,,,,,,,,
encoding,value,17,4506649,4512663,4511095.0,4511632.0,538.0,538.0,1895.6,1338.9,1920.0,700.0,Object_Land_Pattern_Large,50.92892441700678,56.942635708954185,3.0,Object_Land_Pattern_Large,2.0,,,,,,,,,,,
encoding,value,17,4506649,4512663,4511640.0,4512747.0,1108.0,1023.0,1917.4,1419.5,1920.0,700.0,Object_Land_Pattern_Large,50.92892441700678,56.942635708954185,3.0,Object_Land_Pattern_Large,2.0,,,,,,,,,,,
encoding,attention,17,4512663,4515682,4512808.0,4512831.0,24.0,24.0,1870.8,878.0999999999999,1920.0,1460.0,Object_Land_Pattern_Small,56.94273595896084,59.96067212498747,3.0,Object_Land_Pattern_Large,2.0,2.0,1.0,0.6609246250009164,,,,,,,,
encoding,attention,17,4512663,4515682,4512921.0,4513657.0,737.0,737.0,1837.3,1326.5,1920.0,700.0,Object_Land_Pattern_Large,56.94273595896084,59.96067212498747,3.0,Object_Land_Pattern_Large,2.0,2.0,1.0,0.6609246250009164,,,,,,,,
encoding,attention,17,4512663,4515682,4513809.0,4515042.0,1234.0,1234.0,1906.1,1416.2,1920.0,700.0,Object_Land_Pattern_Large,56.94273595896084,59.96067212498747,3.0,Object_Land_Pattern_Large,2.0,2.0,1.0,0.6609246250009164,,,,,,,,
encoding,attention,17,4512663,4515682,4515055.0,4515557.0,503.0,503.0,1843.5,1364.0,1920.0,700.0,Object_Land_Pattern_Large,56.94273595896084,59.96067212498747,3.0,Object_Land_Pattern_Large,2.0,2.0,1.0,0.6609246250009164,,,,,,,,
encoding,fixation,18,4515682,4516437,4515849.0,4515997.0,149.0,149.0,1819.0,1360.4,1920.0,700.0,Object_Land_Pattern_Large,59.96082245896105,60.71612129197456,3.0,Object_Land_Pattern_Small,2.0,,,,,,,,,,,
encoding,fixation,18,4515682,4516437,4516154.0,4516370.0,217.0,217.0,1901.9,1312.3,1920.0,700.0,Object_Land_Pattern_Large,59.96082245896105,60.71612129197456,3.0,Object_Land_Pattern_Small,2.0,,,,,,,,,,,
encoding,fixation,18,4515682,4516437,4516390.0,4516640.0,251.0,47.0,1901.6,1195.4,1920.0,700.0,Object_Land_Pattern_Large,59.96082245896105,60.71612129197456,3.0,Object_Land_Pattern_Small,2.0,,,,,,,,,,,
encoding,image,18,4516437,4517449,4516696.0,4516854.0,159.0,159.0,1876.2,765.9000000000001,1920.0,1460.0,Object_Land_Pattern_Small,60.71622349997051,61.72783741704188,3.0,Object_Land_Pattern_Small,2.0,,,,,,,,,,,
encoding,image,18,4516437,4517449,4516863.0,4517173.0,311.0,311.0,1862.2,722.4000000000001,1920.0,1460.0,Object_Land_Pattern_Small,60.71622349997051,61.72783741704188,3.0,Object_Land_Pattern_Small,2.0,,,,,,,,,,,
encoding,image,18,4516437,4517449,4517208.0,4517387.0,180.0,180.0,2029.6,1035.9,2249.0,1269.0,Animal_Land_Solid_Small,60.71622349997051,61.72783741704188,3.0,Object_Land_Pattern_Small,2.0,,,,,,,,,,,
encoding,value,18,4517449,4523461,4517602.0,4517717.0,116.0,116.0,1885.8,1069.8,1920.0,1080.0,fixation,61.72795095900074,67.7394469169667,3.0,Object_Land_Pattern_Small,2.0,,,,,,,,,,,
encoding,value,18,4517449,4523461,4517759.0,4517962.0,204.0,204.0,1865.3,662.5,1920.0,1460.0,Object_Land_Pattern_Small,61.72795095900074,67.7394469169667,3.0,Object_Land_Pattern_Small,2.0,,,,,,,,,,,
encoding,value,18,4517449,4523461,4517980.0,4518191.0,212.0,212.0,1872.2,597.2,1920.0,1460.0,Object_Land_Pattern_Small,61.72795095900074,67.7394469169667,3.0,Object_Land_Pattern_Small,2.0,,,,,,,,,,,
encoding,value,18,4517449,4523461,4518998.0,4519024.0,27.0,27.0,1839.3,873.4000000000001,1920.0,1460.0,Object_Land_Pattern_Small,61.72795095900074,67.7394469169667,3.0,Object_Land_Pattern_Small,2.0,,,,,,,,,,,
encoding,value,18,4517449,4523461,4520535.0,4520608.0,74.0,74.0,1878.6,958.0,1920.0,1460.0,Object_Land_Pattern_Small,61.72795095900074,67.7394469169667,3.0,Object_Land_Pattern_Small,2.0,,,,,,,,,,,
encoding,value,18,4517449,4523461,4520683.0,4520804.0,122.0,122.0,1877.1,801.3,1920.0,1460.0,Object_Land_Pattern_Small,61.72795095900074,67.7394469169667,3.0,Object_Land_Pattern_Small,2.0,,,,,,,,,,,
encoding,value,18,4517449,4523461,4521359.0,4521379.0,21.0,21.0,1812.1,842.2,1920.0,1460.0,Object_Land_Pattern_Small,61.72795095900074,67.7394469169667,3.0,Object_Land_Pattern_Small,2.0,,,,,,,,,,,
encoding,value,18,4517449,4523461,4521942.0,4521986.0,45.0,45.0,1791.4,864.3,1591.0,1269.0,Object_Sea_Solid_Large,61.72795095900074,67.7394469169667,3.0,Object_Land_Pattern_Small,2.0,,,,,,,,,,,
encoding,value,18,4517449,4523461,4522038.0,4522152.0,115.0,115.0,1813.1,854.5,1920.0,1460.0,Object_Land_Pattern_Small,61.72795095900074,67.7394469169667,3.0,Object_Land_Pattern_Small,2.0,,,,,,,,,,,
encoding,value,18,4517449,4523461,4522358.0,4522404.0,47.0,47.0,1801.6,881.9000000000001,1591.0,1269.0,Object_Sea_Solid_Large,61.72795095900074,67.7394469169667,3.0,Object_Land_Pattern_Small,2.0,,,,,,,,,,,
encoding,value,18,4517449,4523461,4522472.0,4522520.0,49.0,49.0,1794.7,843.9000000000001,1920.0,1460.0,Object_Land_Pattern_Small,61.72795095900074,67.7394469169667,3.0,Object_Land_Pattern_Small,2.0,,,,,,,,,,,
encoding,attention,18,4523461,4526478,4524336.0,4524376.0,41.0,41.0,1881.7,783.3,1920.0,1460.0,Object_Land_Pattern_Small,67.73956200003158,70.75677958398592,3.0,Object_Land_Pattern_Small,2.0,2.0,1.0,1.1195114169968292,,,,,,,,
encoding,attention,18,4523461,4526478,4524385.0,4524434.0,50.0,50.0,1884.2,776.4000000000001,1920.0,1460.0,Object_Land_Pattern_Small,67.73956200003158,70.75677958398592,3.0,Object_Land_Pattern_Small,2.0,2.0,1.0,1.1195114169968292,,,,,,,,
encoding,attention,18,4523461,4526478,4524454.0,4524512.0,59.0,59.0,1884.3,770.4000000000001,1920.0,1460.0,Object_Land_Pattern_Small,67.73956200003158,70.75677958398592,3.0,Object_Land_Pattern_Small,2.0,2.0,1.0,1.1195114169968292,,,,,,,,
encoding,attention,18,4523461,4526478,4524549.0,4524592.0,44.0,44.0,1869.1,826.8,1920.0,1460.0,Object_Land_Pattern_Small,67.73956200003158,70.75677958398592,3.0,Object_Land_Pattern_Small,2.0,2.0,1.0,1.1195114169968292,,,,,,,,
encoding,attention,18,4523461,4526478,4524711.0,4524775.0,65.0,65.0,1868.2,828.7,1920.0,1460.0,Object_Land_Pattern_Small,67.73956200003158,70.75677958398592,3.0,Object_Land_Pattern_Small,2.0,2.0,1.0,1.1195114169968292,,,,,,,,
encoding,attention,18,4523461,4526478,4525155.0,4525179.0,25.0,25.0,1902.8,924.3,1920.0,1460.0,Object_Land_Pattern_Small,67.73956200003158,70.75677958398592,3.0,Object_Land_Pattern_Small,2.0,2.0,1.0,1.1195114169968292,,,,,,,,
encoding,attention,18,4523461,4526478,4525523.0,4525594.0,72.0,72.0,1934.8,948.3,1920.0,1460.0,Object_Land_Pattern_Small,67.73956200003158,70.75677958398592,3.0,Object_Land_Pattern_Small,2.0,2.0,1.0,1.1195114169968292,,,,,,,,
encoding,attention,18,4523461,4526478,4525934.0,4525983.0,50.0,50.0,1892.3,965.7,1920.0,1460.0,Object_Land_Pattern_Small,67.73956200003158,70.75677958398592,3.0,Object_Land_Pattern_Small,2.0,2.0,1.0,1.1195114169968292,,,,,,,,
encoding,attention,18,4523461,4526478,4526155.0,4526267.0,113.0,113.0,1863.6,876.4000000000001,1920.0,1460.0,Object_Land_Pattern_Small,67.73956200003158,70.75677958398592,3.0,Object_Land_Pattern_Small,2.0,2.0,1.0,1.1195114169968292,,,,,,,,
encoding,attention,18,4523461,4526478,4526282.0,4526333.0,52.0,52.0,1885.1,779.8,1920.0,1460.0,Object_Land_Pattern_Small,67.73956200003158,70.75677958398592,3.0,Object_Land_Pattern_Small,2.0,2.0,1.0,1.1195114169968292,,,,,,,,
encoding,fixation,19,4801309,4802814,4801563.0,4802147.0,585.0,585.0,1911.3,1076.5,1920.0,1080.0,fixation,3.625131000066176,5.12978825008031,4.0,Object_Land_Solid_Small,-9.0,,,,,,,,,,,
encoding,fixation,19,4801309,4802814,4802175.0,4802797.0,623.0,623.0,1967.8,1279.6,1920.0,700.0,Animal_Sea_Pattern_Small,3.625131000066176,5.12978825008031,4.0,Object_Land_Solid_Small,-9.0,,,,,,,,,,,
encoding,image,19,4802814,4803825,4802819.0,4802985.0,167.0,167.0,2112.4,1201.5,2249.0,891.0,Object_Land_Solid_Large,5.12988604104612,6.1412297079805285,4.0,Object_Land_Solid_Small,-9.0,,,,,,,,,,,
encoding,image,19,4802814,4803825,4803039.0,4803473.0,435.0,435.0,1580.4,887.7,1591.0,1269.0,Object_Land_Solid_Small,5.12988604104612,6.1412297079805285,4.0,Object_Land_Solid_Small,-9.0,,,,,,,,,,,
encoding,image,19,4802814,4803825,4803677.0,4804302.0,626.0,148.0,1589.0,851.3,1591.0,1269.0,Object_Land_Solid_Small,5.12988604104612,6.1412297079805285,4.0,Object_Land_Solid_Small,-9.0,,,,,,,,,,,
encoding,value,19,4803825,4809838,4804321.0,4804898.0,578.0,578.0,1596.4,785.0,1591.0,1269.0,Object_Land_Solid_Small,6.141361040994525,12.154533124994488,4.0,Object_Land_Solid_Small,-9.0,,,,,,,,,,,
encoding,value,19,4803825,4809838,4805486.0,4807462.0,1977.0,1977.0,1632.8,878.7,1591.0,1269.0,Object_Land_Solid_Small,6.141361040994525,12.154533124994488,4.0,Object_Land_Solid_Small,-9.0,,,,,,,,,,,
encoding,value,19,4803825,4809838,4807677.0,4807733.0,57.0,57.0,1832.9,1304.8,1920.0,700.0,Animal_Sea_Pattern_Small,6.141361040994525,12.154533124994488,4.0,Object_Land_Solid_Small,-9.0,,,,,,,,,,,
encoding,value,19,4803825,4809838,4807836.0,4807972.0,137.0,137.0,1898.4,1039.1,1920.0,1080.0,fixation,6.141361040994525,12.154533124994488,4.0,Object_Land_Solid_Small,-9.0,,,,,,,,,,,
encoding,value,19,4803825,4809838,4808229.0,4808595.0,367.0,367.0,1870.4,1044.6,1920.0,1080.0,fixation,6.141361040994525,12.154533124994488,4.0,Object_Land_Solid_Small,-9.0,,,,,,,,,,,
encoding,value,19,4803825,4809838,4808611.0,4808891.0,281.0,281.0,1960.5,1047.4,1920.0,1080.0,fixation,6.141361040994525,12.154533124994488,4.0,Object_Land_Solid_Small,-9.0,,,,,,,,,,,
encoding,value,19,4803825,4809838,4808924.0,4809395.0,472.0,472.0,1623.4,823.4000000000001,1591.0,1269.0,Object_Land_Solid_Small,6.141361040994525,12.154533124994488,4.0,Object_Land_Solid_Small,-9.0,,,,,,,,,,,
encoding,value,19,4803825,4809838,4809411.0,4809918.0,508.0,427.0,1679.9,893.9000000000001,1591.0,1269.0,Object_Land_Solid_Small,6.141361040994525,12.154533124994488,4.0,Object_Land_Solid_Small,-9.0,,,,,,,,,,,
encoding,attention,19,4809839,4812857,4810131.0,4810266.0,136.0,136.0,1687.3,833.3,1591.0,1269.0,Object_Land_Solid_Small,12.154697166057304,15.172855583019556,4.0,Object_Land_Solid_Small,-9.0,-9.0,1.0,0.9365176249993964,,,,,,,,
encoding,attention,19,4809839,4812857,4810286.0,4811270.0,985.0,985.0,1745.2,781.0999999999999,1591.0,1269.0,Object_Land_Solid_Small,12.154697166057304,15.172855583019556,4.0,Object_Land_Solid_Small,-9.0,-9.0,1.0,0.9365176249993964,,,,,,,,
encoding,attention,19,4809839,4812857,4811288.0,4811628.0,341.0,341.0,1724.7,929.8,1591.0,1269.0,Object_Land_Solid_Small,12.154697166057304,15.172855583019556,4.0,Object_Land_Solid_Small,-9.0,-9.0,1.0,0.9365176249993964,,,,,,,,
encoding,fixation,20,4812857,4814112,4812961.0,4813055.0,95.0,95.0,1713.2,895.4000000000001,1591.0,1269.0,Object_Land_Solid_Small,15.172989750048146,16.42822254099883,4.0,Object_Sea_Solid_Small,7.0,,,,,,,,,,,
encoding,fixation,20,4812857,4814112,4813101.0,4814096.0,996.0,996.0,1990.8,1098.7,2249.0,891.0,Object_Land_Solid_Large,15.172989750048146,16.42822254099883,4.0,Object_Sea_Solid_Small,7.0,,,,,,,,,,,
encoding,fixation,20,4812857,4814112,4814106.0,4814301.0,196.0,6.0,1954.9,1072.1,1920.0,1080.0,fixation,15.172989750048146,16.42822254099883,4.0,Object_Sea_Solid_Small,7.0,,,,,,,,,,,
encoding,image,20,4814113,4815123,4814327.0,4814459.0,133.0,133.0,2183.5,971.0,2249.0,1269.0,Object_Sea_Solid_Small,16.428333125077188,17.438887499971315,4.0,Object_Sea_Solid_Small,7.0,,,,,,,,,,,
encoding,image,20,4814113,4815123,4814479.0,4815240.0,762.0,644.0,2292.4,890.3,2249.0,1269.0,Object_Sea_Solid_Small,16.428333125077188,17.438887499971315,4.0,Object_Sea_Solid_Small,7.0,,,,,,,,,,,
encoding,value,20,4815123,4821134,4815389.0,4815499.0,111.0,111.0,2286.8,909.9000000000001,2249.0,1269.0,Object_Sea_Solid_Small,17.439003625069745,23.449817750020884,4.0,Object_Sea_Solid_Small,7.0,,,,,,,,,,,
encoding,value,20,4815123,4821134,4815519.0,4815769.0,251.0,251.0,2292.6,813.7,2249.0,1269.0,Object_Sea_Solid_Small,17.439003625069745,23.449817750020884,4.0,Object_Sea_Solid_Small,7.0,,,,,,,,,,,
encoding,value,20,4815123,4821134,4815952.0,4816122.0,171.0,171.0,2308.0,893.9000000000001,2249.0,1269.0,Object_Sea_Solid_Small,17.439003625069745,23.449817750020884,4.0,Object_Sea_Solid_Small,7.0,,,,,,,,,,,
encoding,value,20,4815123,4821134,4816131.0,4816296.0,166.0,166.0,2282.0,889.2,2249.0,1269.0,Object_Sea_Solid_Small,17.439003625069745,23.449817750020884,4.0,Object_Sea_Solid_Small,7.0,,,,,,,,,,,
encoding,value,20,4815123,4821134,4816485.0,4816544.0,60.0,60.0,2264.1,1079.1,2249.0,1269.0,Object_Sea_Solid_Small,17.439003625069745,23.449817750020884,4.0,Object_Sea_Solid_Small,7.0,,,,,,,,,,,
encoding,value,20,4815123,4821134,4816574.0,4816616.0,43.0,43.0,2316.5,916.3,2249.0,1269.0,Object_Sea_Solid_Small,17.439003625069745,23.449817750020884,4.0,Object_Sea_Solid_Small,7.0,,,,,,,,,,,
encoding,value,20,4815123,4821134,4816626.0,4817647.0,1022.0,1022.0,2273.4,897.5999999999999,2249.0,1269.0,Object_Sea_Solid_Small,17.439003625069745,23.449817750020884,4.0,Object_Sea_Solid_Small,7.0,,,,,,,,,,,
encoding,value,20,4815123,4821134,4817681.0,4818194.0,514.0,514.0,2275.6,881.5,2249.0,1269.0,Object_Sea_Solid_Small,17.439003625069745,23.449817750020884,4.0,Object_Sea_Solid_Small,7.0,,,,,,,,,,,
encoding,value,20,4815123,4821134,4818415.0,4818616.0,202.0,202.0,2251.0,1053.6,2249.0,1269.0,Object_Sea_Solid_Small,17.439003625069745,23.449817750020884,4.0,Object_Sea_Solid_Small,7.0,,,,,,,,,,,
encoding,value,20,4815123,4821134,4818630.0,4818690.0,61.0,61.0,2271.7,1061.9,2249.0,1269.0,Object_Sea_Solid_Small,17.439003625069745,23.449817750020884,4.0,Object_Sea_Solid_Small,7.0,,,,,,,,,,,
encoding,value,20,4815123,4821134,4818709.0,4818757.0,49.0,49.0,2272.1,1047.4,2249.0,1269.0,Object_Sea_Solid_Small,17.439003625069745,23.449817750020884,4.0,Object_Sea_Solid_Small,7.0,,,,,,,,,,,
encoding,value,20,4815123,4821134,4818796.0,4819414.0,619.0,619.0,2270.1,905.4000000000001,2249.0,1269.0,Object_Sea_Solid_Small,17.439003625069745,23.449817750020884,4.0,Object_Sea_Solid_Small,7.0,,,,,,,,,,,
encoding,value,20,4815123,4821134,4819422.0,4819907.0,486.0,486.0,2248.0,870.5,2249.0,1269.0,Object_Sea_Solid_Small,17.439003625069745,23.449817750020884,4.0,Object_Sea_Solid_Small,7.0,,,,,,,,,,,
encoding,value,20,4815123,4821134,4820039.0,4820089.0,51.0,51.0,2271.1,1062.4,2249.0,1269.0,Object_Sea_Solid_Small,17.439003625069745,23.449817750020884,4.0,Object_Sea_Solid_Small,7.0,,,,,,,,,,,
encoding,value,20,4815123,4821134,4820108.0,4820547.0,440.0,440.0,2287.6,916.5999999999999,2249.0,1269.0,Object_Sea_Solid_Small,17.439003625069745,23.449817750020884,4.0,Object_Sea_Solid_Small,7.0,,,,,,,,,,,
encoding,value,20,4815123,4821134,4820559.0,4821405.0,847.0,575.0,2238.3,876.4000000000001,2249.0,1269.0,Object_Sea_Solid_Small,17.439003625069745,23.449817750020884,4.0,Object_Sea_Solid_Small,7.0,,,,,,,,,,,
encoding,attention,20,4821134,4824152,4821421.0,4821585.0,165.0,165.0,2249.4,805.7,2249.0,1269.0,Object_Sea_Solid_Small,23.449959916062653,26.467449666000903,4.0,Object_Sea_Solid_Small,7.0,7.0,1.0,1.6105660420143977,,,,,,,,
encoding,attention,20,4821134,4824152,4821595.0,4821868.0,274.0,274.0,2212.8,778.9000000000001,2249.0,1269.0,Object_Sea_Solid_Small,23.449959916062653,26.467449666000903,4.0,Object_Sea_Solid_Small,7.0,7.0,1.0,1.6105660420143977,,,,,,,,
encoding,attention,20,4821134,4824152,4821880.0,4822261.0,382.0,382.0,2272.5,776.9000000000001,2249.0,1269.0,Object_Sea_Solid_Small,23.449959916062653,26.467449666000903,4.0,Object_Sea_Solid_Small,7.0,7.0,1.0,1.6105660420143977,,,,,,,,
encoding,attention,20,4821134,4824152,4822269.0,4823048.0,780.0,780.0,2241.2,791.4000000000001,2249.0,1269.0,Object_Sea_Solid_Small,23.449959916062653,26.467449666000903,4.0,Object_Sea_Solid_Small,7.0,7.0,1.0,1.6105660420143977,,,,,,,,
encoding,attention,20,4821134,4824152,4823186.0,4823226.0,41.0,41.0,2256.8,1042.4,2249.0,1269.0,Object_Sea_Solid_Small,23.449959916062653,26.467449666000903,4.0,Object_Sea_Solid_Small,7.0,7.0,1.0,1.6105660420143977,,,,,,,,
encoding,attention,20,4821134,4824152,4823243.0,4823359.0,117.0,117.0,2278.4,913.2,2249.0,1269.0,Object_Sea_Solid_Small,23.449959916062653,26.467449666000903,4.0,Object_Sea_Solid_Small,7.0,7.0,1.0,1.6105660420143977,,,,,,,,
encoding,attention,20,4821134,4824152,4823369.0,4824095.0,727.0,727.0,2253.5,869.0999999999999,2249.0,1269.0,Object_Sea_Solid_Small,23.449959916062653,26.467449666000903,4.0,Object_Sea_Solid_Small,7.0,7.0,1.0,1.6105660420143977,,,,,,,,
encoding,fixation,21,4824152,4824907,4824551.0,4825200.0,650.0,356.0,1893.0,1428.7,1920.0,700.0,Animal_Sea_Pattern_Small,26.467603500001132,27.22268837504089,4.0,Animal_Sea_Pattern_Small,4.0,,,,,,,,,,,
encoding,image,21,4824907,4825923,4825210.0,4825565.0,356.0,356.0,1905.5,1402.3,1920.0,700.0,Animal_Sea_Pattern_Small,27.222787416074425,28.23799350007903,4.0,Animal_Sea_Pattern_Small,4.0,,,,,,,,,,,
encoding,image,21,4824907,4825923,4825856.0,4826520.0,665.0,67.0,1867.2,1437.2,1920.0,700.0,Animal_Sea_Pattern_Small,27.222787416074425,28.23799350007903,4.0,Animal_Sea_Pattern_Small,4.0,,,,,,,,,,,
encoding,value,21,4825923,4831935,4826529.0,4826839.0,311.0,311.0,1902.9,1478.9,1920.0,700.0,Animal_Sea_Pattern_Small,28.23811137501616,34.25039420800749,4.0,Animal_Sea_Pattern_Small,4.0,,,,,,,,,,,
encoding,value,21,4825923,4831935,4826861.0,4827221.0,361.0,361.0,1876.8,1394.6,1920.0,700.0,Animal_Sea_Pattern_Small,28.23811137501616,34.25039420800749,4.0,Animal_Sea_Pattern_Small,4.0,,,,,,,,,,,
encoding,value,21,4825923,4831935,4827228.0,4827573.0,346.0,346.0,1913.9,1397.5,1920.0,700.0,Animal_Sea_Pattern_Small,28.23811137501616,34.25039420800749,4.0,Animal_Sea_Pattern_Small,4.0,,,,,,,,,,,
encoding,value,21,4825923,4831935,4827592.0,4828532.0,941.0,941.0,1901.4,1320.1,1920.0,700.0,Animal_Sea_Pattern_Small,28.23811137501616,34.25039420800749,4.0,Animal_Sea_Pattern_Small,4.0,,,,,,,,,,,
encoding,value,21,4825923,4831935,4828554.0,4829399.0,846.0,846.0,1916.7,1423.4,1920.0,700.0,Animal_Sea_Pattern_Small,28.23811137501616,34.25039420800749,4.0,Animal_Sea_Pattern_Small,4.0,,,,,,,,,,,
encoding,value,21,4825923,4831935,4829416.0,4830195.0,780.0,780.0,1901.4,1321.3,1920.0,700.0,Animal_Sea_Pattern_Small,28.23811137501616,34.25039420800749,4.0,Animal_Sea_Pattern_Small,4.0,,,,,,,,,,,
encoding,value,21,4825923,4831935,4830208.0,4830904.0,697.0,697.0,1886.3,1241.0,1920.0,700.0,Animal_Sea_Pattern_Small,28.23811137501616,34.25039420800749,4.0,Animal_Sea_Pattern_Small,4.0,,,,,,,,,,,
encoding,value,21,4825923,4831935,4830915.0,4831758.0,844.0,844.0,1887.1,1298.3,1920.0,700.0,Animal_Sea_Pattern_Small,28.23811137501616,34.25039420800749,4.0,Animal_Sea_Pattern_Small,4.0,,,,,,,,,,,
encoding,value,21,4825923,4831935,4831783.0,4832198.0,416.0,152.0,1882.7,1430.2,1920.0,700.0,Animal_Sea_Pattern_Small,28.23811137501616,34.25039420800749,4.0,Animal_Sea_Pattern_Small,4.0,,,,,,,,,,,
encoding,attention,21,4831935,4834954,4832219.0,4832713.0,495.0,495.0,1884.4,1306.5,1920.0,700.0,Animal_Sea_Pattern_Small,34.2505226660287,37.26857720804401,4.0,Animal_Sea_Pattern_Small,4.0,4.0,1.0,1.1245939589571208,,,,,,,,
encoding,attention,21,4831935,4834954,4832732.0,4833326.0,595.0,595.0,1844.3,1399.1,1920.0,700.0,Animal_Sea_Pattern_Small,34.2505226660287,37.26857720804401,4.0,Animal_Sea_Pattern_Small,4.0,4.0,1.0,1.1245939589571208,,,,,,,,
encoding,attention,21,4831935,4834954,4833342.0,4834348.0,1007.0,1007.0,1844.7,1330.5,1920.0,700.0,Animal_Sea_Pattern_Small,34.2505226660287,37.26857720804401,4.0,Animal_Sea_Pattern_Small,4.0,4.0,1.0,1.1245939589571208,,,,,,,,
encoding,fixation,22,4834954,4835959,,,,,,,,,none,37.26872870803345,38.273720624973066,4.0,Animal_Land_Pattern_Large,7.0,,,,,,,,,,,
encoding,image,22,4835959,4836970,4836326.0,4836752.0,427.0,427.0,1887.6,1499.9,1920.0,700.0,Animal_Sea_Pattern_Small,38.27382200001739,39.285052124992944,4.0,Animal_Land_Pattern_Large,7.0,,,,,,,,,,,
encoding,image,22,4835959,4836970,4836819.0,4836969.0,151.0,151.0,1809.6,789.9000000000001,1920.0,1460.0,Animal_Land_Pattern_Large,38.27382200001739,39.285052124992944,4.0,Animal_Land_Pattern_Large,7.0,,,,,,,,,,,
encoding,value,22,4836970,4842982,4836985.0,4837857.0,873.0,873.0,1830.0,705.3,1920.0,1460.0,Animal_Land_Pattern_Large,39.2851693329867,45.29627050005365,4.0,Animal_Land_Pattern_Large,7.0,,,,,,,,,,,
encoding,value,22,4836970,4842982,4838077.0,4838146.0,70.0,70.0,1794.2,785.5,1920.0,1460.0,Animal_Land_Pattern_Large,39.2851693329867,45.29627050005365,4.0,Animal_Land_Pattern_Large,7.0,,,,,,,,,,,
encoding,value,22,4836970,4842982,4838165.0,4838199.0,35.0,35.0,1846.6,668.2,1920.0,1460.0,Animal_Land_Pattern_Large,39.2851693329867,45.29627050005365,4.0,Animal_Land_Pattern_Large,7.0,,,,,,,,,,,
encoding,value,22,4836970,4842982,4838360.0,4838411.0,52.0,52.0,1811.9,840.5999999999999,1920.0,1460.0,Animal_Land_Pattern_Large,39.2851693329867,45.29627050005365,4.0,Animal_Land_Pattern_Large,7.0,,,,,,,,,,,
encoding,value,22,4836970,4842982,4838433.0,4838794.0,362.0,362.0,1864.5,698.2,1920.0,1460.0,Animal_Land_Pattern_Large,39.2851693329867,45.29627050005365,4.0,Animal_Land_Pattern_Large,7.0,,,,,,,,,,,
encoding,value,22,4836970,4842982,4838809.0,4839337.0,529.0,529.0,1779.1,745.9000000000001,1920.0,1460.0,Animal_Land_Pattern_Large,39.2851693329867,45.29627050005365,4.0,Animal_Land_Pattern_Large,7.0,,,,,,,,,,,
encoding,value,22,4836970,4842982,4839350.0,4839806.0,457.0,457.0,1862.1,702.5999999999999,1920.0,1460.0,Animal_Land_Pattern_Large,39.2851693329867,45.29627050005365,4.0,Animal_Land_Pattern_Large,7.0,,,,,,,,,,,
encoding,value,22,4836970,4842982,4839818.0,4840628.0,811.0,811.0,1839.5,682.0,1920.0,1460.0,Animal_Land_Pattern_Large,39.2851693329867,45.29627050005365,4.0,Animal_Land_Pattern_Large,7.0,,,,,,,,,,,
encoding,value,22,4836970,4842982,4840790.0,4840968.0,179.0,179.0,1964.9,1187.7,1920.0,700.0,Animal_Sea_Pattern_Small,39.2851693329867,45.29627050005365,4.0,Animal_Land_Pattern_Large,7.0,,,,,,,,,,,
encoding,value,22,4836970,4842982,4840986.0,4841345.0,360.0,360.0,1840.9,1196.5,1591.0,891.0,Animal_Sea_Pattern_Large,39.2851693329867,45.29627050005365,4.0,Animal_Land_Pattern_Large,7.0,,,,,,,,,,,
encoding,value,22,4836970,4842982,4841398.0,4841597.0,200.0,200.0,1870.5,647.9000000000001,1920.0,1460.0,Animal_Land_Pattern_Large,39.2851693329867,45.29627050005365,4.0,Animal_Land_Pattern_Large,7.0,,,,,,,,,,,
encoding,value,22,4836970,4842982,4841612.0,4842109.0,498.0,498.0,1909.8,593.2,1920.0,1460.0,Animal_Land_Pattern_Large,39.2851693329867,45.29627050005365,4.0,Animal_Land_Pattern_Large,7.0,,,,,,,,,,,
encoding,value,22,4836970,4842982,4842125.0,4843407.0,1283.0,857.0,1896.4,676.0,1920.0,1460.0,Animal_Land_Pattern_Large,39.2851693329867,45.29627050005365,4.0,Animal_Land_Pattern_Large,7.0,,,,,,,,,,,
encoding,attention,22,4842982,4845999,4843519.0,4844702.0,1184.0,1184.0,1947.2,595.8,1920.0,1460.0,Animal_Land_Pattern_Large,45.29637450003065,48.313371040974744,4.0,Animal_Land_Pattern_Large,7.0,7.0,1.0,1.4853943339549005,,,,,,,,
encoding,attention,22,4842982,4845999,4844879.0,4844910.0,32.0,32.0,1815.6,812.8,1920.0,1460.0,Animal_Land_Pattern_Large,45.29637450003065,48.313371040974744,4.0,Animal_Land_Pattern_Large,7.0,7.0,1.0,1.4853943339549005,,,,,,,,
encoding,attention,22,4842982,4845999,4844929.0,4845250.0,322.0,322.0,1868.3,742.4000000000001,1920.0,1460.0,Animal_Land_Pattern_Large,45.29637450003065,48.313371040974744,4.0,Animal_Land_Pattern_Large,7.0,7.0,1.0,1.4853943339549005,,,,,,,,
encoding,attention,22,4842982,4845999,4845399.0,4845611.0,213.0,213.0,2134.8,879.9000000000001,2249.0,1269.0,Object_Sea_Solid_Small,45.29637450003065,48.313371040974744,4.0,Animal_Land_Pattern_Large,7.0,7.0,1.0,1.4853943339549005,,,,,,,,
encoding,attention,22,4842982,4845999,4845652.0,4845970.0,319.0,319.0,1948.7,663.5999999999999,1920.0,1460.0,Animal_Land_Pattern_Large,45.29637450003065,48.313371040974744,4.0,Animal_Land_Pattern_Large,7.0,7.0,1.0,1.4853943339549005,,,,,,,,
encoding,fixation,23,4845999,4846505,4846250.0,4846812.0,563.0,255.0,1920.9,1016.0999999999999,1920.0,1080.0,fixation,48.31351337500382,48.818953333073296,4.0,Object_Land_Solid_Large,1.0,,,,,,,,,,,
encoding,image,23,4846505,4847514,4846824.0,4847405.0,582.0,582.0,1879.6,1051.7,1920.0,1080.0,fixation,48.81909408303909,49.828387166024186,4.0,Object_Land_Solid_Large,1.0,,,,,,,,,,,
encoding,image,23,4846505,4847514,4847441.0,4850838.0,3398.0,73.0,2188.4,1211.2,2249.0,891.0,Object_Land_Solid_Large,48.81909408303909,49.828387166024186,4.0,Object_Land_Solid_Large,1.0,,,,,,,,,,,
encoding,value,23,4847514,4853525,4850853.0,4851484.0,632.0,632.0,2179.2,1135.5,2249.0,891.0,Object_Land_Solid_Large,49.82854654104449,55.83890049997717,4.0,Object_Land_Solid_Large,1.0,,,,,,,,,,,
encoding,value,23,4847514,4853525,4852337.0,4852457.0,121.0,121.0,2272.0,1088.1,2249.0,891.0,Object_Land_Solid_Large,49.82854654104449,55.83890049997717,4.0,Object_Land_Solid_Large,1.0,,,,,,,,,,,
encoding,value,23,4847514,4853525,4852475.0,4852668.0,194.0,194.0,2186.7,1095.1,2249.0,891.0,Object_Land_Solid_Large,49.82854654104449,55.83890049997717,4.0,Object_Land_Solid_Large,1.0,,,,,,,,,,,
encoding,value,23,4847514,4853525,4852680.0,4852844.0,165.0,165.0,2181.0,1116.7,2249.0,891.0,Object_Land_Solid_Large,49.82854654104449,55.83890049997717,4.0,Object_Land_Solid_Large,1.0,,,,,,,,,,,
encoding,value,23,4847514,4853525,4853289.0,4853767.0,479.0,236.0,2192.4,1178.9,2249.0,891.0,Object_Land_Solid_Large,49.82854654104449,55.83890049997717,4.0,Object_Land_Solid_Large,1.0,,,,,,,,,,,
encoding,attention,23,4853525,4856542,4853779.0,4853973.0,195.0,195.0,2173.2,1118.4,2249.0,891.0,Object_Land_Solid_Large,55.83900816598907,58.85596687498037,4.0,Object_Land_Solid_Large,1.0,1.0,1.0,1.3571655000559986,,,,,,,,
encoding,attention,23,4853525,4856542,4853984.0,4854719.0,736.0,736.0,2245.5,1119.4,2249.0,891.0,Object_Land_Solid_Large,55.83900816598907,58.85596687498037,4.0,Object_Land_Solid_Large,1.0,1.0,1.0,1.3571655000559986,,,,,,,,
encoding,attention,23,4853525,4856542,4854886.0,4854979.0,94.0,94.0,2208.9,1327.7,2249.0,891.0,Object_Land_Solid_Large,55.83900816598907,58.85596687498037,4.0,Object_Land_Solid_Large,1.0,1.0,1.0,1.3571655000559986,,,,,,,,
encoding,attention,23,4853525,4856542,4854998.0,4855586.0,589.0,589.0,2209.1,1226.9,2249.0,891.0,Object_Land_Solid_Large,55.83900816598907,58.85596687498037,4.0,Object_Land_Solid_Large,1.0,1.0,1.0,1.3571655000559986,,,,,,,,
encoding,attention,23,4853525,4856542,4855749.0,4855815.0,67.0,67.0,2179.4,1207.3,2249.0,891.0,Object_Land_Solid_Large,55.83900816598907,58.85596687498037,4.0,Object_Land_Solid_Large,1.0,1.0,1.0,1.3571655000559986,,,,,,,,
encoding,attention,23,4853525,4856542,4855898.0,4856011.0,114.0,114.0,2167.0,1358.3,2249.0,891.0,Object_Land_Solid_Large,55.83900816598907,58.85596687498037,4.0,Object_Land_Solid_Large,1.0,1.0,1.0,1.3571655000559986,,,,,,,,
encoding,attention,23,4853525,4856542,4856076.0,4856437.0,362.0,362.0,2191.4,1335.0,2249.0,891.0,Object_Land_Solid_Large,55.83900816598907,58.85596687498037,4.0,Object_Land_Solid_Large,1.0,1.0,1.0,1.3571655000559986,,,,,,,,
encoding,fixation,24,4856542,4857297,,,,,,,,,none,58.856114000082016,59.611092125065625,4.0,Animal_Sea_Pattern_Large,-7.0,,,,,,,,,,,
encoding,image,24,4857297,4858309,4858267.0,4858487.0,221.0,42.0,2102.6,1388.1,2249.0,891.0,Object_Land_Solid_Large,59.61119733308442,60.6226773330709,4.0,Animal_Sea_Pattern_Large,-7.0,,,,,,,,,,,
encoding,value,24,4858309,4864320,4858539.0,4858673.0,135.0,135.0,1678.5,1192.9,1591.0,891.0,Animal_Sea_Pattern_Large,60.622786250081845,66.63352783303708,4.0,Animal_Sea_Pattern_Large,-7.0,,,,,,,,,,,
encoding,value,24,4858309,4864320,4858687.0,4858860.0,174.0,174.0,1619.7,1143.1,1591.0,891.0,Animal_Sea_Pattern_Large,60.622786250081845,66.63352783303708,4.0,Animal_Sea_Pattern_Large,-7.0,,,,,,,,,,,
encoding,value,24,4858309,4864320,4859061.0,4859105.0,45.0,45.0,1706.0,1229.1,1591.0,891.0,Animal_Sea_Pattern_Large,60.622786250081845,66.63352783303708,4.0,Animal_Sea_Pattern_Large,-7.0,,,,,,,,,,,
encoding,value,24,4858309,4864320,4859415.0,4861194.0,1780.0,1780.0,1574.9,1216.0,1591.0,891.0,Animal_Sea_Pattern_Large,60.622786250081845,66.63352783303708,4.0,Animal_Sea_Pattern_Large,-7.0,,,,,,,,,,,
encoding,value,24,4858309,4864320,4861206.0,4862004.0,799.0,799.0,1557.8,1204.2,1591.0,891.0,Animal_Sea_Pattern_Large,60.622786250081845,66.63352783303708,4.0,Animal_Sea_Pattern_Large,-7.0,,,,,,,,,,,
encoding,value,24,4858309,4864320,4862023.0,4862180.0,158.0,158.0,1656.1,1123.5,1591.0,891.0,Animal_Sea_Pattern_Large,60.622786250081845,66.63352783303708,4.0,Animal_Sea_Pattern_Large,-7.0,,,,,,,,,,,
encoding,value,24,4858309,4864320,4862191.0,4864722.0,2532.0,2129.0,1602.6,1123.8,1591.0,891.0,Animal_Sea_Pattern_Large,60.622786250081845,66.63352783303708,4.0,Animal_Sea_Pattern_Large,-7.0,,,,,,,,,,,
encoding,attention,24,4864320,4867337,4864735.0,4865053.0,319.0,319.0,1556.9,1115.7,1591.0,891.0,Animal_Sea_Pattern_Large,66.63366545806639,69.65016249998007,4.0,Animal_Sea_Pattern_Large,-7.0,-7.0,1.0,1.244114791974425,,,,,,,,
encoding,attention,24,4864320,4867337,4865275.0,4865785.0,511.0,511.0,1643.2,1165.5,1591.0,891.0,Animal_Sea_Pattern_Large,66.63366545806639,69.65016249998007,4.0,Animal_Sea_Pattern_Large,-7.0,-7.0,1.0,1.244114791974425,,,,,,,,
encoding,attention,24,4864320,4867337,4865799.0,4865979.0,181.0,181.0,1560.3,1130.8,1591.0,891.0,Animal_Sea_Pattern_Large,66.63366545806639,69.65016249998007,4.0,Animal_Sea_Pattern_Large,-7.0,-7.0,1.0,1.244114791974425,,,,,,,,
encoding,attention,24,4864320,4867337,4866184.0,4866314.0,131.0,131.0,1618.6,1149.0,1591.0,891.0,Animal_Sea_Pattern_Large,66.63366545806639,69.65016249998007,4.0,Animal_Sea_Pattern_Large,-7.0,-7.0,1.0,1.244114791974425,,,,,,,,
encoding,fixation,25,5153909,5154914,5154127.0,5154530.0,404.0,404.0,1914.7,1073.1,1920.0,1080.0,fixation,4.142541541950777,5.147906792000867,5.0,Object_Sea_Pattern_Large,-3.0,,,,,,,,,,,
encoding,fixation,25,5153909,5154914,5154537.0,5155128.0,592.0,377.0,1956.4,1070.5,1920.0,1080.0,fixation,4.142541541950777,5.147906792000867,5.0,Object_Sea_Pattern_Large,-3.0,,,,,,,,,,,
encoding,image,25,5154914,5155926,5155179.0,5155707.0,529.0,529.0,1978.9,714.5,1920.0,1460.0,Object_Sea_Pattern_Large,5.148012083955109,6.159257624996826,5.0,Object_Sea_Pattern_Large,-3.0,,,,,,,,,,,
encoding,image,25,5154914,5155926,5155714.0,5156232.0,519.0,212.0,1950.8,677.5999999999999,1920.0,1460.0,Object_Sea_Pattern_Large,5.148012083955109,6.159257624996826,5.0,Object_Sea_Pattern_Large,-3.0,,,,,,,,,,,
encoding,value,25,5155926,5161940,5156245.0,5156649.0,405.0,405.0,1954.9,597.9000000000001,1920.0,1460.0,Object_Sea_Pattern_Large,6.15937558398582,12.173128666938284,5.0,Object_Sea_Pattern_Large,-3.0,,,,,,,,,,,
encoding,value,25,5155926,5161940,5156661.0,5157605.0,945.0,945.0,1965.4,682.9000000000001,1920.0,1460.0,Object_Sea_Pattern_Large,6.15937558398582,12.173128666938284,5.0,Object_Sea_Pattern_Large,-3.0,,,,,,,,,,,
encoding,value,25,5155926,5161940,5157791.0,5157830.0,40.0,40.0,1965.0,933.3,1920.0,1460.0,Object_Sea_Pattern_Large,6.15937558398582,12.173128666938284,5.0,Object_Sea_Pattern_Large,-3.0,,,,,,,,,,,
encoding,value,25,5155926,5161940,5157858.0,5157906.0,49.0,49.0,2011.8,656.8,1920.0,1460.0,Object_Sea_Pattern_Large,6.15937558398582,12.173128666938284,5.0,Object_Sea_Pattern_Large,-3.0,,,,,,,,,,,
encoding,value,25,5155926,5161940,5157913.0,5157995.0,83.0,83.0,1973.1,646.0,1920.0,1460.0,Object_Sea_Pattern_Large,6.15937558398582,12.173128666938284,5.0,Object_Sea_Pattern_Large,-3.0,,,,,,,,,,,
encoding,value,25,5155926,5161940,5158054.0,5159592.0,1539.0,1539.0,1960.8,604.3,1920.0,1460.0,Object_Sea_Pattern_Large,6.15937558398582,12.173128666938284,5.0,Object_Sea_Pattern_Large,-3.0,,,,,,,,,,,
encoding,value,25,5155926,5161940,5159614.0,5160035.0,422.0,422.0,1976.7,646.0999999999999,1920.0,1460.0,Object_Sea_Pattern_Large,6.15937558398582,12.173128666938284,5.0,Object_Sea_Pattern_Large,-3.0,,,,,,,,,,,
encoding,value,25,5155926,5161940,5160327.0,5160506.0,180.0,180.0,1992.6,663.0999999999999,1920.0,1460.0,Object_Sea_Pattern_Large,6.15937558398582,12.173128666938284,5.0,Object_Sea_Pattern_Large,-3.0,,,,,,,,,,,
encoding,value,25,5155926,5161940,5160517.0,5162347.0,1831.0,1423.0,1952.7,661.0,1920.0,1460.0,Object_Sea_Pattern_Large,6.15937558398582,12.173128666938284,5.0,Object_Sea_Pattern_Large,-3.0,,,,,,,,,,,
encoding,attention,25,5161940,5164958,5162360.0,5162578.0,219.0,219.0,1992.5,588.2,1920.0,1460.0,Object_Sea_Pattern_Large,12.173235583934002,15.191605209023692,5.0,Object_Sea_Pattern_Large,-3.0,-3.0,1.0,1.284128083032556,,,,,,,,
encoding,attention,25,5161940,5164958,5163360.0,5163461.0,102.0,102.0,1926.9,954.4000000000001,1920.0,1460.0,Object_Sea_Pattern_Large,12.173235583934002,15.191605209023692,5.0,Object_Sea_Pattern_Large,-3.0,-3.0,1.0,1.284128083032556,,,,,,,,
encoding,attention,25,5161940,5164958,5163474.0,5163494.0,21.0,21.0,1948.6,919.3,1920.0,1460.0,Object_Sea_Pattern_Large,12.173235583934002,15.191605209023692,5.0,Object_Sea_Pattern_Large,-3.0,-3.0,1.0,1.284128083032556,,,,,,,,
encoding,attention,25,5161940,5164958,5163527.0,5163992.0,466.0,466.0,1936.6,606.8,1920.0,1460.0,Object_Sea_Pattern_Large,12.173235583934002,15.191605209023692,5.0,Object_Sea_Pattern_Large,-3.0,-3.0,1.0,1.284128083032556,,,,,,,,
encoding,attention,25,5161940,5164958,5164151.0,5164220.0,70.0,70.0,1923.3,856.7,1920.0,1460.0,Object_Sea_Pattern_Large,12.173235583934002,15.191605209023692,5.0,Object_Sea_Pattern_Large,-3.0,-3.0,1.0,1.284128083032556,,,,,,,,
encoding,attention,25,5161940,5164958,5164246.0,5164305.0,60.0,60.0,1953.8,666.7,1920.0,1460.0,Object_Sea_Pattern_Large,12.173235583934002,15.191605209023692,5.0,Object_Sea_Pattern_Large,-3.0,-3.0,1.0,1.284128083032556,,,,,,,,
encoding,fixation,26,5164959,5165464,5165269.0,5165617.0,349.0,195.0,1921.9,1068.1,1920.0,1080.0,fixation,15.191809084033594,15.69682162499521,5.0,Animal_Land_Pattern_Small,-7.0,,,,,,,,,,,
encoding,image,26,5165464,5166475,5165642.0,5165778.0,137.0,137.0,2181.0,951.0999999999999,2249.0,1269.0,Animal_Land_Pattern_Small,15.696975291939452,16.708272250019945,5.0,Animal_Land_Pattern_Small,-7.0,,,,,,,,,,,
encoding,image,26,5165464,5166475,5165797.0,5166401.0,605.0,605.0,2258.3,863.4000000000001,2249.0,1269.0,Animal_Land_Pattern_Small,15.696975291939452,16.708272250019945,5.0,Animal_Land_Pattern_Small,-7.0,,,,,,,,,,,
encoding,value,26,5166475,5172488,5166568.0,5166590.0,23.0,23.0,2189.2,1035.9,2249.0,1269.0,Animal_Land_Pattern_Small,16.708396291942336,22.721309624961577,5.0,Animal_Land_Pattern_Small,-7.0,,,,,,,,,,,
encoding,value,26,5166475,5172488,5166617.0,5166688.0,72.0,72.0,2213.4,900.0999999999999,2249.0,1269.0,Animal_Land_Pattern_Small,16.708396291942336,22.721309624961577,5.0,Animal_Land_Pattern_Small,-7.0,,,,,,,,,,,
encoding,value,26,5166475,5172488,5166706.0,5166906.0,201.0,201.0,2284.2,826.4000000000001,2249.0,1269.0,Animal_Land_Pattern_Small,16.708396291942336,22.721309624961577,5.0,Animal_Land_Pattern_Small,-7.0,,,,,,,,,,,
encoding,value,26,5166475,5172488,5166919.0,5167241.0,323.0,323.0,2280.4,784.9000000000001,2249.0,1269.0,Animal_Land_Pattern_Small,16.708396291942336,22.721309624961577,5.0,Animal_Land_Pattern_Small,-7.0,,,,,,,,,,,
encoding,value,26,5166475,5172488,5167257.0,5168217.0,961.0,961.0,2275.4,860.0,2249.0,1269.0,Animal_Land_Pattern_Small,16.708396291942336,22.721309624961577,5.0,Animal_Land_Pattern_Small,-7.0,,,,,,,,,,,
encoding,value,26,5166475,5172488,5168402.0,5168448.0,47.0,47.0,2213.9,985.5,2249.0,1269.0,Animal_Land_Pattern_Small,16.708396291942336,22.721309624961577,5.0,Animal_Land_Pattern_Small,-7.0,,,,,,,,,,,
encoding,value,26,5166475,5172488,5168471.0,5169299.0,829.0,829.0,2266.3,843.4000000000001,2249.0,1269.0,Animal_Land_Pattern_Small,16.708396291942336,22.721309624961577,5.0,Animal_Land_Pattern_Small,-7.0,,,,,,,,,,,
encoding,value,26,5166475,5172488,5169310.0,5170900.0,1591.0,1591.0,2278.7,778.9000000000001,2249.0,1269.0,Animal_Land_Pattern_Small,16.708396291942336,22.721309624961577,5.0,Animal_Land_Pattern_Small,-7.0,,,,,,,,,,,
encoding,value,26,5166475,5172488,5170909.0,5171414.0,506.0,506.0,2270.9,792.4000000000001,2249.0,1269.0,Animal_Land_Pattern_Small,16.708396291942336,22.721309624961577,5.0,Animal_Land_Pattern_Small,-7.0,,,,,,,,,,,
encoding,value,26,5166475,5172488,5171432.0,5172198.0,767.0,767.0,2288.9,864.0,2249.0,1269.0,Animal_Land_Pattern_Small,16.708396291942336,22.721309624961577,5.0,Animal_Land_Pattern_Small,-7.0,,,,,,,,,,,
encoding,value,26,5166475,5172488,5172459.0,5172483.0,25.0,25.0,2273.0,852.2,2249.0,1269.0,Animal_Land_Pattern_Small,16.708396291942336,22.721309624961577,5.0,Animal_Land_Pattern_Small,-7.0,,,,,,,,,,,
encoding,attention,26,5172489,5175509,5172778.0,5173443.0,666.0,666.0,2225.4,945.0999999999999,2249.0,1269.0,Animal_Land_Pattern_Small,22.72150058404077,25.741296999971382,5.0,Animal_Land_Pattern_Small,-7.0,-7.0,1.0,0.8973460419801995,,,,,,,,
encoding,attention,26,5172489,5175509,5173454.0,5173542.0,89.0,89.0,2241.6,923.5,2249.0,1269.0,Animal_Land_Pattern_Small,22.72150058404077,25.741296999971382,5.0,Animal_Land_Pattern_Small,-7.0,-7.0,1.0,0.8973460419801995,,,,,,,,
encoding,attention,26,5172489,5175509,5173559.0,5173609.0,51.0,51.0,2264.1,822.8,2249.0,1269.0,Animal_Land_Pattern_Small,22.72150058404077,25.741296999971382,5.0,Animal_Land_Pattern_Small,-7.0,-7.0,1.0,0.8973460419801995,,,,,,,,
encoding,attention,26,5172489,5175509,5173793.0,5173902.0,110.0,110.0,2265.4,944.5999999999999,2249.0,1269.0,Animal_Land_Pattern_Small,22.72150058404077,25.741296999971382,5.0,Animal_Land_Pattern_Small,-7.0,-7.0,1.0,0.8973460419801995,,,,,,,,
encoding,attention,26,5172489,5175509,5174169.0,5174218.0,50.0,50.0,2120.2,1055.1,2249.0,1269.0,Animal_Land_Pattern_Small,22.72150058404077,25.741296999971382,5.0,Animal_Land_Pattern_Small,-7.0,-7.0,1.0,0.8973460419801995,,,,,,,,
encoding,attention,26,5172489,5175509,5174244.0,5174467.0,224.0,224.0,2140.4,891.9000000000001,2249.0,1269.0,Animal_Land_Pattern_Small,22.72150058404077,25.741296999971382,5.0,Animal_Land_Pattern_Small,-7.0,-7.0,1.0,0.8973460419801995,,,,,,,,
encoding,attention,26,5172489,5175509,5174692.0,5174751.0,60.0,60.0,2229.5,1022.9000000000001,2249.0,1269.0,Animal_Land_Pattern_Small,22.72150058404077,25.741296999971382,5.0,Animal_Land_Pattern_Small,-7.0,-7.0,1.0,0.8973460419801995,,,,,,,,
encoding,attention,26,5172489,5175509,5174775.0,5175454.0,680.0,680.0,2270.5,891.3,2249.0,1269.0,Animal_Land_Pattern_Small,22.72150058404077,25.741296999971382,5.0,Animal_Land_Pattern_Small,-7.0,-7.0,1.0,0.8973460419801995,,,,,,,,
encoding,fixation,27,5175509,5177014,5175771.0,5175949.0,179.0,179.0,1994.5,1024.3,2249.0,1269.0,Animal_Land_Pattern_Small,25.741495791939087,27.246829584008083,5.0,Animal_Land_Solid_Large,9.0,,,,,,,,,,,
encoding,fixation,27,5175509,5177014,5175959.0,5176785.0,827.0,827.0,1943.7,1039.7,1920.0,1080.0,fixation,25.741495791939087,27.246829584008083,5.0,Animal_Land_Solid_Large,9.0,,,,,,,,,,,
encoding,fixation,27,5175509,5177014,5176797.0,5177162.0,366.0,217.0,1919.6,1115.3,1920.0,1080.0,fixation,25.741495791939087,27.246829584008083,5.0,Animal_Land_Solid_Large,9.0,,,,,,,,,,,
encoding,image,27,5177014,5178026,5177200.0,5178065.0,866.0,826.0,1935.7,1412.1,1920.0,700.0,Animal_Land_Solid_Large,27.246935124974694,28.2584052500315,5.0,Animal_Land_Solid_Large,9.0,,,,,,,,,,,
encoding,value,27,5178026,5184039,5178107.0,5178342.0,236.0,236.0,1967.0,1405.9,1920.0,700.0,Animal_Land_Solid_Large,28.258528791950084,34.27155354199931,5.0,Animal_Land_Solid_Large,9.0,,,,,,,,,,,
encoding,value,27,5178026,5184039,5178363.0,5179356.0,994.0,994.0,1933.1,1307.5,1920.0,700.0,Animal_Land_Solid_Large,28.258528791950084,34.27155354199931,5.0,Animal_Land_Solid_Large,9.0,,,,,,,,,,,
encoding,value,27,5178026,5184039,5179378.0,5180721.0,1344.0,1344.0,1945.9,1424.7,1920.0,700.0,Animal_Land_Solid_Large,28.258528791950084,34.27155354199931,5.0,Animal_Land_Solid_Large,9.0,,,,,,,,,,,
encoding,value,27,5178026,5184039,5180741.0,5180770.0,30.0,30.0,1923.4,1423.3,1920.0,700.0,Animal_Land_Solid_Large,28.258528791950084,34.27155354199931,5.0,Animal_Land_Solid_Large,9.0,,,,,,,,,,,
encoding,value,27,5178026,5184039,5180781.0,5181186.0,406.0,406.0,1994.8,1393.5,1920.0,700.0,Animal_Land_Solid_Large,28.258528791950084,34.27155354199931,5.0,Animal_Land_Solid_Large,9.0,,,,,,,,,,,
encoding,value,27,5178026,5184039,5181361.0,5181671.0,311.0,311.0,1963.7,1414.1,1920.0,700.0,Animal_Land_Solid_Large,28.258528791950084,34.27155354199931,5.0,Animal_Land_Solid_Large,9.0,,,,,,,,,,,
encoding,value,27,5178026,5184039,5181682.0,5182472.0,791.0,791.0,1960.1,1421.5,1920.0,700.0,Animal_Land_Solid_Large,28.258528791950084,34.27155354199931,5.0,Animal_Land_Solid_Large,9.0,,,,,,,,,,,
encoding,value,27,5178026,5184039,5182494.0,5184883.0,2390.0,1545.0,1946.4,1322.8,1920.0,700.0,Animal_Land_Solid_Large,28.258528791950084,34.27155354199931,5.0,Animal_Land_Solid_Large,9.0,,,,,,,,,,,
encoding,attention,27,5184039,5187059,5185053.0,5185112.0,60.0,60.0,1947.9,1383.1,1920.0,700.0,Animal_Land_Solid_Large,34.27167591697071,37.290989791974425,5.0,Animal_Land_Solid_Large,9.0,9.0,1.0,0.5919250830775127,,,,,,,,
encoding,fixation,28,5187059,5187564,5187381.0,5187453.0,73.0,73.0,2028.1,1260.2,2249.0,891.0,Animal_Sea_Solid_Large,37.29113374999724,37.79608724999707,5.0,Object_Land_Solid_Small,-5.0,,,,,,,,,,,
encoding,fixation,28,5187059,5187564,5187461.0,5187583.0,123.0,103.0,2036.0,1242.7,2249.0,891.0,Animal_Sea_Solid_Large,37.29113374999724,37.79608724999707,5.0,Object_Land_Solid_Small,-5.0,,,,,,,,,,,
encoding,image,28,5187564,5188574,5187597.0,5187766.0,170.0,170.0,1964.0,1202.2,1920.0,700.0,Animal_Land_Solid_Large,37.796180333942175,38.80651195894461,5.0,Object_Land_Solid_Small,-5.0,,,,,,,,,,,
encoding,image,28,5187564,5188574,5187811.0,5188588.0,778.0,763.0,1620.3,869.5999999999999,1591.0,1269.0,Object_Land_Solid_Small,37.796180333942175,38.80651195894461,5.0,Object_Land_Solid_Small,-5.0,,,,,,,,,,,
encoding,value,28,5188574,5194590,5188818.0,5188911.0,94.0,94.0,1684.4,919.7,1591.0,1269.0,Object_Land_Solid_Small,38.8066775839543,44.82151449995581,5.0,Object_Land_Solid_Small,-5.0,,,,,,,,,,,
encoding,value,28,5188574,5194590,5188931.0,5189270.0,340.0,340.0,1629.3,787.9000000000001,1591.0,1269.0,Object_Land_Solid_Small,38.8066775839543,44.82151449995581,5.0,Object_Land_Solid_Small,-5.0,,,,,,,,,,,
encoding,value,28,5188574,5194590,5189622.0,5189749.0,128.0,128.0,1631.6,895.5,1591.0,1269.0,Object_Land_Solid_Small,38.8066775839543,44.82151449995581,5.0,Object_Land_Solid_Small,-5.0,,,,,,,,,,,
encoding,value,28,5188574,5194590,5190006.0,5190376.0,371.0,371.0,2127.5,1038.0,2249.0,1269.0,Animal_Land_Pattern_Small,38.8066775839543,44.82151449995581,5.0,Object_Land_Solid_Small,-5.0,,,,,,,,,,,
encoding,value,28,5188574,5194590,5190417.0,5190682.0,266.0,266.0,1750.0,931.3,1591.0,1269.0,Object_Land_Solid_Small,38.8066775839543,44.82151449995581,5.0,Object_Land_Solid_Small,-5.0,,,,,,,,,,,
encoding,value,28,5188574,5194590,5190851.0,5191093.0,243.0,243.0,2011.4,1084.9,2249.0,891.0,Animal_Sea_Solid_Large,38.8066775839543,44.82151449995581,5.0,Object_Land_Solid_Small,-5.0,,,,,,,,,,,
encoding,value,28,5188574,5194590,5191107.0,5191368.0,262.0,262.0,1930.5,1041.7,1920.0,1080.0,fixation,38.8066775839543,44.82151449995581,5.0,Object_Land_Solid_Small,-5.0,,,,,,,,,,,
encoding,value,28,5188574,5194590,5191653.0,5191717.0,65.0,65.0,1845.5,1074.2,1591.0,1269.0,Object_Land_Solid_Small,38.8066775839543,44.82151449995581,5.0,Object_Land_Solid_Small,-5.0,,,,,,,,,,,
encoding,value,28,5188574,5194590,5191742.0,5191905.0,164.0,164.0,1610.4,933.5,1591.0,1269.0,Object_Land_Solid_Small,38.8066775839543,44.82151449995581,5.0,Object_Land_Solid_Small,-5.0,,,,,,,,,,,
encoding,value,28,5188574,5194590,5192034.0,5192099.0,66.0,66.0,1604.5,947.0999999999999,1591.0,1269.0,Object_Land_Solid_Small,38.8066775839543,44.82151449995581,5.0,Object_Land_Solid_Small,-5.0,,,,,,,,,,,
encoding,value,28,5188574,5194590,5192141.0,5192464.0,324.0,324.0,1880.7,1047.8,1920.0,1080.0,fixation,38.8066775839543,44.82151449995581,5.0,Object_Land_Solid_Small,-5.0,,,,,,,,,,,
encoding,value,28,5188574,5194590,5192789.0,5193034.0,246.0,246.0,1925.0,1093.8,1920.0,1080.0,fixation,38.8066775839543,44.82151449995581,5.0,Object_Land_Solid_Small,-5.0,,,,,,,,,,,
encoding,value,28,5188574,5194590,5193076.0,5193275.0,200.0,200.0,1592.1,830.5,1591.0,1269.0,Object_Land_Solid_Small,38.8066775839543,44.82151449995581,5.0,Object_Land_Solid_Small,-5.0,,,,,,,,,,,
encoding,value,28,5188574,5194590,5193285.0,5194624.0,1340.0,1305.0,1598.1,780.8,1591.0,1269.0,Object_Land_Solid_Small,38.8066775839543,44.82151449995581,5.0,Object_Land_Solid_Small,-5.0,,,,,,,,,,,
encoding,attention,28,5194590,5197603,5196600.0,5196623.0,24.0,24.0,1810.0,965.4000000000001,1591.0,1269.0,Object_Land_Solid_Small,44.82163545896765,47.834992334013805,5.0,Object_Land_Solid_Small,-5.0,,,,,,,,,,,
encoding,attention,28,5194590,5197603,5196657.0,5197245.0,589.0,589.0,1647.1,840.0,1591.0,1269.0,Object_Land_Solid_Small,44.82163545896765,47.834992334013805,5.0,Object_Land_Solid_Small,-5.0,,,,,,,,,,,
encoding,fixation,29,5197604,5198358,5198198.0,5198359.0,162.0,160.0,1960.7,969.0999999999999,1920.0,1460.0,Object_Sea_Pattern_Large,47.83512454200536,48.58999312494416,5.0,Animal_Sea_Solid_Large,-5.0,,,,,,,,,,,
encoding,image,29,5198358,5199371,5198377.0,5198553.0,177.0,177.0,1913.2,1031.5,1920.0,1080.0,fixation,48.59008925000671,49.60248191701248,5.0,Animal_Sea_Solid_Large,-5.0,,,,,,,,,,,
encoding,image,29,5198358,5199371,5198598.0,5200168.0,1571.0,773.0,2244.6,1222.0,2249.0,891.0,Animal_Sea_Solid_Large,48.59008925000671,49.60248191701248,5.0,Animal_Sea_Solid_Large,-5.0,,,,,,,,,,,
encoding,value,29,5199371,5205383,5200306.0,5200337.0,32.0,32.0,2221.9,1309.3,2249.0,891.0,Animal_Sea_Solid_Large,49.602589749963954,55.61423533398192,5.0,Animal_Sea_Solid_Large,-5.0,,,,,,,,,,,
