subject,phase,event,trial_number,game,option,choice,rt,roi_content,item_index,is_center,is_relevant,fix_start,fix_end,fix_duration_bounded
101,choice,choice,1,1.0,Animal,2.0,12.338066875003278,Animal_Sea_Pattern_Small,0,0,1,3702533.0,3702724.0,191.0
101,choice,choice,1,1.0,Animal,2.0,12.338066875003278,fixation,-1,1,0,3702746.0,3705082.0,2336.0
101,choice,choice,1,1.0,Animal,2.0,12.338066875003278,Animal_Sea_Pattern_Small,0,0,1,3705095.0,3706072.0,977.0
101,choice,choice,1,1.0,Animal,2.0,12.338066875003278,Animal_Sea_Pattern_Large,1,0,1,3706244.0,3706315.0,71.0
101,choice,choice,1,1.0,Animal,2.0,12.338066875003278,Animal_Sea_Pattern_Small,0,0,1,3707434.0,3707520.0,86.0
101,choice,choice,1,1.0,Animal,2.0,12.338066875003278,Animal_Sea_Pattern_Large,1,0,1,3707718.0,3707791.0,73.0
101,choice,choice,4,1.0,Object,1.0,23.057488374994136,Animal_Sea_Pattern_Large,1,0,0,3752081.0,3752221.0,140.0
101,choice,choice,4,1.0,Object,1.0,23.057488374994136,fixation,-1,1,0,3752248.0,3752575.0,327.0
101,choice,choice,4,1.0,Object,1.0,23.057488374994136,Object_Land_Solid_Small,2,0,1,3752824.0,3752981.0,157.0
101,choice,choice,4,1.0,Object,1.0,23.057488374994136,fixation,-1,1,0,3753017.0,3762191.0,9174.0
101,choice,choice,4,1.0,Object,1.0,23.057488374994136,Animal_Sea_Pattern_Large,1,0,0,3764004.0,3764030.0,26.0
101,choice,choice,4,1.0,Object,1.0,23.057488374994136,fixation,-1,1,0,3764042.0,3766588.0,2546.0
101,choice,choice,4,1.0,Object,1.0,23.057488374994136,Animal_Sea_Pattern_Large,1,0,0,3767512.0,3768357.0,845.0
101,choice,choice,5,1.0,Pattern,2.0,8.188803375000134,Animal_Sea_Pattern_Large,1,0,1,3772297.0,3772413.0,116.0
101,choice,choice,5,1.0,Pattern,2.0,8.188803375000134,Animal_Sea_Pattern_Small,0,0,1,3772632.0,3772711.0,79.0
101,choice,choice,5,1.0,Pattern,2.0,8.188803375000134,Animal_Sea_Pattern_Large,1,0,1,3772920.0,3772962.0,42.0
101,choice,choice,5,1.0,Pattern,2.0,8.188803375000134,Animal_Sea_Pattern_Small,0,0,1,3772977.0,3773555.0,578.0
101,choice,choice,5,1.0,Pattern,2.0,8.188803375000134,fixation,-1,1,0,3774312.0,3775243.0,931.0
101,choice,choice,5,1.0,Pattern,2.0,8.188803375000134,Animal_Sea_Pattern_Large,1,0,1,3775913.0,3776206.0,293.0
101,choice,choice,5,1.0,Pattern,2.0,8.188803375000134,Animal_Sea_Pattern_Small,0,0,1,3776398.0,3776429.0,31.0
101,choice,choice,5,1.0,Pattern,2.0,8.188803375000134,fixation,-1,1,0,3776445.0,3778609.0,2164.0
101,choice,choice,5,1.0,Pattern,2.0,8.188803375000134,Object_Sea_Solid_Small,3,0,0,3779168.0,3779447.0,279.0
101,choice,choice,5,1.0,Pattern,2.0,8.188803375000134,fixation,-1,1,0,3779666.0,3779872.0,206.0
101,choice,choice,6,1.0,Solid,1.0,5.252752249944024,Animal_Sea_Pattern_Small,0,0,0,3783663.0,3785154.0,1491.0
101,choice,choice,6,1.0,Solid,1.0,5.252752249944024,Animal_Sea_Pattern_Large,1,0,0,3785374.0,3786329.0,955.0
101,choice,choice,6,1.0,Solid,1.0,5.252752249944024,Animal_Sea_Pattern_Small,0,0,0,3786672.0,3786827.0,155.0
101,choice,choice,6,1.0,Solid,1.0,5.252752249944024,fixation,-1,1,0,3786847.0,3788265.0,1418.0
101,choice,choice,7,1.0,Sea,1.0,1.8111851669382304,fixation,-1,1,0,3792012.0,3792276.0,264.0
101,choice,choice,7,1.0,Sea,1.0,1.8111851669382304,Animal_Sea_Pattern_Large,1,0,1,3792477.0,3792742.0,265.0
101,choice,choice,7,1.0,Sea,1.0,1.8111851669382304,fixation,-1,1,0,3792786.0,3793041.0,255.0
101,choice,choice,8,1.0,Small,2.0,2.301793250022456,fixation,-1,1,0,3796906.0,3797654.0,748.0
101,choice,choice,8,1.0,Small,2.0,2.301793250022456,Animal_Sea_Pattern_Large,1,0,0,3797948.0,3798413.0,465.0
101,choice,choice,8,1.0,Small,2.0,2.301793250022456,fixation,-1,1,0,3798446.0,3798642.0,196.0
101,choice,choice,9,2.0,Land,2.0,19.747027875040654,Animal_Land_Solid_Large,0,0,1,4226237.0,4226574.0,337.0
101,choice,choice,9,2.0,Land,2.0,19.747027875040654,fixation,-1,1,0,4227862.0,4233063.0,5201.0
101,choice,choice,9,2.0,Land,2.0,19.747027875040654,Animal_Land_Solid_Large,0,0,1,4233450.0,4233478.0,28.0
101,choice,choice,9,2.0,Land,2.0,19.747027875040654,fixation,-1,1,0,4233485.0,4234711.0,1226.0
101,choice,choice,9,2.0,Land,2.0,19.747027875040654,Animal_Land_Pattern_Small,1,0,1,4234875.0,4235163.0,288.0
101,choice,choice,9,2.0,Land,2.0,19.747027875040654,fixation,-1,1,0,4235179.0,4235965.0,786.0
101,choice,choice,9,2.0,Land,2.0,19.747027875040654,Animal_Land_Solid_Large,0,0,1,4236150.0,4236542.0,392.0
101,choice,choice,9,2.0,Land,2.0,19.747027875040654,Animal_Land_Pattern_Small,1,0,1,4236737.0,4237273.0,536.0
101,choice,choice,9,2.0,Land,2.0,19.747027875040654,fixation,-1,1,0,4237299.0,4237752.0,453.0
101,choice,choice,9,2.0,Land,2.0,19.747027875040654,Object_Land_Solid_Small,2,0,1,4237774.0,4239064.0,1290.0
101,choice,choice,9,2.0,Land,2.0,19.747027875040654,fixation,-1,1,0,4240103.0,4240655.0,552.0
101,choice,choice,9,2.0,Land,2.0,19.747027875040654,Animal_Sea_Solid_Large,3,0,0,4240828.0,4241179.0,351.0
101,choice,choice,9,2.0,Land,2.0,19.747027875040654,Animal_Land_Solid_Large,0,0,1,4241198.0,4241566.0,368.0
101,choice,choice,9,2.0,Land,2.0,19.747027875040654,Object_Sea_Pattern_Small,4,0,0,4241749.0,4243519.0,1770.0
101,choice,choice,9,2.0,Land,2.0,19.747027875040654,fixation,-1,1,0,4244510.0,4245190.0,680.0
101,choice,choice,10,2.0,Large,2.0,10.80698737502098,Object_Land_Solid_Small,2,0,0,4250012.0,4250195.0,183.0
101,choice,choice,10,2.0,Large,2.0,10.80698737502098,Animal_Sea_Solid_Large,3,0,1,4250426.0,4250447.0,21.0
101,choice,choice,10,2.0,Large,2.0,10.80698737502098,Animal_Land_Pattern_Small,1,0,0,4250455.0,4250704.0,249.0
101,choice,choice,10,2.0,Large,2.0,10.80698737502098,fixation,-1,1,0,4250950.0,4251168.0,218.0
101,choice,choice,10,2.0,Large,2.0,10.80698737502098,Animal_Sea_Solid_Large,3,0,1,4251341.0,4251592.0,251.0
101,choice,choice,10,2.0,Large,2.0,10.80698737502098,fixation,-1,1,0,4252491.0,4252603.0,112.0
101,choice,choice,10,2.0,Large,2.0,10.80698737502098,Object_Sea_Pattern_Small,4,0,0,4252860.0,4254448.0,1588.0
101,choice,choice,10,2.0,Large,2.0,10.80698737502098,fixation,-1,1,0,4254719.0,4255422.0,703.0
101,choice,choice,10,2.0,Large,2.0,10.80698737502098,Animal_Land_Pattern_Small,1,0,0,4256337.0,4256610.0,273.0
101,choice,choice,10,2.0,Large,2.0,10.80698737502098,Object_Sea_Pattern_Small,4,0,0,4256849.0,4257763.0,914.0
101,choice,choice,10,2.0,Large,2.0,10.80698737502098,Animal_Land_Solid_Large,0,0,1,4259009.0,4259797.0,788.0
101,choice,choice,11,2.0,Animal,1.0,21.413059125072323,fixation,-1,1,0,4262440.0,4263748.0,1308.0
101,choice,choice,11,2.0,Animal,1.0,21.413059125072323,Animal_Land_Solid_Large,0,0,1,4264150.0,4264761.0,611.0
101,choice,choice,11,2.0,Animal,1.0,21.413059125072323,Animal_Sea_Solid_Large,3,0,1,4265114.0,4265333.0,219.0
101,choice,choice,11,2.0,Animal,1.0,21.413059125072323,fixation,-1,1,0,4265540.0,4266746.0,1206.0
101,choice,choice,11,2.0,Animal,1.0,21.413059125072323,Animal_Land_Pattern_Small,1,0,1,4267330.0,4268106.0,776.0
101,choice,choice,11,2.0,Animal,1.0,21.413059125072323,Animal_Land_Solid_Large,0,0,1,4268432.0,4268615.0,183.0
101,choice,choice,11,2.0,Animal,1.0,21.413059125072323,Object_Land_Solid_Small,2,0,0,4268641.0,4269035.0,394.0
101,choice,choice,11,2.0,Animal,1.0,21.413059125072323,Object_Sea_Pattern_Small,4,0,0,4269324.0,4269500.0,176.0
101,choice,choice,11,2.0,Animal,1.0,21.413059125072323,Animal_Land_Solid_Large,0,0,1,4269769.0,4270078.0,309.0
101,choice,choice,11,2.0,Animal,1.0,21.413059125072323,Object_Sea_Pattern_Small,4,0,0,4270100.0,4270393.0,293.0
101,choice,choice,11,2.0,Animal,1.0,21.413059125072323,Object_Land_Solid_Small,2,0,0,4270658.0,4271869.0,1211.0
101,choice,choice,11,2.0,Animal,1.0,21.413059125072323,fixation,-1,1,0,4272355.0,4272537.0,182.0
101,choice,choice,11,2.0,Animal,1.0,21.413059125072323,Animal_Sea_Solid_Large,3,0,1,4272778.0,4273023.0,245.0
101,choice,choice,11,2.0,Animal,1.0,21.413059125072323,fixation,-1,1,0,4273037.0,4274597.0,1560.0
101,choice,choice,11,2.0,Animal,1.0,21.413059125072323,Object_Sea_Pattern_Small,4,0,0,4274855.0,4275084.0,229.0
101,choice,choice,11,2.0,Animal,1.0,21.413059125072323,fixation,-1,1,0,4275102.0,4275557.0,455.0
101,choice,choice,11,2.0,Animal,1.0,21.413059125072323,Object_Sea_Pattern_Small,4,0,0,4275731.0,4275998.0,267.0
101,choice,choice,11,2.0,Animal,1.0,21.413059125072323,fixation,-1,1,0,4276201.0,4276250.0,49.0
101,choice,choice,11,2.0,Animal,1.0,21.413059125072323,Animal_Sea_Solid_Large,3,0,1,4276515.0,4276541.0,26.0
101,choice,choice,11,2.0,Animal,1.0,21.413059125072323,fixation,-1,1,0,4276824.0,4277293.0,469.0
101,choice,choice,11,2.0,Animal,1.0,21.413059125072323,Animal_Sea_Solid_Large,3,0,1,4277558.0,4277974.0,416.0
101,choice,choice,11,2.0,Animal,1.0,21.413059125072323,fixation,-1,1,0,4278000.0,4278315.0,315.0
101,choice,choice,11,2.0,Animal,1.0,21.413059125072323,Object_Sea_Pattern_Large,5,0,0,4278329.0,4279779.0,1450.0
101,choice,choice,11,2.0,Animal,1.0,21.413059125072323,Object_Land_Solid_Small,2,0,0,4280832.0,4281083.0,251.0
101,choice,choice,11,2.0,Animal,1.0,21.413059125072323,Object_Sea_Pattern_Large,5,0,0,4281283.0,4281474.0,191.0
101,choice,choice,11,2.0,Animal,1.0,21.413059125072323,Object_Land_Solid_Small,2,0,0,4281486.0,4281888.0,402.0
101,choice,choice,11,2.0,Animal,1.0,21.413059125072323,Object_Sea_Pattern_Small,4,0,0,4282163.0,4282270.0,107.0
101,choice,choice,11,2.0,Animal,1.0,21.413059125072323,fixation,-1,1,0,4282307.0,4283453.0,1146.0
101,choice,choice,13,2.0,Small,2.0,8.690614124992862,Object_Land_Solid_Small,2,0,1,4301672.0,4301770.0,98.0
101,choice,choice,13,2.0,Small,2.0,8.690614124992862,Object_Sea_Pattern_Small,4,0,1,4302017.0,4302066.0,49.0
101,choice,choice,13,2.0,Small,2.0,8.690614124992862,fixation,-1,1,0,4302083.0,4302934.0,851.0
101,choice,choice,13,2.0,Small,2.0,8.690614124992862,Object_Land_Solid_Small,2,0,1,4303171.0,4304221.0,1050.0
101,choice,choice,13,2.0,Small,2.0,8.690614124992862,fixation,-1,1,0,4304678.0,4305096.0,418.0
101,choice,choice,13,2.0,Small,2.0,8.690614124992862,Animal_Land_Solid_Large,0,0,0,4305825.0,4305854.0,29.0
101,choice,choice,13,2.0,Small,2.0,8.690614124992862,fixation,-1,1,0,4305859.0,4307054.0,1195.0
101,choice,choice,13,2.0,Small,2.0,8.690614124992862,Object_Sea_Pattern_Small,4,0,1,4307514.0,4308061.0,547.0
101,choice,choice,13,2.0,Small,2.0,8.690614124992862,fixation,-1,1,0,4308282.0,4308500.0,218.0
101,choice,choice,13,2.0,Small,2.0,8.690614124992862,Animal_Sea_Solid_Large,3,0,0,4308722.0,4309110.0,388.0
101,choice,choice,13,2.0,Small,2.0,8.690614124992862,Animal_Land_Solid_Large,0,0,0,4309125.0,4309372.0,247.0
101,choice,choice,13,2.0,Small,2.0,8.690614124992862,fixation,-1,1,0,4309593.0,4309926.0,333.0
101,choice,choice,14,2.0,Object,2.0,6.621130750048906,fixation,-1,1,0,4313151.0,4313351.0,200.0
101,choice,choice,14,2.0,Object,2.0,6.621130750048906,Object_Sea_Pattern_Small,4,0,1,4314008.0,4315069.0,1061.0
101,choice,choice,14,2.0,Object,2.0,6.621130750048906,Animal_Land_Solid_Large,0,0,0,4315992.0,4316261.0,269.0
101,choice,choice,14,2.0,Object,2.0,6.621130750048906,Object_Sea_Pattern_Small,4,0,1,4316464.0,4317223.0,759.0
101,choice,choice,14,2.0,Object,2.0,6.621130750048906,Animal_Land_Solid_Large,0,0,0,4317409.0,4317467.0,58.0
101,choice,choice,14,2.0,Object,2.0,6.621130750048906,Animal_Sea_Solid_Large,3,0,0,4317670.0,4317970.0,300.0
101,choice,choice,14,2.0,Object,2.0,6.621130750048906,Animal_Land_Solid_Large,0,0,0,4318367.0,4318738.0,371.0
101,choice,choice,15,2.0,Solid,2.0,7.580716666998342,Animal_Land_Solid_Large,0,0,1,4322919.0,4323551.0,632.0
101,choice,choice,15,2.0,Solid,2.0,7.580716666998342,Animal_Sea_Solid_Large,3,0,1,4325000.0,4325186.0,186.0
101,choice,choice,15,2.0,Solid,2.0,7.580716666998342,Object_Sea_Pattern_Small,4,0,0,4325705.0,4326163.0,458.0
101,choice,choice,15,2.0,Solid,2.0,7.580716666998342,Animal_Land_Solid_Large,0,0,1,4326416.0,4326688.0,272.0
101,choice,choice,15,2.0,Solid,2.0,7.580716666998342,Object_Sea_Pattern_Small,4,0,0,4327263.0,4327674.0,411.0
101,choice,choice,15,2.0,Solid,2.0,7.580716666998342,Animal_Land_Solid_Large,0,0,1,4328200.0,4328526.0,326.0
101,choice,choice,15,2.0,Solid,2.0,7.580716666998342,Object_Sea_Pattern_Small,4,0,0,4328539.0,4328883.0,344.0
101,choice,choice,15,2.0,Solid,2.0,7.580716666998342,Animal_Sea_Solid_Large,3,0,1,4328903.0,4329195.0,292.0
101,choice,choice,15,2.0,Solid,2.0,7.580716666998342,Animal_Land_Solid_Large,0,0,1,4329212.0,4329640.0,428.0
101,choice,choice,15,2.0,Solid,2.0,7.580716666998342,Object_Sea_Pattern_Small,4,0,0,4329840.0,4329991.0,151.0
101,choice,choice,16,2.0,Pattern,1.0,4.666229874943383,fixation,-1,1,0,4333706.0,4333972.0,266.0
101,choice,choice,16,2.0,Pattern,1.0,4.666229874943383,Object_Land_Solid_Small,2,0,0,4334203.0,4334433.0,230.0
101,choice,choice,16,2.0,Pattern,1.0,4.666229874943383,Object_Sea_Pattern_Large,5,0,1,4334657.0,4334753.0,96.0
101,choice,choice,16,2.0,Pattern,1.0,4.666229874943383,fixation,-1,1,0,4335033.0,4335211.0,178.0
101,choice,choice,16,2.0,Pattern,1.0,4.666229874943383,Animal_Land_Solid_Large,0,0,0,4335748.0,4335770.0,22.0
101,choice,choice,16,2.0,Pattern,1.0,4.666229874943383,Animal_Sea_Solid_Large,3,0,0,4335777.0,4335936.0,159.0
101,choice,choice,16,2.0,Pattern,1.0,4.666229874943383,Animal_Land_Solid_Large,0,0,0,4336159.0,4336691.0,532.0
101,choice,choice,16,2.0,Pattern,1.0,4.666229874943383,Animal_Land_Pattern_Small,1,0,1,4337208.0,4337669.0,461.0
101,choice,choice,16,2.0,Pattern,1.0,4.666229874943383,Object_Land_Solid_Small,2,0,0,4338171.0,4338209.0,38.0
101,choice,choice,17,3.0,Land,1.0,33.20751295797527,Object_Land_Pattern_Large,0,0,1,4603906.0,4605071.0,1165.0
101,choice,choice,17,3.0,Land,1.0,33.20751295797527,Animal_Sea_Solid_Small,1,0,0,4605588.0,4605847.0,259.0
101,choice,choice,17,3.0,Land,1.0,33.20751295797527,Object_Land_Pattern_Large,0,0,1,4605891.0,4607057.0,1166.0
101,choice,choice,17,3.0,Land,1.0,33.20751295797527,Animal_Sea_Solid_Small,1,0,0,4607214.0,4607751.0,537.0
101,choice,choice,17,3.0,Land,1.0,33.20751295797527,Object_Land_Pattern_Large,0,0,1,4607790.0,4608303.0,513.0
101,choice,choice,17,3.0,Land,1.0,33.20751295797527,fixation,-1,1,0,4608325.0,4609124.0,799.0
101,choice,choice,17,3.0,Land,1.0,33.20751295797527,Animal_Sea_Pattern_Large,2,0,0,4609283.0,4609562.0,279.0
101,choice,choice,17,3.0,Land,1.0,33.20751295797527,Object_Land_Pattern_Large,0,0,1,4609761.0,4609976.0,215.0
101,choice,choice,17,3.0,Land,1.0,33.20751295797527,Animal_Sea_Pattern_Large,2,0,0,4610362.0,4610544.0,182.0
101,choice,choice,17,3.0,Land,1.0,33.20751295797527,Object_Land_Pattern_Large,0,0,1,4612936.0,4613832.0,896.0
101,choice,choice,17,3.0,Land,1.0,33.20751295797527,Animal_Sea_Pattern_Large,2,0,0,4614007.0,4615894.0,1887.0
101,choice,choice,17,3.0,Land,1.0,33.20751295797527,Object_Land_Pattern_Large,0,0,1,4617192.0,4617812.0,620.0
101,choice,choice,17,3.0,Land,1.0,33.20751295797527,Object_Sea_Solid_Large,3,0,0,4620150.0,4620264.0,114.0
101,choice,choice,17,3.0,Land,1.0,33.20751295797527,fixation,-1,1,0,4620465.0,4620588.0,123.0
101,choice,choice,17,3.0,Land,1.0,33.20751295797527,Animal_Sea_Pattern_Large,2,0,0,4620855.0,4620877.0,22.0
101,choice,choice,17,3.0,Land,1.0,33.20751295797527,fixation,-1,1,0,4620900.0,4621058.0,158.0
101,choice,choice,17,3.0,Land,1.0,33.20751295797527,Object_Land_Pattern_Large,0,0,1,4621411.0,4622354.0,943.0
101,choice,choice,17,3.0,Land,1.0,33.20751295797527,fixation,-1,1,0,4622662.0,4624088.0,1426.0
101,choice,choice,17,3.0,Land,1.0,33.20751295797527,Object_Land_Pattern_Large,0,0,1,4624256.0,4627013.0,2757.0
101,choice,choice,17,3.0,Land,1.0,33.20751295797527,Object_Land_Pattern_Small,4,0,1,4627568.0,4628780.0,1212.0
101,choice,choice,17,3.0,Land,1.0,33.20751295797527,Animal_Land_Solid_Small,5,0,1,4628819.0,4629085.0,266.0
101,choice,choice,17,3.0,Land,1.0,33.20751295797527,fixation,-1,1,0,4629126.0,4629503.0,377.0
101,choice,choice,17,3.0,Land,1.0,33.20751295797527,Animal_Sea_Pattern_Large,2,0,0,4629525.0,4630292.0,767.0
101,choice,choice,17,3.0,Land,1.0,33.20751295797527,fixation,-1,1,0,4630481.0,4631036.0,555.0
101,choice,choice,17,3.0,Land,1.0,33.20751295797527,Animal_Land_Solid_Small,5,0,1,4631057.0,4631703.0,646.0
101,choice,choice,17,3.0,Land,1.0,33.20751295797527,fixation,-1,1,0,4631911.0,4632426.0,515.0
101,choice,choice,17,3.0,Land,1.0,33.20751295797527,Animal_Land_Solid_Small,5,0,1,4632465.0,4632757.0,292.0
101,choice,choice,17,3.0,Land,1.0,33.20751295797527,Object_Land_Pattern_Small,4,0,1,4632778.0,4633173.0,395.0
101,choice,choice,17,3.0,Land,1.0,33.20751295797527,Animal_Land_Solid_Small,5,0,1,4633346.0,4634839.0,1493.0
101,choice,choice,17,3.0,Land,1.0,33.20751295797527,fixation,-1,1,0,4635075.0,4635882.0,807.0
101,choice,choice,19,3.0,Large,2.0,7.376978749991395,Object_Land_Pattern_Large,0,0,1,4663676.0,4664080.0,404.0
101,choice,choice,19,3.0,Large,2.0,7.376978749991395,Animal_Sea_Pattern_Large,2,0,1,4664278.0,4665580.0,1302.0
101,choice,choice,19,3.0,Large,2.0,7.376978749991395,fixation,-1,1,0,4666058.0,4666573.0,515.0
101,choice,choice,19,3.0,Large,2.0,7.376978749991395,Animal_Land_Solid_Small,5,0,0,4666590.0,4668280.0,1690.0
101,choice,choice,19,3.0,Large,2.0,7.376978749991395,Object_Land_Pattern_Small,4,0,0,4668529.0,4668728.0,199.0
101,choice,choice,19,3.0,Large,2.0,7.376978749991395,Object_Sea_Solid_Large,3,0,1,4668946.0,4669160.0,214.0
101,choice,choice,19,3.0,Large,2.0,7.376978749991395,Object_Land_Pattern_Large,0,0,1,4669200.0,4669928.0,728.0
101,choice,choice,19,3.0,Large,2.0,7.376978749991395,Animal_Sea_Solid_Small,1,0,0,4669960.0,4670150.0,190.0
101,choice,choice,20,3.0,Object,1.0,6.0246376659488305,Object_Land_Pattern_Large,0,0,1,4673433.0,4674606.0,1173.0
101,choice,choice,20,3.0,Object,1.0,6.0246376659488305,Animal_Sea_Solid_Small,1,0,0,4674982.0,4675147.0,165.0
101,choice,choice,20,3.0,Object,1.0,6.0246376659488305,fixation,-1,1,0,4675163.0,4675473.0,310.0
101,choice,choice,20,3.0,Object,1.0,6.0246376659488305,Object_Land_Pattern_Small,4,0,1,4675495.0,4675941.0,446.0
101,choice,choice,20,3.0,Object,1.0,6.0246376659488305,Animal_Sea_Pattern_Large,2,0,0,4676112.0,4676848.0,736.0
101,choice,choice,20,3.0,Object,1.0,6.0246376659488305,Object_Sea_Solid_Large,3,0,1,4676862.0,4677091.0,229.0
101,choice,choice,20,3.0,Object,1.0,6.0246376659488305,Animal_Land_Solid_Small,5,0,0,4677116.0,4677419.0,303.0
101,choice,choice,20,3.0,Object,1.0,6.0246376659488305,Animal_Sea_Pattern_Large,2,0,0,4677538.0,4678356.0,818.0
101,choice,choice,20,3.0,Object,1.0,6.0246376659488305,Animal_Land_Solid_Small,5,0,0,4678390.0,4678975.0,585.0
101,choice,choice,21,3.0,Small,1.0,2.1925120829837397,Animal_Sea_Solid_Small,1,0,1,4682788.0,4683642.0,854.0
101,choice,choice,21,3.0,Small,1.0,2.1925120829837397,Animal_Land_Solid_Small,5,0,1,4683672.0,4684017.0,345.0
101,choice,choice,21,3.0,Small,1.0,2.1925120829837397,Object_Sea_Solid_Large,3,0,0,4684182.0,4684455.0,273.0
101,choice,choice,21,3.0,Small,1.0,2.1925120829837397,fixation,-1,1,0,4684491.0,4684720.0,229.0
101,choice,choice,22,3.0,Animal,1.0,1.0523985410109162,Animal_Sea_Solid_Small,1,0,1,4687953.0,4688809.0,856.0
101,choice,choice,23,3.0,Pattern,1.0,10.507461083005182,Object_Land_Pattern_Large,0,0,1,4692974.0,4694330.0,1356.0
101,choice,choice,23,3.0,Pattern,1.0,10.507461083005182,Animal_Sea_Pattern_Large,2,0,1,4694990.0,4695240.0,250.0
101,choice,choice,23,3.0,Pattern,1.0,10.507461083005182,Object_Sea_Solid_Large,3,0,0,4695492.0,4697044.0,1552.0
101,choice,choice,23,3.0,Pattern,1.0,10.507461083005182,fixation,-1,1,0,4698290.0,4698835.0,545.0
101,choice,choice,23,3.0,Pattern,1.0,10.507461083005182,Object_Land_Pattern_Small,4,0,1,4699031.0,4699239.0,208.0
101,choice,choice,23,3.0,Pattern,1.0,10.507461083005182,fixation,-1,1,0,4699458.0,4699730.0,272.0
101,choice,choice,23,3.0,Pattern,1.0,10.507461083005182,Object_Land_Pattern_Large,0,0,1,4699907.0,4699932.0,25.0
101,choice,choice,23,3.0,Pattern,1.0,10.507461083005182,fixation,-1,1,0,4699941.0,4700270.0,329.0
101,choice,choice,23,3.0,Pattern,1.0,10.507461083005182,Animal_Sea_Solid_Small,1,0,0,4700502.0,4700539.0,37.0
101,choice,choice,23,3.0,Pattern,1.0,10.507461083005182,Animal_Land_Solid_Small,5,0,0,4700545.0,4700999.0,454.0
101,choice,choice,23,3.0,Pattern,1.0,10.507461083005182,fixation,-1,1,0,4701015.0,4701281.0,266.0
101,choice,choice,23,3.0,Pattern,1.0,10.507461083005182,Animal_Sea_Pattern_Large,2,0,1,4701301.0,4701927.0,626.0
101,choice,choice,23,3.0,Pattern,1.0,10.507461083005182,Animal_Sea_Solid_Small,1,0,0,4702094.0,4702282.0,188.0
101,choice,choice,23,3.0,Pattern,1.0,10.507461083005182,fixation,-1,1,0,4702310.0,4702881.0,571.0
101,choice,choice,24,3.0,Sea,1.0,2.96003983297851,Animal_Sea_Solid_Small,1,0,1,4706450.0,4707099.0,649.0
101,choice,choice,24,3.0,Sea,1.0,2.96003983297851,Object_Land_Pattern_Large,0,0,0,4707484.0,4707826.0,342.0
101,choice,choice,24,3.0,Sea,1.0,2.96003983297851,Animal_Sea_Pattern_Large,2,0,1,4708025.0,4708622.0,597.0
101,choice,choice,24,3.0,Sea,1.0,2.96003983297851,Object_Sea_Solid_Large,3,0,1,4708817.0,4709083.0,266.0
101,choice,choice,24,3.0,Sea,1.0,2.96003983297851,Animal_Land_Solid_Small,5,0,0,4709136.0,4709393.0,257.0
101,choice,choice,25,4.0,Land,1.0,15.08604804193601,Animal_Sea_Pattern_Large,0,0,0,4950284.0,4950360.0,76.0
101,choice,choice,25,4.0,Land,1.0,15.08604804193601,fixation,-1,1,0,4950376.0,4951192.0,816.0
101,choice,choice,25,4.0,Land,1.0,15.08604804193601,Animal_Sea_Pattern_Large,0,0,0,4951674.0,4951875.0,201.0
101,choice,choice,25,4.0,Land,1.0,15.08604804193601,fixation,-1,1,0,4952074.0,4952568.0,494.0
101,choice,choice,25,4.0,Land,1.0,15.08604804193601,Object_Sea_Solid_Small,1,0,0,4952584.0,4954776.0,2192.0
101,choice,choice,25,4.0,Land,1.0,15.08604804193601,Animal_Land_Pattern_Large,2,0,1,4955056.0,4957238.0,2182.0
101,choice,choice,25,4.0,Land,1.0,15.08604804193601,fixation,-1,1,0,4957509.0,4957937.0,428.0
101,choice,choice,25,4.0,Land,1.0,15.08604804193601,Object_Sea_Solid_Small,1,0,0,4957959.0,4958221.0,262.0
101,choice,choice,25,4.0,Land,1.0,15.08604804193601,Object_Land_Solid_Small,3,0,1,4958247.0,4960672.0,2425.0
101,choice,choice,25,4.0,Land,1.0,15.08604804193601,Animal_Land_Pattern_Large,2,0,1,4961389.0,4961761.0,372.0
101,choice,choice,25,4.0,Land,1.0,15.08604804193601,Object_Land_Solid_Small,3,0,1,4961783.0,4962106.0,323.0
101,choice,choice,25,4.0,Land,1.0,15.08604804193601,fixation,-1,1,0,4962322.0,4962520.0,198.0
101,choice,choice,25,4.0,Land,1.0,15.08604804193601,Object_Land_Solid_Large,4,0,1,4962538.0,4962952.0,414.0
101,choice,choice,25,4.0,Land,1.0,15.08604804193601,Animal_Sea_Pattern_Large,0,0,0,4962976.0,4963376.0,400.0
101,choice,choice,25,4.0,Land,1.0,15.08604804193601,Object_Sea_Solid_Small,1,0,0,4963411.0,4963448.0,37.0
101,choice,choice,26,4.0,Object,1.0,13.194192833034322,Object_Land_Solid_Small,3,0,1,4967915.0,4969014.0,1099.0
101,choice,choice,26,4.0,Object,1.0,13.194192833034322,Animal_Sea_Pattern_Small,5,0,0,4969214.0,4969511.0,297.0
101,choice,choice,26,4.0,Object,1.0,13.194192833034322,Object_Land_Solid_Large,4,0,1,4969535.0,4969851.0,316.0
101,choice,choice,26,4.0,Object,1.0,13.194192833034322,fixation,-1,1,0,4969870.0,4970388.0,518.0
101,choice,choice,26,4.0,Object,1.0,13.194192833034322,Object_Sea_Solid_Small,1,0,1,4970583.0,4971635.0,1052.0
101,choice,choice,26,4.0,Object,1.0,13.194192833034322,fixation,-1,1,0,4972096.0,4972446.0,350.0
101,choice,choice,26,4.0,Object,1.0,13.194192833034322,Animal_Sea_Pattern_Large,0,0,0,4972468.0,4973620.0,1152.0
101,choice,choice,26,4.0,Object,1.0,13.194192833034322,Object_Land_Solid_Large,4,0,1,4974001.0,4974449.0,448.0
101,choice,choice,26,4.0,Object,1.0,13.194192833034322,Object_Sea_Solid_Small,1,0,1,4974717.0,4974771.0,54.0
101,choice,choice,26,4.0,Object,1.0,13.194192833034322,Object_Land_Solid_Large,4,0,1,4974795.0,4974958.0,163.0
101,choice,choice,26,4.0,Object,1.0,13.194192833034322,Animal_Sea_Pattern_Small,5,0,0,4975327.0,4975666.0,339.0
101,choice,choice,26,4.0,Object,1.0,13.194192833034322,Animal_Sea_Pattern_Large,0,0,0,4975978.0,4976652.0,674.0
101,choice,choice,26,4.0,Object,1.0,13.194192833034322,Animal_Sea_Pattern_Small,5,0,0,4976860.0,4976881.0,21.0
101,choice,choice,26,4.0,Object,1.0,13.194192833034322,Animal_Sea_Pattern_Large,0,0,0,4976888.0,4977937.0,1049.0
101,choice,choice,26,4.0,Object,1.0,13.194192833034322,fixation,-1,1,0,4978414.0,4978510.0,96.0
101,choice,choice,26,4.0,Object,1.0,13.194192833034322,Animal_Sea_Pattern_Small,5,0,0,4978800.0,4978830.0,30.0
101,choice,choice,26,4.0,Object,1.0,13.194192833034322,Object_Land_Solid_Large,4,0,1,4978843.0,4979223.0,380.0
101,choice,choice,26,4.0,Object,1.0,13.194192833034322,Animal_Sea_Pattern_Large,0,0,0,4980303.0,4980662.0,359.0
101,choice,choice,27,4.0,Animal,1.0,6.755183957982808,Animal_Sea_Pattern_Large,0,0,1,4984236.0,4984372.0,136.0
101,choice,choice,27,4.0,Animal,1.0,6.755183957982808,Animal_Sea_Pattern_Small,5,0,1,4984641.0,4984854.0,213.0
101,choice,choice,27,4.0,Animal,1.0,6.755183957982808,Animal_Sea_Pattern_Large,0,0,1,4985083.0,4986154.0,1071.0
101,choice,choice,27,4.0,Animal,1.0,6.755183957982808,fixation,-1,1,0,4986672.0,4987024.0,352.0
101,choice,choice,27,4.0,Animal,1.0,6.755183957982808,Object_Land_Solid_Small,3,0,0,4987276.0,4987380.0,104.0
101,choice,choice,27,4.0,Animal,1.0,6.755183957982808,Animal_Sea_Pattern_Small,5,0,1,4987421.0,4988176.0,755.0
101,choice,choice,27,4.0,Animal,1.0,6.755183957982808,Object_Land_Solid_Large,4,0,0,4988203.0,4988555.0,352.0
101,choice,choice,27,4.0,Animal,1.0,6.755183957982808,Object_Sea_Solid_Small,1,0,0,4988857.0,4989116.0,259.0
101,choice,choice,28,4.0,Small,1.0,11.721790582989344,Object_Land_Solid_Small,3,0,1,4993668.0,4993917.0,249.0
101,choice,choice,28,4.0,Small,1.0,11.721790582989344,fixation,-1,1,0,4993926.0,4995766.0,1840.0
101,choice,choice,28,4.0,Small,1.0,11.721790582989344,Object_Land_Solid_Small,3,0,1,4996296.0,4996749.0,453.0
101,choice,choice,28,4.0,Small,1.0,11.721790582989344,Animal_Sea_Pattern_Large,0,0,0,4997040.0,4997174.0,134.0
101,choice,choice,28,4.0,Small,1.0,11.721790582989344,Animal_Sea_Pattern_Small,5,0,1,4997191.0,4997982.0,791.0
101,choice,choice,28,4.0,Small,1.0,11.721790582989344,Object_Land_Solid_Large,4,0,0,4998254.0,4998792.0,538.0
101,choice,choice,28,4.0,Small,1.0,11.721790582989344,Object_Sea_Solid_Small,1,0,1,4998808.0,4999359.0,551.0
101,choice,choice,28,4.0,Small,1.0,11.721790582989344,fixation,-1,1,0,4999552.0,4999933.0,381.0
101,choice,choice,28,4.0,Small,1.0,11.721790582989344,Animal_Sea_Pattern_Small,5,0,1,5002223.0,5002704.0,481.0
101,choice,choice,28,4.0,Small,1.0,11.721790582989344,Animal_Sea_Pattern_Large,0,0,0,5002724.0,5003195.0,471.0
101,choice,choice,28,4.0,Small,1.0,11.721790582989344,fixation,-1,1,0,5003391.0,5003703.0,312.0
101,choice,choice,29,4.0,Solid,2.0,15.720312208984978,fixation,-1,1,0,5008461.0,5008664.0,203.0
101,choice,choice,29,4.0,Solid,2.0,15.720312208984978,Animal_Sea_Pattern_Small,5,0,0,5008899.0,5009128.0,229.0
101,choice,choice,29,4.0,Solid,2.0,15.720312208984978,Animal_Sea_Pattern_Large,0,0,0,5009356.0,5010543.0,1187.0
101,choice,choice,29,4.0,Solid,2.0,15.720312208984978,Animal_Sea_Pattern_Small,5,0,0,5010710.0,5011157.0,447.0
101,choice,choice,29,4.0,Solid,2.0,15.720312208984978,Animal_Sea_Pattern_Large,0,0,0,5013087.0,5013212.0,125.0
101,choice,choice,29,4.0,Solid,2.0,15.720312208984978,Object_Land_Solid_Small,3,0,1,5013496.0,5013882.0,386.0
101,choice,choice,29,4.0,Solid,2.0,15.720312208984978,Animal_Sea_Pattern_Large,0,0,0,5014147.0,5014405.0,258.0
101,choice,choice,29,4.0,Solid,2.0,15.720312208984978,Animal_Sea_Pattern_Small,5,0,0,5014422.0,5014857.0,435.0
101,choice,choice,29,4.0,Solid,2.0,15.720312208984978,Object_Sea_Solid_Small,1,0,1,5015469.0,5015939.0,470.0
101,choice,choice,29,4.0,Solid,2.0,15.720312208984978,Animal_Land_Pattern_Large,2,0,0,5016250.0,5016520.0,270.0
101,choice,choice,29,4.0,Solid,2.0,15.720312208984978,fixation,-1,1,0,5016790.0,5016826.0,36.0
101,choice,choice,29,4.0,Solid,2.0,15.720312208984978,Object_Sea_Solid_Small,1,0,1,5017147.0,5017270.0,123.0
101,choice,choice,29,4.0,Solid,2.0,15.720312208984978,Object_Land_Solid_Large,4,0,1,5017544.0,5018265.0,721.0
101,choice,choice,29,4.0,Solid,2.0,15.720312208984978,Animal_Sea_Pattern_Large,0,0,0,5018705.0,5019614.0,909.0
101,choice,choice,29,4.0,Solid,2.0,15.720312208984978,Object_Land_Solid_Large,4,0,1,5020051.0,5020417.0,366.0
101,choice,choice,29,4.0,Solid,2.0,15.720312208984978,fixation,-1,1,0,5020440.0,5020757.0,317.0
101,choice,choice,29,4.0,Solid,2.0,15.720312208984978,Animal_Sea_Pattern_Small,5,0,0,5022188.0,5022689.0,501.0
101,choice,choice,30,4.0,Large,1.0,8.06427795800846,Animal_Sea_Pattern_Large,0,0,1,5027205.0,5028227.0,1022.0
101,choice,choice,30,4.0,Large,1.0,8.06427795800846,Animal_Land_Pattern_Large,2,0,1,5029004.0,5029337.0,333.0
101,choice,choice,30,4.0,Large,1.0,8.06427795800846,Object_Land_Solid_Small,3,0,0,5029853.0,5029918.0,65.0
101,choice,choice,30,4.0,Large,1.0,8.06427795800846,Animal_Land_Pattern_Large,2,0,1,5030290.0,5030611.0,321.0
101,choice,choice,30,4.0,Large,1.0,8.06427795800846,Object_Land_Solid_Large,4,0,1,5030637.0,5031223.0,586.0
101,choice,choice,30,4.0,Large,1.0,8.06427795800846,Object_Sea_Solid_Small,1,0,0,5031660.0,5031872.0,212.0
101,choice,choice,30,4.0,Large,1.0,8.06427795800846,Animal_Sea_Pattern_Small,5,0,0,5032248.0,5032556.0,308.0
101,choice,choice,30,4.0,Large,1.0,8.06427795800846,Animal_Sea_Pattern_Large,0,0,1,5032579.0,5032866.0,287.0
101,choice,choice,30,4.0,Large,1.0,8.06427795800846,Animal_Land_Pattern_Large,2,0,1,5033104.0,5033339.0,235.0
101,choice,choice,30,4.0,Large,1.0,8.06427795800846,Object_Sea_Solid_Small,1,0,0,5033353.0,5033770.0,417.0
101,choice,choice,30,4.0,Large,1.0,8.06427795800846,Animal_Sea_Pattern_Large,0,0,1,5033809.0,5034262.0,453.0
101,choice,choice,31,4.0,Sea,1.0,6.194624542025849,Animal_Land_Pattern_Large,2,0,0,5038875.0,5039078.0,203.0
101,choice,choice,31,4.0,Sea,1.0,6.194624542025849,Animal_Sea_Pattern_Small,5,0,1,5039282.0,5040201.0,919.0
101,choice,choice,31,4.0,Sea,1.0,6.194624542025849,Object_Sea_Solid_Small,1,0,1,5040235.0,5041249.0,1014.0
101,choice,choice,31,4.0,Sea,1.0,6.194624542025849,Object_Land_Solid_Large,4,0,0,5041425.0,5041445.0,20.0
101,choice,choice,31,4.0,Sea,1.0,6.194624542025849,Object_Sea_Solid_Small,1,0,1,5041469.0,5041775.0,306.0
101,choice,choice,31,4.0,Sea,1.0,6.194624542025849,Animal_Sea_Pattern_Small,5,0,1,5041970.0,5042350.0,380.0
101,choice,choice,31,4.0,Sea,1.0,6.194624542025849,Object_Land_Solid_Large,4,0,0,5042372.0,5042618.0,246.0
101,choice,choice,31,4.0,Sea,1.0,6.194624542025849,Animal_Sea_Pattern_Large,0,0,1,5042833.0,5043579.0,746.0
101,choice,choice,31,4.0,Sea,1.0,6.194624542025849,Object_Land_Solid_Large,4,0,0,5043652.0,5043904.0,252.0
101,choice,choice,32,4.0,Pattern,1.0,4.627517707995139,Object_Land_Solid_Small,3,0,0,5047646.0,5048216.0,570.0
101,choice,choice,32,4.0,Pattern,1.0,4.627517707995139,Animal_Sea_Pattern_Small,5,0,1,5048443.0,5048969.0,526.0
101,choice,choice,32,4.0,Pattern,1.0,4.627517707995139,Object_Sea_Solid_Small,1,0,0,5048995.0,5049218.0,223.0
101,choice,choice,32,4.0,Pattern,1.0,4.627517707995139,Animal_Land_Pattern_Large,2,0,1,5049238.0,5049473.0,235.0
101,choice,choice,32,4.0,Pattern,1.0,4.627517707995139,Object_Sea_Solid_Small,1,0,0,5049678.0,5049992.0,314.0
101,choice,choice,32,4.0,Pattern,1.0,4.627517707995139,Animal_Sea_Pattern_Small,5,0,1,5050146.0,5051022.0,876.0
101,choice,choice,33,5.0,Object,1.0,19.036868416937068,Animal_Land_Solid_Large,0,0,0,5298247.0,5299048.0,801.0
101,choice,choice,33,5.0,Object,1.0,19.036868416937068,Object_Sea_Pattern_Small,1,0,1,5299066.0,5300042.0,976.0
101,choice,choice,33,5.0,Object,1.0,19.036868416937068,Object_Land_Solid_Small,2,0,1,5300953.0,5301004.0,51.0
101,choice,choice,33,5.0,Object,1.0,19.036868416937068,fixation,-1,1,0,5302123.0,5303242.0,1119.0
101,choice,choice,33,5.0,Object,1.0,19.036868416937068,Object_Sea_Pattern_Large,3,0,1,5303792.0,5304445.0,653.0
101,choice,choice,33,5.0,Object,1.0,19.036868416937068,fixation,-1,1,0,5304454.0,5305345.0,891.0
101,choice,choice,33,5.0,Object,1.0,19.036868416937068,Animal_Land_Solid_Large,0,0,0,5306348.0,5306643.0,295.0
101,choice,choice,33,5.0,Object,1.0,19.036868416937068,Object_Land_Solid_Small,2,0,1,5306689.0,5307706.0,1017.0
101,choice,choice,33,5.0,Object,1.0,19.036868416937068,Animal_Land_Solid_Large,0,0,0,5308009.0,5308575.0,566.0
101,choice,choice,33,5.0,Object,1.0,19.036868416937068,Animal_Sea_Solid_Large,4,0,0,5308592.0,5309036.0,444.0
101,choice,choice,33,5.0,Object,1.0,19.036868416937068,Animal_Land_Solid_Large,0,0,0,5309215.0,5309305.0,90.0
101,choice,choice,33,5.0,Object,1.0,19.036868416937068,fixation,-1,1,0,5309756.0,5309983.0,227.0
101,choice,choice,33,5.0,Object,1.0,19.036868416937068,Animal_Land_Pattern_Small,5,0,0,5310238.0,5310371.0,133.0
101,choice,choice,33,5.0,Object,1.0,19.036868416937068,Object_Sea_Pattern_Large,3,0,1,5310391.0,5310661.0,270.0
101,choice,choice,33,5.0,Object,1.0,19.036868416937068,Object_Land_Solid_Small,2,0,1,5310931.0,5311184.0,253.0
101,choice,choice,33,5.0,Object,1.0,19.036868416937068,Object_Sea_Pattern_Large,3,0,1,5311453.0,5311532.0,79.0
101,choice,choice,33,5.0,Object,1.0,19.036868416937068,Animal_Land_Solid_Large,0,0,0,5312048.0,5312928.0,880.0
101,choice,choice,33,5.0,Object,1.0,19.036868416937068,Object_Sea_Pattern_Small,1,0,1,5313307.0,5313741.0,434.0
101,choice,choice,33,5.0,Object,1.0,19.036868416937068,Animal_Land_Solid_Large,0,0,0,5314196.0,5314413.0,217.0
101,choice,choice,33,5.0,Object,1.0,19.036868416937068,Animal_Sea_Solid_Large,4,0,0,5315785.0,5316280.0,495.0
101,choice,choice,33,5.0,Object,1.0,19.036868416937068,Animal_Land_Solid_Large,0,0,0,5316314.0,5316567.0,253.0
101,choice,choice,33,5.0,Object,1.0,19.036868416937068,Object_Sea_Pattern_Small,1,0,1,5316591.0,5316858.0,267.0
101,choice,choice,34,5.0,Sea,1.0,8.802479250007309,Animal_Sea_Solid_Large,4,0,1,5320276.0,5321645.0,1369.0
101,choice,choice,34,5.0,Sea,1.0,8.802479250007309,fixation,-1,1,0,5322122.0,5322363.0,241.0
101,choice,choice,34,5.0,Sea,1.0,8.802479250007309,Object_Land_Solid_Small,2,0,0,5322384.0,5322623.0,239.0
101,choice,choice,34,5.0,Sea,1.0,8.802479250007309,Object_Sea_Pattern_Large,3,0,1,5322876.0,5323107.0,231.0
101,choice,choice,34,5.0,Sea,1.0,8.802479250007309,Animal_Land_Solid_Large,0,0,0,5323307.0,5323505.0,198.0
101,choice,choice,34,5.0,Sea,1.0,8.802479250007309,Object_Sea_Pattern_Small,1,0,1,5323526.0,5324424.0,898.0
101,choice,choice,34,5.0,Sea,1.0,8.802479250007309,fixation,-1,1,0,5324652.0,5325056.0,404.0
101,choice,choice,34,5.0,Sea,1.0,8.802479250007309,Object_Sea_Pattern_Small,1,0,1,5325298.0,5325790.0,492.0
101,choice,choice,34,5.0,Sea,1.0,8.802479250007309,Animal_Land_Solid_Large,0,0,0,5326003.0,5326099.0,96.0
101,choice,choice,34,5.0,Sea,1.0,8.802479250007309,Animal_Sea_Solid_Large,4,0,1,5326331.0,5326522.0,191.0
101,choice,choice,34,5.0,Sea,1.0,8.802479250007309,Animal_Land_Pattern_Small,5,0,0,5326789.0,5327095.0,306.0
101,choice,choice,34,5.0,Sea,1.0,8.802479250007309,Object_Land_Solid_Small,2,0,0,5327140.0,5327740.0,600.0
101,choice,choice,34,5.0,Sea,1.0,8.802479250007309,Animal_Land_Solid_Large,0,0,0,5327788.0,5327994.0,206.0
101,choice,choice,35,5.0,Large,1.0,11.9978993749246,Animal_Land_Solid_Large,0,0,1,5331961.0,5332824.0,863.0
101,choice,choice,35,5.0,Large,1.0,11.9978993749246,Animal_Sea_Solid_Large,4,0,1,5334350.0,5334382.0,32.0
101,choice,choice,35,5.0,Large,1.0,11.9978993749246,Object_Sea_Pattern_Small,1,0,0,5334760.0,5334894.0,134.0
101,choice,choice,35,5.0,Large,1.0,11.9978993749246,fixation,-1,1,0,5336368.0,5336793.0,425.0
101,choice,choice,35,5.0,Large,1.0,11.9978993749246,Object_Sea_Pattern_Large,3,0,1,5336810.0,5337106.0,296.0
101,choice,choice,35,5.0,Large,1.0,11.9978993749246,Object_Land_Solid_Small,2,0,0,5337714.0,5337913.0,199.0
101,choice,choice,35,5.0,Large,1.0,11.9978993749246,Animal_Sea_Solid_Large,4,0,1,5338130.0,5338195.0,65.0
101,choice,choice,35,5.0,Large,1.0,11.9978993749246,Animal_Land_Pattern_Small,5,0,0,5338202.0,5338394.0,192.0
101,choice,choice,35,5.0,Large,1.0,11.9978993749246,Animal_Sea_Solid_Large,4,0,1,5338629.0,5338661.0,32.0
101,choice,choice,35,5.0,Large,1.0,11.9978993749246,Animal_Land_Pattern_Small,5,0,0,5338672.0,5339202.0,530.0
101,choice,choice,35,5.0,Large,1.0,11.9978993749246,Animal_Sea_Solid_Large,4,0,1,5339413.0,5339995.0,582.0
101,choice,choice,35,5.0,Large,1.0,11.9978993749246,Animal_Land_Pattern_Small,5,0,0,5340028.0,5341462.0,1434.0
101,choice,choice,35,5.0,Large,1.0,11.9978993749246,Object_Sea_Pattern_Small,1,0,0,5342438.0,5343405.0,967.0
101,choice,choice,35,5.0,Large,1.0,11.9978993749246,fixation,-1,1,0,5343426.0,5343517.0,91.0
101,choice,choice,36,5.0,Pattern,1.0,7.186649541021325,Object_Sea_Pattern_Large,3,0,1,5347307.0,5347562.0,255.0
101,choice,choice,36,5.0,Pattern,1.0,7.186649541021325,fixation,-1,1,0,5348109.0,5348174.0,65.0
101,choice,choice,36,5.0,Pattern,1.0,7.186649541021325,Animal_Sea_Solid_Large,4,0,0,5348450.0,5348503.0,53.0
101,choice,choice,36,5.0,Pattern,1.0,7.186649541021325,Animal_Land_Pattern_Small,5,0,1,5348527.0,5348683.0,156.0
101,choice,choice,36,5.0,Pattern,1.0,7.186649541021325,Object_Sea_Pattern_Small,1,0,1,5348932.0,5349484.0,552.0
101,choice,choice,36,5.0,Pattern,1.0,7.186649541021325,Animal_Sea_Solid_Large,4,0,0,5350013.0,5350042.0,29.0
101,choice,choice,36,5.0,Pattern,1.0,7.186649541021325,Animal_Land_Pattern_Small,5,0,1,5350053.0,5350161.0,108.0
101,choice,choice,36,5.0,Pattern,1.0,7.186649541021325,Object_Sea_Pattern_Small,1,0,1,5350463.0,5350685.0,222.0
101,choice,choice,36,5.0,Pattern,1.0,7.186649541021325,Animal_Land_Solid_Large,0,0,0,5350709.0,5351962.0,1253.0
101,choice,choice,41,6.0,Land,1.0,34.82091787504032,Object_Land_Pattern_Large,0,0,1,5642955.0,5643537.0,582.0
101,choice,choice,41,6.0,Land,1.0,34.82091787504032,Animal_Sea_Pattern_Large,1,0,0,5643555.0,5643890.0,335.0
101,choice,choice,41,6.0,Land,1.0,34.82091787504032,fixation,-1,1,0,5644058.0,5644156.0,98.0
101,choice,choice,41,6.0,Land,1.0,34.82091787504032,Animal_Land_Solid_Small,2,0,1,5644417.0,5645163.0,746.0
101,choice,choice,41,6.0,Land,1.0,34.82091787504032,Object_Land_Pattern_Small,3,0,1,5645731.0,5645907.0,176.0
101,choice,choice,41,6.0,Land,1.0,34.82091787504032,Object_Sea_Solid_Large,4,0,0,5646212.0,5646276.0,64.0
101,choice,choice,41,6.0,Land,1.0,34.82091787504032,Animal_Sea_Solid_Small,5,0,0,5646814.0,5646848.0,34.0
101,choice,choice,41,6.0,Land,1.0,34.82091787504032,Animal_Land_Solid_Small,2,0,1,5647122.0,5647227.0,105.0
101,choice,choice,41,6.0,Land,1.0,34.82091787504032,Object_Sea_Solid_Large,4,0,0,5647250.0,5647899.0,649.0
101,choice,choice,41,6.0,Land,1.0,34.82091787504032,Animal_Sea_Pattern_Large,1,0,0,5648488.0,5649552.0,1064.0
101,choice,choice,41,6.0,Land,1.0,34.82091787504032,Object_Land_Pattern_Large,0,0,1,5650266.0,5651092.0,826.0
101,choice,choice,41,6.0,Land,1.0,34.82091787504032,Animal_Sea_Solid_Small,5,0,0,5651270.0,5651693.0,423.0
101,choice,choice,41,6.0,Land,1.0,34.82091787504032,Object_Land_Pattern_Large,0,0,1,5651870.0,5652003.0,133.0
101,choice,choice,41,6.0,Land,1.0,34.82091787504032,Animal_Sea_Solid_Small,5,0,0,5652404.0,5653121.0,717.0
101,choice,choice,41,6.0,Land,1.0,34.82091787504032,Object_Land_Pattern_Large,0,0,1,5653565.0,5653922.0,357.0
101,choice,choice,41,6.0,Land,1.0,34.82091787504032,fixation,-1,1,0,5654149.0,5654248.0,99.0
101,choice,choice,41,6.0,Land,1.0,34.82091787504032,Object_Land_Pattern_Large,0,0,1,5654551.0,5654618.0,67.0
101,choice,choice,41,6.0,Land,1.0,34.82091787504032,Animal_Sea_Pattern_Large,1,0,0,5654903.0,5655083.0,180.0
101,choice,choice,41,6.0,Land,1.0,34.82091787504032,Object_Land_Pattern_Large,0,0,1,5655322.0,5655554.0,232.0
101,choice,choice,41,6.0,Land,1.0,34.82091787504032,fixation,-1,1,0,5655569.0,5656122.0,553.0
101,choice,choice,41,6.0,Land,1.0,34.82091787504032,Animal_Sea_Pattern_Large,1,0,0,5656724.0,5656925.0,201.0
101,choice,choice,41,6.0,Land,1.0,34.82091787504032,fixation,-1,1,0,5657201.0,5657824.0,623.0
101,choice,choice,41,6.0,Land,1.0,34.82091787504032,Animal_Sea_Pattern_Large,1,0,0,5658328.0,5658927.0,599.0
101,choice,choice,41,6.0,Land,1.0,34.82091787504032,Animal_Sea_Solid_Small,5,0,0,5660048.0,5660405.0,357.0
101,choice,choice,41,6.0,Land,1.0,34.82091787504032,Object_Land_Pattern_Large,0,0,1,5660830.0,5661094.0,264.0
101,choice,choice,41,6.0,Land,1.0,34.82091787504032,Animal_Sea_Solid_Small,5,0,0,5661258.0,5661879.0,621.0
101,choice,choice,41,6.0,Land,1.0,34.82091787504032,fixation,-1,1,0,5662925.0,5663023.0,98.0
101,choice,choice,41,6.0,Land,1.0,34.82091787504032,Animal_Sea_Pattern_Large,1,0,0,5663338.0,5663365.0,27.0
101,choice,choice,41,6.0,Land,1.0,34.82091787504032,Object_Sea_Solid_Large,4,0,0,5663376.0,5663418.0,42.0
101,choice,choice,41,6.0,Land,1.0,34.82091787504032,Animal_Land_Solid_Small,2,0,1,5664059.0,5664261.0,202.0
101,choice,choice,41,6.0,Land,1.0,34.82091787504032,fixation,-1,1,0,5664507.0,5664672.0,165.0
101,choice,choice,41,6.0,Land,1.0,34.82091787504032,Object_Sea_Solid_Large,4,0,0,5664952.0,5665042.0,90.0
101,choice,choice,41,6.0,Land,1.0,34.82091787504032,fixation,-1,1,0,5665314.0,5665527.0,213.0
101,choice,choice,41,6.0,Land,1.0,34.82091787504032,Animal_Sea_Pattern_Large,1,0,0,5665835.0,5665861.0,26.0
101,choice,choice,41,6.0,Land,1.0,34.82091787504032,Object_Sea_Solid_Large,4,0,0,5665871.0,5666416.0,545.0
101,choice,choice,41,6.0,Land,1.0,34.82091787504032,fixation,-1,1,0,5666958.0,5667032.0,74.0
101,choice,choice,41,6.0,Land,1.0,34.82091787504032,Object_Sea_Solid_Large,4,0,0,5668572.0,5668946.0,374.0
101,choice,choice,41,6.0,Land,1.0,34.82091787504032,Animal_Land_Solid_Small,2,0,1,5669155.0,5669966.0,811.0
101,choice,choice,41,6.0,Land,1.0,34.82091787504032,Animal_Sea_Pattern_Large,1,0,0,5670433.0,5670864.0,431.0
101,choice,choice,41,6.0,Land,1.0,34.82091787504032,fixation,-1,1,0,5671068.0,5671421.0,353.0
101,choice,choice,41,6.0,Land,1.0,34.82091787504032,Object_Sea_Solid_Large,4,0,0,5671618.0,5672007.0,389.0
101,choice,choice,41,6.0,Land,1.0,34.82091787504032,fixation,-1,1,0,5672516.0,5672719.0,203.0
101,choice,choice,41,6.0,Land,1.0,34.82091787504032,Object_Sea_Solid_Large,4,0,0,5672740.0,5673344.0,604.0
101,choice,choice,41,6.0,Land,1.0,34.82091787504032,Object_Land_Pattern_Small,3,0,1,5673859.0,5674019.0,160.0
101,choice,choice,41,6.0,Land,1.0,34.82091787504032,Object_Sea_Solid_Large,4,0,0,5674250.0,5674583.0,333.0
101,choice,choice,41,6.0,Land,1.0,34.82091787504032,Animal_Sea_Pattern_Large,1,0,0,5675105.0,5675430.0,325.0
101,choice,choice,41,6.0,Land,1.0,34.82091787504032,Object_Sea_Solid_Large,4,0,0,5676485.0,5676731.0,246.0
101,choice,choice,41,6.0,Land,1.0,34.82091787504032,Animal_Sea_Pattern_Large,1,0,0,5676939.0,5677322.0,383.0
101,choice,choice,42,6.0,Animal,1.0,9.28916908300016,Animal_Sea_Solid_Small,5,0,1,5680747.0,5681901.0,1154.0
101,choice,choice,42,6.0,Animal,1.0,9.28916908300016,Animal_Land_Solid_Small,2,0,1,5683628.0,5683907.0,279.0
101,choice,choice,42,6.0,Animal,1.0,9.28916908300016,fixation,-1,1,0,5683923.0,5684481.0,558.0
101,choice,choice,42,6.0,Animal,1.0,9.28916908300016,Animal_Land_Solid_Small,2,0,1,5684873.0,5685281.0,408.0
101,choice,choice,42,6.0,Animal,1.0,9.28916908300016,Object_Land_Pattern_Small,3,0,0,5686429.0,5686776.0,347.0
101,choice,choice,42,6.0,Animal,1.0,9.28916908300016,Animal_Sea_Pattern_Large,1,0,1,5687162.0,5687716.0,554.0
101,choice,choice,42,6.0,Animal,1.0,9.28916908300016,Object_Land_Pattern_Small,3,0,0,5687977.0,5688317.0,340.0
101,choice,choice,42,6.0,Animal,1.0,9.28916908300016,Object_Sea_Solid_Large,4,0,0,5688331.0,5688650.0,319.0
101,choice,choice,42,6.0,Animal,1.0,9.28916908300016,Object_Land_Pattern_Small,3,0,0,5688930.0,5689025.0,95.0
101,choice,choice,42,6.0,Animal,1.0,9.28916908300016,Object_Sea_Solid_Large,4,0,0,5689310.0,5689404.0,94.0
101,choice,choice,42,6.0,Animal,1.0,9.28916908300016,Animal_Sea_Solid_Small,5,0,1,5689430.0,5689664.0,234.0
101,choice,choice,43,6.0,Large,2.0,9.135290417005308,Object_Land_Pattern_Large,0,0,1,5693783.0,5694608.0,825.0
101,choice,choice,43,6.0,Large,2.0,9.135290417005308,Animal_Sea_Pattern_Large,1,0,1,5695099.0,5696267.0,1168.0
101,choice,choice,43,6.0,Large,2.0,9.135290417005308,Object_Land_Pattern_Large,0,0,1,5698427.0,5698580.0,153.0
101,choice,choice,43,6.0,Large,2.0,9.135290417005308,Object_Sea_Solid_Large,4,0,1,5698612.0,5698919.0,307.0
101,choice,choice,43,6.0,Large,2.0,9.135290417005308,Animal_Sea_Pattern_Large,1,0,1,5700605.0,5701446.0,841.0
101,choice,choice,43,6.0,Large,2.0,9.135290417005308,Object_Sea_Solid_Large,4,0,1,5701971.0,5702001.0,30.0
101,choice,choice,43,6.0,Large,2.0,9.135290417005308,Object_Land_Pattern_Small,3,0,0,5702006.0,5702378.0,372.0
101,choice,choice,44,6.0,Solid,1.0,15.752294708043337,Object_Land_Pattern_Large,0,0,0,5706043.0,5707206.0,1163.0
101,choice,choice,44,6.0,Solid,1.0,15.752294708043337,Animal_Sea_Solid_Small,5,0,1,5708364.0,5709521.0,1157.0
101,choice,choice,44,6.0,Solid,1.0,15.752294708043337,Animal_Land_Solid_Small,2,0,1,5710099.0,5710927.0,828.0
101,choice,choice,44,6.0,Solid,1.0,15.752294708043337,Object_Land_Pattern_Small,3,0,0,5711785.0,5712357.0,572.0
101,choice,choice,44,6.0,Solid,1.0,15.752294708043337,Object_Sea_Solid_Large,4,0,1,5713003.0,5713959.0,956.0
101,choice,choice,44,6.0,Solid,1.0,15.752294708043337,Animal_Sea_Pattern_Large,1,0,0,5714173.0,5715215.0,1042.0
101,choice,choice,44,6.0,Solid,1.0,15.752294708043337,Animal_Sea_Solid_Small,5,0,1,5715397.0,5715876.0,479.0
101,choice,choice,44,6.0,Solid,1.0,15.752294708043337,Object_Land_Pattern_Large,0,0,0,5716070.0,5716478.0,408.0
101,choice,choice,44,6.0,Solid,1.0,15.752294708043337,Animal_Sea_Pattern_Large,1,0,0,5716500.0,5718331.0,1831.0
101,choice,choice,44,6.0,Solid,1.0,15.752294708043337,Animal_Sea_Solid_Small,5,0,1,5720289.0,5720536.0,247.0
101,choice,choice,44,6.0,Solid,1.0,15.752294708043337,Animal_Sea_Pattern_Large,1,0,0,5721569.0,5721685.0,116.0
101,choice,choice,45,6.0,Small,2.0,22.01103254093323,Object_Land_Pattern_Large,0,0,0,5725043.0,5725227.0,184.0
101,choice,choice,45,6.0,Small,2.0,22.01103254093323,fixation,-1,1,0,5730961.0,5732673.0,1712.0
101,choice,choice,45,6.0,Small,2.0,22.01103254093323,Animal_Land_Solid_Small,2,0,1,5732688.0,5733500.0,812.0
101,choice,choice,45,6.0,Small,2.0,22.01103254093323,fixation,-1,1,0,5733513.0,5736567.0,3054.0
101,choice,choice,45,6.0,Small,2.0,22.01103254093323,Animal_Land_Solid_Small,2,0,1,5736825.0,5737023.0,198.0
101,choice,choice,45,6.0,Small,2.0,22.01103254093323,fixation,-1,1,0,5737261.0,5737505.0,244.0
101,choice,choice,45,6.0,Small,2.0,22.01103254093323,Animal_Sea_Pattern_Large,1,0,0,5737743.0,5738354.0,611.0
101,choice,choice,45,6.0,Small,2.0,22.01103254093323,Object_Land_Pattern_Large,0,0,0,5738379.0,5739167.0,788.0
101,choice,choice,45,6.0,Small,2.0,22.01103254093323,Animal_Sea_Pattern_Large,1,0,0,5739387.0,5742120.0,2733.0
101,choice,choice,45,6.0,Small,2.0,22.01103254093323,Object_Land_Pattern_Large,0,0,0,5742728.0,5742997.0,269.0
101,choice,choice,45,6.0,Small,2.0,22.01103254093323,fixation,-1,1,0,5743231.0,5744438.0,1207.0
101,choice,choice,45,6.0,Small,2.0,22.01103254093323,Animal_Sea_Pattern_Large,1,0,0,5744635.0,5745105.0,470.0
101,choice,choice,45,6.0,Small,2.0,22.01103254093323,Object_Land_Pattern_Small,3,0,1,5745130.0,5745437.0,307.0
101,choice,choice,45,6.0,Small,2.0,22.01103254093323,Object_Sea_Solid_Large,4,0,0,5745658.0,5745854.0,196.0
101,choice,choice,45,6.0,Small,2.0,22.01103254093323,Animal_Sea_Pattern_Large,1,0,0,5746944.0,5746998.0,54.0
101,choice,choice,46,6.0,Sea,1.0,6.700038500013761,Animal_Sea_Solid_Small,5,0,1,5750721.0,5751476.0,755.0
101,choice,choice,46,6.0,Sea,1.0,6.700038500013761,Object_Land_Pattern_Large,0,0,0,5751491.0,5751950.0,459.0
101,choice,choice,46,6.0,Sea,1.0,6.700038500013761,Animal_Sea_Solid_Small,5,0,1,5752140.0,5752423.0,283.0
101,choice,choice,46,6.0,Sea,1.0,6.700038500013761,Object_Land_Pattern_Large,0,0,0,5752634.0,5752922.0,288.0
101,choice,choice,46,6.0,Sea,1.0,6.700038500013761,Animal_Sea_Pattern_Large,1,0,1,5753540.0,5753671.0,131.0
101,choice,choice,46,6.0,Sea,1.0,6.700038500013761,Object_Sea_Solid_Large,4,0,1,5753910.0,5755085.0,1175.0
101,choice,choice,46,6.0,Sea,1.0,6.700038500013761,Animal_Sea_Solid_Small,5,0,1,5755243.0,5755264.0,21.0
101,choice,choice,46,6.0,Sea,1.0,6.700038500013761,Animal_Land_Solid_Small,2,0,0,5755302.0,5755815.0,513.0
101,choice,choice,46,6.0,Sea,1.0,6.700038500013761,Object_Land_Pattern_Large,0,0,0,5755837.0,5756125.0,288.0
101,choice,choice,47,6.0,Object,1.0,7.431222124956548,Animal_Land_Solid_Small,2,0,0,5759949.0,5760371.0,422.0
101,choice,choice,47,6.0,Object,1.0,7.431222124956548,Object_Land_Pattern_Small,3,0,1,5760388.0,5760669.0,281.0
101,choice,choice,47,6.0,Object,1.0,7.431222124956548,Object_Sea_Solid_Large,4,0,1,5760685.0,5761812.0,1127.0
101,choice,choice,47,6.0,Object,1.0,7.431222124956548,Object_Land_Pattern_Large,0,0,1,5762134.0,5762727.0,593.0
101,choice,choice,47,6.0,Object,1.0,7.431222124956548,Animal_Sea_Pattern_Large,1,0,0,5762742.0,5763793.0,1051.0
101,choice,choice,47,6.0,Object,1.0,7.431222124956548,Animal_Sea_Solid_Small,5,0,0,5764149.0,5764680.0,531.0
101,choice,choice,47,6.0,Object,1.0,7.431222124956548,Animal_Sea_Pattern_Large,1,0,0,5764717.0,5765144.0,427.0
101,choice,choice,47,6.0,Object,1.0,7.431222124956548,Object_Land_Pattern_Large,0,0,1,5765550.0,5765774.0,224.0
101,choice,choice,47,6.0,Object,1.0,7.431222124956548,fixation,-1,1,0,5766638.0,5766967.0,329.0
101,choice,choice,48,6.0,Pattern,1.0,5.113205374917015,Object_Land_Pattern_Large,0,0,1,5770116.0,5772407.0,2291.0
101,choice,choice,48,6.0,Pattern,1.0,5.113205374917015,Animal_Sea_Pattern_Large,1,0,1,5774678.0,5774895.0,217.0
101,choice,choice,49,7.0,Solid,2.0,12.365650417050349,fixation,-1,1,0,6050557.0,6052487.0,1930.0
101,choice,choice,49,7.0,Solid,2.0,12.365650417050349,Animal_Sea_Pattern_Small,0,0,0,6052957.0,6054807.0,1850.0
101,choice,choice,49,7.0,Solid,2.0,12.365650417050349,Object_Land_Solid_Large,1,0,1,6054852.0,6055688.0,836.0
101,choice,choice,49,7.0,Solid,2.0,12.365650417050349,Animal_Sea_Pattern_Small,0,0,0,6055822.0,6056872.0,1050.0
101,choice,choice,49,7.0,Solid,2.0,12.365650417050349,Object_Land_Solid_Large,1,0,1,6056916.0,6057818.0,902.0
101,choice,choice,49,7.0,Solid,2.0,12.365650417050349,fixation,-1,1,0,6057968.0,6058518.0,550.0
101,choice,choice,49,7.0,Solid,2.0,12.365650417050349,Animal_Sea_Pattern_Small,0,0,0,6058664.0,6059156.0,492.0
101,choice,choice,49,7.0,Solid,2.0,12.365650417050349,Object_Land_Solid_Large,1,0,1,6059306.0,6060088.0,782.0
101,choice,choice,49,7.0,Solid,2.0,12.365650417050349,Object_Sea_Pattern_Small,2,0,0,6062179.0,6062236.0,57.0
101,choice,choice,50,7.0,Small,2.0,10.72541779105086,Animal_Land_Solid_Small,3,0,1,6065515.0,6066218.0,703.0
101,choice,choice,50,7.0,Small,2.0,10.72541779105086,fixation,-1,1,0,6066391.0,6067027.0,636.0
101,choice,choice,50,7.0,Small,2.0,10.72541779105086,Animal_Land_Solid_Small,3,0,1,6067264.0,6067400.0,136.0
101,choice,choice,50,7.0,Small,2.0,10.72541779105086,Object_Sea_Solid_Large,4,0,0,6067422.0,6068994.0,1572.0
101,choice,choice,50,7.0,Small,2.0,10.72541779105086,Object_Sea_Pattern_Small,2,0,1,6069632.0,6071371.0,1739.0
101,choice,choice,50,7.0,Small,2.0,10.72541779105086,fixation,-1,1,0,6071597.0,6071852.0,255.0
101,choice,choice,50,7.0,Small,2.0,10.72541779105086,Object_Sea_Pattern_Small,2,0,1,6072060.0,6072955.0,895.0
101,choice,choice,50,7.0,Small,2.0,10.72541779105086,fixation,-1,1,0,6073212.0,6073664.0,452.0
101,choice,choice,50,7.0,Small,2.0,10.72541779105086,Object_Sea_Pattern_Small,2,0,1,6073880.0,6074093.0,213.0
101,choice,choice,50,7.0,Small,2.0,10.72541779105086,Animal_Sea_Pattern_Small,0,0,1,6074132.0,6074848.0,716.0
101,choice,choice,51,7.0,Pattern,2.0,9.400387874920852,Animal_Sea_Pattern_Small,0,0,1,6078821.0,6079963.0,1142.0
101,choice,choice,51,7.0,Pattern,2.0,9.400387874920852,Object_Land_Solid_Large,1,0,0,6080210.0,6081020.0,810.0
101,choice,choice,51,7.0,Pattern,2.0,9.400387874920852,Animal_Land_Pattern_Large,5,0,1,6081071.0,6081545.0,474.0
101,choice,choice,51,7.0,Pattern,2.0,9.400387874920852,Object_Sea_Solid_Large,4,0,0,6081557.0,6082027.0,470.0
101,choice,choice,51,7.0,Pattern,2.0,9.400387874920852,Animal_Land_Pattern_Large,5,0,1,6082234.0,6082379.0,145.0
101,choice,choice,51,7.0,Pattern,2.0,9.400387874920852,Object_Sea_Solid_Large,4,0,0,6082594.0,6083243.0,649.0
101,choice,choice,51,7.0,Pattern,2.0,9.400387874920852,Animal_Sea_Pattern_Small,0,0,1,6083431.0,6083633.0,202.0
101,choice,choice,51,7.0,Pattern,2.0,9.400387874920852,Object_Sea_Pattern_Small,2,0,1,6083658.0,6084632.0,974.0
101,choice,choice,51,7.0,Pattern,2.0,9.400387874920852,Object_Sea_Solid_Large,4,0,0,6084663.0,6085501.0,838.0
101,choice,choice,51,7.0,Pattern,2.0,9.400387874920852,Object_Sea_Pattern_Small,2,0,1,6085916.0,6086734.0,818.0
101,choice,choice,52,7.0,Land,2.0,6.281259207986295,Animal_Sea_Pattern_Small,0,0,0,6090673.0,6091433.0,760.0
101,choice,choice,52,7.0,Land,2.0,6.281259207986295,fixation,-1,1,0,6091492.0,6091748.0,256.0
101,choice,choice,52,7.0,Land,2.0,6.281259207986295,Animal_Sea_Pattern_Small,0,0,0,6091776.0,6092663.0,887.0
101,choice,choice,52,7.0,Land,2.0,6.281259207986295,Object_Land_Solid_Large,1,0,1,6092705.0,6093271.0,566.0
101,choice,choice,52,7.0,Land,2.0,6.281259207986295,fixation,-1,1,0,6093461.0,6093860.0,399.0
101,choice,choice,52,7.0,Land,2.0,6.281259207986295,Object_Sea_Pattern_Small,2,0,0,6093879.0,6094686.0,807.0
101,choice,choice,52,7.0,Land,2.0,6.281259207986295,Object_Land_Solid_Large,1,0,1,6094917.0,6095027.0,110.0
101,choice,choice,53,7.0,Large,2.0,6.40163429104723,Animal_Sea_Pattern_Small,0,0,0,6099409.0,6099743.0,334.0
101,choice,choice,53,7.0,Large,2.0,6.40163429104723,Object_Sea_Pattern_Small,2,0,0,6099915.0,6100052.0,137.0
101,choice,choice,53,7.0,Large,2.0,6.40163429104723,Object_Land_Solid_Large,1,0,1,6100098.0,6100617.0,519.0
101,choice,choice,53,7.0,Large,2.0,6.40163429104723,Animal_Sea_Pattern_Small,0,0,0,6100872.0,6100893.0,21.0
101,choice,choice,53,7.0,Large,2.0,6.40163429104723,Object_Land_Solid_Large,1,0,1,6100908.0,6101318.0,410.0
101,choice,choice,53,7.0,Large,2.0,6.40163429104723,Animal_Sea_Pattern_Small,0,0,0,6101338.0,6102323.0,985.0
101,choice,choice,53,7.0,Large,2.0,6.40163429104723,Object_Sea_Solid_Large,4,0,1,6104879.0,6105314.0,435.0
101,choice,choice,53,7.0,Large,2.0,6.40163429104723,fixation,-1,1,0,6105353.0,6105502.0,149.0
101,choice,choice,54,7.0,Sea,2.0,7.092488958965987,Animal_Sea_Pattern_Small,0,0,1,6109066.0,6110329.0,1263.0
101,choice,choice,54,7.0,Sea,2.0,7.092488958965987,Object_Sea_Pattern_Small,2,0,1,6111615.0,6112140.0,525.0
101,choice,choice,54,7.0,Sea,2.0,7.092488958965987,fixation,-1,1,0,6112165.0,6112958.0,793.0
101,choice,choice,54,7.0,Sea,2.0,7.092488958965987,Object_Sea_Pattern_Small,2,0,1,6113359.0,6113783.0,424.0
101,choice,choice,54,7.0,Sea,2.0,7.092488958965987,Animal_Land_Solid_Small,3,0,0,6113979.0,6114195.0,216.0
101,choice,choice,54,7.0,Sea,2.0,7.092488958965987,Animal_Land_Pattern_Large,5,0,0,6114214.0,6114813.0,599.0
101,choice,choice,54,7.0,Sea,2.0,7.092488958965987,Object_Sea_Pattern_Small,2,0,1,6115008.0,6115244.0,236.0
101,choice,choice,54,7.0,Sea,2.0,7.092488958965987,Animal_Sea_Pattern_Small,0,0,1,6115269.0,6115694.0,425.0
101,choice,choice,55,7.0,Animal,2.0,8.314516582991928,Animal_Sea_Pattern_Small,0,0,1,6119070.0,6119797.0,727.0
101,choice,choice,55,7.0,Animal,2.0,8.314516582991928,Object_Sea_Pattern_Small,2,0,0,6119940.0,6121096.0,1156.0
101,choice,choice,55,7.0,Animal,2.0,8.314516582991928,fixation,-1,1,0,6122415.0,6122995.0,580.0
101,choice,choice,55,7.0,Animal,2.0,8.314516582991928,Animal_Sea_Pattern_Small,0,0,1,6123219.0,6123938.0,719.0
101,choice,choice,55,7.0,Animal,2.0,8.314516582991928,Object_Land_Solid_Large,1,0,0,6123983.0,6124200.0,217.0
101,choice,choice,55,7.0,Animal,2.0,8.314516582991928,Animal_Land_Pattern_Large,5,0,1,6124220.0,6124509.0,289.0
101,choice,choice,55,7.0,Animal,2.0,8.314516582991928,Animal_Land_Solid_Small,3,0,1,6124667.0,6125359.0,692.0
101,choice,choice,55,7.0,Animal,2.0,8.314516582991928,Object_Sea_Solid_Large,4,0,0,6125556.0,6125836.0,280.0
101,choice,choice,55,7.0,Animal,2.0,8.314516582991928,Animal_Sea_Pattern_Small,0,0,1,6127128.0,6127261.0,133.0
101,choice,choice,56,7.0,Object,2.0,2.457128416048363,Object_Land_Solid_Large,1,0,1,6131289.0,6131705.0,416.0
101,choice,choice,56,7.0,Object,2.0,2.457128416048363,Object_Sea_Pattern_Small,2,0,1,6132052.0,6132287.0,235.0
101,choice,choice,56,7.0,Object,2.0,2.457128416048363,Object_Land_Solid_Large,1,0,1,6132871.0,6133269.0,398.0
