subject,phase,event,trial_number,game,option,choice,rt,roi_content,item_index,is_relevant,fix_start,fix_end,fix_duration_bounded
105,choice,choice,1,1.0,Large,1.0,6.351288583944552,Object_Land_Solid_Large,0,1,24482557.0,24483953.0,1396.0
105,choice,choice,1,1.0,Large,1.0,6.351288583944552,Object_Sea_Solid_Small,1,0,24485310.0,24485467.0,157.0
105,choice,choice,1,1.0,Large,1.0,6.351288583944552,Object_Land_Pattern_Large,2,1,24485482.0,24485896.0,414.0
105,choice,choice,1,1.0,Large,1.0,6.351288583944552,Object_Land_Solid_Large,0,1,24486214.0,24486345.0,131.0
105,choice,choice,1,1.0,Large,1.0,6.351288583944552,Animal_Sea_Pattern_Small,3,0,24487063.0,24487186.0,123.0
105,choice,choice,1,1.0,Large,1.0,6.351288583944552,Object_Land_Solid_Large,0,1,24487208.0,24488535.0,1327.0
105,choice,choice,2,1.0,Object,2.0,3.798770499997772,Object_Land_Solid_Large,0,1,24495408.0,24496090.0,682.0
105,choice,choice,3,1.0,Sea,1.0,1.113639457966201,Object_Land_Pattern_Large,2,0,24499370.0,24499523.0,153.0
105,choice,choice,3,1.0,Sea,1.0,1.113639457966201,Object_Sea_Solid_Small,1,1,24499581.0,24499788.0,207.0
105,choice,choice,4,1.0,Land,2.0,4.153576708049513,Object_Sea_Solid_Small,1,0,24505476.0,24505622.0,146.0
105,choice,choice,5,1.0,Solid,1.0,5.310788374976255,Object_Land_Solid_Large,0,1,24510157.0,24512104.0,1947.0
105,choice,choice,5,1.0,Solid,1.0,5.310788374976255,Object_Land_Pattern_Large,2,0,24514575.0,24514982.0,407.0
105,choice,choice,6,1.0,Pattern,1.0,2.819347291951999,Object_Land_Solid_Large,0,0,24518540.0,24518757.0,217.0
105,choice,choice,6,1.0,Pattern,1.0,2.819347291951999,Animal_Sea_Pattern_Large,4,1,24518778.0,24518879.0,101.0
105,choice,choice,6,1.0,Pattern,1.0,2.819347291951999,Object_Sea_Solid_Small,1,0,24519455.0,24519731.0,276.0
105,choice,choice,6,1.0,Pattern,1.0,2.819347291951999,Animal_Sea_Pattern_Large,4,1,24519762.0,24519995.0,233.0
105,choice,choice,7,1.0,Animal,2.0,2.3712131249485537,Object_Sea_Solid_Small,1,0,24524503.0,24524899.0,396.0
105,choice,choice,7,1.0,Animal,2.0,2.3712131249485537,Animal_Sea_Pattern_Small,3,1,24525405.0,24525558.0,153.0
105,choice,choice,8,1.0,Small,1.0,3.0312586670042947,Object_Land_Pattern_Large,2,0,24532018.0,24532180.0,162.0
105,choice,choice,9,2.0,Large,1.0,4.049898999975994,Animal_Land_Solid_Large,0,1,25031970.0,25032127.0,157.0
105,choice,choice,9,2.0,Large,1.0,4.049898999975994,Animal_Land_Pattern_Large,1,1,25032586.0,25032966.0,380.0
105,choice,choice,9,2.0,Large,1.0,4.049898999975994,Object_Sea_Solid_Small,2,0,25033388.0,25033834.0,446.0
105,choice,choice,9,2.0,Large,1.0,4.049898999975994,Object_Land_Pattern_Large,3,1,25033851.0,25034120.0,269.0
105,choice,choice,10,2.0,Solid,2.0,4.394204374984838,Object_Sea_Solid_Small,2,1,25038249.0,25038393.0,144.0
105,choice,choice,10,2.0,Solid,2.0,4.394204374984838,Animal_Sea_Solid_Small,4,1,25041090.0,25041311.0,221.0
105,choice,choice,10,2.0,Solid,2.0,4.394204374984838,Object_Land_Pattern_Large,3,0,25041693.0,25041819.0,126.0
105,choice,choice,12,2.0,Animal,2.0,3.147713084006682,Animal_Land_Solid_Large,0,1,25048590.0,25048901.0,311.0
105,choice,choice,12,2.0,Animal,2.0,3.147713084006682,Object_Land_Pattern_Large,3,0,25049209.0,25049424.0,215.0
105,choice,choice,12,2.0,Animal,2.0,3.147713084006682,Object_Sea_Solid_Small,2,0,25050451.0,25050775.0,324.0
105,choice,choice,12,2.0,Animal,2.0,3.147713084006682,Animal_Land_Solid_Large,0,1,25050838.0,25051312.0,474.0
105,choice,choice,12,2.0,Animal,2.0,3.147713084006682,Object_Land_Pattern_Large,3,0,25051437.0,25051573.0,136.0
105,choice,choice,13,2.0,Small,2.0,1.215079625020735,Animal_Land_Solid_Large,0,0,25055185.0,25055548.0,363.0
105,choice,choice,13,2.0,Small,2.0,1.215079625020735,Animal_Land_Pattern_Large,1,0,25055604.0,25055914.0,310.0
105,choice,choice,14,2.0,Sea,1.0,0.7869795829756185,Animal_Land_Pattern_Large,1,0,25059810.0,25059951.0,141.0
105,choice,choice,14,2.0,Sea,1.0,0.7869795829756185,Object_Sea_Solid_Small,2,1,25059999.0,25060303.0,304.0
105,choice,choice,16,2.0,Object,1.0,0.8065602920250967,Animal_Land_Pattern_Large,1,0,25066576.0,25066770.0,194.0
105,choice,choice,17,3.0,Animal,1.0,1.683105874923058,Object_Land_Pattern_Small,0,0,25449475.0,25449603.0,128.0
105,choice,choice,17,3.0,Animal,1.0,1.683105874923058,Animal_Sea_Pattern_Large,1,1,25449659.0,25449861.0,202.0
105,choice,choice,17,3.0,Animal,1.0,1.683105874923058,Animal_Land_Pattern_Small,2,1,25450079.0,25450215.0,136.0
105,choice,choice,18,3.0,Pattern,2.0,2.18022595893126,Object_Land_Solid_Small,3,0,25455324.0,25455540.0,216.0
105,choice,choice,18,3.0,Pattern,2.0,2.18022595893126,Object_Land_Pattern_Small,0,1,25455563.0,25456101.0,538.0
105,choice,choice,19,3.0,Solid,1.0,1.5088404170237482,Object_Sea_Solid_Large,4,1,25459066.0,25459328.0,262.0
105,choice,choice,19,3.0,Solid,1.0,1.5088404170237482,Object_Land_Pattern_Small,0,0,25459374.0,25460412.0,1038.0
105,choice,choice,20,3.0,Small,2.0,2.512704540975392,Animal_Sea_Pattern_Large,1,0,25463040.0,25463586.0,546.0
105,choice,choice,20,3.0,Small,2.0,2.512704540975392,Object_Land_Pattern_Small,0,1,25463667.0,25464087.0,420.0
105,choice,choice,20,3.0,Small,2.0,2.512704540975392,Animal_Land_Pattern_Small,2,1,25464107.0,25464310.0,203.0
105,choice,choice,20,3.0,Small,2.0,2.512704540975392,Object_Land_Pattern_Small,0,1,25464520.0,25464608.0,88.0
105,choice,choice,21,3.0,Land,1.0,0.7977782919770107,Animal_Sea_Pattern_Large,1,0,25468389.0,25468609.0,220.0
105,choice,choice,22,3.0,Sea,1.0,1.5943599159363655,Object_Land_Pattern_Small,0,0,25473055.0,25473805.0,750.0
105,choice,choice,22,3.0,Sea,1.0,1.5943599159363655,Object_Sea_Solid_Large,4,1,25473849.0,25474196.0,347.0
105,choice,choice,23,3.0,Object,1.0,1.4525454170070589,Object_Sea_Solid_Large,4,1,25477168.0,25477399.0,231.0
105,choice,choice,23,3.0,Object,1.0,1.4525454170070589,Object_Land_Pattern_Small,0,1,25477656.0,25477828.0,172.0
105,choice,choice,23,3.0,Object,1.0,1.4525454170070589,Object_Sea_Solid_Large,4,1,25478075.0,25478128.0,53.0
105,choice,choice,24,3.0,Large,1.0,1.1042189999716356,Animal_Land_Pattern_Small,2,0,25481106.0,25481306.0,200.0
105,choice,choice,24,3.0,Large,1.0,1.1042189999716356,Object_Land_Pattern_Small,0,0,25481327.0,25481559.0,232.0
105,choice,choice,24,3.0,Large,1.0,1.1042189999716356,Object_Land_Solid_Small,3,0,25481566.0,25482151.0,585.0
105,choice,choice,25,4.0,Sea,1.0,3.0387176249641925,Object_Land_Solid_Large,0,0,25837228.0,25837482.0,254.0
105,choice,choice,25,4.0,Sea,1.0,3.0387176249641925,Animal_Sea_Pattern_Large,1,1,25837536.0,25837672.0,136.0
105,choice,choice,25,4.0,Sea,1.0,3.0387176249641925,Object_Sea_Solid_Small,2,1,25838529.0,25838905.0,376.0
105,choice,choice,25,4.0,Sea,1.0,3.0387176249641925,Object_Land_Solid_Large,0,0,25838946.0,25839931.0,985.0
105,choice,choice,25,4.0,Sea,1.0,3.0387176249641925,Object_Sea_Solid_Small,2,1,25840050.0,25840246.0,196.0
105,choice,choice,26,4.0,Solid,1.0,2.7253818339668214,Animal_Sea_Pattern_Large,1,0,25843313.0,25843499.0,186.0
105,choice,choice,26,4.0,Solid,1.0,2.7253818339668214,Object_Sea_Solid_Small,2,1,25843727.0,25843873.0,146.0
105,choice,choice,26,4.0,Solid,1.0,2.7253818339668214,Object_Land_Pattern_Large,3,0,25843919.0,25844555.0,636.0
105,choice,choice,27,4.0,Small,2.0,2.7894099169643596,Animal_Sea_Pattern_Large,1,0,25848954.0,25849121.0,167.0
105,choice,choice,27,4.0,Small,2.0,2.7894099169643596,Object_Land_Solid_Large,0,0,25849167.0,25849862.0,695.0
105,choice,choice,27,4.0,Small,2.0,2.7894099169643596,Object_Land_Pattern_Large,3,0,25851186.0,25851412.0,226.0
105,choice,choice,28,4.0,Object,1.0,1.695655290968716,Object_Land_Solid_Large,0,1,25854203.0,25854939.0,736.0
105,choice,choice,28,4.0,Object,1.0,1.695655290968716,Object_Sea_Solid_Small,2,1,25854993.0,25855149.0,156.0
105,choice,choice,30,4.0,Pattern,1.0,0.5698484999593347,Object_Sea_Solid_Small,2,0,25862601.0,25862776.0,175.0
105,choice,choice,31,4.0,Land,1.0,2.3158307910198346,Object_Sea_Solid_Small,2,0,25867014.0,25867157.0,143.0
105,choice,choice,31,4.0,Land,1.0,2.3158307910198346,Animal_Sea_Pattern_Small,4,0,25867737.0,25867928.0,191.0
105,choice,choice,32,4.0,Animal,2.0,3.869751499965787,Object_Land_Pattern_Large,3,0,25871817.0,25872103.0,286.0
105,choice,choice,32,4.0,Animal,2.0,3.869751499965787,Animal_Sea_Pattern_Small,4,1,25872675.0,25872839.0,164.0
105,choice,choice,32,4.0,Animal,2.0,3.869751499965787,Object_Land_Pattern_Large,3,0,25873780.0,25873959.0,179.0
105,choice,choice,33,5.0,Pattern,2.0,2.632470833021216,Object_Land_Pattern_Large,0,1,26184617.0,26184714.0,97.0
105,choice,choice,33,5.0,Pattern,2.0,2.632470833021216,Animal_Land_Pattern_Large,1,1,26185067.0,26185260.0,193.0
105,choice,choice,33,5.0,Pattern,2.0,2.632470833021216,Animal_Sea_Solid_Small,2,0,26185790.0,26186001.0,211.0
105,choice,choice,33,5.0,Pattern,2.0,2.632470833021216,Object_Land_Pattern_Large,0,1,26186342.0,26186474.0,132.0
105,choice,choice,34,5.0,Animal,2.0,3.747956500039436,Object_Land_Pattern_Large,0,0,26190029.0,26190203.0,174.0
105,choice,choice,34,5.0,Animal,2.0,3.747956500039436,Object_Sea_Solid_Small,3,0,26190414.0,26190610.0,196.0
105,choice,choice,34,5.0,Animal,2.0,3.747956500039436,Object_Land_Pattern_Large,0,0,26190640.0,26190815.0,175.0
105,choice,choice,34,5.0,Animal,2.0,3.747956500039436,Object_Sea_Solid_Small,3,0,26190853.0,26191109.0,256.0
105,choice,choice,34,5.0,Animal,2.0,3.747956500039436,Object_Land_Pattern_Large,0,0,26192197.0,26192306.0,109.0
105,choice,choice,34,5.0,Animal,2.0,3.747956500039436,Animal_Sea_Solid_Small,2,1,26192945.0,26193110.0,165.0
105,choice,choice,35,5.0,Sea,2.0,5.405779791995883,Animal_Land_Pattern_Large,1,0,26196112.0,26196324.0,212.0
105,choice,choice,35,5.0,Sea,2.0,5.405779791995883,Object_Sea_Solid_Small,3,1,26196362.0,26196477.0,115.0
105,choice,choice,35,5.0,Sea,2.0,5.405779791995883,Object_Land_Pattern_Large,0,0,26198790.0,26199904.0,1114.0
105,choice,choice,36,5.0,Object,2.0,6.345956749981269,Object_Sea_Solid_Small,3,1,26205621.0,26205978.0,357.0
105,choice,choice,36,5.0,Object,2.0,6.345956749981269,Animal_Land_Pattern_Large,1,0,26208471.0,26208615.0,144.0
105,choice,choice,36,5.0,Object,2.0,6.345956749981269,Animal_Land_Solid_Large,4,0,26208636.0,26208830.0,194.0
105,choice,choice,36,5.0,Object,2.0,6.345956749981269,Animal_Land_Pattern_Large,1,0,26208854.0,26209474.0,620.0
105,choice,choice,37,5.0,Land,2.0,2.7430502920178697,Object_Sea_Solid_Small,3,0,26214338.0,26214532.0,194.0
105,choice,choice,37,5.0,Land,2.0,2.7430502920178697,Animal_Sea_Solid_Small,2,0,26214557.0,26214702.0,145.0
105,choice,choice,37,5.0,Land,2.0,2.7430502920178697,Object_Land_Pattern_Large,0,1,26215303.0,26215420.0,117.0
105,choice,choice,37,5.0,Land,2.0,2.7430502920178697,Object_Sea_Pattern_Small,5,0,26215461.0,26215746.0,285.0
105,choice,choice,37,5.0,Land,2.0,2.7430502920178697,Animal_Land_Pattern_Large,1,1,26215767.0,26216861.0,1094.0
105,choice,choice,38,5.0,Large,1.0,2.261646958999336,Object_Sea_Solid_Small,3,0,26220975.0,26221266.0,291.0
105,choice,choice,39,5.0,Solid,1.0,0.974659041967243,Animal_Land_Solid_Large,4,1,26226289.0,26226485.0,196.0
105,choice,choice,40,5.0,Small,1.0,1.831697165966034,Object_Sea_Pattern_Small,5,1,26230917.0,26230988.0,71.0
105,choice,choice,40,5.0,Small,1.0,1.831697165966034,Object_Land_Pattern_Large,0,0,26231487.0,26231621.0,134.0
105,choice,choice,41,6.0,Solid,1.0,2.264907708973624,Object_Land_Pattern_Small,0,0,26542963.0,26543450.0,487.0
105,choice,choice,41,6.0,Solid,1.0,2.264907708973624,Animal_Land_Pattern_Small,1,0,26543875.0,26544013.0,138.0
105,choice,choice,41,6.0,Solid,1.0,2.264907708973624,Object_Land_Pattern_Small,0,0,26544034.0,26545184.0,1150.0
105,choice,choice,42,6.0,Small,1.0,4.788127833977342,Object_Sea_Solid_Large,2,0,26548572.0,26548727.0,155.0
105,choice,choice,42,6.0,Small,1.0,4.788127833977342,Object_Land_Pattern_Small,0,1,26549335.0,26549473.0,138.0
105,choice,choice,42,6.0,Small,1.0,4.788127833977342,Object_Land_Solid_Small,3,1,26549488.0,26549777.0,289.0
105,choice,choice,42,6.0,Small,1.0,4.788127833977342,Object_Land_Pattern_Small,0,1,26549795.0,26550297.0,502.0
105,choice,choice,42,6.0,Small,1.0,4.788127833977342,Object_Land_Solid_Small,3,1,26552003.0,26553137.0,1134.0
105,choice,choice,42,6.0,Small,1.0,4.788127833977342,Object_Land_Pattern_Small,0,1,26553190.0,26553316.0,126.0
105,choice,choice,43,6.0,Object,1.0,2.143643084098585,Animal_Land_Pattern_Small,1,0,26557069.0,26557371.0,302.0
105,choice,choice,43,6.0,Object,1.0,2.143643084098585,Object_Land_Pattern_Small,0,1,26558666.0,26558765.0,99.0
105,choice,choice,44,6.0,Sea,2.0,0.7578217500122264,Object_Land_Solid_Small,3,0,26562433.0,26562646.0,213.0
105,choice,choice,45,6.0,Animal,2.0,1.4578304580645636,Object_Land_Solid_Small,3,0,26566686.0,26567411.0,725.0
105,choice,choice,46,6.0,Pattern,2.0,2.453181582968682,Object_Land_Solid_Small,3,0,26571105.0,26571939.0,834.0
105,choice,choice,48,6.0,Large,2.0,1.1570180000271648,Object_Land_Pattern_Small,0,0,26581517.0,26581656.0,139.0
105,choice,choice,48,6.0,Large,2.0,1.1570180000271648,Object_Land_Solid_Small,3,0,26581678.0,26582122.0,444.0
105,choice,choice,49,7.0,Pattern,1.0,2.415791915962473,Object_Land_Pattern_Small,0,1,26875778.0,26875986.0,208.0
105,choice,choice,49,7.0,Pattern,1.0,2.415791915962473,Object_Land_Solid_Large,1,0,26876456.0,26876602.0,146.0
105,choice,choice,49,7.0,Pattern,1.0,2.415791915962473,Animal_Land_Pattern_Small,2,1,26877081.0,26877230.0,149.0
105,choice,choice,50,7.0,Animal,1.0,0.8172765000490472,Object_Land_Pattern_Small,0,0,26880749.0,26880983.0,234.0
105,choice,choice,51,7.0,Object,1.0,1.5505095419939607,Object_Land_Solid_Large,1,1,26884356.0,26884551.0,195.0
105,choice,choice,51,7.0,Object,1.0,1.5505095419939607,Animal_Land_Pattern_Small,2,0,26884571.0,26884743.0,172.0
105,choice,choice,52,7.0,Solid,1.0,3.5523174579720944,Animal_Sea_Solid_Small,3,1,26888486.0,26889161.0,675.0
105,choice,choice,52,7.0,Solid,1.0,3.5523174579720944,Object_Sea_Pattern_Large,4,0,26891294.0,26891531.0,237.0
105,choice,choice,52,7.0,Solid,1.0,3.5523174579720944,Object_Land_Pattern_Small,0,0,26891618.0,26891793.0,175.0
105,choice,choice,53,7.0,Small,1.0,1.8408980829408392,Object_Land_Pattern_Small,0,1,26895608.0,26895840.0,232.0
105,choice,choice,54,7.0,Land,2.0,1.913525625015609,Animal_Sea_Solid_Small,3,0,26899699.0,26899860.0,161.0
