phase,event,onset,offset,trial_number,game,image,outcome,choice,correct,rt,letter,match,response,option,true_value,true_position,recalled_position,
encoding,fixation,10.84873745799996,11.360212208004668,1,1,Object_Land_Solid_Large,-4,,,,,,,,,,,
encoding,image,11.360322125023231,12.375639792066067,1,1,Object_Land_Solid_Large,-4,,,,,,,,,,,
encoding,value,12.375754332984798,18.38966483308468,1,1,Object_Land_Solid_Large,-4,,,,,,,,,,,
encoding,attention,18.38978470803704,21.40967820805963,1,1,Object_Land_Solid_Large,-4,-4,1,1.1174293339718133,,,,,,,,
encoding,fixation,21.409842292079702,22.91479499998968,2,1,Object_Sea_Solid_Small,8,,,,,,,,,,,
encoding,image,22.914918167050928,23.925152167095803,2,1,Object_Sea_Solid_Small,8,,,,,,,,,,,
encoding,value,23.925299583002925,29.936488542007282,2,1,Object_Sea_Solid_Small,8,,,,,,,,,,,
encoding,attention,29.93663125007879,32.952780166990124,2,1,Object_Sea_Solid_Small,8,+8,1,0.9558694580337033,,,,,,,,
encoding,fixation,32.95293920801487,33.95800325006712,3,1,Animal_Sea_Pattern_Large,-8,,,,,,,,,,,
encoding,image,33.958110000006855,34.96841020800639,3,1,Animal_Sea_Pattern_Large,-8,,,,,,,,,,,
encoding,value,34.96854020806495,40.97899395809509,3,1,Animal_Sea_Pattern_Large,-8,,,,,,,,,,,
encoding,attention,40.97910987504292,43.99645279208198,3,1,Animal_Sea_Pattern_Large,-8,-8,1,0.8644507499411702,,,,,,,,
encoding,fixation,43.99661150004249,45.2518179169856,4,1,Animal_Land_Solid_Small,-8,,,,,,,,,,,
encoding,image,45.251930625061505,46.262996667064726,4,1,Animal_Land_Solid_Small,-8,,,,,,,,,,,
encoding,value,46.26319145807065,52.274193458026275,4,1,Animal_Land_Solid_Small,-8,,,,,,,,,,,
encoding,attention,52.274294542032294,55.286553625017405,4,1,Animal_Land_Solid_Small,-8,None,None,None,,,,,,,,
encoding,fixation,55.2866904999828,56.2920289169997,5,1,Animal_Sea_Pattern_Small,1,,,,,,,,,,,
encoding,image,56.29214008303825,57.30323808302637,5,1,Animal_Sea_Pattern_Small,1,,,,,,,,,,,
encoding,value,57.30334991705604,63.31490916700568,5,1,Animal_Sea_Pattern_Small,1,,,,,,,,,,,
encoding,attention,63.3150236250367,66.36782466701698,5,1,Animal_Sea_Pattern_Small,1,+1,1,1.1826612079748884,,,,,,,,
encoding,fixation,66.36797162506264,67.12320479203481,6,1,Object_Land_Pattern_Large,1,,,,,,,,,,,
encoding,image,67.12332574999891,68.13504125003237,6,1,Object_Land_Pattern_Large,1,,,,,,,,,,,
encoding,value,68.13519608299248,74.1473489170894,6,1,Object_Land_Pattern_Large,1,,,,,,,,,,,
encoding,attention,74.14746120804921,77.16482620802708,6,1,Object_Land_Pattern_Large,1,+1,1,0.64393579098396,,,,,,,,
n-back,,,,1,1,,,,1,None,Z,False,None,,,,,
n-back,,,,2,1,,,,1,None,Z,False,None,,,,,
n-back,,,,3,1,,,,1,None,C,False,None,,,,,
n-back,,,,4,1,,,,1,None,N,False,None,,,,,
n-back,,,,5,1,,,,1,None,X,False,None,,,,,
n-back,,,,6,1,,,,1,1.1582159580430016,N,True,1,,,,,
n-back,,,,7,1,,,,1,None,Z,False,None,,,,,
n-back,,,,8,1,,,,1,None,B,False,None,,,,,
n-back,,,,9,1,,,,1,None,X,False,None,,,,,
n-back,,,,10,1,,,,0,0.8521575829945505,Z,False,1,,,,,
n-back,,,,11,1,,,,1,None,C,False,None,,,,,
n-back,,,,12,1,,,,1,None,X,False,None,,,,,
n-back,,,,13,1,,,,1,None,B,False,None,,,,,
n-back,,,,14,1,,,,0,None,X,True,None,,,,,
n-back,,,,15,1,,,,1,None,N,False,None,,,,,
n-back,,,,16,1,,,,0,None,X,True,None,,,,,
n-back,,,,17,1,,,,1,None,B,False,None,,,,,
n-back,,,,18,1,,,,0,None,X,True,None,,,,,
n-back,,,,19,1,,,,1,0.5747879169648513,B,True,1,,,,,
n-back,,,,20,1,,,,0,None,X,True,None,,,,,
n-back,,,,21,1,,,,0,None,B,True,None,,,,,
n-back,,,,22,1,,,,1,None,N,False,None,,,,,
n-back,,,,23,1,,,,1,None,C,False,None,,,,,
n-back,,,,24,1,,,,1,None,V,False,None,,,,,
n-back,,,,25,1,,,,1,1.290629958966747,C,True,1,,,,,
n-back,,,,26,1,,,,1,None,Z,False,None,,,,,
n-back,,,,27,1,,,,1,None,X,False,None,,,,,
n-back,,,,28,1,,,,1,0.6257251249626279,Z,True,1,,,,,
n-back,,,,29,1,,,,0,None,X,True,None,,,,,
n-back,,,,30,1,,,,1,None,C,False,None,,,,,
choice,fixation,162.71426470798906,163.7223254169803,1,1,,,,,,,,,Large,,,,
choice,option,163.73145212500822,164.8385373330675,1,1,,,,,,,,,Large,,,,
choice,choice,164.83864966698457,172.1994687920669,1,1,,,1,0,6.351288583944552,,,,Large,,,,
choice,fixation,172.19960195804015,173.70644516707398,2,1,,,,,,,,,Object,,,,
choice,option,173.716038707993,174.74331858300138,2,1,,,,,,,,,Object,,,,
choice,choice,174.74347687500995,179.55178954207804,2,1,,,2,0,3.7987704999977723,,,,Object,,,,
choice,fixation,179.55194508307613,180.0569497080287,3,1,,,,,,,,,Sea,,,,
choice,option,180.06526395806577,181.09238904202357,3,1,,,,,,,,,Sea,,,,
choice,choice,181.092494542012,183.2160317080561,3,1,,,1,1,1.113639457966201,,,,Sea,,,,
choice,fixation,183.2161600830732,184.47143262508325,4,1,,,,,,,,,Land,,,,
choice,option,184.4807804580778,185.50802979199216,4,1,,,,,,,,,Land,,,,
choice,choice,185.50813987501897,190.6712536669802,4,1,,,2,1,4.153576708049513,,,,Land,,,,
choice,fixation,190.6713775000535,191.1763389580883,5,1,,,,,,,,,Solid,,,,
choice,option,191.18591529200785,192.21318212500773,5,1,,,,,,,,,Solid,,,,
choice,choice,192.21329937502742,198.5339284579968,5,1,,,1,0,5.310788374976255,,,,Solid,,,,
choice,fixation,198.53407912503462,199.03911191702355,6,1,,,,,,,,,Pattern,,,,
choice,option,199.04822320805397,200.0745525000384,6,1,,,,,,,,,Pattern,,,,
choice,choice,200.07466170808766,203.90552083298098,6,1,,,1,0,2.819347291951999,,,,Pattern,,,,
choice,fixation,203.90566854202189,204.91065125004388,7,1,,,,,,,,,Animal,,,,
choice,option,204.91978454205673,205.94660454208497,7,1,,,,,,,,,Animal,,,,
choice,choice,205.9467347500613,209.32759400003124,7,1,,,2,1,2.3712131249485537,,,,Animal,,,,
choice,fixation,209.32772729208227,210.58305175008718,8,1,,,,,,,,,Small,,,,
choice,option,210.59199987503234,211.6215360420756,8,1,,,,,,,,,Small,,,,
choice,choice,211.62165354203898,215.6623623330379,8,1,,,1,1,3.0312586670042947,,,,Small,,,,
memory,free_recall,271.50556712504476,277.0242692080792,0,1,,,,,,,,,,,,,
memory,value_recall,365.9916542080464,383.01058758306317,1,1,Object_Sea_Solid_Small,,,,17.014855417073704,,,,,8,,,
memory,value_recall,385.0605547920568,390.54652266704943,2,1,Animal_Sea_Pattern_Large,,,,5.48166049993597,,,,,-8,,,
memory,value_recall,392.5921652080724,399.3704579169862,3,1,Object_Land_Pattern_Large,,,,6.774326000013389,,,,,1,,,
memory,value_recall,400.9176702500554,406.0103926670272,4,1,Animal_Land_Solid_Small,,,,5.0886007089866325,,,,,-8,,,
memory,value_recall,408.05635299999267,416.63230475003365,5,1,Animal_Sea_Pattern_Small,,,,8.571944750030525,,,,,1,,,
memory,value_recall,418.42923320806585,423.7144478330156,6,1,Object_Land_Solid_Large,,,,5.281014000065625,,,,,-4,,,
memory,spatial_recall,451.244724499993,460.8060737079941,6,1,Object_Sea_Solid_Small,,,1,9.557426832965575,,,,,,"[-329, 190]","[-329, 190]",
memory,spatial_recall,462.36238241707906,471.8234134580707,6,1,Animal_Sea_Pattern_Small,,,1,9.45668879209552,,,,,,"[0, -380]","[0, -380]",
memory,spatial_recall,473.3841880830005,483.0667124170577,6,1,Animal_Sea_Pattern_Large,,,1,9.678509874967858,,,,,,"[329, 189]","[329, 189]",
memory,spatial_recall,484.8721929580206,494.0335677920375,6,1,Object_Land_Solid_Large,,,1,9.15743670903612,,,,,,"[0, 380]","[0, 380]",
memory,spatial_recall,495.5892473330023,500.5227584170643,6,1,Animal_Land_Solid_Small,,,1,4.929639791953377,,,,,,"[329, -190]","[329, -190]",
memory,spatial_recall,502.58169904199895,504.9379964580294,6,1,Object_Land_Pattern_Large,,,1,2.3511440000729635,,,,,,"[-329, -190]","[-329, -190]",
encoding,fixation,15.84876829199493,17.10488500003703,7,2,Animal_Land_Solid_Large,-4,,,,,,,,,,,
encoding,image,17.105049667065032,18.11687504197471,7,2,Animal_Land_Solid_Large,-4,,,,,,,,,,,
encoding,value,18.116992542054504,24.130532082985155,7,2,Animal_Land_Solid_Large,-4,,,,,,,,,,,
encoding,attention,24.13065158308018,27.151114291977137,7,2,Animal_Land_Solid_Large,-4,-4,1,1.206584458006546,,,,,,,,
encoding,fixation,27.151317042065784,27.906481874990277,8,2,Object_Sea_Pattern_Small,-4,,,,,,,,,,,
encoding,image,27.906585167045705,28.91777279204689,8,2,Object_Sea_Pattern_Small,-4,,,,,,,,,,,
encoding,value,28.91788758302573,34.92908112506848,8,2,Object_Sea_Pattern_Small,-4,,,,,,,,,,,
encoding,attention,34.92919879197143,37.94711062498391,8,2,Object_Sea_Pattern_Small,-4,-4,1,0.9159884999971837,,,,,,,,
encoding,fixation,37.947266667033546,38.45222695800476,9,2,Object_Sea_Solid_Small,-2,,,,,,,,,,,
encoding,image,38.45233595801983,39.46424837503582,9,2,Object_Sea_Solid_Small,-2,,,,,,,,,,,
encoding,value,39.46436804207042,45.475314625073224,9,2,Object_Sea_Solid_Small,-2,,,,,,,,,,,
encoding,attention,45.475433208048344,48.49221262498759,9,2,Object_Sea_Solid_Small,-2,-2,1,0.9690452079521492,,,,,,,,
encoding,fixation,48.49245958297979,49.49769345798995,10,2,Animal_Sea_Solid_Small,8,,,,,,,,,,,
encoding,image,49.49781954206992,50.50790129206143,10,2,Animal_Sea_Solid_Small,8,,,,,,,,,,,
encoding,value,50.50802529207431,56.519599833060056,10,2,Animal_Sea_Solid_Small,8,,,,,,,,,,,
encoding,attention,56.51972987502813,59.53629950003233,10,2,Animal_Sea_Solid_Small,8,+8,1,0.8312727500451729,,,,,,,,
encoding,fixation,59.5364582920447,60.041933582979254,11,2,Object_Land_Pattern_Large,4,,,,,,,,,,,
encoding,image,60.04206366697326,61.052848417079076,11,2,Object_Land_Pattern_Large,4,,,,,,,,,,,
encoding,value,61.05295841698535,67.06530020805076,11,2,Object_Land_Pattern_Large,4,,,,,,,,,,,
encoding,attention,67.06550508306827,70.08637250005268,11,2,Object_Land_Pattern_Large,4,+4,1,0.5610581670189276,,,,,,,,
encoding,fixation,70.08654329204,70.84156650002114,12,2,Animal_Land_Pattern_Large,4,,,,,,,,,,,
encoding,image,70.8416817500256,71.8534575420199,12,2,Animal_Land_Pattern_Large,4,,,,,,,,,,,
encoding,value,71.85358637501486,77.86453908297699,12,2,Animal_Land_Pattern_Large,4,,,,,,,,,,,
encoding,attention,77.8646422920283,80.88451929204166,12,2,Animal_Land_Pattern_Large,4,+4,1,1.056770124938339,,,,,,,,
n-back,,,,31,2,,,,0,None,X,True,None,,,,,
n-back,,,,32,2,,,,1,None,N,False,None,,,,,
n-back,,,,33,2,,,,1,None,V,False,None,,,,,
n-back,,,,34,2,,,,1,None,B,False,None,,,,,
n-back,,,,35,2,,,,1,None,C,False,None,,,,,
n-back,,,,36,2,,,,0,1.317946333088912,V,False,1,,,,,
n-back,,,,37,2,,,,0,None,C,True,None,,,,,
n-back,,,,38,2,,,,1,None,Z,False,None,,,,,
n-back,,,,39,2,,,,1,None,N,False,None,,,,,
n-back,,,,40,2,,,,0,None,Z,True,None,,,,,
n-back,,,,41,2,,,,1,None,X,False,None,,,,,
n-back,,,,42,2,,,,1,None,V,False,None,,,,,
n-back,,,,43,2,,,,0,None,X,True,None,,,,,
n-back,,,,44,2,,,,0,None,V,True,None,,,,,
n-back,,,,45,2,,,,1,None,V,False,None,,,,,
n-back,,,,46,2,,,,1,0.5587655419949442,V,True,1,,,,,
n-back,,,,47,2,,,,1,None,Z,False,None,,,,,
n-back,,,,48,2,,,,0,None,V,True,None,,,,,
n-back,,,,49,2,,,,1,0.7647871250519529,Z,True,1,,,,,
n-back,,,,50,2,,,,1,None,X,False,None,,,,,
n-back,,,,51,2,,,,1,None,C,False,None,,,,,
n-back,,,,52,2,,,,1,None,Z,False,None,,,,,
n-back,,,,53,2,,,,1,None,N,False,None,,,,,
n-back,,,,54,2,,,,1,None,C,False,None,,,,,
n-back,,,,55,2,,,,0,None,N,True,None,,,,,
n-back,,,,56,2,,,,1,None,X,False,None,,,,,
n-back,,,,57,2,,,,0,None,N,True,None,,,,,
n-back,,,,58,2,,,,0,0.4316010419279337,N,False,1,,,,,
n-back,,,,59,2,,,,1,None,V,False,None,,,,,
n-back,,,,60,2,,,,1,None,X,False,None,,,,,
choice,fixation,157.28417574998457,158.28763187502045,9,2,,,,,,,,,Large,,,,
choice,option,158.29577600001357,159.32303500000853,9,2,,,,,,,,,Large,,,,
choice,choice,159.32315070799086,164.384656041977,9,2,,,1,1,4.049898999975994,,,,Large,,,,
choice,fixation,164.38479362498038,165.14004974998534,10,2,,,,,,,,,Solid,,,,
choice,option,165.15014120808337,166.17732791707385,10,2,,,,,,,,,Solid,,,,
choice,choice,166.17743841698393,171.58122504199855,10,2,,,2,0,4.394204374984838,,,,Solid,,,,
choice,fixation,171.58135216706432,172.58630062500015,11,2,,,,,,,,,Pattern,,,,
choice,option,172.59524633304682,173.62172941700555,11,2,,,,,,,,,Pattern,,,,
choice,choice,173.62192187504843,175.19047604198568,11,2,,,1,1,0.5587012500036508,,,,Pattern,,,,
choice,fixation,175.19063337508123,176.19580937502906,12,2,,,,,,,,,Animal,,,,
choice,option,176.20506316702813,177.23190754198004,12,2,,,,,,,,,Animal,,,,
choice,choice,177.23203362501226,181.3893777920166,12,2,,,2,0,3.147713084006682,,,,Animal,,,,
choice,fixation,181.3895635830704,182.89625416707713,13,2,,,,,,,,,Small,,,,
choice,option,182.9055875419872,183.93236045807134,13,2,,,,,,,,,Small,,,,
choice,choice,183.93253004201688,186.15726012503728,13,2,,,2,0,1.215079625020735,,,,Small,,,,
choice,fixation,186.15738862508442,187.4135870829923,14,2,,,,,,,,,Sea,,,,
choice,option,187.42184974998236,188.44796341704205,14,2,,,,,,,,,Sea,,,,
choice,choice,188.44815525005106,190.24607737502083,14,2,,,1,1,0.7869795829756185,,,,Sea,,,,
choice,fixation,190.24626070808154,190.75132033298723,15,2,,,,,,,,,Land,,,,
choice,option,190.75966820807662,191.7867436669767,15,2,,,,,,,,,Land,,,,
choice,choice,191.78686400002334,193.6299340419937,15,2,,,1,1,0.832736958982423,,,,Land,,,,
choice,fixation,193.63006487500388,194.1351419170387,16,2,,,,,,,,,Object,,,,
choice,option,194.14534520800225,195.17207675008103,16,2,,,,,,,,,Object,,,,
choice,choice,195.17218595801387,196.98825712502003,16,2,,,1,0,0.8065602920250967,,,,Object,,,,
memory,free_recall,225.1046402080683,245.92853716702666,6,2,,,,,,,,,,,,,
memory,value_recall,260.3491904580733,274.8110861669993,7,2,Object_Sea_Pattern_Small,,,,14.45796024997253,,,,,-4,,,
memory,value_recall,276.6096664579818,280.46466658299323,8,2,Animal_Land_Pattern_Large,,,,3.850930209038779,,,,,4,,,
memory,value_recall,282.51088499999605,284.67215133307036,9,2,Animal_Land_Solid_Large,,,,2.157221541972831,,,,,-4,,,
memory,value_recall,285.71811979205813,289.91871562507004,10,2,Animal_Sea_Solid_Small,,,,4.197338541969657,,,,,8,,,
memory,value_recall,291.213852624991,295.03190208307933,11,2,Object_Land_Pattern_Large,,,,3.813866832992062,,,,,4,,,
memory,value_recall,296.32728299999144,299.762196292053,12,2,Object_Sea_Solid_Small,,,,3.4308358338894323,,,,,-2,,,
memory,spatial_recall,308.8423247500323,315.1453873750288,12,2,Animal_Land_Solid_Large,,,1,6.298383082961664,,,,,,"[329, 189]","[329, 189]",
memory,spatial_recall,316.95783766708337,318.78125695802737,12,2,Object_Land_Pattern_Large,,,1,1.8188659580191597,,,,,,"[-329, -190]","[-329, -190]",
memory,spatial_recall,320.33346987504046,327.89784245798364,12,2,Object_Sea_Solid_Small,,,1,7.560356833972037,,,,,,"[-329, 190]","[-329, 190]",
memory,spatial_recall,329.95215020806063,334.0801772500854,12,2,Object_Sea_Pattern_Small,,,1,4.123940792051144,,,,,,"[329, -190]","[329, -190]",
memory,spatial_recall,335.8853352920851,342.491602916969,12,2,Animal_Land_Pattern_Large,,,1,6.601879957946949,,,,,,"[0, 380]","[0, 380]",
memory,spatial_recall,343.79923795803916,350.6163459169911,12,2,Animal_Sea_Solid_Small,,,1,6.813073166995309,,,,,,"[0, -380]","[0, -380]",
encoding,fixation,13.873413458000869,14.62912120798137,13,3,Animal_Land_Pattern_Small,-5,,,,,,,,,,,
encoding,image,14.62926104106009,15.64158704096917,13,3,Animal_Land_Pattern_Small,-5,,,,,,,,,,,
encoding,value,15.641720750019886,21.65493170800619,13,3,Animal_Land_Pattern_Small,-5,,,,,,,,,,,
encoding,attention,21.65503050002735,24.666915375040844,13,3,Animal_Land_Pattern_Small,-5,None,None,None,,,,,,,,
encoding,fixation,24.667064790963195,25.67203995794989,14,3,Object_Land_Solid_Small,2,,,,,,,,,,,
encoding,image,25.672143124975264,26.683453790959902,14,3,Object_Land_Solid_Small,2,,,,,,,,,,,
encoding,value,26.68357624998316,32.69553095800802,14,3,Object_Land_Solid_Small,2,,,,,,,,,,,
encoding,attention,32.69565483299084,35.71525833301712,14,3,Object_Land_Solid_Small,2,+2,1,0.9001753749325871,,,,,,,,
encoding,fixation,35.715496791061014,36.220744833000936,15,3,Object_Sea_Solid_Large,-5,,,,,,,,,,,
encoding,image,36.22083849995397,37.23194233304821,15,3,Object_Sea_Solid_Large,-5,,,,,,,,,,,
encoding,value,37.232038625050336,43.243948332965374,15,3,Object_Sea_Solid_Large,-5,,,,,,,,,,,
encoding,attention,43.24405862495769,46.2617552500451,15,3,Object_Sea_Solid_Large,-5,-5,1,1.3078405839623883,,,,,,,,
encoding,fixation,46.26191254099831,46.76718066597823,16,3,Animal_Sea_Pattern_Large,2,,,,,,,,,,,
encoding,image,46.767274165991694,47.77758166601416,16,3,Animal_Sea_Pattern_Large,2,,,,,,,,,,,
encoding,value,47.77778208302334,53.788130208035,16,3,Animal_Sea_Pattern_Large,2,,,,,,,,,,,
encoding,attention,53.78829533304088,56.804499791003764,16,3,Animal_Sea_Pattern_Large,2,+2,1,0.7290584159782156,,,,,,,,
encoding,fixation,56.804646124946885,57.810110875056125,17,3,Object_Land_Pattern_Small,2,,,,,,,,,,,
encoding,image,57.81023116596043,58.82149316603318,17,3,Object_Land_Pattern_Small,2,,,,,,,,,,,
encoding,value,58.82160100003239,64.83327216596808,17,3,Object_Land_Pattern_Small,2,,,,,,,,,,,
encoding,attention,64.83339412498754,67.85249658301473,17,3,Object_Land_Pattern_Small,2,+2,1,0.8030953749548644,,,,,,,,
encoding,fixation,67.85264691605698,69.35782466595992,18,3,Animal_Sea_Solid_Large,4,,,,,,,,,,,
encoding,image,69.3579309580382,70.36910787504166,18,3,Animal_Sea_Solid_Large,4,,,,,,,,,,,
encoding,value,70.36921712500043,76.38152554095723,18,3,Animal_Sea_Solid_Large,4,,,,,,,,,,,
encoding,attention,76.38163541594986,79.39981412503403,18,3,Animal_Sea_Solid_Large,4,+4,1,0.8405928749125451,,,,,,,,
n-back,,,,61,3,,,,1,None,B,False,None,,,,,
n-back,,,,62,3,,,,1,None,B,False,None,,,,,
n-back,,,,63,3,,,,1,None,N,False,None,,,,,
n-back,,,,64,3,,,,1,None,N,False,None,,,,,
n-back,,,,65,3,,,,1,None,X,False,None,,,,,
n-back,,,,66,3,,,,1,None,C,False,None,,,,,
n-back,,,,67,3,,,,1,0.7452258750563487,X,True,1,,,,,
n-back,,,,68,3,,,,1,None,X,False,None,,,,,
n-back,,,,69,3,,,,1,None,Z,False,None,,,,,
n-back,,,,70,3,,,,1,None,Z,False,None,,,,,
n-back,,,,71,3,,,,1,0.7756976659875363,Z,True,1,,,,,
n-back,,,,72,3,,,,0,None,Z,True,None,,,,,
n-back,,,,73,3,,,,0,None,Z,True,None,,,,,
n-back,,,,74,3,,,,1,0.3938787500374019,Z,True,1,,,,,
n-back,,,,75,3,,,,1,None,C,False,None,,,,,
n-back,,,,76,3,,,,1,None,B,False,None,,,,,
n-back,,,,77,3,,,,1,None,V,False,None,,,,,
n-back,,,,78,3,,,,1,None,X,False,None,,,,,
n-back,,,,79,3,,,,0,None,V,True,None,,,,,
n-back,,,,80,3,,,,0,None,X,True,None,,,,,
n-back,,,,81,3,,,,1,None,C,False,None,,,,,
n-back,,,,82,3,,,,1,None,C,False,None,,,,,
n-back,,,,83,3,,,,1,None,B,False,None,,,,,
n-back,,,,84,3,,,,1,None,V,False,None,,,,,
n-back,,,,85,3,,,,1,None,N,False,None,,,,,
n-back,,,,86,3,,,,1,0.3331133750034496,V,True,1,,,,,
n-back,,,,87,3,,,,1,None,B,False,None,,,,,
n-back,,,,88,3,,,,0,None,V,True,None,,,,,
n-back,,,,89,3,,,,1,0.46834087499883026,B,True,1,,,,,
n-back,,,,90,3,,,,1,None,C,False,None,,,,,
choice,fixation,153.99630770797376,155.50089720799588,17,3,,,,,,,,,Animal,,,,
choice,option,155.50961212499533,156.5377326660091,17,3,,,,,,,,,Animal,,,,
choice,choice,156.5379442910198,159.23116312501952,17,3,,,1,1,1.6831058749230579,,,,Animal,,,,
choice,fixation,159.23128299997188,160.2365177910542,18,3,,,,,,,,,Pattern,,,,
choice,option,160.24553650000598,161.27298058301676,18,3,,,,,,,,,Pattern,,,,
choice,choice,161.27309470798355,164.46583025006112,18,3,,,2,1,2.18022595893126,,,,Pattern,,,,
choice,fixation,164.46595520805568,165.2208083330188,19,3,,,,,,,,,Solid,,,,
choice,option,165.23028491600417,166.2564403329743,19,3,,,,,,,,,Solid,,,,
choice,choice,166.25661270797718,168.77508066606242,19,3,,,1,1,1.5088404170237482,,,,Solid,,,,
choice,fixation,168.77521320804954,169.28166279103607,20,3,,,,,,,,,Small,,,,
choice,option,169.2901822499698,170.31640895805322,20,3,,,,,,,,,Small,,,,
choice,choice,170.31651975004934,173.83854491601232,20,3,,,2,1,2.512704540975392,,,,Small,,,,
choice,fixation,173.83867745799944,174.5942252910463,21,3,,,,,,,,,Land,,,,
choice,option,174.60262770799454,175.63147549994756,21,3,,,,,,,,,Land,,,,
choice,choice,175.6315955830505,177.43898845801596,21,3,,,1,0,0.7977782919770107,,,,Land,,,,
choice,fixation,177.43913508299738,178.94487954105716,22,3,,,,,,,,,Sea,,,,
choice,option,178.95337862498127,179.98173324996606,22,3,,,,,,,,,Sea,,,,
choice,choice,179.9818397910567,182.58577029104345,22,3,,,1,1,1.5943599159363657,,,,Sea,,,,
choice,fixation,182.58588908298407,183.34125162498094,23,3,,,,,,,,,Object,,,,
choice,option,183.350630040979,184.37770700000692,23,3,,,,,,,,,Object,,,,
choice,choice,184.37782270798925,186.8398266249569,23,3,,,1,0,1.4525454170070589,,,,Object,,,,
choice,fixation,186.83994537498802,187.3448656250257,24,3,,,,,,,,,Large,,,,
choice,option,187.35384179104585,188.38170575001277,24,3,,,,,,,,,Large,,,,
choice,choice,188.38182637502905,190.49578595801722,24,3,,,1,1,1.1042189999716356,,,,Large,,,,
memory,free_recall,210.5528507080162,231.0414285409497,12,3,,,,,,,,,,,,,
memory,value_recall,247.2323406659998,255.85745620797388,13,3,Object_Land_Pattern_Small,,,,8.621012916089967,,,,,2,,,
memory,value_recall,257.90732320805546,263.0345133750234,14,3,Animal_Land_Pattern_Small,,,,5.120324916904792,,,,,-5,,,
memory,value_recall,264.08138204098213,268.9703641249798,15,3,Animal_Sea_Pattern_Large,,,,4.885670582996681,,,,,2,,,
memory,value_recall,270.01752704102546,273.0261030830443,16,3,Object_Land_Solid_Small,,,,3.0060468749143183,,,,,2,,,
memory,value_recall,274.0718044580426,278.7781924579758,17,3,Animal_Sea_Solid_Large,,,,4.703819625079632,,,,,4,,,
memory,value_recall,280.5738925409969,285.36828875006177,18,3,Object_Sea_Solid_Large,,,,4.790320708998479,,,,,-5,,,
memory,spatial_recall,291.4835454999702,297.29975595802534,18,3,Object_Sea_Solid_Large,,,1,5.812151417019777,,,,,,"[0, 380]","[0, 380]",
memory,spatial_recall,299.10938912502024,302.3190665410366,18,3,Animal_Land_Pattern_Small,,,1,3.2042207500198856,,,,,,"[-329, 190]","[-329, 190]",
memory,spatial_recall,303.88071616599336,306.0268671249505,18,3,Animal_Sea_Solid_Large,,,1,2.1420994580257684,,,,,,"[329, -190]","[329, -190]",
memory,spatial_recall,307.8365508749848,310.16736429103184,18,3,Object_Land_Solid_Small,,,1,2.3264836670132354,,,,,,"[0, -380]","[0, -380]",
memory,spatial_recall,311.4766567910556,313.51666095806286,18,3,Animal_Sea_Pattern_Large,,,1,2.036007957998663,,,,,,"[329, 189]","[329, 189]",
memory,spatial_recall,314.5740103330463,317.7461344159674,18,3,Object_Land_Pattern_Small,,,1,3.169683499960229,,,,,,"[-329, -190]","[-329, -190]",
encoding,fixation,6.00753729196731,7.012596374959685,19,4,Object_Land_Pattern_Large,9,,,,,,,,,,,
encoding,image,7.012711834046058,8.024914500070736,19,4,Object_Land_Pattern_Large,9,,,,,,,,,,,
encoding,value,8.025039833970368,14.039152375073172,19,4,Object_Land_Pattern_Large,9,,,,,,,,,,,
encoding,attention,14.039278167067096,17.059297166997567,19,4,Object_Land_Pattern_Large,9,+9,1,1.4987659169128165,,,,,,,,
encoding,fixation,17.059445917024277,17.566027499968186,20,4,Object_Sea_Solid_Small,9,,,,,,,,,,,
encoding,image,17.566146249999292,18.576392084010877,20,4,Object_Sea_Solid_Small,9,,,,,,,,,,,
encoding,value,18.57651837496087,24.588120667031035,20,4,Object_Sea_Solid_Small,9,,,,,,,,,,,
encoding,attention,24.58823366696015,27.604942208970897,20,4,Object_Sea_Solid_Small,9,+9,1,0.7113095000386238,,,,,,,,
encoding,fixation,27.605100749991834,28.610167959006503,21,4,Animal_Land_Solid_Small,8,,,,,,,,,,,
encoding,image,28.610285541974008,29.621108041959815,21,4,Animal_Land_Solid_Small,8,,,,,,,,,,,
encoding,value,29.621209917007945,35.63345416705124,21,4,Animal_Land_Solid_Small,8,,,,,,,,,,,
encoding,attention,35.633584124967456,38.650472167064436,21,4,Animal_Land_Solid_Small,8,+8,1,0.8102187919430435,,,,,,,,
encoding,fixation,38.650639416999184,39.90551816707011,22,4,Object_Land_Solid_Large,-9,,,,,,,,,,,
encoding,image,39.90564179199282,40.91593633405864,22,4,Object_Land_Solid_Large,-9,,,,,,,,,,,
encoding,value,40.91606950003188,46.92713441699743,22,4,Object_Land_Solid_Large,-9,,,,,,,,,,,
encoding,attention,46.927274625049904,49.94381600001361,22,4,Object_Land_Solid_Large,-9,-9,1,1.755359624978155,,,,,,,,
encoding,fixation,49.943965833983384,50.94900345907081,23,4,Animal_Sea_Pattern_Large,-1,,,,,,,,,,,
encoding,image,50.94912224996369,51.959487959044054,23,4,Animal_Sea_Pattern_Large,-1,,,,,,,,,,,
encoding,value,51.95960641698912,57.97114841698203,23,4,Animal_Sea_Pattern_Large,-1,,,,,,,,,,,
encoding,attention,57.971268209046684,60.98774262506049,23,4,Animal_Sea_Pattern_Large,-1,-1,1,1.904004625044763,,,,,,,,
encoding,fixation,60.98788145906292,61.49287387507502,24,4,Animal_Sea_Pattern_Small,-4,,,,,,,,,,,
encoding,image,61.49305612500757,62.504064333974384,24,4,Animal_Sea_Pattern_Small,-4,,,,,,,,,,,
encoding,value,62.50417583400849,68.516403250047,24,4,Animal_Sea_Pattern_Small,-4,,,,,,,,,,,
encoding,attention,68.51654116704594,71.53482820896897,24,4,Animal_Sea_Pattern_Small,-4,-4,1,1.9823133329628035,,,,,,,,
n-back,,,,91,4,,,,1,None,X,False,None,,,,,
n-back,,,,92,4,,,,1,None,X,False,None,,,,,
n-back,,,,93,4,,,,1,None,Z,False,None,,,,,
n-back,,,,94,4,,,,1,None,N,False,None,,,,,
n-back,,,,95,4,,,,1,None,N,False,None,,,,,
n-back,,,,96,4,,,,0,None,N,True,None,,,,,
n-back,,,,97,4,,,,0,None,N,True,None,,,,,
n-back,,,,98,4,,,,0,None,N,True,None,,,,,
n-back,,,,99,4,,,,0,None,N,True,None,,,,,
n-back,,,,100,4,,,,1,None,V,False,None,,,,,
n-back,,,,101,4,,,,1,None,Z,False,None,,,,,
n-back,,,,102,4,,,,1,None,N,False,None,,,,,
n-back,,,,103,4,,,,0,1.2787115409737453,V,False,1,,,,,
n-back,,,,104,4,,,,1,None,B,False,None,,,,,
n-back,,,,105,4,,,,1,None,Z,False,None,,,,,
n-back,,,,106,4,,,,1,0.4303054999327287,B,True,1,,,,,
n-back,,,,107,4,,,,0,None,Z,True,None,,,,,
n-back,,,,108,4,,,,1,None,C,False,None,,,,,
n-back,,,,109,4,,,,1,None,C,False,None,,,,,
n-back,,,,110,4,,,,1,0.3205249169841409,C,True,1,,,,,
n-back,,,,111,4,,,,1,None,B,False,None,,,,,
n-back,,,,112,4,,,,1,None,Z,False,None,,,,,
n-back,,,,113,4,,,,1,0.5201464999699965,B,True,1,,,,,
n-back,,,,114,4,,,,1,None,C,False,None,,,,,
n-back,,,,115,4,,,,1,None,C,False,None,,,,,
n-back,,,,116,4,,,,1,0.28369433293119073,C,True,1,,,,,
n-back,,,,117,4,,,,1,None,B,False,None,,,,,
n-back,,,,118,4,,,,0,None,C,True,None,,,,,
n-back,,,,119,4,,,,1,None,X,False,None,,,,,
n-back,,,,120,4,,,,1,None,N,False,None,,,,,
choice,fixation,146.27504199999385,147.28055116697215,25,4,,,,,,,,,Sea,,,,
choice,option,147.2894464590354,148.31579525000416,25,4,,,,,,,,,Sea,,,,
choice,choice,148.3159114170121,152.3646834170213,25,4,,,1,1,3.0387176249641925,,,,Sea,,,,
choice,fixation,152.36481512500905,153.36874100007117,26,4,,,,,,,,,Solid,,,,
choice,option,153.37836129206698,154.40517866704613,26,4,,,,,,,,,Solid,,,,
choice,choice,154.4053222090006,158.14020066696685,26,4,,,1,1,2.7253818339668214,,,,Solid,,,,
choice,fixation,158.14033333398402,158.89524858398363,27,4,,,,,,,,,Small,,,,
choice,option,158.9037918749964,159.93038999999408,27,4,,,,,,,,,Small,,,,
choice,choice,159.93050287500955,163.73240987502504,27,4,,,2,0,2.7894099169643596,,,,Small,,,,
choice,fixation,163.7326051669661,164.23864983406384,28,4,,,,,,,,,Object,,,,
choice,option,164.24776712502353,165.2736754170619,28,4,,,,,,,,,Object,,,,
choice,choice,165.27378991700243,167.97897987498436,28,4,,,1,1,1.6956552909687161,,,,Object,,,,
choice,fixation,167.97912633407395,168.98420950002037,29,4,,,,,,,,,Large,,,,
choice,option,168.99303979205433,170.02036029205192,29,4,,,,,,,,,Large,,,,
choice,choice,170.02046216698363,171.39477366697975,29,4,,,2,1,0.3650377499870956,,,,Large,,,,
choice,fixation,171.39489687501919,172.65005679207388,30,4,,,,,,,,,Pattern,,,,
choice,option,172.65942737506703,173.68698879203293,30,4,,,,,,,,,Pattern,,,,
choice,choice,173.68711741699371,175.26652750000358,30,4,,,1,1,0.5698484999593347,,,,Pattern,,,,
choice,fixation,175.26665562496055,176.77157883404288,31,4,,,,,,,,,Land,,,,
choice,option,176.78027666697744,177.80547770904377,31,4,,,,,,,,,Land,,,,
choice,choice,177.8056168750627,181.13183120905887,31,4,,,1,1,2.3158307910198346,,,,Land,,,,
choice,fixation,181.13194941706024,181.8867450420512,32,4,,,,,,,,,Animal,,,,
choice,option,181.89610550005455,182.923020333983,32,4,,,,,,,,,Animal,,,,
choice,choice,182.92312662501354,187.80436208401807,32,4,,,2,0,3.869751499965787,,,,Animal,,,,
memory,free_recall,205.67145358398557,224.90428483404685,18,4,,,,,,,,,,,,,
memory,value_recall,230.29427708406,235.81547266698908,19,4,Object_Sea_Solid_Small,,,,5.516809749999084,,,,,9,,,
memory,value_recall,236.86100483406335,243.83968612505123,20,4,Animal_Sea_Pattern_Large,,,,6.975254125078209,,,,,-1,,,
memory,value_recall,245.88785370904952,250.58992120902985,21,4,Object_Land_Pattern_Large,,,,4.69773829204496,,,,,9,,,
memory,value_recall,252.63548641698435,256.0881762090139,22,4,Animal_Land_Solid_Small,,,,3.4486932499567047,,,,,8,,,
memory,value_recall,257.8837571670301,261.32186154206283,23,4,Object_Land_Solid_Large,,,,3.4340043329866603,,,,,-9,,,
memory,value_recall,262.36739316699095,265.54184283397626,24,4,Animal_Sea_Pattern_Small,,,,3.1719616249902174,,,,,-4,,,
memory,spatial_recall,271.93378587497864,274.4725650000619,24,4,Object_Land_Solid_Large,,,1,2.5345437079668045,,,,,,"[0, 380]","[0, 380]",
memory,spatial_recall,275.5372772499686,279.9569531250745,24,4,Animal_Sea_Pattern_Large,,,1,4.417164957965724,,,,,,"[329, 189]","[329, 189]",
memory,spatial_recall,281.26952070905827,286.0166718340479,24,4,Animal_Land_Solid_Small,,,1,4.74303508293815,,,,,,"[329, -190]","[329, -190]",
memory,spatial_recall,287.5721328749787,292.23215762502514,24,4,Animal_Sea_Pattern_Small,,,1,4.655808083014563,,,,,,"[0, -380]","[0, -380]",
memory,spatial_recall,293.28674187499564,295.570840917062,24,4,Object_Sea_Solid_Small,,,1,2.2816223329864442,,,,,,"[-329, 190]","[-329, 190]",
memory,spatial_recall,297.13879383401945,300.08872458396945,24,4,Object_Land_Pattern_Large,,,1,2.9457435000222176,,,,,,"[-329, -190]","[-329, -190]",
encoding,fixation,9.826747959014028,11.08215662499424,25,5,Object_Land_Pattern_Large,-4,,,,,,,,,,,
encoding,image,11.082267999998294,12.093033874989487,25,5,Object_Land_Pattern_Large,-4,,,,,,,,,,,
encoding,value,12.09315400000196,18.10959204204846,25,5,Object_Land_Pattern_Large,-4,,,,,,,,,,,
encoding,attention,18.109765542089008,21.13039045908954,25,5,Object_Land_Pattern_Large,-4,-4,1,0.9846954590175301,,,,,,,,
encoding,fixation,21.130532292067073,21.635893667000346,26,5,Animal_Sea_Solid_Small,-5,,,,,,,,,,,
encoding,image,21.635998375015333,22.64692183409352,26,5,Animal_Sea_Solid_Small,-5,,,,,,,,,,,
encoding,value,22.64705537504051,28.65919512498658,26,5,Animal_Sea_Solid_Small,-5,,,,,,,,,,,
encoding,attention,28.659309417009354,31.67676941701211,26,5,Animal_Sea_Solid_Small,-5,-5,1,0.8365215410012752,,,,,,,,
encoding,fixation,31.67694625002332,32.682379292091355,27,5,Animal_Land_Pattern_Large,-3,,,,,,,,,,,
encoding,image,32.682490917039104,33.693335209041834,27,5,Animal_Land_Pattern_Large,-3,,,,,,,,,,,
encoding,value,33.693491084035486,39.70530633407179,27,5,Animal_Land_Pattern_Large,-3,,,,,,,,,,,
encoding,attention,39.70545312506147,42.72271433402784,27,5,Animal_Land_Pattern_Large,-3,-3,1,0.9824912919430062,,,,,,,,
encoding,fixation,42.72291366709396,44.22911650000606,28,5,Object_Sea_Pattern_Small,9,,,,,,,,,,,
encoding,image,44.22926154208835,45.243001291994005,28,5,Object_Sea_Pattern_Small,9,,,,,,,,,,,
encoding,value,45.2431176250102,51.255675708991475,28,5,Object_Sea_Pattern_Small,9,,,,,,,,,,,
encoding,attention,51.25581637502182,54.27305341698229,28,5,Object_Sea_Pattern_Small,9,+9,1,1.5065330840880051,,,,,,,,
encoding,fixation,54.27322070905939,54.778087584069,29,5,Object_Sea_Solid_Small,-3,,,,,,,,,,,
encoding,image,54.77819133398589,55.78861675004009,29,5,Object_Sea_Solid_Small,-3,,,,,,,,,,,
encoding,value,55.78872779197991,61.79887341707945,29,5,Object_Sea_Solid_Small,-3,,,,,,,,,,,
encoding,attention,61.79902845900506,64.81502033409197,29,5,Object_Sea_Solid_Small,-3,-3,1,1.1815519999945536,,,,,,,,
encoding,fixation,64.8151798750041,65.57036366697866,30,5,Animal_Land_Solid_Large,5,,,,,,,,,,,
encoding,image,65.57046320906375,66.58234345901292,30,5,Animal_Land_Solid_Large,5,,,,,,,,,,,
encoding,value,66.58248016703874,72.59418754198123,30,5,Animal_Land_Solid_Large,5,,,,,,,,,,,
encoding,attention,72.59430458408315,75.61411216703709,30,5,Animal_Land_Solid_Large,5,+5,1,1.6039443750632927,,,,,,,,
n-back,,,,121,5,,,,0,None,B,True,None,,,,,
n-back,,,,122,5,,,,1,None,C,False,None,,,,,
n-back,,,,123,5,,,,1,None,N,False,None,,,,,
n-back,,,,124,5,,,,1,None,B,False,None,,,,,
n-back,,,,125,5,,,,1,0.7718151250155643,N,True,1,,,,,
n-back,,,,126,5,,,,1,None,V,False,None,,,,,
n-back,,,,127,5,,,,0,None,N,True,None,,,,,
n-back,,,,128,5,,,,1,0.4835676660295576,V,True,1,,,,,
n-back,,,,129,5,,,,1,None,V,False,None,,,,,
n-back,,,,130,5,,,,0,None,V,True,None,,,,,
n-back,,,,131,5,,,,0,0.3440993750700727,X,False,1,,,,,
n-back,,,,132,5,,,,1,None,Z,False,None,,,,,
n-back,,,,133,5,,,,1,None,Z,False,None,,,,,
n-back,,,,134,5,,,,1,None,B,False,None,,,,,
n-back,,,,135,5,,,,0,None,Z,True,None,,,,,
n-back,,,,136,5,,,,0,None,B,True,None,,,,,
n-back,,,,137,5,,,,1,None,N,False,None,,,,,
n-back,,,,138,5,,,,1,None,Z,False,None,,,,,
n-back,,,,139,5,,,,1,None,Z,False,None,,,,,
n-back,,,,140,5,,,,0,0.2774818749167025,N,False,1,,,,,
n-back,,,,141,5,,,,1,None,X,False,None,,,,,
n-back,,,,142,5,,,,1,None,B,False,None,,,,,
n-back,,,,143,5,,,,1,None,Z,False,None,,,,,
n-back,,,,144,5,,,,1,None,Z,False,None,,,,,
n-back,,,,145,5,,,,1,None,N,False,None,,,,,
n-back,,,,146,5,,,,1,0.7485902500338852,Z,True,1,,,,,
n-back,,,,147,5,,,,0,0.9200349160237238,Z,False,1,,,,,
n-back,,,,148,5,,,,0,None,Z,True,None,,,,,
n-back,,,,149,5,,,,0,0.8249844999518245,N,False,1,,,,,
n-back,,,,150,5,,,,0,None,Z,True,None,,,,,
choice,fixation,138.42910012498032,139.9337595840916,33,5,,,,,,,,,Pattern,,,,
choice,option,139.9422751670936,140.96957145899069,33,5,,,,,,,,,Pattern,,,,
choice,choice,140.96968758408912,144.6133489169879,33,5,,,2,0,2.632470833021216,,,,Pattern,,,,
choice,fixation,144.6134904170176,145.61834749998525,34,5,,,,,,,,,Animal,,,,
choice,option,145.62796712503769,146.6554185000714,34,5,,,,,,,,,Animal,,,,
choice,choice,146.65554216702003,151.41309670906048,34,5,,,2,1,3.747956500039436,,,,Animal,,,,
choice,fixation,151.41322483401746,151.91864891699515,35,5,,,,,,,,,Sea,,,,
choice,option,151.9274040000746,152.9542019170476,35,5,,,,,,,,,Sea,,,,
choice,choice,152.95433083397802,159.36987087503076,35,5,,,2,0,5.405779791995883,,,,Sea,,,,
choice,fixation,159.3700145840412,160.37631887500174,36,5,,,,,,,,,Object,,,,
choice,option,160.38609795900993,161.41362991707865,36,5,,,,,,,,,Object,,,,
choice,choice,161.41374933405314,168.7694030420389,36,5,,,2,0,6.345956749981269,,,,Object,,,,
choice,fixation,168.7695409170119,170.02431495906785,37,5,,,,,,,,,Land,,,,
choice,option,170.03320375003386,171.0606619170867,37,5,,,,,,,,,Land,,,,
choice,choice,171.06077762506902,174.81336837506387,37,5,,,2,1,2.7430502920178697,,,,Land,,,,
choice,fixation,174.81349229207262,176.3185076250229,38,5,,,,,,,,,Large,,,,
choice,option,176.32720104209147,177.3544144590851,38,5,,,,,,,,,Large,,,,
choice,choice,177.35453333402984,180.6260597499786,38,5,,,1,0,2.2616469589993358,,,,Large,,,,
choice,fixation,180.62617958406918,182.13113195903134,39,5,,,,,,,,,Solid,,,,
choice,option,182.14088550000452,183.1675540000433,39,5,,,,,,,,,Solid,,,,
choice,choice,183.16766662499867,185.15219000005163,39,5,,,1,0,0.974659041967243,,,,Solid,,,,
choice,fixation,185.15232712507714,185.907968500047,40,5,,,,,,,,,Small,,,,
choice,option,185.91668424999807,186.94322045904119,40,5,,,,,,,,,Small,,,,
choice,choice,186.94332541699987,189.7849852090003,40,5,,,1,1,1.831697165966034,,,,Small,,,,
memory,free_recall,203.07585062505677,235.0185560840182,24,5,,,,,,,,,,,,,
memory,value_recall,238.55382979207207,244.24476800009143,25,5,Object_Sea_Pattern_Small,,,,5.68637770798523,,,,,9,,,
memory,value_recall,246.0428608340444,252.60714225005358,26,5,Object_Land_Pattern_Large,,,,6.559382084058598,,,,,-4,,,
memory,value_recall,254.40255508408882,257.30053345905617,27,5,Animal_Sea_Solid_Small,,,,2.892790333018638,,,,,-5,,,
memory,value_recall,258.3456433340907,264.33097062504385,28,5,Animal_Land_Pattern_Large,,,,5.982186250039376,,,,,-3,,,
memory,value_recall,266.37729295901954,270.57441545906477,29,5,Object_Sea_Solid_Small,,,,4.192869832972065,,,,,-3,,,
memory,value_recall,272.6209161670413,274.50876254204195,30,5,Animal_Land_Solid_Large,,,,1.88351483293809,,,,,5,,,
memory,spatial_recall,279.10507275001146,282.4045290000504,30,5,Animal_Land_Solid_Large,,,1,3.2954308750340715,,,,,,"[329, 189]","[329, 189]",
memory,spatial_recall,284.21945358405355,287.91045041708276,30,5,Object_Land_Pattern_Large,,,1,3.685349875013344,,,,,,"[-329, -190]","[-329, -190]",
memory,spatial_recall,288.9652807500679,296.0404291669838,30,5,Animal_Sea_Solid_Small,,,1,7.072366541950032,,,,,,"[0, -380]","[0, -380]",
memory,spatial_recall,297.84614141704515,300.854497167049,30,5,Object_Sea_Pattern_Small,,,1,3.0043944999342784,,,,,,"[329, -190]","[329, -190]",
memory,spatial_recall,302.9092609590152,305.9129077499965,30,5,Object_Sea_Solid_Small,,,1,2.9996208329685032,,,,,,"[-329, 190]","[-329, 190]",
memory,spatial_recall,306.973526542075,310.6385134999873,30,5,Animal_Land_Pattern_Large,,,1,3.6606482500210404,,,,,,"[0, 380]","[0, 380]",
encoding,fixation,4.278487832983956,5.033837875002064,31,6,Object_Land_Pattern_Small,1,,,,,,,,,,,
encoding,image,5.033955750055611,6.0479007919784635,31,6,Object_Land_Pattern_Small,1,,,,,,,,,,,
encoding,value,6.048018750036135,12.06135041709058,31,6,Object_Land_Pattern_Small,1,,,,,,,,,,,
encoding,attention,12.06147958303336,15.079195957980119,31,6,Object_Land_Pattern_Small,1,+1,1,0.8251614579930902,,,,,,,,
encoding,fixation,15.079353292007,16.334623125032522,32,6,Animal_Sea_Solid_Large,3,,,,,,,,,,,
encoding,image,16.33473333308939,17.34764658298809,32,6,Animal_Sea_Solid_Large,3,,,,,,,,,,,
encoding,value,17.34775137505494,23.35980570805259,32,6,Animal_Sea_Solid_Large,3,,,,,,,,,,,
encoding,attention,23.35993704199791,26.377645208034664,32,6,Animal_Sea_Solid_Large,3,+3,1,0.6250062499893829,,,,,,,,
encoding,fixation,26.37780954199843,27.633001083042473,33,6,Object_Land_Solid_Small,4,,,,,,,,,,,
encoding,image,27.633113750023767,28.647228333051316,33,6,Object_Land_Solid_Small,4,,,,,,,,,,,
encoding,value,28.647356417030096,34.65957875002641,33,6,Object_Land_Solid_Small,4,,,,,,,,,,,
encoding,attention,34.65969729202334,37.67831312504131,33,6,Object_Land_Solid_Small,4,+4,1,0.6983109159627929,,,,,,,,
encoding,fixation,37.67847762501333,38.93294004199561,34,6,Animal_Land_Pattern_Small,-6,,,,,,,,,,,
encoding,image,38.93306200008374,39.94428183301352,34,6,Animal_Land_Pattern_Small,-6,,,,,,,,,,,
encoding,value,39.94439225003589,45.95571533299517,34,6,Animal_Land_Pattern_Small,-6,,,,,,,,,,,
encoding,attention,45.95584112498909,48.973420083057135,34,6,Animal_Land_Pattern_Small,-6,-6,1,1.2864248330006376,,,,,,,,
encoding,fixation,48.973651207983494,49.72908112499863,35,6,Object_Sea_Solid_Large,-8,,,,,,,,,,,
encoding,image,49.72919070802163,50.74036875006277,35,6,Object_Sea_Solid_Large,-8,,,,,,,,,,,
encoding,value,50.740559833007865,56.75270920805633,35,6,Object_Sea_Solid_Large,-8,,,,,,,,,,,
encoding,attention,56.75283666700125,59.77222441707272,35,6,Object_Sea_Solid_Large,-8,-8,1,1.4705363339744508,,,,,,,,
encoding,fixation,59.77240645803977,60.77799195807893,36,6,Animal_Sea_Pattern_Large,2,,,,,,,,,,,
encoding,image,60.778102083015256,61.78933925007004,36,6,Animal_Sea_Pattern_Large,2,,,,,,,,,,,
encoding,value,61.789450042066164,67.80053350003436,36,6,Animal_Sea_Pattern_Large,2,,,,,,,,,,,
encoding,attention,67.8006455830764,70.81969970802311,36,6,Animal_Sea_Pattern_Large,2,-7,0,1.2387412500102073,,,,,,,,
n-back,,,,151,6,,,,1,None,C,False,None,,,,,
n-back,,,,152,6,,,,1,None,C,False,None,,,,,
n-back,,,,153,6,,,,1,1.4142101249890402,C,True,1,,,,,
n-back,,,,154,6,,,,1,None,V,False,None,,,,,
n-back,,,,155,6,,,,1,None,N,False,None,,,,,
n-back,,,,156,6,,,,1,None,X,False,None,,,,,
n-back,,,,157,6,,,,1,0.7410846670391038,N,True,1,,,,,
n-back,,,,158,6,,,,0,None,X,True,None,,,,,
n-back,,,,159,6,,,,1,0.9083952080691233,N,True,1,,,,,
n-back,,,,160,6,,,,1,None,V,False,None,,,,,
n-back,,,,161,6,,,,1,None,V,False,None,,,,,
n-back,,,,162,6,,,,1,0.4004959169542417,V,True,1,,,,,
n-back,,,,163,6,,,,1,None,C,False,None,,,,,
n-back,,,,164,6,,,,0,None,V,True,None,,,,,
n-back,,,,165,6,,,,1,None,X,False,None,,,,,
n-back,,,,166,6,,,,1,None,X,False,None,,,,,
n-back,,,,167,6,,,,1,None,C,False,None,,,,,
n-back,,,,168,6,,,,0,None,X,True,None,,,,,
n-back,,,,169,6,,,,1,0.8160144160501659,C,True,1,,,,,
n-back,,,,170,6,,,,0,None,X,True,None,,,,,
n-back,,,,171,6,,,,1,None,X,False,None,,,,,
n-back,,,,172,6,,,,0,None,X,True,None,,,,,
n-back,,,,173,6,,,,1,None,N,False,None,,,,,
n-back,,,,174,6,,,,1,None,C,False,None,,,,,
n-back,,,,175,6,,,,1,None,C,False,None,,,,,
n-back,,,,176,6,,,,0,0.7333569579059258,N,False,1,,,,,
n-back,,,,177,6,,,,1,None,B,False,None,,,,,
n-back,,,,178,6,,,,1,None,B,False,None,,,,,
n-back,,,,179,6,,,,1,None,Z,False,None,,,,,
n-back,,,,180,6,,,,1,None,X,False,None,,,,,
choice,fixation,139.48713216697797,140.49387908307835,41,6,,,,,,,,,Solid,,,,
choice,option,140.50290312501602,141.53373741707765,41,6,,,,,,,,,Solid,,,,
choice,choice,141.53385545802303,144.8091214169981,41,6,,,1,0,2.264907708973624,,,,Solid,,,,
choice,fixation,144.80925033299718,146.06477591698058,42,6,,,,,,,,,Small,,,,
choice,option,146.07345054205507,147.0999757500831,42,6,,,,,,,,,Small,,,,
choice,choice,147.10016262507997,152.89881262509152,42,6,,,1,0,4.788127833977342,,,,Small,,,,
choice,fixation,152.89897641702555,154.15412716707215,43,6,,,,,,,,,Object,,,,
choice,option,154.163369875052,155.19017445808277,43,6,,,,,,,,,Object,,,,
choice,choice,155.19028516707476,158.34863604197744,43,6,,,1,0,2.143643084098585,,,,Object,,,,
choice,fixation,158.34876312501729,159.85372574999928,44,6,,,,,,,,,Sea,,,,
choice,option,159.86246462503914,160.88935662503354,44,6,,,,,,,,,Sea,,,,
choice,choice,160.88947275001556,162.65736745798495,44,6,,,2,1,0.7578217500122264,,,,Sea,,,,
choice,fixation,162.6574894579826,164.16473958303686,45,6,,,,,,,,,Animal,,,,
choice,option,164.17398062499706,165.2005322080804,45,6,,,,,,,,,Animal,,,,
choice,choice,165.20065645803697,167.66815391706768,45,6,,,2,1,1.4578304580645636,,,,Animal,,,,
choice,fixation,167.66836950008292,168.42433495807927,46,6,,,,,,,,,Pattern,,,,
choice,option,168.43341541697737,169.46015908301342,46,6,,,,,,,,,Pattern,,,,
choice,choice,169.4603557920782,172.92436683306005,46,6,,,2,1,2.453181582968682,,,,Pattern,,,,
choice,fixation,172.92450866708532,174.18236095807515,47,6,,,,,,,,,Land,,,,
choice,option,174.19137712498195,175.21857091702987,47,6,,,,,,,,,Land,,,,
choice,choice,175.21866741706617,177.43733920808882,47,6,,,1,0,1.2086673750309274,,,,Land,,,,
choice,fixation,177.43748054199386,178.94249420799315,48,6,,,,,,,,,Large,,,,
choice,option,178.95139350008685,179.97965916700196,48,6,,,,,,,,,Large,,,,
choice,choice,179.9797787499847,182.14650799997617,48,6,,,2,1,1.1570180000271648,,,,Large,,,,
memory,free_recall,201.18883433297742,227.50887962500565,30,6,,,,,,,,,,,,,
memory,value_recall,231.992815042031,238.37180704204366,31,6,Object_Sea_Solid_Large,,,,6.373916374985129,,,,,-8,,,
memory,value_recall,239.67255591705907,243.96584241709206,32,6,Object_Land_Pattern_Small,,,,4.288409249973483,,,,,1,,,
memory,value_recall,245.01460300001781,246.66806745808572,33,6,Object_Land_Solid_Small,,,,1.6498869999777526,,,,,4,,,
memory,value_recall,247.96553100005258,250.73162262502592,34,6,Animal_Sea_Solid_Large,,,,2.761793875019066,,,,,3,,,
memory,value_recall,252.03107387502678,254.0693685420556,35,6,Animal_Sea_Pattern_Large,,,,2.0342810419388115,,,,,2,,,
memory,value_recall,256.1163995000534,258.7005027080886,36,6,Animal_Land_Pattern_Small,,,,2.5798973330529407,,,,,-6,,,
memory,spatial_recall,262.7206424580654,265.79661000007764,36,6,Animal_Sea_Pattern_Large,,,1,3.071842583012767,,,,,,"[329, 189]","[329, 189]",
memory,spatial_recall,266.85522070806473,270.7595329170581,36,6,Object_Land_Solid_Small,,,1,3.901416957960464,,,,,,"[0, -380]","[0, -380]",
memory,spatial_recall,272.81841287505813,276.8332799170166,36,6,Object_Land_Pattern_Small,,,1,4.010831416002475,,,,,,"[-329, -190]","[-329, -190]",
memory,spatial_recall,278.8985315830214,283.68451741698664,36,6,Animal_Sea_Solid_Large,,,1,4.781716666999273,,,,,,"[329, -190]","[329, -190]",
memory,spatial_recall,285.24908325006254,287.0290987500921,36,6,Object_Sea_Solid_Large,,,1,1.775874000042677,,,,,,"[0, 380]","[0, 380]",
memory,spatial_recall,288.3347483330872,291.11493454198353,36,6,Animal_Land_Pattern_Small,,,1,2.7759649590589106,,,,,,"[-329, 190]","[-329, 190]",
encoding,fixation,5.03340100008063,6.538794958032668,37,7,Animal_Land_Pattern_Small,-2,,,,,,,,,,,
encoding,image,6.538992208079435,7.549412125023082,37,7,Animal_Land_Pattern_Small,-2,,,,,,,,,,,
encoding,value,7.549536458100192,13.562939917086624,37,7,Animal_Land_Pattern_Small,-2,,,,,,,,,,,
encoding,attention,13.563090667012148,16.580992875038646,37,7,Animal_Land_Pattern_Small,-2,-2,1,1.1799760001013055,,,,,,,,
encoding,fixation,16.58115925011225,17.836149667040445,38,7,Animal_Sea_Solid_Large,7,,,,,,,,,,,
encoding,image,17.836265000049025,18.84789337508846,38,7,Animal_Sea_Solid_Large,7,,,,,,,,,,,
encoding,value,18.848003625054844,24.86032266705297,38,7,Animal_Sea_Solid_Large,7,,,,,,,,,,,
encoding,attention,24.86044387507718,27.88071870803833,38,7,Animal_Sea_Solid_Large,7,+7,1,0.6341825419804081,,,,,,,,
encoding,fixation,27.88094687508419,28.63620875007473,39,7,Object_Land_Solid_Large,-6,,,,,,,,,,,
encoding,image,28.636328208027408,29.64868170802947,39,7,Object_Land_Solid_Large,-6,,,,,,,,,,,
encoding,value,29.648831750033423,35.65998141700402,39,7,Object_Land_Solid_Large,-6,,,,,,,,,,,
encoding,attention,35.6601051670732,38.67625387501903,39,7,Object_Land_Solid_Large,-6,-6,1,0.5794768339255825,,,,,,,,
encoding,fixation,38.67649141710717,39.181784250075,40,7,Object_Land_Pattern_Small,7,,,,,,,,,,,
encoding,image,39.181922708055936,40.192391250049695,40,7,Object_Land_Pattern_Small,7,,,,,,,,,,,
encoding,value,40.19251945801079,46.20388495805673,40,7,Object_Land_Pattern_Small,7,,,,,,,,,,,
encoding,attention,46.20399829209782,49.22170479199849,40,7,Object_Land_Pattern_Small,7,+7,1,1.3375606659101322,,,,,,,,
encoding,fixation,49.221850375062786,49.72678537503816,41,7,Object_Sea_Pattern_Large,-4,,,,,,,,,,,
encoding,image,49.72690816700924,50.73763570806477,41,7,Object_Sea_Pattern_Large,-4,,,,,,,,,,,
encoding,value,50.737751625012606,56.749485167092644,41,7,Object_Sea_Pattern_Large,-4,,,,,,,,,,,
encoding,attention,56.749588583013974,59.77020145801362,41,7,Object_Sea_Pattern_Large,-4,-4,1,1.638236292055808,,,,,,,,
encoding,fixation,59.7703626670409,60.52577250008471,42,7,Animal_Sea_Solid_Small,-4,,,,,,,,,,,
encoding,image,60.5258950421121,61.53713575005531,42,7,Animal_Sea_Solid_Small,-4,,,,,,,,,,,
encoding,value,61.537252375041135,67.54814554203767,42,7,Animal_Sea_Solid_Small,-4,,,,,,,,,,,
encoding,attention,67.54827925004065,70.56541954202112,42,7,Animal_Sea_Solid_Small,-4,-4,1,1.008991084061563,,,,,,,,
n-back,,,,181,7,,,,0,None,N,True,None,,,,,
n-back,,,,182,7,,,,1,None,C,False,None,,,,,
n-back,,,,183,7,,,,1,0.5163822500035167,N,True,1,,,,,
n-back,,,,184,7,,,,1,None,B,False,None,,,,,
n-back,,,,185,7,,,,1,None,B,False,None,,,,,
n-back,,,,186,7,,,,1,None,Z,False,None,,,,,
n-back,,,,187,7,,,,1,None,X,False,None,,,,,
n-back,,,,188,7,,,,1,None,X,False,None,,,,,
n-back,,,,189,7,,,,1,0.7733574580634013,X,True,1,,,,,
n-back,,,,190,7,,,,0,None,X,True,None,,,,,
n-back,,,,191,7,,,,1,None,B,False,None,,,,,
n-back,,,,192,7,,,,1,None,N,False,None,,,,,
n-back,,,,193,7,,,,1,None,Z,False,None,,,,,
n-back,,,,194,7,,,,1,None,C,False,None,,,,,
n-back,,,,195,7,,,,1,None,V,False,None,,,,,
n-back,,,,196,7,,,,1,None,X,False,None,,,,,
n-back,,,,197,7,,,,0,0.7433057910529897,X,False,1,,,,,
n-back,,,,198,7,,,,1,None,V,False,None,,,,,
n-back,,,,199,7,,,,1,None,Z,False,None,,,,,
n-back,,,,200,7,,,,1,0.335906166001223,V,True,1,,,,,
n-back,,,,201,7,,,,1,None,V,False,None,,,,,
n-back,,,,202,7,,,,1,None,C,False,None,,,,,
n-back,,,,203,7,,,,1,None,Z,False,None,,,,,
n-back,,,,204,7,,,,1,None,X,False,None,,,,,
n-back,,,,205,7,,,,1,0.5342448330484331,Z,True,1,,,,,
n-back,,,,206,7,,,,0,None,X,True,None,,,,,
n-back,,,,207,7,,,,0,None,Z,True,None,,,,,
n-back,,,,208,7,,,,1,0.3209731250535697,X,True,1,,,,,
n-back,,,,209,7,,,,1,None,X,False,None,,,,,
n-back,,,,210,7,,,,0,None,X,True,None,,,,,
choice,fixation,136.71416879200842,138.21926854201593,49,7,,,,,,,,,Pattern,,,,
choice,option,138.22817095799837,139.25428475008812,49,7,,,,,,,,,Pattern,,,,
choice,choice,139.25439433311112,142.67998954211362,49,7,,,1,1,2.4157919159624726,,,,Pattern,,,,
choice,fixation,142.6801300831139,143.18514666706324,50,7,,,,,,,,,Animal,,,,
choice,option,143.19435195811093,144.22149812499993,50,7,,,,,,,,,Animal,,,,
choice,choice,144.22160333301872,146.04891195800155,50,7,,,1,1,0.8172765000490472,,,,Animal,,,,
choice,fixation,146.0490958750015,146.55415041709784,51,7,,,,,,,,,Object,,,,
choice,option,146.56333812500816,147.59027120808605,51,7,,,,,,,,,Object,,,,
choice,choice,147.59038725006394,150.1543412921019,51,7,,,1,0,1.5505095419939607,,,,Object,,,,
choice,fixation,150.15446966700256,150.9094577920623,52,7,,,,,,,,,Solid,,,,
choice,option,150.91890179202892,151.9479123330675,52,7,,,,,,,,,Solid,,,,
choice,choice,151.94806475006044,156.51058170804754,52,7,,,1,0,3.5523174579720944,,,,Solid,,,,
choice,fixation,156.51069462508895,157.0161777921021,53,7,,,,,,,,,Small,,,,
choice,option,157.02493125002366,158.05258816701826,53,7,,,,,,,,,Small,,,,
choice,choice,158.0527087500086,160.90420800005086,53,7,,,1,1,1.8408980829408392,,,,Small,,,,
choice,fixation,160.90432633308228,161.40945795807056,54,7,,,,,,,,,Land,,,,
choice,option,161.41791437508073,162.4453892080346,54,7,,,,,,,,,Land,,,,
choice,choice,162.44551700004376,165.36850837501697,54,7,,,2,1,1.913525625015609,,,,Land,,,,
choice,fixation,165.36863258306403,166.87407308304682,55,7,,,,,,,,,Large,,,,
choice,option,166.88307195808738,167.91043450008146,55,7,,,,,,,,,Large,,,,
choice,choice,167.9105811250629,173.15445004205685,55,7,,,2,1,4.233247790951282,,,,Large,,,,
choice,fixation,173.15458412503358,173.65980408305768,56,7,,,,,,,,,Sea,,,,
choice,option,173.66810408304445,174.69502408301923,56,7,,,,,,,,,Sea,,,,
choice,choice,174.69513225008268,176.39283291704487,56,7,,,1,0,0.6882112920284271,,,,Sea,,,,
memory,free_recall,193.98598945804406,209.64908429200295,36,7,,,,,,,,,,,,,
memory,value_recall,217.73190087510739,220.51519691711292,37,7,Object_Land_Pattern_Small,,,,2.7791429999051616,,,,,7,,,
memory,value_recall,222.56055733305402,224.61891675007064,38,7,Animal_Sea_Solid_Large,,,,2.0542728339787573,,,,,7,,,
memory,value_recall,225.91618454200216,229.19686716701835,39,7,Object_Sea_Pattern_Large,,,,3.276556666009128,,,,,-4,,,
memory,value_recall,231.24346691707615,238.50724254210945,40,7,Object_Land_Solid_Large,,,,7.259673416032456,,,,,-6,,,
memory,value_recall,240.55515008303337,244.0507628330961,41,7,Animal_Sea_Solid_Small,,,,3.4913960410049185,,,,,-4,,,
memory,value_recall,245.3484177500941,247.44366662506945,42,7,Animal_Land_Pattern_Small,,,,2.091066833003424,,,,,-2,,,
memory,spatial_recall,255.39114412502386,257.24865591700654,42,7,Animal_Land_Pattern_Small,,,1,1.8516871669562533,,,,,,"[-329, 190]","[-329, 190]",
memory,spatial_recall,258.5590657501016,261.7675697921077,42,7,Animal_Sea_Solid_Large,,,1,3.2038140000076964,,,,,,"[329, -190]","[329, -190]",
memory,spatial_recall,262.8256335830083,265.417210750049,42,7,Object_Land_Solid_Large,,,1,2.587417542003095,,,,,,"[0, 380]","[0, 380]",
memory,spatial_recall,267.48186620802153,269.8654443330597,42,7,Animal_Sea_Solid_Small,,,1,2.379513332969509,,,,,,"[0, -380]","[0, -380]",
memory,spatial_recall,271.42198079207446,276.1495929170633,42,7,Object_Land_Pattern_Small,,,1,4.723208417068236,,,,,,"[-329, -190]","[-329, -190]",
memory,spatial_recall,277.70557179208845,280.31692825001664,42,7,Object_Sea_Pattern_Large,,,1,2.6072589580435306,,,,,,"[329, 189]","[329, 189]",
