phase,event,trial_number,eyetracker_onset,eyetracker_offset,fix_start,fix_end,fix_duration_full,fix_duration_bounded,fix_x,fix_y,roi_x,roi_y,roi_content,onset,offset,game,image,outcome,choice,correct,rt,letter,match,response,option,true_value,true_position,recalled_position,Unnamed: 18
encoding,fixation,1,24328419,24328930,24328496.0,24328671.0,176.0,176.0,1938.8,993.8,1920.0,1460.0,Animal_Sea_Pattern_Small,10.84873745799996,11.360212208004668,1.0,Object_Land_Solid_Large,-4.0,,,,,,,,,,,
encoding,fixation,1,24328419,24328930,24328679.0,24328849.0,171.0,171.0,1924.1,1027.6,1920.0,1080.0,fixation,10.84873745799996,11.360212208004668,1.0,Object_Land_Solid_Large,-4.0,,,,,,,,,,,
encoding,fixation,1,24328419,24328930,24328913.0,24329116.0,204.0,17.0,2041.6,1500.5,1920.0,700.0,Object_Land_Solid_Large,10.84873745799996,11.360212208004668,1.0,Object_Land_Solid_Large,-4.0,,,,,,,,,,,
encoding,image,1,24328930,24329946,24329138.0,24329355.0,218.0,218.0,1924.9,1466.5,1920.0,700.0,Object_Land_Solid_Large,11.360322125023233,12.375639792066067,1.0,Object_Land_Solid_Large,-4.0,,,,,,,,,,,
encoding,image,1,24328930,24329946,24329365.0,24330084.0,720.0,581.0,1969.3,1419.5,1920.0,700.0,Object_Land_Solid_Large,11.360322125023233,12.375639792066067,1.0,Object_Land_Solid_Large,-4.0,,,,,,,,,,,
encoding,value,1,24329946,24335960,24330173.0,24330249.0,77.0,77.0,1907.1,1265.8,1920.0,700.0,Object_Land_Solid_Large,12.375754332984798,18.38966483308468,1.0,Object_Land_Solid_Large,-4.0,,,,,,,,,,,
encoding,value,1,24329946,24335960,24330261.0,24330476.0,216.0,216.0,1918.1,1307.2,1920.0,700.0,Object_Land_Solid_Large,12.375754332984798,18.38966483308468,1.0,Object_Land_Solid_Large,-4.0,,,,,,,,,,,
encoding,value,1,24329946,24335960,24330636.0,24331122.0,487.0,487.0,1909.8,1321.9,1920.0,700.0,Object_Land_Solid_Large,12.375754332984798,18.38966483308468,1.0,Object_Land_Solid_Large,-4.0,,,,,,,,,,,
encoding,value,1,24329946,24335960,24331130.0,24331272.0,143.0,143.0,1945.0,1335.4,1920.0,700.0,Object_Land_Solid_Large,12.375754332984798,18.38966483308468,1.0,Object_Land_Solid_Large,-4.0,,,,,,,,,,,
encoding,value,1,24329946,24335960,24331284.0,24331562.0,279.0,279.0,1924.8,1384.8,1920.0,700.0,Object_Land_Solid_Large,12.375754332984798,18.38966483308468,1.0,Object_Land_Solid_Large,-4.0,,,,,,,,,,,
encoding,value,1,24329946,24335960,24331579.0,24332717.0,1139.0,1139.0,1919.0,1308.4,1920.0,700.0,Object_Land_Solid_Large,12.375754332984798,18.38966483308468,1.0,Object_Land_Solid_Large,-4.0,,,,,,,,,,,
encoding,value,1,24329946,24335960,24332732.0,24332950.0,219.0,219.0,2020.7,1315.5,1920.0,700.0,Object_Land_Solid_Large,12.375754332984798,18.38966483308468,1.0,Object_Land_Solid_Large,-4.0,,,,,,,,,,,
encoding,value,1,24329946,24335960,24332967.0,24335041.0,2075.0,2075.0,1890.6,1310.6,1920.0,700.0,Object_Land_Solid_Large,12.375754332984798,18.38966483308468,1.0,Object_Land_Solid_Large,-4.0,,,,,,,,,,,
encoding,value,1,24329946,24335960,24335127.0,24335256.0,130.0,130.0,1842.0,1311.6,1920.0,700.0,Object_Land_Solid_Large,12.375754332984798,18.38966483308468,1.0,Object_Land_Solid_Large,-4.0,,,,,,,,,,,
encoding,value,1,24329946,24335960,24335264.0,24335411.0,148.0,148.0,1865.4,1294.4,1920.0,700.0,Object_Land_Solid_Large,12.375754332984798,18.38966483308468,1.0,Object_Land_Solid_Large,-4.0,,,,,,,,,,,
encoding,value,1,24329946,24335960,24335613.0,24335989.0,377.0,347.0,1860.8,1320.3,1920.0,700.0,Object_Land_Solid_Large,12.375754332984798,18.38966483308468,1.0,Object_Land_Solid_Large,-4.0,,,,,,,,,,,
encoding,attention,1,24335960,24338980,24336219.0,24336411.0,193.0,193.0,1868.9,1321.5,1920.0,700.0,Object_Land_Solid_Large,18.38978470803704,21.40967820805963,1.0,Object_Land_Solid_Large,-4.0,-4.0,1.0,1.117429333971813,,,,,,,,
encoding,attention,1,24335960,24338980,24336419.0,24336649.0,231.0,231.0,1915.1,1308.7,1920.0,700.0,Object_Land_Solid_Large,18.38978470803704,21.40967820805963,1.0,Object_Land_Solid_Large,-4.0,-4.0,1.0,1.117429333971813,,,,,,,,
encoding,attention,1,24335960,24338980,24336661.0,24338043.0,1383.0,1383.0,1861.5,1310.0,1920.0,700.0,Object_Land_Solid_Large,18.38978470803704,21.40967820805963,1.0,Object_Land_Solid_Large,-4.0,-4.0,1.0,1.117429333971813,,,,,,,,
encoding,attention,1,24335960,24338980,24338055.0,24338972.0,918.0,918.0,1943.7,1316.1,1920.0,700.0,Object_Land_Solid_Large,18.38978470803704,21.40967820805963,1.0,Object_Land_Solid_Large,-4.0,-4.0,1.0,1.117429333971813,,,,,,,,
encoding,fixation,2,24338980,24340486,24338984.0,24339338.0,355.0,355.0,1921.6,1385.8,1920.0,700.0,Object_Land_Solid_Large,21.409842292079706,22.91479499998968,1.0,Object_Sea_Solid_Small,8.0,,,,,,,,,,,
encoding,fixation,2,24338980,24340486,24339533.0,24340163.0,631.0,631.0,1996.6,1428.0,1920.0,700.0,Object_Land_Solid_Large,21.409842292079706,22.91479499998968,1.0,Object_Sea_Solid_Small,8.0,,,,,,,,,,,
encoding,fixation,2,24338980,24340486,24340183.0,24340494.0,312.0,303.0,1939.7,1340.6,1920.0,700.0,Object_Land_Solid_Large,21.409842292079706,22.91479499998968,1.0,Object_Sea_Solid_Small,8.0,,,,,,,,,,,
encoding,image,2,24340486,24341496,24340507.0,24340680.0,174.0,174.0,2026.6,1349.7,1920.0,700.0,Object_Land_Solid_Large,22.914918167050928,23.925152167095803,1.0,Object_Sea_Solid_Small,8.0,,,,,,,,,,,
encoding,image,2,24340486,24341496,24340713.0,24340889.0,177.0,177.0,1644.3,1279.1,1591.0,891.0,Object_Sea_Solid_Small,22.914918167050928,23.925152167095803,1.0,Object_Sea_Solid_Small,8.0,,,,,,,,,,,
encoding,image,2,24340486,24341496,24340899.0,24341328.0,430.0,430.0,1624.1,1268.0,1591.0,891.0,Object_Sea_Solid_Small,22.914918167050928,23.925152167095803,1.0,Object_Sea_Solid_Small,8.0,,,,,,,,,,,
encoding,value,2,24341496,24347507,24341503.0,24341687.0,185.0,185.0,1626.9,1305.5,1591.0,891.0,Object_Sea_Solid_Small,23.925299583002925,29.93648854200728,1.0,Object_Sea_Solid_Small,8.0,,,,,,,,,,,
encoding,value,2,24341496,24347507,24341710.0,24342400.0,691.0,691.0,1613.3,1142.6,1591.0,891.0,Object_Sea_Solid_Small,23.925299583002925,29.93648854200728,1.0,Object_Sea_Solid_Small,8.0,,,,,,,,,,,
encoding,value,2,24341496,24347507,24342414.0,24342627.0,214.0,214.0,1618.1,1201.9,1591.0,891.0,Object_Sea_Solid_Small,23.925299583002925,29.93648854200728,1.0,Object_Sea_Solid_Small,8.0,,,,,,,,,,,
encoding,value,2,24341496,24347507,24342642.0,24342929.0,288.0,288.0,1620.7,1135.8,1591.0,891.0,Object_Sea_Solid_Small,23.925299583002925,29.93648854200728,1.0,Object_Sea_Solid_Small,8.0,,,,,,,,,,,
encoding,value,2,24341496,24347507,24342940.0,24343203.0,264.0,264.0,1644.0,1178.3,1591.0,891.0,Object_Sea_Solid_Small,23.925299583002925,29.93648854200728,1.0,Object_Sea_Solid_Small,8.0,,,,,,,,,,,
encoding,value,2,24341496,24347507,24343222.0,24343401.0,180.0,180.0,1611.8,1155.0,1591.0,891.0,Object_Sea_Solid_Small,23.925299583002925,29.93648854200728,1.0,Object_Sea_Solid_Small,8.0,,,,,,,,,,,
encoding,value,2,24341496,24347507,24343408.0,24343797.0,390.0,390.0,1605.0,1126.4,1591.0,891.0,Object_Sea_Solid_Small,23.925299583002925,29.93648854200728,1.0,Object_Sea_Solid_Small,8.0,,,,,,,,,,,
encoding,value,2,24341496,24347507,24343969.0,24344179.0,211.0,211.0,1587.4,1129.3,1591.0,891.0,Object_Sea_Solid_Small,23.925299583002925,29.93648854200728,1.0,Object_Sea_Solid_Small,8.0,,,,,,,,,,,
encoding,value,2,24341496,24347507,24344187.0,24345220.0,1034.0,1034.0,1592.3,1125.9,1591.0,891.0,Object_Sea_Solid_Small,23.925299583002925,29.93648854200728,1.0,Object_Sea_Solid_Small,8.0,,,,,,,,,,,
encoding,value,2,24341496,24347507,24345229.0,24345380.0,152.0,152.0,1642.4,1124.8,1591.0,891.0,Object_Sea_Solid_Small,23.925299583002925,29.93648854200728,1.0,Object_Sea_Solid_Small,8.0,,,,,,,,,,,
encoding,value,2,24341496,24347507,24345388.0,24346232.0,845.0,845.0,1599.6,1122.6,1591.0,891.0,Object_Sea_Solid_Small,23.925299583002925,29.93648854200728,1.0,Object_Sea_Solid_Small,8.0,,,,,,,,,,,
encoding,value,2,24341496,24347507,24346239.0,24347983.0,1745.0,1268.0,1609.7,1124.1,1591.0,891.0,Object_Sea_Solid_Small,23.925299583002925,29.93648854200728,1.0,Object_Sea_Solid_Small,8.0,,,,,,,,,,,
encoding,attention,2,24347507,24350524,24347990.0,24348151.0,162.0,162.0,1584.1,1135.2,1591.0,891.0,Object_Sea_Solid_Small,29.93663125007879,32.952780166990124,1.0,Object_Sea_Solid_Small,8.0,8.0,1.0,0.9558694580337032,,,,,,,,
encoding,attention,2,24347507,24350524,24348159.0,24348764.0,606.0,606.0,1535.1,1135.8,1591.0,891.0,Object_Sea_Solid_Small,29.93663125007879,32.952780166990124,1.0,Object_Sea_Solid_Small,8.0,8.0,1.0,0.9558694580337032,,,,,,,,
encoding,attention,2,24347507,24350524,24348943.0,24349044.0,102.0,102.0,1540.4,1149.7,1591.0,891.0,Object_Sea_Solid_Small,29.93663125007879,32.952780166990124,1.0,Object_Sea_Solid_Small,8.0,8.0,1.0,0.9558694580337032,,,,,,,,
encoding,attention,2,24347507,24350524,24349324.0,24349493.0,170.0,170.0,1563.7,1262.7,1591.0,891.0,Object_Sea_Solid_Small,29.93663125007879,32.952780166990124,1.0,Object_Sea_Solid_Small,8.0,8.0,1.0,0.9558694580337032,,,,,,,,
encoding,attention,2,24347507,24350524,24349500.0,24349908.0,409.0,409.0,1595.8,1257.2,1591.0,891.0,Object_Sea_Solid_Small,29.93663125007879,32.952780166990124,1.0,Object_Sea_Solid_Small,8.0,8.0,1.0,0.9558694580337032,,,,,,,,
encoding,fixation,3,24350524,24351529,24350729.0,24350900.0,172.0,172.0,1921.1,1048.8,1920.0,1080.0,fixation,32.95293920801487,33.95800325006712,1.0,Animal_Sea_Pattern_Large,-8.0,,,,,,,,,,,
encoding,fixation,3,24350524,24351529,24351255.0,24351430.0,176.0,176.0,2006.0,1225.3,2249.0,891.0,Animal_Sea_Pattern_Large,32.95293920801487,33.95800325006712,1.0,Animal_Sea_Pattern_Large,-8.0,,,,,,,,,,,
encoding,fixation,3,24350524,24351529,24351455.0,24351582.0,128.0,74.0,1913.2,1098.0,1920.0,1080.0,fixation,32.95293920801487,33.95800325006712,1.0,Animal_Sea_Pattern_Large,-8.0,,,,,,,,,,,
encoding,image,3,24351529,24352540,24351603.0,24351725.0,123.0,123.0,1910.6,1006.7,1920.0,1460.0,Animal_Sea_Pattern_Small,33.958110000006855,34.96841020800639,1.0,Animal_Sea_Pattern_Large,-8.0,,,,,,,,,,,
encoding,image,3,24351529,24352540,24351766.0,24352287.0,522.0,522.0,2218.0,1222.1,2249.0,891.0,Animal_Sea_Pattern_Large,33.958110000006855,34.96841020800639,1.0,Animal_Sea_Pattern_Large,-8.0,,,,,,,,,,,
encoding,image,3,24351529,24352540,24352297.0,24352715.0,419.0,243.0,2184.6,1173.9,2249.0,891.0,Animal_Sea_Pattern_Large,33.958110000006855,34.96841020800639,1.0,Animal_Sea_Pattern_Large,-8.0,,,,,,,,,,,
encoding,value,3,24352540,24358551,24352735.0,24353210.0,476.0,476.0,2242.5,1105.0,2249.0,891.0,Animal_Sea_Pattern_Large,34.96854020806495,40.97899395809509,1.0,Animal_Sea_Pattern_Large,-8.0,,,,,,,,,,,
encoding,value,3,24352540,24358551,24353217.0,24353371.0,155.0,155.0,2246.1,1141.6,2249.0,891.0,Animal_Sea_Pattern_Large,34.96854020806495,40.97899395809509,1.0,Animal_Sea_Pattern_Large,-8.0,,,,,,,,,,,
encoding,value,3,24352540,24358551,24353747.0,24354096.0,350.0,350.0,2257.1,1161.8,2249.0,891.0,Animal_Sea_Pattern_Large,34.96854020806495,40.97899395809509,1.0,Animal_Sea_Pattern_Large,-8.0,,,,,,,,,,,
encoding,value,3,24352540,24358551,24354387.0,24354524.0,138.0,138.0,2209.7,1096.7,2249.0,891.0,Animal_Sea_Pattern_Large,34.96854020806495,40.97899395809509,1.0,Animal_Sea_Pattern_Large,-8.0,,,,,,,,,,,
encoding,value,3,24352540,24358551,24354535.0,24356376.0,1842.0,1842.0,2270.2,1108.0,2249.0,891.0,Animal_Sea_Pattern_Large,34.96854020806495,40.97899395809509,1.0,Animal_Sea_Pattern_Large,-8.0,,,,,,,,,,,
encoding,value,3,24352540,24358551,24356382.0,24357409.0,1028.0,1028.0,2263.7,1103.1,2249.0,891.0,Animal_Sea_Pattern_Large,34.96854020806495,40.97899395809509,1.0,Animal_Sea_Pattern_Large,-8.0,,,,,,,,,,,
encoding,value,3,24352540,24358551,24357415.0,24359108.0,1694.0,1136.0,2274.1,1103.1,2249.0,891.0,Animal_Sea_Pattern_Large,34.96854020806495,40.97899395809509,1.0,Animal_Sea_Pattern_Large,-8.0,,,,,,,,,,,
encoding,attention,3,24358551,24361568,24359120.0,24359720.0,601.0,601.0,2209.3,1102.3,2249.0,891.0,Animal_Sea_Pattern_Large,40.97910987504292,43.99645279208198,1.0,Animal_Sea_Pattern_Large,-8.0,-8.0,1.0,0.8644507499411702,,,,,,,,
encoding,attention,3,24358551,24361568,24359969.0,24360172.0,204.0,204.0,2221.4,1177.7,2249.0,891.0,Animal_Sea_Pattern_Large,40.97910987504292,43.99645279208198,1.0,Animal_Sea_Pattern_Large,-8.0,-8.0,1.0,0.8644507499411702,,,,,,,,
encoding,attention,3,24358551,24361568,24360189.0,24360826.0,638.0,638.0,2233.6,1103.8,2249.0,891.0,Animal_Sea_Pattern_Large,40.97910987504292,43.99645279208198,1.0,Animal_Sea_Pattern_Large,-8.0,-8.0,1.0,0.8644507499411702,,,,,,,,
encoding,attention,3,24358551,24361568,24361196.0,24361429.0,234.0,234.0,2341.4,1155.3,2249.0,891.0,Animal_Sea_Pattern_Large,40.97910987504292,43.99645279208198,1.0,Animal_Sea_Pattern_Large,-8.0,-8.0,1.0,0.8644507499411702,,,,,,,,
encoding,fixation,4,24361568,24362823,24361830.0,24362667.0,838.0,838.0,1961.6,1054.9,1920.0,1080.0,fixation,43.99661150004249,45.2518179169856,1.0,Animal_Land_Solid_Small,-8.0,,,,,,,,,,,
encoding,fixation,4,24361568,24362823,24362684.0,24362912.0,229.0,139.0,2116.4,1071.6,2249.0,1269.0,Animal_Land_Solid_Small,43.99661150004249,45.2518179169856,1.0,Animal_Land_Solid_Small,-8.0,,,,,,,,,,,
encoding,image,4,24362824,24363835,24363132.0,24363233.0,102.0,102.0,2147.5,986.2,2249.0,1269.0,Animal_Land_Solid_Small,45.251930625061505,46.262996667064726,1.0,Animal_Land_Solid_Small,-8.0,,,,,,,,,,,
encoding,image,4,24362824,24363835,24363257.0,24364024.0,768.0,578.0,2285.4,883.9000000000001,2249.0,1269.0,Animal_Land_Solid_Small,45.251930625061505,46.262996667064726,1.0,Animal_Land_Solid_Small,-8.0,,,,,,,,,,,
encoding,value,4,24363835,24369846,24364043.0,24364437.0,395.0,395.0,2254.6,773.4000000000001,2249.0,1269.0,Animal_Land_Solid_Small,46.26319145807065,52.274193458026275,1.0,Animal_Land_Solid_Small,-8.0,,,,,,,,,,,
encoding,value,4,24363835,24369846,24364455.0,24364716.0,262.0,262.0,2268.7,872.5999999999999,2249.0,1269.0,Animal_Land_Solid_Small,46.26319145807065,52.274193458026275,1.0,Animal_Land_Solid_Small,-8.0,,,,,,,,,,,
encoding,value,4,24363835,24369846,24364735.0,24365136.0,402.0,402.0,2243.0,773.5,2249.0,1269.0,Animal_Land_Solid_Small,46.26319145807065,52.274193458026275,1.0,Animal_Land_Solid_Small,-8.0,,,,,,,,,,,
encoding,value,4,24363835,24369846,24365605.0,24365778.0,174.0,174.0,2202.3,753.8,2249.0,1269.0,Animal_Land_Solid_Small,46.26319145807065,52.274193458026275,1.0,Animal_Land_Solid_Small,-8.0,,,,,,,,,,,
encoding,value,4,24363835,24369846,24365787.0,24366643.0,857.0,857.0,2243.0,757.0,2249.0,1269.0,Animal_Land_Solid_Small,46.26319145807065,52.274193458026275,1.0,Animal_Land_Solid_Small,-8.0,,,,,,,,,,,
encoding,value,4,24363835,24369846,24367104.0,24367271.0,168.0,168.0,2306.5,783.9000000000001,2249.0,1269.0,Animal_Land_Solid_Small,46.26319145807065,52.274193458026275,1.0,Animal_Land_Solid_Small,-8.0,,,,,,,,,,,
encoding,value,4,24363835,24369846,24367283.0,24368008.0,726.0,726.0,2242.8,742.3,2249.0,1269.0,Animal_Land_Solid_Small,46.26319145807065,52.274193458026275,1.0,Animal_Land_Solid_Small,-8.0,,,,,,,,,,,
encoding,value,4,24363835,24369846,24368462.0,24368912.0,451.0,451.0,1929.0,434.79999999999995,,,none,46.26319145807065,52.274193458026275,1.0,Animal_Land_Solid_Small,-8.0,,,,,,,,,,,
encoding,value,4,24363835,24369846,24369070.0,24370464.0,1395.0,776.0,2237.5,763.5999999999999,2249.0,1269.0,Animal_Land_Solid_Small,46.26319145807065,52.274193458026275,1.0,Animal_Land_Solid_Small,-8.0,,,,,,,,,,,
encoding,attention,4,24369846,24372859,24370615.0,24371572.0,958.0,958.0,2271.7,755.9000000000001,2249.0,1269.0,Animal_Land_Solid_Small,52.274294542032294,55.286553625017405,1.0,Animal_Land_Solid_Small,-8.0,,,,,,,,,,,
encoding,fixation,5,24372859,24373864,24373142.0,24374062.0,921.0,722.0,1894.9,1015.0,1920.0,1080.0,fixation,55.2866904999828,56.2920289169997,1.0,Animal_Sea_Pattern_Small,1.0,,,,,,,,,,,
encoding,image,5,24373864,24374875,24374111.0,24374426.0,316.0,316.0,1866.9,681.0,1920.0,1460.0,Animal_Sea_Pattern_Small,56.29214008303825,57.30323808302637,1.0,Animal_Sea_Pattern_Small,1.0,,,,,,,,,,,
encoding,image,5,24373864,24374875,24374579.0,24374690.0,112.0,112.0,1869.5,1070.6,1920.0,1080.0,fixation,56.29214008303825,57.30323808302637,1.0,Animal_Sea_Pattern_Small,1.0,,,,,,,,,,,
encoding,image,5,24373864,24374875,24374708.0,24374949.0,242.0,167.0,1886.7,996.0,1920.0,1460.0,Animal_Sea_Pattern_Small,56.29214008303825,57.30323808302637,1.0,Animal_Sea_Pattern_Small,1.0,,,,,,,,,,,
encoding,value,5,24374875,24380887,24375075.0,24375191.0,117.0,117.0,1851.1,665.8,1920.0,1460.0,Animal_Sea_Pattern_Small,57.30334991705604,63.31490916700568,1.0,Animal_Sea_Pattern_Small,1.0,,,,,,,,,,,
encoding,value,5,24374875,24380887,24375214.0,24375449.0,236.0,236.0,1868.6,576.2,1920.0,1460.0,Animal_Sea_Pattern_Small,57.30334991705604,63.31490916700568,1.0,Animal_Sea_Pattern_Small,1.0,,,,,,,,,,,
encoding,value,5,24374875,24380887,24375725.0,24376768.0,1044.0,1044.0,1882.2,685.0,1920.0,1460.0,Animal_Sea_Pattern_Small,57.30334991705604,63.31490916700568,1.0,Animal_Sea_Pattern_Small,1.0,,,,,,,,,,,
encoding,value,5,24374875,24380887,24376783.0,24377089.0,307.0,307.0,1881.4,606.5999999999999,1920.0,1460.0,Animal_Sea_Pattern_Small,57.30334991705604,63.31490916700568,1.0,Animal_Sea_Pattern_Small,1.0,,,,,,,,,,,
encoding,value,5,24374875,24380887,24377099.0,24377667.0,569.0,569.0,1890.1,660.0,1920.0,1460.0,Animal_Sea_Pattern_Small,57.30334991705604,63.31490916700568,1.0,Animal_Sea_Pattern_Small,1.0,,,,,,,,,,,
encoding,value,5,24374875,24380887,24377964.0,24379287.0,1324.0,1324.0,1891.6,673.8,1920.0,1460.0,Animal_Sea_Pattern_Small,57.30334991705604,63.31490916700568,1.0,Animal_Sea_Pattern_Small,1.0,,,,,,,,,,,
encoding,value,5,24374875,24380887,24379294.0,24379755.0,462.0,462.0,1911.5,688.0,1920.0,1460.0,Animal_Sea_Pattern_Small,57.30334991705604,63.31490916700568,1.0,Animal_Sea_Pattern_Small,1.0,,,,,,,,,,,
encoding,value,5,24374875,24380887,24379774.0,24379957.0,184.0,184.0,1880.1,635.8,1920.0,1460.0,Animal_Sea_Pattern_Small,57.30334991705604,63.31490916700568,1.0,Animal_Sea_Pattern_Small,1.0,,,,,,,,,,,
encoding,value,5,24374875,24380887,24379968.0,24380168.0,201.0,201.0,1887.8,602.3,1920.0,1460.0,Animal_Sea_Pattern_Small,57.30334991705604,63.31490916700568,1.0,Animal_Sea_Pattern_Small,1.0,,,,,,,,,,,
encoding,value,5,24374875,24380887,24380176.0,24380439.0,264.0,264.0,1894.8,644.5,1920.0,1460.0,Animal_Sea_Pattern_Small,57.30334991705604,63.31490916700568,1.0,Animal_Sea_Pattern_Small,1.0,,,,,,,,,,,
encoding,value,5,24374875,24380887,24380450.0,24380967.0,518.0,437.0,1883.9,613.9000000000001,1920.0,1460.0,Animal_Sea_Pattern_Small,57.30334991705604,63.31490916700568,1.0,Animal_Sea_Pattern_Small,1.0,,,,,,,,,,,
encoding,attention,5,24380887,24383941,24380981.0,24381207.0,227.0,227.0,1901.7,695.4000000000001,1920.0,1460.0,Animal_Sea_Pattern_Small,63.3150236250367,66.36782466701698,1.0,Animal_Sea_Pattern_Small,1.0,1.0,1.0,1.1826612079748884,,,,,,,,
encoding,attention,5,24380887,24383941,24381227.0,24381449.0,223.0,223.0,1907.1,610.0,1920.0,1460.0,Animal_Sea_Pattern_Small,63.3150236250367,66.36782466701698,1.0,Animal_Sea_Pattern_Small,1.0,1.0,1.0,1.1826612079748884,,,,,,,,
encoding,attention,5,24380887,24383941,24381459.0,24381680.0,222.0,222.0,1855.6,610.5999999999999,1920.0,1460.0,Animal_Sea_Pattern_Small,63.3150236250367,66.36782466701698,1.0,Animal_Sea_Pattern_Small,1.0,1.0,1.0,1.1826612079748884,,,,,,,,
encoding,attention,5,24380887,24383941,24381688.0,24382727.0,1040.0,1040.0,1886.7,611.4000000000001,1920.0,1460.0,Animal_Sea_Pattern_Small,63.3150236250367,66.36782466701698,1.0,Animal_Sea_Pattern_Small,1.0,1.0,1.0,1.1826612079748884,,,,,,,,
encoding,attention,5,24380887,24383941,24382762.0,24383331.0,570.0,570.0,1843.7,642.2,1920.0,1460.0,Animal_Sea_Pattern_Small,63.3150236250367,66.36782466701698,1.0,Animal_Sea_Pattern_Small,1.0,1.0,1.0,1.1826612079748884,,,,,,,,
encoding,fixation,6,24383941,24384696,24384168.0,24384317.0,150.0,150.0,1870.3,1059.7,1920.0,1080.0,fixation,66.36797162506264,67.12320479203481,1.0,Object_Land_Pattern_Large,1.0,,,,,,,,,,,
encoding,fixation,6,24383941,24384696,24384326.0,24384471.0,146.0,146.0,1877.9,1023.5999999999999,1591.0,1269.0,Object_Land_Pattern_Large,66.36797162506264,67.12320479203481,1.0,Object_Land_Pattern_Large,1.0,,,,,,,,,,,
encoding,fixation,6,24383941,24384696,24384688.0,24384815.0,128.0,8.0,1861.3,948.9000000000001,1920.0,1460.0,Animal_Sea_Pattern_Small,66.36797162506264,67.12320479203481,1.0,Object_Land_Pattern_Large,1.0,,,,,,,,,,,
encoding,image,6,24384696,24385708,24384830.0,24384961.0,132.0,132.0,1890.7,1017.0,1920.0,1080.0,fixation,67.12332574999891,68.13504125003237,1.0,Object_Land_Pattern_Large,1.0,,,,,,,,,,,
encoding,image,6,24384696,24385708,24384985.0,24385688.0,704.0,704.0,1618.5,855.9000000000001,1591.0,1269.0,Object_Land_Pattern_Large,67.12332574999891,68.13504125003237,1.0,Object_Land_Pattern_Large,1.0,,,,,,,,,,,
encoding,image,6,24384696,24385708,24385699.0,24385903.0,205.0,9.0,1604.6,791.4000000000001,1591.0,1269.0,Object_Land_Pattern_Large,67.12332574999891,68.13504125003237,1.0,Object_Land_Pattern_Large,1.0,,,,,,,,,,,
encoding,value,6,24385708,24391720,24385914.0,24386202.0,289.0,289.0,1598.3,745.5999999999999,1591.0,1269.0,Object_Land_Pattern_Large,68.13519608299248,74.1473489170894,1.0,Object_Land_Pattern_Large,1.0,,,,,,,,,,,
encoding,value,6,24385708,24391720,24386489.0,24386562.0,74.0,74.0,1516.5,598.0,,,none,68.13519608299248,74.1473489170894,1.0,Object_Land_Pattern_Large,1.0,,,,,,,,,,,
encoding,value,6,24385708,24391720,24386828.0,24387014.0,187.0,187.0,1590.2,798.5,1591.0,1269.0,Object_Land_Pattern_Large,68.13519608299248,74.1473489170894,1.0,Object_Land_Pattern_Large,1.0,,,,,,,,,,,
encoding,value,6,24385708,24391720,24387028.0,24392639.0,5612.0,4692.0,1591.9,756.8,1591.0,1269.0,Object_Land_Pattern_Large,68.13519608299248,74.1473489170894,1.0,Object_Land_Pattern_Large,1.0,,,,,,,,,,,
encoding,attention,6,24391720,24394738,24392827.0,24393371.0,545.0,545.0,1609.1,798.3,1591.0,1269.0,Object_Land_Pattern_Large,74.14746120804921,77.16482620802708,1.0,Object_Land_Pattern_Large,1.0,1.0,1.0,0.64393579098396,,,,,,,,
encoding,attention,6,24391720,24394738,24393396.0,24393589.0,194.0,194.0,1833.2,994.4000000000001,1591.0,1269.0,Object_Land_Pattern_Large,74.14746120804921,77.16482620802708,1.0,Object_Land_Pattern_Large,1.0,1.0,1.0,0.64393579098396,,,,,,,,
encoding,attention,6,24391720,24394738,24393600.0,24394097.0,498.0,498.0,1896.8,1022.9000000000001,1920.0,1080.0,fixation,74.14746120804921,77.16482620802708,1.0,Object_Land_Pattern_Large,1.0,1.0,1.0,0.64393579098396,,,,,,,,
encoding,attention,6,24391720,24394738,24394123.0,24394645.0,523.0,523.0,1655.3,849.4000000000001,1591.0,1269.0,Object_Land_Pattern_Large,74.14746120804921,77.16482620802708,1.0,Object_Land_Pattern_Large,1.0,1.0,1.0,0.64393579098396,,,,,,,,
encoding,fixation,7,24887085,24888341,24887354.0,24887548.0,195.0,195.0,1860.6,1086.0,1920.0,1080.0,fixation,15.84876829199493,17.10488500003703,2.0,Animal_Land_Solid_Large,-4.0,,,,,,,,,,,
encoding,fixation,7,24887085,24888341,24887588.0,24888437.0,850.0,753.0,1940.7,1346.5,1920.0,700.0,Animal_Land_Pattern_Large,15.84876829199493,17.10488500003703,2.0,Animal_Land_Solid_Large,-4.0,,,,,,,,,,,
encoding,image,7,24888341,24889353,24888581.0,24888612.0,32.0,32.0,2117.4,1287.7,2249.0,891.0,Animal_Land_Solid_Large,17.105049667065032,18.11687504197471,2.0,Animal_Land_Solid_Large,-4.0,,,,,,,,,,,
encoding,image,7,24888341,24889353,24888634.0,24889571.0,938.0,719.0,2231.5,1269.7,2249.0,891.0,Animal_Land_Solid_Large,17.105049667065032,18.11687504197471,2.0,Animal_Land_Solid_Large,-4.0,,,,,,,,,,,
encoding,value,7,24889353,24895367,24889591.0,24889812.0,222.0,222.0,2198.3,1154.0,2249.0,891.0,Animal_Land_Solid_Large,18.116992542054504,24.130532082985155,2.0,Animal_Land_Solid_Large,-4.0,,,,,,,,,,,
encoding,value,7,24889353,24895367,24889833.0,24889936.0,104.0,104.0,2212.3,1278.7,2249.0,891.0,Animal_Land_Solid_Large,18.116992542054504,24.130532082985155,2.0,Animal_Land_Solid_Large,-4.0,,,,,,,,,,,
encoding,value,7,24889353,24895367,24890125.0,24890630.0,506.0,506.0,2235.2,1271.0,2249.0,891.0,Animal_Land_Solid_Large,18.116992542054504,24.130532082985155,2.0,Animal_Land_Solid_Large,-4.0,,,,,,,,,,,
encoding,value,7,24889353,24895367,24890652.0,24893033.0,2382.0,2382.0,2212.1,1139.6,2249.0,891.0,Animal_Land_Solid_Large,18.116992542054504,24.130532082985155,2.0,Animal_Land_Solid_Large,-4.0,,,,,,,,,,,
encoding,value,7,24889353,24895367,24893053.0,24893394.0,342.0,342.0,2243.4,1223.9,2249.0,891.0,Animal_Land_Solid_Large,18.116992542054504,24.130532082985155,2.0,Animal_Land_Solid_Large,-4.0,,,,,,,,,,,
encoding,value,7,24889353,24895367,24893545.0,24894184.0,640.0,640.0,2253.8,1237.2,2249.0,891.0,Animal_Land_Solid_Large,18.116992542054504,24.130532082985155,2.0,Animal_Land_Solid_Large,-4.0,,,,,,,,,,,
encoding,value,7,24889353,24895367,24894204.0,24895761.0,1558.0,1163.0,2223.5,1157.0,2249.0,891.0,Animal_Land_Solid_Large,18.116992542054504,24.130532082985155,2.0,Animal_Land_Solid_Large,-4.0,,,,,,,,,,,
encoding,attention,7,24895367,24898388,24895905.0,24896880.0,976.0,976.0,2168.9,1131.8,2249.0,891.0,Animal_Land_Solid_Large,24.13065158308018,27.151114291977137,2.0,Animal_Land_Solid_Large,-4.0,-4.0,1.0,1.206584458006546,,,,,,,,
encoding,attention,7,24895367,24898388,24896895.0,24897615.0,721.0,721.0,2254.2,1113.0,2249.0,891.0,Animal_Land_Solid_Large,24.13065158308018,27.151114291977137,2.0,Animal_Land_Solid_Large,-4.0,-4.0,1.0,1.206584458006546,,,,,,,,
encoding,attention,7,24895367,24898388,24897625.0,24898043.0,419.0,419.0,2186.4,1120.9,2249.0,891.0,Animal_Land_Solid_Large,24.13065158308018,27.151114291977137,2.0,Animal_Land_Solid_Large,-4.0,-4.0,1.0,1.206584458006546,,,,,,,,
encoding,fixation,8,24898388,24899143,24898658.0,24898690.0,33.0,33.0,1966.0,1144.0,2249.0,891.0,Animal_Land_Solid_Large,27.151317042065784,27.906481874990277,2.0,Object_Sea_Pattern_Small,-4.0,,,,,,,,,,,
encoding,image,8,24899143,24900154,24899299.0,24899441.0,143.0,143.0,1964.9,1148.1,2249.0,891.0,Animal_Land_Solid_Large,27.906585167045705,28.91777279204689,2.0,Object_Sea_Pattern_Small,-4.0,,,,,,,,,,,
encoding,image,8,24899143,24900154,24899470.0,24900435.0,966.0,684.0,2233.9,890.5,2249.0,1269.0,Object_Sea_Pattern_Small,27.906585167045705,28.91777279204689,2.0,Object_Sea_Pattern_Small,-4.0,,,,,,,,,,,
encoding,value,8,24900155,24906166,24900449.0,24900755.0,307.0,307.0,2244.3,808.7,2249.0,1269.0,Object_Sea_Pattern_Small,28.91788758302573,34.92908112506848,2.0,Object_Sea_Pattern_Small,-4.0,,,,,,,,,,,
encoding,value,8,24900155,24906166,24900773.0,24901118.0,346.0,346.0,2241.9,886.0999999999999,2249.0,1269.0,Object_Sea_Pattern_Small,28.91788758302573,34.92908112506848,2.0,Object_Sea_Pattern_Small,-4.0,,,,,,,,,,,
encoding,value,8,24900155,24906166,24901137.0,24901359.0,223.0,223.0,2231.3,790.2,2249.0,1269.0,Object_Sea_Pattern_Small,28.91788758302573,34.92908112506848,2.0,Object_Sea_Pattern_Small,-4.0,,,,,,,,,,,
encoding,value,8,24900155,24906166,24901377.0,24902404.0,1028.0,1028.0,2231.9,891.9000000000001,2249.0,1269.0,Object_Sea_Pattern_Small,28.91788758302573,34.92908112506848,2.0,Object_Sea_Pattern_Small,-4.0,,,,,,,,,,,
encoding,value,8,24900155,24906166,24902677.0,24902904.0,228.0,228.0,2207.7,913.7,2249.0,1269.0,Object_Sea_Pattern_Small,28.91788758302573,34.92908112506848,2.0,Object_Sea_Pattern_Small,-4.0,,,,,,,,,,,
encoding,value,8,24900155,24906166,24903151.0,24904986.0,1836.0,1836.0,2226.1,897.2,2249.0,1269.0,Object_Sea_Pattern_Small,28.91788758302573,34.92908112506848,2.0,Object_Sea_Pattern_Small,-4.0,,,,,,,,,,,
encoding,value,8,24900155,24906166,24905005.0,24905359.0,355.0,355.0,2227.0,785.8,2249.0,1269.0,Object_Sea_Pattern_Small,28.91788758302573,34.92908112506848,2.0,Object_Sea_Pattern_Small,-4.0,,,,,,,,,,,
encoding,value,8,24900155,24906166,24905372.0,24906366.0,995.0,794.0,2246.4,882.8,2249.0,1269.0,Object_Sea_Pattern_Small,28.91788758302573,34.92908112506848,2.0,Object_Sea_Pattern_Small,-4.0,,,,,,,,,,,
encoding,attention,8,24906166,24909184,24906384.0,24906780.0,397.0,397.0,2263.9,778.7,2249.0,1269.0,Object_Sea_Pattern_Small,34.92919879197143,37.94711062498391,2.0,Object_Sea_Pattern_Small,-4.0,-4.0,1.0,0.9159884999971836,,,,,,,,
encoding,attention,8,24906166,24909184,24906794.0,24907638.0,845.0,845.0,2189.1,780.9000000000001,2249.0,1269.0,Object_Sea_Pattern_Small,34.92919879197143,37.94711062498391,2.0,Object_Sea_Pattern_Small,-4.0,-4.0,1.0,0.9159884999971836,,,,,,,,
encoding,attention,8,24906166,24909184,24907657.0,24908302.0,646.0,646.0,2230.5,865.3,2249.0,1269.0,Object_Sea_Pattern_Small,34.92919879197143,37.94711062498391,2.0,Object_Sea_Pattern_Small,-4.0,-4.0,1.0,0.9159884999971836,,,,,,,,
encoding,attention,8,24906166,24909184,24908512.0,24908884.0,373.0,373.0,2232.5,883.9000000000001,2249.0,1269.0,Object_Sea_Pattern_Small,34.92919879197143,37.94711062498391,2.0,Object_Sea_Pattern_Small,-4.0,-4.0,1.0,0.9159884999971836,,,,,,,,
encoding,fixation,9,24909184,24909689,24909305.0,24909446.0,142.0,142.0,2307.0,1183.5,2249.0,891.0,Animal_Land_Solid_Large,37.947266667033546,38.45222695800476,2.0,Object_Sea_Solid_Small,-2.0,,,,,,,,,,,
encoding,fixation,9,24909184,24909689,24909485.0,24909623.0,139.0,139.0,1959.4,1093.6,1920.0,1080.0,fixation,37.947266667033546,38.45222695800476,2.0,Object_Sea_Solid_Small,-2.0,,,,,,,,,,,
encoding,fixation,9,24909184,24909689,24909635.0,24909945.0,311.0,54.0,1921.1,1055.4,1920.0,1080.0,fixation,37.947266667033546,38.45222695800476,2.0,Object_Sea_Solid_Small,-2.0,,,,,,,,,,,
encoding,image,9,24909689,24910701,24909989.0,24910754.0,766.0,712.0,1613.9,1297.5,1591.0,891.0,Object_Sea_Solid_Small,38.45233595801983,39.46424837503582,2.0,Object_Sea_Solid_Small,-2.0,,,,,,,,,,,
encoding,value,9,24910702,24916713,24910921.0,24910993.0,73.0,73.0,1589.4,1318.6,1591.0,891.0,Object_Sea_Solid_Small,39.46436804207042,45.475314625073224,2.0,Object_Sea_Solid_Small,-2.0,,,,,,,,,,,
encoding,value,9,24910702,24916713,24911020.0,24911181.0,162.0,162.0,1608.5,1194.4,1591.0,891.0,Object_Sea_Solid_Small,39.46436804207042,45.475314625073224,2.0,Object_Sea_Solid_Small,-2.0,,,,,,,,,,,
encoding,value,9,24910702,24916713,24911192.0,24912598.0,1407.0,1407.0,1610.0,1145.5,1591.0,891.0,Object_Sea_Solid_Small,39.46436804207042,45.475314625073224,2.0,Object_Sea_Solid_Small,-2.0,,,,,,,,,,,
encoding,value,9,24910702,24916713,24912610.0,24912811.0,202.0,202.0,1595.2,1197.3,1591.0,891.0,Object_Sea_Solid_Small,39.46436804207042,45.475314625073224,2.0,Object_Sea_Solid_Small,-2.0,,,,,,,,,,,
encoding,value,9,24910702,24916713,24912827.0,24915685.0,2859.0,2859.0,1593.8,1132.0,1591.0,891.0,Object_Sea_Solid_Small,39.46436804207042,45.475314625073224,2.0,Object_Sea_Solid_Small,-2.0,,,,,,,,,,,
encoding,value,9,24910702,24916713,24915698.0,24915966.0,269.0,269.0,1599.3,1178.4,1591.0,891.0,Object_Sea_Solid_Small,39.46436804207042,45.475314625073224,2.0,Object_Sea_Solid_Small,-2.0,,,,,,,,,,,
encoding,value,9,24910702,24916713,24915975.0,24916212.0,238.0,238.0,1667.5,1166.5,1591.0,891.0,Object_Sea_Solid_Small,39.46436804207042,45.475314625073224,2.0,Object_Sea_Solid_Small,-2.0,,,,,,,,,,,
encoding,value,9,24910702,24916713,24916222.0,24916501.0,280.0,280.0,1615.1,1178.4,1591.0,891.0,Object_Sea_Solid_Small,39.46436804207042,45.475314625073224,2.0,Object_Sea_Solid_Small,-2.0,,,,,,,,,,,
encoding,value,9,24910702,24916713,24916713.0,24917009.0,297.0,0.0,1593.1,1212.4,1591.0,891.0,Object_Sea_Solid_Small,39.46436804207042,45.475314625073224,2.0,Object_Sea_Solid_Small,-2.0,,,,,,,,,,,
encoding,attention,9,24916713,24919730,24916713.0,24917009.0,297.0,297.0,1593.1,1212.4,1591.0,891.0,Object_Sea_Solid_Small,45.475433208048344,48.49221262498759,2.0,Object_Sea_Solid_Small,-2.0,-2.0,1.0,0.9690452079521492,,,,,,,,
encoding,attention,9,24916713,24919730,24917020.0,24917282.0,263.0,263.0,1646.7,1154.3,1591.0,891.0,Object_Sea_Solid_Small,45.475433208048344,48.49221262498759,2.0,Object_Sea_Solid_Small,-2.0,-2.0,1.0,0.9690452079521492,,,,,,,,
encoding,attention,9,24916713,24919730,24917296.0,24918188.0,893.0,893.0,1561.9,1153.4,1591.0,891.0,Object_Sea_Solid_Small,45.475433208048344,48.49221262498759,2.0,Object_Sea_Solid_Small,-2.0,-2.0,1.0,0.9690452079521492,,,,,,,,
encoding,attention,9,24916713,24919730,24918208.0,24918809.0,602.0,602.0,1600.7,1249.0,1591.0,891.0,Object_Sea_Solid_Small,45.475433208048344,48.49221262498759,2.0,Object_Sea_Solid_Small,-2.0,-2.0,1.0,0.9690452079521492,,,,,,,,
encoding,attention,9,24916713,24919730,24918976.0,24919073.0,98.0,98.0,1640.2,1127.3,1591.0,891.0,Object_Sea_Solid_Small,45.475433208048344,48.49221262498759,2.0,Object_Sea_Solid_Small,-2.0,-2.0,1.0,0.9690452079521492,,,,,,,,
encoding,attention,9,24916713,24919730,24919081.0,24919256.0,176.0,176.0,1628.7,1146.1,1591.0,891.0,Object_Sea_Solid_Small,45.475433208048344,48.49221262498759,2.0,Object_Sea_Solid_Small,-2.0,-2.0,1.0,0.9690452079521492,,,,,,,,
encoding,fixation,10,24919730,24920735,24920438.0,24920948.0,511.0,297.0,2089.1,1201.0,2249.0,891.0,Animal_Land_Solid_Large,48.49245958297979,49.49769345798995,2.0,Animal_Sea_Solid_Small,8.0,,,,,,,,,,,
encoding,image,10,24920735,24921746,24921004.0,24921158.0,155.0,155.0,1938.9,794.2,1920.0,1460.0,Animal_Sea_Solid_Small,49.49781954206992,50.50790129206143,2.0,Animal_Sea_Solid_Small,8.0,,,,,,,,,,,
encoding,image,10,24920735,24921746,24921177.0,24921445.0,269.0,269.0,1908.1,706.7,1920.0,1460.0,Animal_Sea_Solid_Small,49.49781954206992,50.50790129206143,2.0,Animal_Sea_Solid_Small,8.0,,,,,,,,,,,
encoding,image,10,24920735,24921746,24921503.0,24921636.0,134.0,134.0,1734.7,1101.0,1591.0,891.0,Object_Sea_Solid_Small,49.49781954206992,50.50790129206143,2.0,Animal_Sea_Solid_Small,8.0,,,,,,,,,,,
encoding,image,10,24920735,24921746,24921658.0,24921846.0,189.0,88.0,1576.5,1294.7,1591.0,891.0,Object_Sea_Solid_Small,49.49781954206992,50.50790129206143,2.0,Animal_Sea_Solid_Small,8.0,,,,,,,,,,,
encoding,value,10,24921746,24927758,24921899.0,24922186.0,288.0,288.0,1923.9,685.5,1920.0,1460.0,Animal_Sea_Solid_Small,50.50802529207431,56.519599833060056,2.0,Animal_Sea_Solid_Small,8.0,,,,,,,,,,,
encoding,value,10,24921746,24927758,24922204.0,24922529.0,326.0,326.0,1903.6,614.9000000000001,1920.0,1460.0,Animal_Sea_Solid_Small,50.50802529207431,56.519599833060056,2.0,Animal_Sea_Solid_Small,8.0,,,,,,,,,,,
encoding,value,10,24921746,24927758,24922538.0,24922828.0,291.0,291.0,1908.9,685.4000000000001,1920.0,1460.0,Animal_Sea_Solid_Small,50.50802529207431,56.519599833060056,2.0,Animal_Sea_Solid_Small,8.0,,,,,,,,,,,
encoding,value,10,24921746,24927758,24923027.0,24923576.0,550.0,550.0,1893.1,712.3,1920.0,1460.0,Animal_Sea_Solid_Small,50.50802529207431,56.519599833060056,2.0,Animal_Sea_Solid_Small,8.0,,,,,,,,,,,
encoding,value,10,24921746,24927758,24923955.0,24924106.0,152.0,152.0,1888.1,642.5999999999999,1920.0,1460.0,Animal_Sea_Solid_Small,50.50802529207431,56.519599833060056,2.0,Animal_Sea_Solid_Small,8.0,,,,,,,,,,,
encoding,value,10,24921746,24927758,24924118.0,24925090.0,973.0,973.0,1900.9,615.8,1920.0,1460.0,Animal_Sea_Solid_Small,50.50802529207431,56.519599833060056,2.0,Animal_Sea_Solid_Small,8.0,,,,,,,,,,,
encoding,value,10,24921746,24927758,24925106.0,24925812.0,707.0,707.0,1900.9,714.9000000000001,1920.0,1460.0,Animal_Sea_Solid_Small,50.50802529207431,56.519599833060056,2.0,Animal_Sea_Solid_Small,8.0,,,,,,,,,,,
encoding,value,10,24921746,24927758,24925822.0,24926003.0,182.0,182.0,1884.6,659.0,1920.0,1460.0,Animal_Sea_Solid_Small,50.50802529207431,56.519599833060056,2.0,Animal_Sea_Solid_Small,8.0,,,,,,,,,,,
encoding,value,10,24921746,24927758,24926017.0,24926902.0,886.0,886.0,1886.5,617.4000000000001,1920.0,1460.0,Animal_Sea_Solid_Small,50.50802529207431,56.519599833060056,2.0,Animal_Sea_Solid_Small,8.0,,,,,,,,,,,
encoding,value,10,24921746,24927758,24926913.0,24927537.0,625.0,625.0,1892.8,727.9000000000001,1920.0,1460.0,Animal_Sea_Solid_Small,50.50802529207431,56.519599833060056,2.0,Animal_Sea_Solid_Small,8.0,,,,,,,,,,,
encoding,value,10,24921746,24927758,24927560.0,24927962.0,403.0,198.0,1895.9,614.8,1920.0,1460.0,Animal_Sea_Solid_Small,50.50802529207431,56.519599833060056,2.0,Animal_Sea_Solid_Small,8.0,,,,,,,,,,,
encoding,attention,10,24927758,24930774,24927969.0,24928968.0,1000.0,1000.0,1925.9,601.5999999999999,1920.0,1460.0,Animal_Sea_Solid_Small,56.51972987502813,59.53629950003233,2.0,Animal_Sea_Solid_Small,8.0,8.0,1.0,0.8312727500451729,,,,,,,,
encoding,attention,10,24927758,24930774,24929200.0,24929870.0,671.0,671.0,1916.8,661.0999999999999,1920.0,1460.0,Animal_Sea_Solid_Small,56.51972987502813,59.53629950003233,2.0,Animal_Sea_Solid_Small,8.0,8.0,1.0,0.8312727500451729,,,,,,,,
encoding,attention,10,24927758,24930774,24929879.0,24930084.0,206.0,206.0,1921.5,752.0,1920.0,1460.0,Animal_Sea_Solid_Small,56.51972987502813,59.53629950003233,2.0,Animal_Sea_Solid_Small,8.0,8.0,1.0,0.8312727500451729,,,,,,,,
encoding,attention,10,24927758,24930774,24930105.0,24930274.0,170.0,170.0,1927.7,651.9000000000001,1920.0,1460.0,Animal_Sea_Solid_Small,56.51972987502813,59.53629950003233,2.0,Animal_Sea_Solid_Small,8.0,8.0,1.0,0.8312727500451729,,,,,,,,
encoding,attention,10,24927758,24930774,24930289.0,24930654.0,366.0,366.0,1940.9,604.4000000000001,1920.0,1460.0,Animal_Sea_Solid_Small,56.51972987502813,59.53629950003233,2.0,Animal_Sea_Solid_Small,8.0,8.0,1.0,0.8312727500451729,,,,,,,,
encoding,fixation,11,24930775,24931280,24931023.0,24931193.0,171.0,171.0,1859.2,633.5,1920.0,1460.0,Animal_Sea_Solid_Small,59.5364582920447,60.041933582979254,2.0,Object_Land_Pattern_Large,4.0,,,,,,,,,,,
encoding,fixation,11,24930775,24931280,24931238.0,24931478.0,241.0,42.0,1908.5,1072.9,1920.0,1080.0,fixation,59.5364582920447,60.041933582979254,2.0,Object_Land_Pattern_Large,4.0,,,,,,,,,,,
encoding,image,11,24931280,24932291,24931504.0,24931928.0,425.0,425.0,1607.8,906.0,1591.0,1269.0,Object_Land_Pattern_Large,60.04206366697326,61.05284841707907,2.0,Object_Land_Pattern_Large,4.0,,,,,,,,,,,
encoding,image,11,24931280,24932291,24931940.0,24932035.0,96.0,96.0,1699.1,919.0,1591.0,1269.0,Object_Land_Pattern_Large,60.04206366697326,61.05284841707907,2.0,Object_Land_Pattern_Large,4.0,,,,,,,,,,,
encoding,image,11,24931280,24932291,24932070.0,24932098.0,29.0,29.0,1595.7,646.0999999999999,1591.0,1269.0,Object_Land_Pattern_Large,60.04206366697326,61.05284841707907,2.0,Object_Land_Pattern_Large,4.0,,,,,,,,,,,
encoding,image,11,24931280,24932291,24932125.0,24932323.0,199.0,166.0,1637.4,892.4000000000001,1591.0,1269.0,Object_Land_Pattern_Large,60.04206366697326,61.05284841707907,2.0,Object_Land_Pattern_Large,4.0,,,,,,,,,,,
encoding,value,11,24932291,24938304,24932520.0,24932670.0,151.0,151.0,1631.1,877.0999999999999,1591.0,1269.0,Object_Land_Pattern_Large,61.05295841698535,67.06530020805076,2.0,Object_Land_Pattern_Large,4.0,,,,,,,,,,,
encoding,value,11,24932291,24938304,24932695.0,24933372.0,678.0,678.0,1613.6,772.5,1591.0,1269.0,Object_Land_Pattern_Large,61.05295841698535,67.06530020805076,2.0,Object_Land_Pattern_Large,4.0,,,,,,,,,,,
encoding,value,11,24932291,24938304,24933390.0,24933490.0,101.0,101.0,1626.1,892.5,1591.0,1269.0,Object_Land_Pattern_Large,61.05295841698535,67.06530020805076,2.0,Object_Land_Pattern_Large,4.0,,,,,,,,,,,
encoding,value,11,24932291,24938304,24933996.0,24934140.0,145.0,145.0,1699.1,748.9000000000001,1591.0,1269.0,Object_Land_Pattern_Large,61.05295841698535,67.06530020805076,2.0,Object_Land_Pattern_Large,4.0,,,,,,,,,,,
encoding,value,11,24932291,24938304,24934163.0,24934481.0,319.0,319.0,1599.0,869.7,1591.0,1269.0,Object_Land_Pattern_Large,61.05295841698535,67.06530020805076,2.0,Object_Land_Pattern_Large,4.0,,,,,,,,,,,
encoding,value,11,24932291,24938304,24934525.0,24934650.0,126.0,126.0,1786.0,962.7,1591.0,1269.0,Object_Land_Pattern_Large,61.05295841698535,67.06530020805076,2.0,Object_Land_Pattern_Large,4.0,,,,,,,,,,,
encoding,value,11,24932291,24938304,24934669.0,24934916.0,248.0,248.0,1916.4,1046.9,1920.0,1080.0,fixation,61.05295841698535,67.06530020805076,2.0,Object_Land_Pattern_Large,4.0,,,,,,,,,,,
encoding,value,11,24932291,24938304,24934948.0,24936138.0,1191.0,1191.0,1609.1,774.9000000000001,1591.0,1269.0,Object_Land_Pattern_Large,61.05295841698535,67.06530020805076,2.0,Object_Land_Pattern_Large,4.0,,,,,,,,,,,
encoding,value,11,24932291,24938304,24936154.0,24936559.0,406.0,406.0,1618.7,848.3,1591.0,1269.0,Object_Land_Pattern_Large,61.05295841698535,67.06530020805076,2.0,Object_Land_Pattern_Large,4.0,,,,,,,,,,,
encoding,value,11,24932291,24938304,24936574.0,24937943.0,1370.0,1370.0,1599.2,772.7,1591.0,1269.0,Object_Land_Pattern_Large,61.05295841698535,67.06530020805076,2.0,Object_Land_Pattern_Large,4.0,,,,,,,,,,,
encoding,value,11,24932291,24938304,24937953.0,24939156.0,1204.0,351.0,1625.3,766.8,1591.0,1269.0,Object_Land_Pattern_Large,61.05295841698535,67.06530020805076,2.0,Object_Land_Pattern_Large,4.0,,,,,,,,,,,
encoding,attention,11,24938304,24941325,24939457.0,24939583.0,127.0,127.0,1731.2,999.2,1591.0,1269.0,Object_Land_Pattern_Large,67.06550508306827,70.08637250005268,2.0,Object_Land_Pattern_Large,4.0,4.0,1.0,0.5610581670189276,,,,,,,,
encoding,attention,11,24938304,24941325,24939603.0,24940061.0,459.0,459.0,1930.7,1038.1,1920.0,1080.0,fixation,67.06550508306827,70.08637250005268,2.0,Object_Land_Pattern_Large,4.0,4.0,1.0,0.5610581670189276,,,,,,,,
encoding,attention,11,24938304,24941325,24940087.0,24940235.0,149.0,149.0,1717.6,935.8,1591.0,1269.0,Object_Land_Pattern_Large,67.06550508306827,70.08637250005268,2.0,Object_Land_Pattern_Large,4.0,4.0,1.0,0.5610581670189276,,,,,,,,
encoding,attention,11,24938304,24941325,24940252.0,24940504.0,253.0,253.0,1631.1,877.3,1591.0,1269.0,Object_Land_Pattern_Large,67.06550508306827,70.08637250005268,2.0,Object_Land_Pattern_Large,4.0,4.0,1.0,0.5610581670189276,,,,,,,,
encoding,attention,11,24938304,24941325,24940524.0,24940963.0,440.0,440.0,1654.7,788.5,1591.0,1269.0,Object_Land_Pattern_Large,67.06550508306827,70.08637250005268,2.0,Object_Land_Pattern_Large,4.0,4.0,1.0,0.5610581670189276,,,,,,,,
encoding,attention,11,24938304,24941325,24940980.0,24941195.0,216.0,216.0,1727.1,859.0,1591.0,1269.0,Object_Land_Pattern_Large,67.06550508306827,70.08637250005268,2.0,Object_Land_Pattern_Large,4.0,4.0,1.0,0.5610581670189276,,,,,,,,
encoding,fixation,12,24941325,24942080,24941585.0,24942076.0,492.0,492.0,1922.7,1062.6,1920.0,1080.0,fixation,70.08654329204,70.84156650002114,2.0,Animal_Land_Pattern_Large,4.0,,,,,,,,,,,
encoding,image,12,24942080,24943092,24942101.0,24942258.0,158.0,158.0,1966.2,1206.2,1920.0,700.0,Animal_Land_Pattern_Large,70.8416817500256,71.8534575420199,2.0,Animal_Land_Pattern_Large,4.0,,,,,,,,,,,
encoding,image,12,24942080,24943092,24942285.0,24942482.0,198.0,198.0,1915.1,1455.3,1920.0,700.0,Animal_Land_Pattern_Large,70.8416817500256,71.8534575420199,2.0,Animal_Land_Pattern_Large,4.0,,,,,,,,,,,
encoding,image,12,24942080,24943092,24942491.0,24943277.0,787.0,601.0,1867.0,1491.0,1920.0,700.0,Animal_Land_Pattern_Large,70.8416817500256,71.8534575420199,2.0,Animal_Land_Pattern_Large,4.0,,,,,,,,,,,
encoding,value,12,24943092,24949103,24943296.0,24943586.0,291.0,291.0,1926.6,1365.4,1920.0,700.0,Animal_Land_Pattern_Large,71.85358637501486,77.86453908297699,2.0,Animal_Land_Pattern_Large,4.0,,,,,,,,,,,
encoding,value,12,24943092,24949103,24943741.0,24944426.0,686.0,686.0,1932.2,1354.4,1920.0,700.0,Animal_Land_Pattern_Large,71.85358637501486,77.86453908297699,2.0,Animal_Land_Pattern_Large,4.0,,,,,,,,,,,
encoding,value,12,24943092,24949103,24944443.0,24944662.0,220.0,220.0,1914.4,1460.4,1920.0,700.0,Animal_Land_Pattern_Large,71.85358637501486,77.86453908297699,2.0,Animal_Land_Pattern_Large,4.0,,,,,,,,,,,
encoding,value,12,24943092,24949103,24944669.0,24944891.0,223.0,223.0,1941.6,1461.7,1920.0,700.0,Animal_Land_Pattern_Large,71.85358637501486,77.86453908297699,2.0,Animal_Land_Pattern_Large,4.0,,,,,,,,,,,
encoding,value,12,24943092,24949103,24945126.0,24945267.0,142.0,142.0,1805.1,1378.1,1920.0,700.0,Animal_Land_Pattern_Large,71.85358637501486,77.86453908297699,2.0,Animal_Land_Pattern_Large,4.0,,,,,,,,,,,
encoding,value,12,24943092,24949103,24945281.0,24945442.0,162.0,162.0,1904.8,1351.2,1920.0,700.0,Animal_Land_Pattern_Large,71.85358637501486,77.86453908297699,2.0,Animal_Land_Pattern_Large,4.0,,,,,,,,,,,
encoding,value,12,24943092,24949103,24945451.0,24945544.0,94.0,94.0,1945.9,1336.0,1920.0,700.0,Animal_Land_Pattern_Large,71.85358637501486,77.86453908297699,2.0,Animal_Land_Pattern_Large,4.0,,,,,,,,,,,
encoding,value,12,24943092,24949103,24945806.0,24946294.0,489.0,489.0,1884.9,1408.6,1920.0,700.0,Animal_Land_Pattern_Large,71.85358637501486,77.86453908297699,2.0,Animal_Land_Pattern_Large,4.0,,,,,,,,,,,
encoding,value,12,24943092,24949103,24946304.0,24946506.0,203.0,203.0,1927.9,1405.2,1920.0,700.0,Animal_Land_Pattern_Large,71.85358637501486,77.86453908297699,2.0,Animal_Land_Pattern_Large,4.0,,,,,,,,,,,
encoding,value,12,24943092,24949103,24946519.0,24946761.0,243.0,243.0,1916.1,1337.7,1920.0,700.0,Animal_Land_Pattern_Large,71.85358637501486,77.86453908297699,2.0,Animal_Land_Pattern_Large,4.0,,,,,,,,,,,
encoding,value,12,24943092,24949103,24946931.0,24947084.0,154.0,154.0,1914.7,1356.4,1920.0,700.0,Animal_Land_Pattern_Large,71.85358637501486,77.86453908297699,2.0,Animal_Land_Pattern_Large,4.0,,,,,,,,,,,
encoding,value,12,24943092,24949103,24947093.0,24948892.0,1800.0,1800.0,1931.8,1341.2,1920.0,700.0,Animal_Land_Pattern_Large,71.85358637501486,77.86453908297699,2.0,Animal_Land_Pattern_Large,4.0,,,,,,,,,,,
encoding,value,12,24943092,24949103,24948901.0,24949303.0,403.0,202.0,1933.8,1407.7,1920.0,700.0,Animal_Land_Pattern_Large,71.85358637501486,77.86453908297699,2.0,Animal_Land_Pattern_Large,4.0,,,,,,,,,,,
encoding,attention,12,24949103,24952124,24949320.0,24950066.0,747.0,747.0,1953.2,1335.2,1920.0,700.0,Animal_Land_Pattern_Large,77.8646422920283,80.88451929204166,2.0,Animal_Land_Pattern_Large,4.0,4.0,1.0,1.056770124938339,,,,,,,,
encoding,attention,12,24949103,24952124,24950076.0,24950451.0,376.0,376.0,1976.7,1311.5,1920.0,700.0,Animal_Land_Pattern_Large,77.8646422920283,80.88451929204166,2.0,Animal_Land_Pattern_Large,4.0,4.0,1.0,1.056770124938339,,,,,,,,
encoding,attention,12,24949103,24952124,24950614.0,24951645.0,1032.0,1032.0,1978.4,1326.1,1920.0,700.0,Animal_Land_Pattern_Large,77.8646422920283,80.88451929204166,2.0,Animal_Land_Pattern_Large,4.0,4.0,1.0,1.056770124938339,,,,,,,,
encoding,attention,12,24949103,24952124,24951867.0,24952062.0,196.0,196.0,1839.5,1441.4,1920.0,700.0,Animal_Land_Pattern_Large,77.8646422920283,80.88451929204166,2.0,Animal_Land_Pattern_Large,4.0,4.0,1.0,1.056770124938339,,,,,,,,
encoding,fixation,13,25306526,25307282,25306587.0,25306845.0,259.0,259.0,1870.6,1185.6,1920.0,700.0,Object_Sea_Solid_Large,13.873413458000869,14.62912120798137,3.0,Animal_Land_Pattern_Small,-5.0,,,,,,,,,,,
encoding,fixation,13,25306526,25307282,25306862.0,25307065.0,204.0,204.0,1907.2,1120.5,1920.0,1080.0,fixation,13.873413458000869,14.62912120798137,3.0,Animal_Land_Pattern_Small,-5.0,,,,,,,,,,,
encoding,fixation,13,25306526,25307282,25307095.0,25307429.0,335.0,187.0,1960.1,1348.6,1920.0,700.0,Object_Sea_Solid_Large,13.873413458000869,14.62912120798137,3.0,Animal_Land_Pattern_Small,-5.0,,,,,,,,,,,
encoding,image,13,25307282,25308294,25307454.0,25307590.0,137.0,137.0,1682.2,1244.9,1591.0,891.0,Animal_Land_Pattern_Small,14.62926104106009,15.64158704096917,3.0,Animal_Land_Pattern_Small,-5.0,,,,,,,,,,,
encoding,image,13,25307282,25308294,25307603.0,25307958.0,356.0,356.0,1600.1,1234.0,1591.0,891.0,Animal_Land_Pattern_Small,14.62926104106009,15.64158704096917,3.0,Animal_Land_Pattern_Small,-5.0,,,,,,,,,,,
encoding,image,13,25307282,25308294,25308138.0,25308446.0,309.0,156.0,1604.9,1241.4,1591.0,891.0,Animal_Land_Pattern_Small,14.62926104106009,15.64158704096917,3.0,Animal_Land_Pattern_Small,-5.0,,,,,,,,,,,
encoding,value,13,25308294,25314308,25308470.0,25308773.0,304.0,304.0,1602.6,1115.7,1591.0,891.0,Animal_Land_Pattern_Small,15.641720750019886,21.65493170800619,3.0,Animal_Land_Pattern_Small,-5.0,,,,,,,,,,,
encoding,value,13,25308294,25314308,25308974.0,25309103.0,130.0,130.0,1587.8,1163.2,1591.0,891.0,Animal_Land_Pattern_Small,15.641720750019886,21.65493170800619,3.0,Animal_Land_Pattern_Small,-5.0,,,,,,,,,,,
encoding,value,13,25308294,25314308,25309111.0,25309330.0,220.0,220.0,1592.1,1115.6,1591.0,891.0,Animal_Land_Pattern_Small,15.641720750019886,21.65493170800619,3.0,Animal_Land_Pattern_Small,-5.0,,,,,,,,,,,
encoding,value,13,25308294,25314308,25309349.0,25310250.0,902.0,902.0,1627.0,1235.9,1591.0,891.0,Animal_Land_Pattern_Small,15.641720750019886,21.65493170800619,3.0,Animal_Land_Pattern_Small,-5.0,,,,,,,,,,,
encoding,value,13,25308294,25314308,25310262.0,25310863.0,602.0,602.0,1586.8,1216.7,1591.0,891.0,Animal_Land_Pattern_Small,15.641720750019886,21.65493170800619,3.0,Animal_Land_Pattern_Small,-5.0,,,,,,,,,,,
encoding,value,13,25308294,25314308,25310895.0,25311046.0,152.0,152.0,1962.5,1236.2,1920.0,700.0,Object_Sea_Solid_Large,15.641720750019886,21.65493170800619,3.0,Animal_Land_Pattern_Small,-5.0,,,,,,,,,,,
encoding,value,13,25308294,25314308,25311242.0,25311595.0,354.0,354.0,1675.4,1229.3,1591.0,891.0,Animal_Land_Pattern_Small,15.641720750019886,21.65493170800619,3.0,Animal_Land_Pattern_Small,-5.0,,,,,,,,,,,
encoding,value,13,25308294,25314308,25311621.0,25311809.0,189.0,189.0,1923.9,1238.4,1920.0,700.0,Object_Sea_Solid_Large,15.641720750019886,21.65493170800619,3.0,Animal_Land_Pattern_Small,-5.0,,,,,,,,,,,
encoding,value,13,25308294,25314308,25311828.0,25311995.0,168.0,168.0,2074.4,1251.3,2249.0,891.0,Animal_Sea_Pattern_Large,15.641720750019886,21.65493170800619,3.0,Animal_Land_Pattern_Small,-5.0,,,,,,,,,,,
encoding,value,13,25308294,25314308,25312031.0,25312899.0,869.0,869.0,1641.5,1223.3,1591.0,891.0,Animal_Land_Pattern_Small,15.641720750019886,21.65493170800619,3.0,Animal_Land_Pattern_Small,-5.0,,,,,,,,,,,
encoding,value,13,25308294,25314308,25312922.0,25313222.0,301.0,301.0,1847.2,1151.1,1591.0,891.0,Animal_Land_Pattern_Small,15.641720750019886,21.65493170800619,3.0,Animal_Land_Pattern_Small,-5.0,,,,,,,,,,,
encoding,value,13,25308294,25314308,25313244.0,25313619.0,376.0,376.0,1619.2,1246.9,1591.0,891.0,Animal_Land_Pattern_Small,15.641720750019886,21.65493170800619,3.0,Animal_Land_Pattern_Small,-5.0,,,,,,,,,,,
encoding,value,13,25308294,25314308,25313812.0,25313940.0,129.0,129.0,1597.6,1179.5,1591.0,891.0,Animal_Land_Pattern_Small,15.641720750019886,21.65493170800619,3.0,Animal_Land_Pattern_Small,-5.0,,,,,,,,,,,
encoding,value,13,25308294,25314308,25313954.0,25315543.0,1590.0,354.0,1613.2,1128.0,1591.0,891.0,Animal_Land_Pattern_Small,15.641720750019886,21.65493170800619,3.0,Animal_Land_Pattern_Small,-5.0,,,,,,,,,,,
encoding,attention,13,25314308,25317320,,,,,,,,,none,21.65503050002735,24.666915375040844,3.0,Animal_Land_Pattern_Small,-5.0,,,,,,,,,,,
encoding,fixation,14,25317320,25318325,25317657.0,25317827.0,171.0,171.0,1841.7,1070.8,1591.0,1269.0,Object_Land_Pattern_Small,24.667064790963195,25.67203995794989,3.0,Object_Land_Solid_Small,2.0,,,,,,,,,,,
encoding,fixation,14,25317320,25318325,25317838.0,25318191.0,354.0,354.0,1855.5,1036.3,1591.0,1269.0,Object_Land_Pattern_Small,24.667064790963195,25.67203995794989,3.0,Object_Land_Solid_Small,2.0,,,,,,,,,,,
encoding,image,14,25318325,25319337,25318404.0,25318576.0,173.0,173.0,1835.6,1037.2,1591.0,1269.0,Object_Land_Pattern_Small,25.672143124975264,26.683453790959906,3.0,Object_Land_Solid_Small,2.0,,,,,,,,,,,
encoding,image,14,25318325,25319337,25318610.0,25318941.0,332.0,332.0,1863.4,715.4000000000001,1920.0,1460.0,Object_Land_Solid_Small,25.672143124975264,26.683453790959906,3.0,Object_Land_Solid_Small,2.0,,,,,,,,,,,
encoding,image,14,25318325,25319337,25318979.0,25319138.0,160.0,160.0,1887.3,1030.3,1920.0,1080.0,fixation,25.672143124975264,26.683453790959906,3.0,Object_Land_Solid_Small,2.0,,,,,,,,,,,
encoding,image,14,25318325,25319337,25319328.0,25319448.0,121.0,9.0,1856.4,1040.2,1591.0,1269.0,Object_Land_Pattern_Small,25.672143124975264,26.683453790959906,3.0,Object_Land_Solid_Small,2.0,,,,,,,,,,,
encoding,value,14,25319337,25325349,25319457.0,25319591.0,135.0,135.0,1885.4,1015.4000000000001,1920.0,1460.0,Object_Land_Solid_Small,26.68357624998316,32.69553095800802,3.0,Object_Land_Solid_Small,2.0,,,,,,,,,,,
encoding,value,14,25319337,25325349,25319644.0,25319736.0,93.0,93.0,1875.9,545.3,1920.0,1460.0,Object_Land_Solid_Small,26.68357624998316,32.69553095800802,3.0,Object_Land_Solid_Small,2.0,,,,,,,,,,,
encoding,value,14,25319337,25325349,25319750.0,25320113.0,364.0,364.0,1876.7,592.0,1920.0,1460.0,Object_Land_Solid_Small,26.68357624998316,32.69553095800802,3.0,Object_Land_Solid_Small,2.0,,,,,,,,,,,
encoding,value,14,25319337,25325349,25320308.0,25320330.0,23.0,23.0,1662.6,190.20000000000005,,,none,26.68357624998316,32.69553095800802,3.0,Object_Land_Solid_Small,2.0,,,,,,,,,,,
encoding,value,14,25319337,25325349,25320350.0,25320805.0,456.0,456.0,1860.3,581.0999999999999,1920.0,1460.0,Object_Land_Solid_Small,26.68357624998316,32.69553095800802,3.0,Object_Land_Solid_Small,2.0,,,,,,,,,,,
encoding,value,14,25319337,25325349,25320816.0,25321614.0,799.0,799.0,1898.2,661.7,1920.0,1460.0,Object_Land_Solid_Small,26.68357624998316,32.69553095800802,3.0,Object_Land_Solid_Small,2.0,,,,,,,,,,,
encoding,value,14,25319337,25325349,25321833.0,25322311.0,479.0,479.0,1883.6,669.5999999999999,1920.0,1460.0,Object_Land_Solid_Small,26.68357624998316,32.69553095800802,3.0,Object_Land_Solid_Small,2.0,,,,,,,,,,,
encoding,value,14,25319337,25325349,25322325.0,25322755.0,431.0,431.0,1902.9,583.5,1920.0,1460.0,Object_Land_Solid_Small,26.68357624998316,32.69553095800802,3.0,Object_Land_Solid_Small,2.0,,,,,,,,,,,
encoding,value,14,25319337,25325349,25323014.0,25323169.0,156.0,156.0,1885.0,611.2,1920.0,1460.0,Object_Land_Solid_Small,26.68357624998316,32.69553095800802,3.0,Object_Land_Solid_Small,2.0,,,,,,,,,,,
encoding,value,14,25319337,25325349,25323187.0,25325176.0,1990.0,1990.0,1869.2,591.2,1920.0,1460.0,Object_Land_Solid_Small,26.68357624998316,32.69553095800802,3.0,Object_Land_Solid_Small,2.0,,,,,,,,,,,
encoding,attention,14,25325349,25328369,25325406.0,25325415.0,10.0,10.0,1677.9,228.70000000000005,,,none,32.69565483299084,35.71525833301712,3.0,Object_Land_Solid_Small,2.0,2.0,1.0,0.9001753749325871,,,,,,,,
encoding,attention,14,25325349,25328369,25325434.0,25327229.0,1796.0,1796.0,1885.8,594.5999999999999,1920.0,1460.0,Object_Land_Solid_Small,32.69565483299084,35.71525833301712,3.0,Object_Land_Solid_Small,2.0,2.0,1.0,0.9001753749325871,,,,,,,,
encoding,attention,14,25325349,25328369,25327510.0,25328338.0,829.0,829.0,1913.9,670.2,1920.0,1460.0,Object_Land_Solid_Small,32.69565483299084,35.71525833301712,3.0,Object_Land_Solid_Small,2.0,2.0,1.0,0.9001753749325871,,,,,,,,
encoding,fixation,15,25328369,25328874,25328413.0,25328827.0,415.0,415.0,1914.1,1173.0,1920.0,700.0,Object_Sea_Solid_Large,35.715496791061014,36.220744833000936,3.0,Object_Sea_Solid_Large,-5.0,,,,,,,,,,,
encoding,fixation,15,25328369,25328874,25328854.0,25329062.0,209.0,20.0,2117.5,1424.4,1920.0,700.0,Object_Sea_Solid_Large,35.715496791061014,36.220744833000936,3.0,Object_Sea_Solid_Large,-5.0,,,,,,,,,,,
encoding,image,15,25328874,25329886,25329084.0,25329486.0,403.0,403.0,1916.8,1438.5,1920.0,700.0,Object_Sea_Solid_Large,36.22083849995397,37.23194233304821,3.0,Object_Sea_Solid_Large,-5.0,,,,,,,,,,,
encoding,image,15,25328874,25329886,25329722.0,25329832.0,111.0,111.0,1920.8,1377.2,1920.0,700.0,Object_Sea_Solid_Large,36.22083849995397,37.23194233304821,3.0,Object_Sea_Solid_Large,-5.0,,,,,,,,,,,
encoding,value,15,25329886,25335898,25330098.0,25330303.0,206.0,206.0,1917.8,1431.5,1920.0,700.0,Object_Sea_Solid_Large,37.232038625050336,43.243948332965374,3.0,Object_Sea_Solid_Large,-5.0,,,,,,,,,,,
encoding,value,15,25329886,25335898,25330321.0,25330507.0,187.0,187.0,1933.4,1313.5,1920.0,700.0,Object_Sea_Solid_Large,37.232038625050336,43.243948332965374,3.0,Object_Sea_Solid_Large,-5.0,,,,,,,,,,,
encoding,value,15,25329886,25335898,25330975.0,25331440.0,466.0,466.0,1953.4,1425.9,1920.0,700.0,Object_Sea_Solid_Large,37.232038625050336,43.243948332965374,3.0,Object_Sea_Solid_Large,-5.0,,,,,,,,,,,
encoding,value,15,25329886,25335898,25331447.0,25331702.0,256.0,256.0,1934.3,1412.4,1920.0,700.0,Object_Sea_Solid_Large,37.232038625050336,43.243948332965374,3.0,Object_Sea_Solid_Large,-5.0,,,,,,,,,,,
encoding,value,15,25329886,25335898,25331723.0,25332220.0,498.0,498.0,1930.4,1322.0,1920.0,700.0,Object_Sea_Solid_Large,37.232038625050336,43.243948332965374,3.0,Object_Sea_Solid_Large,-5.0,,,,,,,,,,,
encoding,value,15,25329886,25335898,25332232.0,25332508.0,277.0,277.0,1932.5,1392.4,1920.0,700.0,Object_Sea_Solid_Large,37.232038625050336,43.243948332965374,3.0,Object_Sea_Solid_Large,-5.0,,,,,,,,,,,
encoding,value,15,25329886,25335898,25332523.0,25332718.0,196.0,196.0,1935.8,1322.3,1920.0,700.0,Object_Sea_Solid_Large,37.232038625050336,43.243948332965374,3.0,Object_Sea_Solid_Large,-5.0,,,,,,,,,,,
encoding,value,15,25329886,25335898,25332902.0,25333223.0,322.0,322.0,1959.1,1329.1,1920.0,700.0,Object_Sea_Solid_Large,37.232038625050336,43.243948332965374,3.0,Object_Sea_Solid_Large,-5.0,,,,,,,,,,,
encoding,value,15,25329886,25335898,25333230.0,25333991.0,762.0,762.0,1948.7,1380.3,1920.0,700.0,Object_Sea_Solid_Large,37.232038625050336,43.243948332965374,3.0,Object_Sea_Solid_Large,-5.0,,,,,,,,,,,
encoding,value,15,25329886,25335898,25334223.0,25334370.0,148.0,148.0,1904.7,1355.7,1920.0,700.0,Object_Sea_Solid_Large,37.232038625050336,43.243948332965374,3.0,Object_Sea_Solid_Large,-5.0,,,,,,,,,,,
encoding,value,15,25329886,25335898,25334384.0,25335132.0,749.0,749.0,1917.2,1294.1,1920.0,700.0,Object_Sea_Solid_Large,37.232038625050336,43.243948332965374,3.0,Object_Sea_Solid_Large,-5.0,,,,,,,,,,,
encoding,value,15,25329886,25335898,25335527.0,25335719.0,193.0,193.0,1847.5,1353.2,1920.0,700.0,Object_Sea_Solid_Large,37.232038625050336,43.243948332965374,3.0,Object_Sea_Solid_Large,-5.0,,,,,,,,,,,
encoding,value,15,25329886,25335898,25335738.0,25336437.0,700.0,160.0,1906.3,1302.6,1920.0,700.0,Object_Sea_Solid_Large,37.232038625050336,43.243948332965374,3.0,Object_Sea_Solid_Large,-5.0,,,,,,,,,,,
encoding,attention,15,25335898,25338916,25336447.0,25336754.0,308.0,308.0,1871.2,1306.3,1920.0,700.0,Object_Sea_Solid_Large,43.24405862495769,46.2617552500451,3.0,Object_Sea_Solid_Large,-5.0,-5.0,1.0,1.3078405839623883,,,,,,,,
encoding,attention,15,25335898,25338916,25336767.0,25337786.0,1020.0,1020.0,1936.2,1288.5,1920.0,700.0,Object_Sea_Solid_Large,43.24405862495769,46.2617552500451,3.0,Object_Sea_Solid_Large,-5.0,-5.0,1.0,1.3078405839623883,,,,,,,,
encoding,attention,15,25335898,25338916,25337797.0,25338720.0,924.0,924.0,1875.3,1310.6,1920.0,700.0,Object_Sea_Solid_Large,43.24405862495769,46.2617552500451,3.0,Object_Sea_Solid_Large,-5.0,-5.0,1.0,1.3078405839623883,,,,,,,,
encoding,fixation,16,25338916,25339421,25338952.0,25339148.0,197.0,197.0,1954.5,1309.0,1920.0,700.0,Object_Sea_Solid_Large,46.26191254099831,46.76718066597823,3.0,Animal_Sea_Pattern_Large,2.0,,,,,,,,,,,
encoding,fixation,16,25338916,25339421,25339358.0,25339627.0,270.0,63.0,2015.2,1373.4,1920.0,700.0,Object_Sea_Solid_Large,46.26191254099831,46.76718066597823,3.0,Animal_Sea_Pattern_Large,2.0,,,,,,,,,,,
encoding,image,16,25339421,25340432,25339652.0,25340135.0,484.0,484.0,2207.1,1221.0,2249.0,891.0,Animal_Sea_Pattern_Large,46.767274165991694,47.77758166601416,3.0,Animal_Sea_Pattern_Large,2.0,,,,,,,,,,,
encoding,image,16,25339421,25340432,25340143.0,25340562.0,420.0,289.0,2174.3,1228.8,2249.0,891.0,Animal_Sea_Pattern_Large,46.767274165991694,47.77758166601416,3.0,Animal_Sea_Pattern_Large,2.0,,,,,,,,,,,
encoding,value,16,25340432,25346443,25340769.0,25341546.0,778.0,778.0,2255.4,1126.2,2249.0,891.0,Animal_Sea_Pattern_Large,47.77778208302334,53.788130208035,3.0,Animal_Sea_Pattern_Large,2.0,,,,,,,,,,,
encoding,value,16,25340432,25346443,25341561.0,25341812.0,252.0,252.0,2250.9,1216.9,2249.0,891.0,Animal_Sea_Pattern_Large,47.77778208302334,53.788130208035,3.0,Animal_Sea_Pattern_Large,2.0,,,,,,,,,,,
encoding,value,16,25340432,25346443,25341820.0,25342178.0,359.0,359.0,2207.3,1230.9,2249.0,891.0,Animal_Sea_Pattern_Large,47.77778208302334,53.788130208035,3.0,Animal_Sea_Pattern_Large,2.0,,,,,,,,,,,
encoding,value,16,25340432,25346443,25342427.0,25342545.0,119.0,119.0,2248.0,1090.1,2249.0,891.0,Animal_Sea_Pattern_Large,47.77778208302334,53.788130208035,3.0,Animal_Sea_Pattern_Large,2.0,,,,,,,,,,,
encoding,value,16,25340432,25346443,25342913.0,25343144.0,232.0,232.0,2022.5,1370.9,1920.0,700.0,Object_Sea_Solid_Large,47.77778208302334,53.788130208035,3.0,Animal_Sea_Pattern_Large,2.0,,,,,,,,,,,
encoding,value,16,25340432,25346443,25343159.0,25343350.0,192.0,192.0,1919.1,1383.6,1920.0,700.0,Object_Sea_Solid_Large,47.77778208302334,53.788130208035,3.0,Animal_Sea_Pattern_Large,2.0,,,,,,,,,,,
encoding,value,16,25340432,25346443,25344250.0,25344592.0,343.0,343.0,2125.2,1268.1,2249.0,891.0,Animal_Sea_Pattern_Large,47.77778208302334,53.788130208035,3.0,Animal_Sea_Pattern_Large,2.0,,,,,,,,,,,
encoding,value,16,25340432,25346443,25344928.0,25345159.0,232.0,232.0,1985.1,1065.6,1920.0,1080.0,fixation,47.77778208302334,53.788130208035,3.0,Animal_Sea_Pattern_Large,2.0,,,,,,,,,,,
encoding,value,16,25340432,25346443,25345184.0,25345444.0,261.0,261.0,1912.5,1092.5,1920.0,1080.0,fixation,47.77778208302334,53.788130208035,3.0,Animal_Sea_Pattern_Large,2.0,,,,,,,,,,,
encoding,value,16,25340432,25346443,25345471.0,25345707.0,237.0,237.0,2207.4,1192.1,2249.0,891.0,Animal_Sea_Pattern_Large,47.77778208302334,53.788130208035,3.0,Animal_Sea_Pattern_Large,2.0,,,,,,,,,,,
encoding,value,16,25340432,25346443,25345717.0,25346191.0,475.0,475.0,2257.9,1197.7,2249.0,891.0,Animal_Sea_Pattern_Large,47.77778208302334,53.788130208035,3.0,Animal_Sea_Pattern_Large,2.0,,,,,,,,,,,
encoding,value,16,25340432,25346443,25346211.0,25346654.0,444.0,232.0,2231.7,1125.8,2249.0,891.0,Animal_Sea_Pattern_Large,47.77778208302334,53.788130208035,3.0,Animal_Sea_Pattern_Large,2.0,,,,,,,,,,,
encoding,attention,16,25346443,25349459,25346663.0,25347442.0,780.0,780.0,2265.8,1122.8,2249.0,891.0,Animal_Sea_Pattern_Large,53.78829533304088,56.80449979100376,3.0,Animal_Sea_Pattern_Large,2.0,2.0,1.0,0.7290584159782156,,,,,,,,
encoding,attention,16,25346443,25349459,25347637.0,25347745.0,109.0,109.0,2187.8,1129.7,2249.0,891.0,Animal_Sea_Pattern_Large,53.78829533304088,56.80449979100376,3.0,Animal_Sea_Pattern_Large,2.0,2.0,1.0,0.7290584159782156,,,,,,,,
encoding,attention,16,25346443,25349459,25347755.0,25348319.0,565.0,565.0,2162.8,1097.3,2249.0,891.0,Animal_Sea_Pattern_Large,53.78829533304088,56.80449979100376,3.0,Animal_Sea_Pattern_Large,2.0,2.0,1.0,0.7290584159782156,,,,,,,,
encoding,attention,16,25346443,25349459,25348339.0,25348627.0,289.0,289.0,2212.7,1181.2,2249.0,891.0,Animal_Sea_Pattern_Large,53.78829533304088,56.80449979100376,3.0,Animal_Sea_Pattern_Large,2.0,2.0,1.0,0.7290584159782156,,,,,,,,
encoding,fixation,17,25349459,25350465,25349552.0,25349705.0,154.0,154.0,2233.9,1183.6,2249.0,891.0,Animal_Sea_Pattern_Large,56.804646124946885,57.810110875056125,3.0,Object_Land_Pattern_Small,2.0,,,,,,,,,,,
encoding,fixation,17,25349459,25350465,25349732.0,25349873.0,142.0,142.0,1929.2,1058.9,1920.0,1080.0,fixation,56.804646124946885,57.810110875056125,3.0,Object_Land_Pattern_Small,2.0,,,,,,,,,,,
encoding,fixation,17,25349459,25350465,25350085.0,25350280.0,196.0,196.0,1952.8,1273.3,1920.0,700.0,Object_Sea_Solid_Large,56.804646124946885,57.810110875056125,3.0,Object_Land_Pattern_Small,2.0,,,,,,,,,,,
encoding,fixation,17,25349459,25350465,25350305.0,25350630.0,326.0,160.0,2230.8,1325.9,2249.0,891.0,Animal_Sea_Pattern_Large,56.804646124946885,57.810110875056125,3.0,Object_Land_Pattern_Small,2.0,,,,,,,,,,,
encoding,image,17,25350465,25351476,25350687.0,25350865.0,179.0,179.0,1615.2,901.4000000000001,1591.0,1269.0,Object_Land_Pattern_Small,57.81023116596043,58.82149316603318,3.0,Object_Land_Pattern_Small,2.0,,,,,,,,,,,
encoding,image,17,25350465,25351476,25350874.0,25351211.0,338.0,338.0,1583.2,879.2,1591.0,1269.0,Object_Land_Pattern_Small,57.81023116596043,58.82149316603318,3.0,Object_Land_Pattern_Small,2.0,,,,,,,,,,,
encoding,image,17,25350465,25351476,25351253.0,25351415.0,163.0,163.0,1896.0,1015.3,1920.0,1080.0,fixation,57.81023116596043,58.82149316603318,3.0,Object_Land_Pattern_Small,2.0,,,,,,,,,,,
encoding,value,17,25351476,25357488,25351623.0,25351779.0,157.0,157.0,1573.8,836.9000000000001,1591.0,1269.0,Object_Land_Pattern_Small,58.82160100003239,64.83327216596808,3.0,Object_Land_Pattern_Small,2.0,,,,,,,,,,,
encoding,value,17,25351476,25357488,25351802.0,25352391.0,590.0,590.0,1594.2,758.3,1591.0,1269.0,Object_Land_Pattern_Small,58.82160100003239,64.83327216596808,3.0,Object_Land_Pattern_Small,2.0,,,,,,,,,,,
encoding,value,17,25351476,25357488,25352407.0,25352506.0,100.0,100.0,1611.7,825.0,1591.0,1269.0,Object_Land_Pattern_Small,58.82160100003239,64.83327216596808,3.0,Object_Land_Pattern_Small,2.0,,,,,,,,,,,
encoding,value,17,25351476,25357488,25353072.0,25353387.0,316.0,316.0,1606.0,828.0,1591.0,1269.0,Object_Land_Pattern_Small,58.82160100003239,64.83327216596808,3.0,Object_Land_Pattern_Small,2.0,,,,,,,,,,,
encoding,value,17,25351476,25357488,25353409.0,25353590.0,182.0,182.0,1572.1,814.8,1591.0,1269.0,Object_Land_Pattern_Small,58.82160100003239,64.83327216596808,3.0,Object_Land_Pattern_Small,2.0,,,,,,,,,,,
encoding,value,17,25351476,25357488,25353601.0,25354060.0,460.0,460.0,1597.7,767.8,1591.0,1269.0,Object_Land_Pattern_Small,58.82160100003239,64.83327216596808,3.0,Object_Land_Pattern_Small,2.0,,,,,,,,,,,
encoding,value,17,25351476,25357488,25354132.0,25354240.0,109.0,109.0,2502.8,679.5,,,none,58.82160100003239,64.83327216596808,3.0,Object_Land_Pattern_Small,2.0,,,,,,,,,,,
encoding,value,17,25351476,25357488,25354300.0,25354684.0,385.0,385.0,1588.7,809.5,1591.0,1269.0,Object_Land_Pattern_Small,58.82160100003239,64.83327216596808,3.0,Object_Land_Pattern_Small,2.0,,,,,,,,,,,
encoding,value,17,25351476,25357488,25354698.0,25356833.0,2136.0,2136.0,1578.8,766.3,1591.0,1269.0,Object_Land_Pattern_Small,58.82160100003239,64.83327216596808,3.0,Object_Land_Pattern_Small,2.0,,,,,,,,,,,
encoding,value,17,25351476,25357488,25356889.0,25356916.0,28.0,28.0,1371.8,270.4000000000001,,,none,58.82160100003239,64.83327216596808,3.0,Object_Land_Pattern_Small,2.0,,,,,,,,,,,
encoding,value,17,25351476,25357488,25356939.0,25357060.0,122.0,122.0,1528.8,718.8,1591.0,1269.0,Object_Land_Pattern_Small,58.82160100003239,64.83327216596808,3.0,Object_Land_Pattern_Small,2.0,,,,,,,,,,,
encoding,value,17,25351476,25357488,25357066.0,25358013.0,948.0,422.0,1590.7,764.0999999999999,1591.0,1269.0,Object_Land_Pattern_Small,58.82160100003239,64.83327216596808,3.0,Object_Land_Pattern_Small,2.0,,,,,,,,,,,
encoding,attention,17,25357488,25360507,25358025.0,25358548.0,524.0,524.0,1531.4,762.4000000000001,1591.0,1269.0,Object_Land_Pattern_Small,64.83339412498754,67.85249658301473,3.0,Object_Land_Pattern_Small,2.0,2.0,1.0,0.8030953749548644,,,,,,,,
encoding,attention,17,25357488,25360507,25358750.0,25358934.0,185.0,185.0,1534.0,571.7,,,none,64.83339412498754,67.85249658301473,3.0,Object_Land_Pattern_Small,2.0,2.0,1.0,0.8030953749548644,,,,,,,,
encoding,attention,17,25357488,25360507,25358950.0,25359843.0,894.0,894.0,1600.4,881.4000000000001,1591.0,1269.0,Object_Land_Pattern_Small,64.83339412498754,67.85249658301473,3.0,Object_Land_Pattern_Small,2.0,2.0,1.0,0.8030953749548644,,,,,,,,
encoding,attention,17,25357488,25360507,25359864.0,25360439.0,576.0,576.0,1645.9,761.0,1591.0,1269.0,Object_Land_Pattern_Small,64.83339412498754,67.85249658301473,3.0,Object_Land_Pattern_Small,2.0,2.0,1.0,0.8030953749548644,,,,,,,,
encoding,fixation,18,25360508,25362013,25360765.0,25360929.0,165.0,165.0,1620.3,811.0,1591.0,1269.0,Object_Land_Pattern_Small,67.85264691605698,69.35782466595992,3.0,Animal_Sea_Solid_Large,4.0,,,,,,,,,,,
encoding,fixation,18,25360508,25362013,25360954.0,25362200.0,1247.0,1059.0,1909.6,1049.8,1920.0,1080.0,fixation,67.85264691605698,69.35782466595992,3.0,Animal_Sea_Solid_Large,4.0,,,,,,,,,,,
encoding,image,18,25362013,25363024,25362241.0,25363172.0,932.0,783.0,2223.4,899.9000000000001,2249.0,1269.0,Animal_Sea_Solid_Large,69.3579309580382,70.36910787504166,3.0,Animal_Sea_Solid_Large,4.0,,,,,,,,,,,
encoding,value,18,25363024,25369037,25363379.0,25363702.0,324.0,324.0,2214.0,787.5999999999999,2249.0,1269.0,Animal_Sea_Solid_Large,70.36921712500043,76.38152554095723,3.0,Animal_Sea_Solid_Large,4.0,,,,,,,,,,,
encoding,value,18,25363024,25369037,25363726.0,25364141.0,416.0,416.0,2211.1,905.9000000000001,2249.0,1269.0,Animal_Sea_Solid_Large,70.36921712500043,76.38152554095723,3.0,Animal_Sea_Solid_Large,4.0,,,,,,,,,,,
encoding,value,18,25363024,25369037,25364158.0,25364517.0,360.0,360.0,2220.5,896.0999999999999,2249.0,1269.0,Animal_Sea_Solid_Large,70.36921712500043,76.38152554095723,3.0,Animal_Sea_Solid_Large,4.0,,,,,,,,,,,
encoding,value,18,25363024,25369037,25364723.0,25365027.0,305.0,305.0,2220.3,909.0,2249.0,1269.0,Animal_Sea_Solid_Large,70.36921712500043,76.38152554095723,3.0,Animal_Sea_Solid_Large,4.0,,,,,,,,,,,
encoding,value,18,25363024,25369037,25365049.0,25365239.0,191.0,191.0,2181.8,1092.6,2249.0,891.0,Animal_Sea_Pattern_Large,70.36921712500043,76.38152554095723,3.0,Animal_Sea_Solid_Large,4.0,,,,,,,,,,,
encoding,value,18,25363024,25369037,25365271.0,25365449.0,179.0,179.0,2190.7,977.4000000000001,2249.0,1269.0,Animal_Sea_Solid_Large,70.36921712500043,76.38152554095723,3.0,Animal_Sea_Solid_Large,4.0,,,,,,,,,,,
encoding,value,18,25363024,25369037,25365481.0,25365504.0,24.0,24.0,2212.8,799.2,2249.0,1269.0,Animal_Sea_Solid_Large,70.36921712500043,76.38152554095723,3.0,Animal_Sea_Solid_Large,4.0,,,,,,,,,,,
encoding,value,18,25363024,25369037,25365765.0,25365907.0,143.0,143.0,2168.3,807.5999999999999,2249.0,1269.0,Animal_Sea_Solid_Large,70.36921712500043,76.38152554095723,3.0,Animal_Sea_Solid_Large,4.0,,,,,,,,,,,
encoding,value,18,25363024,25369037,25365914.0,25366097.0,184.0,184.0,2201.7,815.0,2249.0,1269.0,Animal_Sea_Solid_Large,70.36921712500043,76.38152554095723,3.0,Animal_Sea_Solid_Large,4.0,,,,,,,,,,,
encoding,value,18,25363024,25369037,25366173.0,25366420.0,248.0,248.0,2115.8,1396.1,2249.0,891.0,Animal_Sea_Pattern_Large,70.36921712500043,76.38152554095723,3.0,Animal_Sea_Solid_Large,4.0,,,,,,,,,,,
encoding,value,18,25363024,25369037,25366493.0,25367029.0,537.0,537.0,2206.7,840.0,2249.0,1269.0,Animal_Sea_Solid_Large,70.36921712500043,76.38152554095723,3.0,Animal_Sea_Solid_Large,4.0,,,,,,,,,,,
encoding,value,18,25363024,25369037,25367040.0,25367188.0,149.0,149.0,2187.8,797.5,2249.0,1269.0,Animal_Sea_Solid_Large,70.36921712500043,76.38152554095723,3.0,Animal_Sea_Solid_Large,4.0,,,,,,,,,,,
encoding,value,18,25363024,25369037,25367198.0,25367458.0,261.0,261.0,2196.9,760.2,2249.0,1269.0,Animal_Sea_Solid_Large,70.36921712500043,76.38152554095723,3.0,Animal_Sea_Solid_Large,4.0,,,,,,,,,,,
encoding,value,18,25363024,25369037,25367483.0,25367653.0,171.0,171.0,2202.3,844.4000000000001,2249.0,1269.0,Animal_Sea_Solid_Large,70.36921712500043,76.38152554095723,3.0,Animal_Sea_Solid_Large,4.0,,,,,,,,,,,
encoding,value,18,25363024,25369037,25367858.0,25368212.0,355.0,355.0,2167.5,811.0999999999999,2249.0,1269.0,Animal_Sea_Solid_Large,70.36921712500043,76.38152554095723,3.0,Animal_Sea_Solid_Large,4.0,,,,,,,,,,,
encoding,value,18,25363024,25369037,25368230.0,25370140.0,1911.0,807.0,2205.2,752.5999999999999,2249.0,1269.0,Animal_Sea_Solid_Large,70.36921712500043,76.38152554095723,3.0,Animal_Sea_Solid_Large,4.0,,,,,,,,,,,
encoding,attention,18,25369037,25372055,25370309.0,25371267.0,959.0,959.0,2158.5,733.9000000000001,2249.0,1269.0,Animal_Sea_Solid_Large,76.38163541594986,79.39981412503403,3.0,Animal_Sea_Solid_Large,4.0,4.0,1.0,0.8405928749125451,,,,,,,,
encoding,attention,18,25369037,25372055,25371284.0,25371463.0,180.0,180.0,2209.8,884.9000000000001,2249.0,1269.0,Animal_Sea_Solid_Large,76.38163541594986,79.39981412503403,3.0,Animal_Sea_Solid_Large,4.0,4.0,1.0,0.8405928749125451,,,,,,,,
encoding,attention,18,25369037,25372055,25371694.0,25371971.0,278.0,278.0,2203.9,805.8,2249.0,1269.0,Animal_Sea_Solid_Large,76.38163541594986,79.39981412503403,3.0,Animal_Sea_Solid_Large,4.0,4.0,1.0,0.8405928749125451,,,,,,,,
encoding,fixation,19,25694888,25695893,25694984.0,25695155.0,172.0,172.0,1897.6,1171.2,1920.0,700.0,Object_Land_Solid_Large,6.00753729196731,7.012596374959685,4.0,Object_Land_Pattern_Large,9.0,,,,,,,,,,,
encoding,fixation,19,25694888,25695893,25695175.0,25695422.0,248.0,248.0,1921.4,1077.4,1920.0,1080.0,fixation,6.00753729196731,7.012596374959685,4.0,Object_Land_Pattern_Large,9.0,,,,,,,,,,,
encoding,fixation,19,25694888,25695893,25695451.0,25695676.0,226.0,226.0,1919.6,1287.5,1920.0,700.0,Object_Land_Solid_Large,6.00753729196731,7.012596374959685,4.0,Object_Land_Pattern_Large,9.0,,,,,,,,,,,
encoding,fixation,19,25694888,25695893,25695847.0,25696061.0,215.0,46.0,1880.9,1242.2,1920.0,700.0,Object_Land_Solid_Large,6.00753729196731,7.012596374959685,4.0,Object_Land_Pattern_Large,9.0,,,,,,,,,,,
encoding,image,19,25695893,25696905,25696092.0,25696224.0,133.0,133.0,1672.0,901.5,1591.0,1269.0,Object_Land_Pattern_Large,7.012711834046058,8.024914500070736,4.0,Object_Land_Pattern_Large,9.0,,,,,,,,,,,
encoding,image,19,25695893,25696905,25696244.0,25696823.0,580.0,580.0,1585.1,863.2,1591.0,1269.0,Object_Land_Pattern_Large,7.012711834046058,8.024914500070736,4.0,Object_Land_Pattern_Large,9.0,,,,,,,,,,,
encoding,image,19,25695893,25696905,25696840.0,25697099.0,260.0,65.0,1570.6,778.0,1591.0,1269.0,Object_Land_Pattern_Large,7.012711834046058,8.024914500070736,4.0,Object_Land_Pattern_Large,9.0,,,,,,,,,,,
encoding,value,19,25696905,25702920,25697108.0,25697410.0,303.0,303.0,1570.8,747.5,1591.0,1269.0,Object_Land_Pattern_Large,8.025039833970368,14.039152375073172,4.0,Object_Land_Pattern_Large,9.0,,,,,,,,,,,
encoding,value,19,25696905,25702920,25697571.0,25697693.0,123.0,123.0,1519.5,686.7,1591.0,1269.0,Object_Land_Pattern_Large,8.025039833970368,14.039152375073172,4.0,Object_Land_Pattern_Large,9.0,,,,,,,,,,,
encoding,value,19,25696905,25702920,25697941.0,25699432.0,1492.0,1492.0,1584.1,841.7,1591.0,1269.0,Object_Land_Pattern_Large,8.025039833970368,14.039152375073172,4.0,Object_Land_Pattern_Large,9.0,,,,,,,,,,,
encoding,value,19,25696905,25702920,25699440.0,25699720.0,281.0,281.0,1590.7,818.7,1591.0,1269.0,Object_Land_Pattern_Large,8.025039833970368,14.039152375073172,4.0,Object_Land_Pattern_Large,9.0,,,,,,,,,,,
encoding,value,19,25696905,25702920,25699735.0,25699839.0,105.0,105.0,1546.2,750.0999999999999,1591.0,1269.0,Object_Land_Pattern_Large,8.025039833970368,14.039152375073172,4.0,Object_Land_Pattern_Large,9.0,,,,,,,,,,,
encoding,value,19,25696905,25702920,25699999.0,25700143.0,145.0,145.0,1429.6,487.70000000000005,,,none,8.025039833970368,14.039152375073172,4.0,Object_Land_Pattern_Large,9.0,,,,,,,,,,,
encoding,value,19,25696905,25702920,25700410.0,25700818.0,409.0,409.0,1536.5,775.8,1591.0,1269.0,Object_Land_Pattern_Large,8.025039833970368,14.039152375073172,4.0,Object_Land_Pattern_Large,9.0,,,,,,,,,,,
encoding,value,19,25696905,25702920,25700826.0,25701577.0,752.0,752.0,1568.6,735.4000000000001,1591.0,1269.0,Object_Land_Pattern_Large,8.025039833970368,14.039152375073172,4.0,Object_Land_Pattern_Large,9.0,,,,,,,,,,,
encoding,value,19,25696905,25702920,25701586.0,25701807.0,222.0,222.0,1623.2,740.5,1591.0,1269.0,Object_Land_Pattern_Large,8.025039833970368,14.039152375073172,4.0,Object_Land_Pattern_Large,9.0,,,,,,,,,,,
encoding,value,19,25696905,25702920,25701815.0,25702101.0,287.0,287.0,1572.1,756.4000000000001,1591.0,1269.0,Object_Land_Pattern_Large,8.025039833970368,14.039152375073172,4.0,Object_Land_Pattern_Large,9.0,,,,,,,,,,,
encoding,value,19,25696905,25702920,25702112.0,25702541.0,430.0,430.0,1548.1,715.9000000000001,1591.0,1269.0,Object_Land_Pattern_Large,8.025039833970368,14.039152375073172,4.0,Object_Land_Pattern_Large,9.0,,,,,,,,,,,
encoding,value,19,25696905,25702920,25702730.0,25703000.0,271.0,190.0,1529.1,727.9000000000001,1591.0,1269.0,Object_Land_Pattern_Large,8.025039833970368,14.039152375073172,4.0,Object_Land_Pattern_Large,9.0,,,,,,,,,,,
encoding,attention,19,25702920,25705940,25703008.0,25703757.0,750.0,750.0,1587.3,726.3,1591.0,1269.0,Object_Land_Pattern_Large,14.039278167067096,17.059297166997567,4.0,Object_Land_Pattern_Large,9.0,9.0,1.0,1.4987659169128165,,,,,,,,
encoding,attention,19,25702920,25705940,25703995.0,25704703.0,709.0,709.0,1563.9,721.5999999999999,1591.0,1269.0,Object_Land_Pattern_Large,14.039278167067096,17.059297166997567,4.0,Object_Land_Pattern_Large,9.0,9.0,1.0,1.4987659169128165,,,,,,,,
encoding,attention,19,25702920,25705940,25704889.0,25705325.0,437.0,437.0,1549.8,829.2,1591.0,1269.0,Object_Land_Pattern_Large,14.039278167067096,17.059297166997567,4.0,Object_Land_Pattern_Large,9.0,9.0,1.0,1.4987659169128165,,,,,,,,
encoding,attention,19,25702920,25705940,25705596.0,25705786.0,191.0,191.0,1597.2,939.5,1591.0,1269.0,Object_Land_Pattern_Large,14.039278167067096,17.059297166997567,4.0,Object_Land_Pattern_Large,9.0,9.0,1.0,1.4987659169128165,,,,,,,,
encoding,fixation,20,25705940,25706447,25706021.0,25706144.0,124.0,124.0,1551.7,747.9000000000001,1591.0,1269.0,Object_Land_Pattern_Large,17.059445917024277,17.566027499968186,4.0,Object_Sea_Solid_Small,9.0,,,,,,,,,,,
encoding,fixation,20,25705940,25706447,25706187.0,25706453.0,267.0,260.0,1894.0,1072.7,1920.0,1080.0,fixation,17.059445917024277,17.566027499968186,4.0,Object_Sea_Solid_Small,9.0,,,,,,,,,,,
encoding,image,20,25706447,25707457,25706489.0,25706686.0,198.0,198.0,2024.4,1384.0,1920.0,700.0,Object_Land_Solid_Large,17.566146249999292,18.576392084010877,4.0,Object_Sea_Solid_Small,9.0,,,,,,,,,,,
encoding,image,20,25706447,25707457,25706732.0,25707198.0,467.0,467.0,1590.0,1287.3,1591.0,891.0,Object_Sea_Solid_Small,17.566146249999292,18.576392084010877,4.0,Object_Sea_Solid_Small,9.0,,,,,,,,,,,
encoding,image,20,25706447,25707457,25707383.0,25707664.0,282.0,74.0,1577.7,1280.5,1591.0,891.0,Object_Sea_Solid_Small,17.566146249999292,18.576392084010877,4.0,Object_Sea_Solid_Small,9.0,,,,,,,,,,,
encoding,value,20,25707457,25713469,25707687.0,25708014.0,328.0,328.0,1591.2,1131.0,1591.0,891.0,Object_Sea_Solid_Small,18.57651837496087,24.588120667031035,4.0,Object_Sea_Solid_Small,9.0,,,,,,,,,,,
encoding,value,20,25707457,25713469,25708035.0,25708501.0,467.0,467.0,1583.5,1254.0,1591.0,891.0,Object_Sea_Solid_Small,18.57651837496087,24.588120667031035,4.0,Object_Sea_Solid_Small,9.0,,,,,,,,,,,
encoding,value,20,25707457,25713469,25708726.0,25708843.0,118.0,118.0,1533.4,1277.3,1591.0,891.0,Object_Sea_Solid_Small,18.57651837496087,24.588120667031035,4.0,Object_Sea_Solid_Small,9.0,,,,,,,,,,,
encoding,value,20,25707457,25713469,25708851.0,25709063.0,213.0,213.0,1584.5,1249.3,1591.0,891.0,Object_Sea_Solid_Small,18.57651837496087,24.588120667031035,4.0,Object_Sea_Solid_Small,9.0,,,,,,,,,,,
encoding,value,20,25707457,25713469,25709088.0,25709836.0,749.0,749.0,1588.6,1119.2,1591.0,891.0,Object_Sea_Solid_Small,18.57651837496087,24.588120667031035,4.0,Object_Sea_Solid_Small,9.0,,,,,,,,,,,
encoding,value,20,25707457,25713469,25709843.0,25710047.0,205.0,205.0,1613.8,1146.1,1591.0,891.0,Object_Sea_Solid_Small,18.57651837496087,24.588120667031035,4.0,Object_Sea_Solid_Small,9.0,,,,,,,,,,,
encoding,value,20,25707457,25713469,25710063.0,25710335.0,273.0,273.0,1590.7,1121.6,1591.0,891.0,Object_Sea_Solid_Small,18.57651837496087,24.588120667031035,4.0,Object_Sea_Solid_Small,9.0,,,,,,,,,,,
encoding,value,20,25707457,25713469,25710470.0,25710889.0,420.0,420.0,1575.8,1180.8,1591.0,891.0,Object_Sea_Solid_Small,18.57651837496087,24.588120667031035,4.0,Object_Sea_Solid_Small,9.0,,,,,,,,,,,
encoding,value,20,25707457,25713469,25710897.0,25711083.0,187.0,187.0,1608.2,1180.5,1591.0,891.0,Object_Sea_Solid_Small,18.57651837496087,24.588120667031035,4.0,Object_Sea_Solid_Small,9.0,,,,,,,,,,,
encoding,value,20,25707457,25713469,25711099.0,25711331.0,233.0,233.0,1581.3,1113.3,1591.0,891.0,Object_Sea_Solid_Small,18.57651837496087,24.588120667031035,4.0,Object_Sea_Solid_Small,9.0,,,,,,,,,,,
encoding,value,20,25707457,25713469,25711553.0,25713976.0,2424.0,1916.0,1592.6,1126.3,1591.0,891.0,Object_Sea_Solid_Small,18.57651837496087,24.588120667031035,4.0,Object_Sea_Solid_Small,9.0,,,,,,,,,,,
encoding,attention,20,25713469,25716486,25714146.0,25714375.0,230.0,230.0,1577.1,1139.0,1591.0,891.0,Object_Sea_Solid_Small,24.58823366696015,27.604942208970897,4.0,Object_Sea_Solid_Small,9.0,9.0,1.0,0.7113095000386238,,,,,,,,
encoding,attention,20,25713469,25716486,25714385.0,25714520.0,136.0,136.0,1614.3,1101.3,1591.0,891.0,Object_Sea_Solid_Small,24.58823366696015,27.604942208970897,4.0,Object_Sea_Solid_Small,9.0,9.0,1.0,0.7113095000386238,,,,,,,,
encoding,attention,20,25713469,25716486,25714713.0,25715509.0,797.0,797.0,1558.5,1135.4,1591.0,891.0,Object_Sea_Solid_Small,24.58823366696015,27.604942208970897,4.0,Object_Sea_Solid_Small,9.0,9.0,1.0,0.7113095000386238,,,,,,,,
encoding,attention,20,25713469,25716486,25715522.0,25716034.0,513.0,513.0,1638.9,1121.4,1591.0,891.0,Object_Sea_Solid_Small,24.58823366696015,27.604942208970897,4.0,Object_Sea_Solid_Small,9.0,9.0,1.0,0.7113095000386238,,,,,,,,
encoding,attention,20,25713469,25716486,25716060.0,25716405.0,346.0,346.0,1597.4,1258.7,1591.0,891.0,Object_Sea_Solid_Small,24.58823366696015,27.604942208970897,4.0,Object_Sea_Solid_Small,9.0,9.0,1.0,0.7113095000386238,,,,,,,,
encoding,fixation,21,25716486,25717491,25716726.0,25717162.0,437.0,437.0,1906.2,1029.7,1920.0,1080.0,fixation,27.60510074999183,28.610167959006503,4.0,Animal_Land_Solid_Small,8.0,,,,,,,,,,,
encoding,fixation,21,25716486,25717491,25717195.0,25717455.0,261.0,261.0,2105.9,1296.8,2249.0,891.0,Animal_Sea_Pattern_Large,27.60510074999183,28.610167959006503,4.0,Animal_Land_Solid_Small,8.0,,,,,,,,,,,
encoding,fixation,21,25716486,25717491,25717490.0,25717698.0,209.0,1.0,1968.4,1183.8,1920.0,700.0,Object_Land_Solid_Large,27.60510074999183,28.610167959006503,4.0,Animal_Land_Solid_Small,8.0,,,,,,,,,,,
encoding,image,21,25717492,25718503,25717740.0,25717926.0,187.0,187.0,2225.9,823.4000000000001,2249.0,1269.0,Animal_Land_Solid_Small,28.610285541974008,29.621108041959815,4.0,Animal_Land_Solid_Small,8.0,,,,,,,,,,,
encoding,image,21,25717492,25718503,25717939.0,25718206.0,268.0,268.0,2242.6,890.0999999999999,2249.0,1269.0,Animal_Land_Solid_Small,28.610285541974008,29.621108041959815,4.0,Animal_Land_Solid_Small,8.0,,,,,,,,,,,
encoding,image,21,25717492,25718503,25718395.0,25718760.0,366.0,108.0,2218.6,867.0,2249.0,1269.0,Animal_Land_Solid_Small,28.610285541974008,29.621108041959815,4.0,Animal_Land_Solid_Small,8.0,,,,,,,,,,,
encoding,value,21,25718503,25724515,25718782.0,25719053.0,272.0,272.0,2204.1,750.8,2249.0,1269.0,Animal_Land_Solid_Small,29.621209917007945,35.63345416705124,4.0,Animal_Land_Solid_Small,8.0,,,,,,,,,,,
encoding,value,21,25718503,25724515,25719073.0,25719140.0,68.0,68.0,2230.6,856.3,2249.0,1269.0,Animal_Land_Solid_Small,29.621209917007945,35.63345416705124,4.0,Animal_Land_Solid_Small,8.0,,,,,,,,,,,
encoding,value,21,25718503,25724515,25719381.0,25719406.0,26.0,26.0,1829.5,490.79999999999995,,,none,29.621209917007945,35.63345416705124,4.0,Animal_Land_Solid_Small,8.0,,,,,,,,,,,
encoding,value,21,25718503,25724515,25719638.0,25719838.0,201.0,201.0,2185.8,830.9000000000001,2249.0,1269.0,Animal_Land_Solid_Small,29.621209917007945,35.63345416705124,4.0,Animal_Land_Solid_Small,8.0,,,,,,,,,,,
encoding,value,21,25718503,25724515,25719855.0,25720319.0,465.0,465.0,2232.9,867.7,2249.0,1269.0,Animal_Land_Solid_Small,29.621209917007945,35.63345416705124,4.0,Animal_Land_Solid_Small,8.0,,,,,,,,,,,
encoding,value,21,25718503,25724515,25720340.0,25720745.0,406.0,406.0,2217.5,764.8,2249.0,1269.0,Animal_Land_Solid_Small,29.621209917007945,35.63345416705124,4.0,Animal_Land_Solid_Small,8.0,,,,,,,,,,,
encoding,value,21,25718503,25724515,25720754.0,25720924.0,171.0,171.0,2233.4,831.8,2249.0,1269.0,Animal_Land_Solid_Small,29.621209917007945,35.63345416705124,4.0,Animal_Land_Solid_Small,8.0,,,,,,,,,,,
encoding,value,21,25718503,25724515,25720932.0,25722117.0,1186.0,1186.0,2244.5,875.8,2249.0,1269.0,Animal_Land_Solid_Small,29.621209917007945,35.63345416705124,4.0,Animal_Land_Solid_Small,8.0,,,,,,,,,,,
encoding,value,21,25718503,25724515,25722142.0,25722299.0,158.0,158.0,1999.4,966.0,2249.0,1269.0,Animal_Land_Solid_Small,29.621209917007945,35.63345416705124,4.0,Animal_Land_Solid_Small,8.0,,,,,,,,,,,
encoding,value,21,25718503,25724515,25722314.0,25722588.0,275.0,275.0,1913.7,1014.0,1920.0,1080.0,fixation,29.621209917007945,35.63345416705124,4.0,Animal_Land_Solid_Small,8.0,,,,,,,,,,,
encoding,value,21,25718503,25724515,25722620.0,25724291.0,1672.0,1672.0,2205.2,759.0,2249.0,1269.0,Animal_Land_Solid_Small,29.621209917007945,35.63345416705124,4.0,Animal_Land_Solid_Small,8.0,,,,,,,,,,,
encoding,value,21,25718503,25724515,25724299.0,25725627.0,1329.0,216.0,2224.6,736.2,2249.0,1269.0,Animal_Land_Solid_Small,29.621209917007945,35.63345416705124,4.0,Animal_Land_Solid_Small,8.0,,,,,,,,,,,
encoding,attention,21,25724515,25727532,25725913.0,25726119.0,207.0,207.0,2207.5,765.9000000000001,2249.0,1269.0,Animal_Land_Solid_Small,35.633584124967456,38.65047216706443,4.0,Animal_Land_Solid_Small,8.0,8.0,1.0,0.8102187919430435,,,,,,,,
encoding,attention,21,25724515,25727532,25726128.0,25726776.0,649.0,649.0,2229.0,865.0,2249.0,1269.0,Animal_Land_Solid_Small,35.633584124967456,38.65047216706443,4.0,Animal_Land_Solid_Small,8.0,8.0,1.0,0.8102187919430435,,,,,,,,
encoding,attention,21,25724515,25727532,25726796.0,25727319.0,524.0,524.0,2243.1,749.5,2249.0,1269.0,Animal_Land_Solid_Small,35.633584124967456,38.65047216706443,4.0,Animal_Land_Solid_Small,8.0,8.0,1.0,0.8102187919430435,,,,,,,,
encoding,fixation,22,25727532,25728787,25727629.0,25727804.0,176.0,176.0,2220.6,747.2,2249.0,1269.0,Animal_Land_Solid_Small,38.650639416999184,39.90551816707011,4.0,Object_Land_Solid_Large,-9.0,,,,,,,,,,,
encoding,fixation,22,25727532,25728787,25727849.0,25728113.0,265.0,265.0,1896.1,1039.7,1920.0,1080.0,fixation,38.650639416999184,39.90551816707011,4.0,Object_Land_Solid_Large,-9.0,,,,,,,,,,,
encoding,fixation,22,25727532,25728787,25728152.0,25728421.0,270.0,270.0,2141.1,1330.4,2249.0,891.0,Animal_Sea_Pattern_Large,38.650639416999184,39.90551816707011,4.0,Object_Land_Solid_Large,-9.0,,,,,,,,,,,
encoding,fixation,22,25727532,25728787,25728441.0,25728942.0,502.0,346.0,2300.2,1278.0,2249.0,891.0,Animal_Sea_Pattern_Large,38.650639416999184,39.90551816707011,4.0,Object_Land_Solid_Large,-9.0,,,,,,,,,,,
encoding,image,22,25728788,25729798,25728982.0,25729635.0,654.0,654.0,1921.3,1414.3,1920.0,700.0,Object_Land_Solid_Large,39.90564179199282,40.91593633405864,4.0,Object_Land_Solid_Large,-9.0,,,,,,,,,,,
encoding,value,22,25729798,25735809,25729822.0,25730005.0,184.0,184.0,1900.8,1413.0,1920.0,700.0,Object_Land_Solid_Large,40.91606950003188,46.92713441699743,4.0,Object_Land_Solid_Large,-9.0,,,,,,,,,,,
encoding,value,22,25729798,25735809,25730027.0,25730194.0,168.0,168.0,1904.9,1325.3,1920.0,700.0,Object_Land_Solid_Large,40.91606950003188,46.92713441699743,4.0,Object_Land_Solid_Large,-9.0,,,,,,,,,,,
encoding,value,22,25729798,25735809,25730201.0,25730370.0,170.0,170.0,1892.5,1295.8,1920.0,700.0,Object_Land_Solid_Large,40.91606950003188,46.92713441699743,4.0,Object_Land_Solid_Large,-9.0,,,,,,,,,,,
encoding,value,22,25729798,25735809,25730386.0,25730616.0,231.0,231.0,1895.5,1371.1,1920.0,700.0,Object_Land_Solid_Large,40.91606950003188,46.92713441699743,4.0,Object_Land_Solid_Large,-9.0,,,,,,,,,,,
encoding,value,22,25729798,25735809,25730628.0,25730726.0,99.0,99.0,1862.8,1367.3,1920.0,700.0,Object_Land_Solid_Large,40.91606950003188,46.92713441699743,4.0,Object_Land_Solid_Large,-9.0,,,,,,,,,,,
encoding,value,22,25729798,25735809,25730735.0,25730797.0,63.0,63.0,1842.9,1207.5,1591.0,891.0,Object_Sea_Solid_Small,40.91606950003188,46.92713441699743,4.0,Object_Land_Solid_Large,-9.0,,,,,,,,,,,
encoding,value,22,25729798,25735809,25730806.0,25731155.0,350.0,350.0,1858.5,1339.1,1920.0,700.0,Object_Land_Solid_Large,40.91606950003188,46.92713441699743,4.0,Object_Land_Solid_Large,-9.0,,,,,,,,,,,
encoding,value,22,25729798,25735809,25731164.0,25731187.0,24.0,24.0,1870.0,1454.6,1920.0,700.0,Object_Land_Solid_Large,40.91606950003188,46.92713441699743,4.0,Object_Land_Solid_Large,-9.0,,,,,,,,,,,
encoding,value,22,25729798,25735809,25731387.0,25731649.0,263.0,263.0,1880.9,1384.2,1920.0,700.0,Object_Land_Solid_Large,40.91606950003188,46.92713441699743,4.0,Object_Land_Solid_Large,-9.0,,,,,,,,,,,
encoding,value,22,25729798,25735809,25731666.0,25733474.0,1809.0,1809.0,1893.1,1304.9,1920.0,700.0,Object_Land_Solid_Large,40.91606950003188,46.92713441699743,4.0,Object_Land_Solid_Large,-9.0,,,,,,,,,,,
encoding,value,22,25729798,25735809,25733710.0,25734704.0,995.0,995.0,1909.8,1415.2,1920.0,700.0,Object_Land_Solid_Large,40.91606950003188,46.92713441699743,4.0,Object_Land_Solid_Large,-9.0,,,,,,,,,,,
encoding,value,22,25729798,25735809,25734723.0,25734885.0,163.0,163.0,1880.5,1348.4,1920.0,700.0,Object_Land_Solid_Large,40.91606950003188,46.92713441699743,4.0,Object_Land_Solid_Large,-9.0,,,,,,,,,,,
encoding,value,22,25729798,25735809,25734903.0,25735173.0,271.0,271.0,1885.5,1267.6,1920.0,700.0,Object_Land_Solid_Large,40.91606950003188,46.92713441699743,4.0,Object_Land_Solid_Large,-9.0,,,,,,,,,,,
encoding,value,22,25729798,25735809,25735410.0,25735751.0,342.0,342.0,1868.2,1306.7,1920.0,700.0,Object_Land_Solid_Large,40.91606950003188,46.92713441699743,4.0,Object_Land_Solid_Large,-9.0,,,,,,,,,,,
encoding,attention,22,25735810,25738826,25736069.0,25736356.0,288.0,288.0,1863.3,1312.6,1920.0,700.0,Object_Land_Solid_Large,46.927274625049904,49.94381600001361,4.0,Object_Land_Solid_Large,-9.0,-9.0,1.0,1.755359624978155,,,,,,,,
encoding,attention,22,25735810,25738826,25736368.0,25736969.0,602.0,602.0,1920.2,1287.0,1920.0,700.0,Object_Land_Solid_Large,46.927274625049904,49.94381600001361,4.0,Object_Land_Solid_Large,-9.0,-9.0,1.0,1.755359624978155,,,,,,,,
encoding,attention,22,25735810,25738826,25736982.0,25737149.0,168.0,168.0,1854.7,1314.0,1920.0,700.0,Object_Land_Solid_Large,46.927274625049904,49.94381600001361,4.0,Object_Land_Solid_Large,-9.0,-9.0,1.0,1.755359624978155,,,,,,,,
encoding,attention,22,25735810,25738826,25737157.0,25737829.0,673.0,673.0,1839.5,1280.3,1920.0,700.0,Object_Land_Solid_Large,46.927274625049904,49.94381600001361,4.0,Object_Land_Solid_Large,-9.0,-9.0,1.0,1.755359624978155,,,,,,,,
encoding,attention,22,25735810,25738826,25738017.0,25738100.0,84.0,84.0,1645.9,1127.2,1591.0,891.0,Object_Sea_Solid_Small,46.927274625049904,49.94381600001361,4.0,Object_Land_Solid_Large,-9.0,-9.0,1.0,1.755359624978155,,,,,,,,
encoding,attention,22,25735810,25738826,25738114.0,25738354.0,241.0,241.0,1867.0,1391.0,1920.0,700.0,Object_Land_Solid_Large,46.927274625049904,49.94381600001361,4.0,Object_Land_Solid_Large,-9.0,-9.0,1.0,1.755359624978155,,,,,,,,
encoding,attention,22,25735810,25738826,25738629.0,25738693.0,65.0,65.0,1452.7,780.3,1591.0,1269.0,Object_Land_Pattern_Large,46.927274625049904,49.94381600001361,4.0,Object_Land_Solid_Large,-9.0,-9.0,1.0,1.755359624978155,,,,,,,,
encoding,fixation,23,25738826,25739831,25739331.0,25739507.0,177.0,177.0,1874.6,1227.2,1920.0,700.0,Object_Land_Solid_Large,49.943965833983384,50.94900345907081,4.0,Animal_Sea_Pattern_Large,-1.0,,,,,,,,,,,
encoding,fixation,23,25738826,25739831,25739530.0,25739798.0,269.0,269.0,1931.0,1093.7,1920.0,1080.0,fixation,49.943965833983384,50.94900345907081,4.0,Animal_Sea_Pattern_Large,-1.0,,,,,,,,,,,
encoding,image,23,25739831,25740842,25739835.0,25740024.0,190.0,190.0,1946.1,1258.2,1920.0,700.0,Object_Land_Solid_Large,50.94912224996369,51.959487959044054,4.0,Animal_Sea_Pattern_Large,-1.0,,,,,,,,,,,
encoding,image,23,25739831,25740842,25740046.0,25740576.0,531.0,531.0,2192.1,1217.8,2249.0,891.0,Animal_Sea_Pattern_Large,50.94912224996369,51.959487959044054,4.0,Animal_Sea_Pattern_Large,-1.0,,,,,,,,,,,
encoding,image,23,25739831,25740842,25740783.0,25740918.0,136.0,59.0,2178.3,1219.1,2249.0,891.0,Animal_Sea_Pattern_Large,50.94912224996369,51.959487959044054,4.0,Animal_Sea_Pattern_Large,-1.0,,,,,,,,,,,
encoding,value,23,25740842,25746854,25741174.0,25741607.0,434.0,434.0,2192.9,1173.0,2249.0,891.0,Animal_Sea_Pattern_Large,51.95960641698912,57.97114841698203,4.0,Animal_Sea_Pattern_Large,-1.0,,,,,,,,,,,
encoding,value,23,25740842,25746854,25741625.0,25742263.0,639.0,639.0,2208.1,1114.4,2249.0,891.0,Animal_Sea_Pattern_Large,51.95960641698912,57.97114841698203,4.0,Animal_Sea_Pattern_Large,-1.0,,,,,,,,,,,
encoding,value,23,25740842,25746854,25742498.0,25743052.0,555.0,555.0,2185.4,1176.3,2249.0,891.0,Animal_Sea_Pattern_Large,51.95960641698912,57.97114841698203,4.0,Animal_Sea_Pattern_Large,-1.0,,,,,,,,,,,
encoding,value,23,25740842,25746854,25743284.0,25743391.0,108.0,108.0,2167.8,1131.8,2249.0,891.0,Animal_Sea_Pattern_Large,51.95960641698912,57.97114841698203,4.0,Animal_Sea_Pattern_Large,-1.0,,,,,,,,,,,
encoding,value,23,25740842,25746854,25743404.0,25744011.0,608.0,608.0,2190.4,1107.7,2249.0,891.0,Animal_Sea_Pattern_Large,51.95960641698912,57.97114841698203,4.0,Animal_Sea_Pattern_Large,-1.0,,,,,,,,,,,
encoding,value,23,25740842,25746854,25744030.0,25744188.0,159.0,159.0,2176.4,1094.6,2249.0,891.0,Animal_Sea_Pattern_Large,51.95960641698912,57.97114841698203,4.0,Animal_Sea_Pattern_Large,-1.0,,,,,,,,,,,
encoding,value,23,25740842,25746854,25744195.0,25746522.0,2328.0,2328.0,2195.7,1103.5,2249.0,891.0,Animal_Sea_Pattern_Large,51.95960641698912,57.97114841698203,4.0,Animal_Sea_Pattern_Large,-1.0,,,,,,,,,,,
encoding,value,23,25740842,25746854,25746730.0,25746945.0,216.0,124.0,2213.5,1106.8,2249.0,891.0,Animal_Sea_Pattern_Large,51.95960641698912,57.97114841698203,4.0,Animal_Sea_Pattern_Large,-1.0,,,,,,,,,,,
encoding,attention,23,25746854,25749870,25746959.0,25747194.0,236.0,236.0,2224.5,1183.3,2249.0,891.0,Animal_Sea_Pattern_Large,57.97126820904669,60.98774262506049,4.0,Animal_Sea_Pattern_Large,-1.0,-1.0,1.0,1.904004625044763,,,,,,,,
encoding,attention,23,25746854,25749870,25747209.0,25747800.0,592.0,592.0,2243.9,1107.7,2249.0,891.0,Animal_Sea_Pattern_Large,57.97126820904669,60.98774262506049,4.0,Animal_Sea_Pattern_Large,-1.0,-1.0,1.0,1.904004625044763,,,,,,,,
encoding,attention,23,25746854,25749870,25748006.0,25748215.0,210.0,210.0,2236.7,1107.9,2249.0,891.0,Animal_Sea_Pattern_Large,57.97126820904669,60.98774262506049,4.0,Animal_Sea_Pattern_Large,-1.0,-1.0,1.0,1.904004625044763,,,,,,,,
encoding,attention,23,25746854,25749870,25748224.0,25748557.0,334.0,334.0,2175.1,1100.2,2249.0,891.0,Animal_Sea_Pattern_Large,57.97126820904669,60.98774262506049,4.0,Animal_Sea_Pattern_Large,-1.0,-1.0,1.0,1.904004625044763,,,,,,,,
encoding,attention,23,25746854,25749870,25748570.0,25749189.0,620.0,620.0,2260.1,1103.0,2249.0,891.0,Animal_Sea_Pattern_Large,57.97126820904669,60.98774262506049,4.0,Animal_Sea_Pattern_Large,-1.0,-1.0,1.0,1.904004625044763,,,,,,,,
encoding,attention,23,25746854,25749870,25749200.0,25749707.0,508.0,508.0,2230.0,1155.8,2249.0,891.0,Animal_Sea_Pattern_Large,57.97126820904669,60.98774262506049,4.0,Animal_Sea_Pattern_Large,-1.0,-1.0,1.0,1.904004625044763,,,,,,,,
encoding,fixation,24,25749871,25750376,25750108.0,25750260.0,153.0,153.0,1947.2,1069.9,1920.0,1080.0,fixation,60.98788145906292,61.49287387507502,4.0,Animal_Sea_Pattern_Small,-4.0,,,,,,,,,,,
encoding,image,24,25750376,25751387,25750477.0,25750739.0,263.0,263.0,2054.2,1139.1,2249.0,891.0,Animal_Sea_Pattern_Large,61.49305612500757,62.504064333974384,4.0,Animal_Sea_Pattern_Small,-4.0,,,,,,,,,,,
encoding,image,24,25750376,25751387,25750796.0,25750956.0,161.0,161.0,1864.4,746.0,1920.0,1460.0,Animal_Sea_Pattern_Small,61.49305612500757,62.504064333974384,4.0,Animal_Sea_Pattern_Small,-4.0,,,,,,,,,,,
encoding,image,24,25750376,25751387,25750975.0,25751505.0,531.0,412.0,1874.8,678.2,1920.0,1460.0,Animal_Sea_Pattern_Small,61.49305612500757,62.504064333974384,4.0,Animal_Sea_Pattern_Small,-4.0,,,,,,,,,,,
encoding,value,24,25751387,25757400,25751709.0,25751813.0,105.0,105.0,1879.4,608.3,1920.0,1460.0,Animal_Sea_Pattern_Small,62.50417583400849,68.516403250047,4.0,Animal_Sea_Pattern_Small,-4.0,,,,,,,,,,,
encoding,value,24,25751387,25757400,25751820.0,25752210.0,391.0,391.0,1872.6,596.0,1920.0,1460.0,Animal_Sea_Pattern_Small,62.50417583400849,68.516403250047,4.0,Animal_Sea_Pattern_Small,-4.0,,,,,,,,,,,
encoding,value,24,25751387,25757400,25752862.0,25753211.0,350.0,350.0,1947.3,1048.7,1920.0,1080.0,fixation,62.50417583400849,68.516403250047,4.0,Animal_Sea_Pattern_Small,-4.0,,,,,,,,,,,
encoding,value,24,25751387,25757400,25753255.0,25753693.0,439.0,439.0,1878.5,613.5999999999999,1920.0,1460.0,Animal_Sea_Pattern_Small,62.50417583400849,68.516403250047,4.0,Animal_Sea_Pattern_Small,-4.0,,,,,,,,,,,
encoding,value,24,25751387,25757400,25753707.0,25754370.0,664.0,664.0,1917.3,679.8,1920.0,1460.0,Animal_Sea_Pattern_Small,62.50417583400849,68.516403250047,4.0,Animal_Sea_Pattern_Small,-4.0,,,,,,,,,,,
encoding,value,24,25751387,25757400,25754656.0,25755292.0,637.0,637.0,1895.7,680.8,1920.0,1460.0,Animal_Sea_Pattern_Small,62.50417583400849,68.516403250047,4.0,Animal_Sea_Pattern_Small,-4.0,,,,,,,,,,,
encoding,value,24,25751387,25757400,25755581.0,25755765.0,185.0,185.0,1826.6,641.0999999999999,1920.0,1460.0,Animal_Sea_Pattern_Small,62.50417583400849,68.516403250047,4.0,Animal_Sea_Pattern_Small,-4.0,,,,,,,,,,,
encoding,value,24,25751387,25757400,25755786.0,25756413.0,628.0,628.0,1881.2,588.5,1920.0,1460.0,Animal_Sea_Pattern_Small,62.50417583400849,68.516403250047,4.0,Animal_Sea_Pattern_Small,-4.0,,,,,,,,,,,
encoding,value,24,25751387,25757400,25756420.0,25756601.0,182.0,182.0,1897.0,629.4000000000001,1920.0,1460.0,Animal_Sea_Pattern_Small,62.50417583400849,68.516403250047,4.0,Animal_Sea_Pattern_Small,-4.0,,,,,,,,,,,
encoding,value,24,25751387,25757400,25756610.0,25757518.0,909.0,790.0,1909.9,671.7,1920.0,1460.0,Animal_Sea_Pattern_Small,62.50417583400849,68.516403250047,4.0,Animal_Sea_Pattern_Small,-4.0,,,,,,,,,,,
encoding,attention,24,25757400,25760418,25757531.0,25758181.0,651.0,651.0,1856.8,586.3,1920.0,1460.0,Animal_Sea_Pattern_Small,68.51654116704594,71.53482820896897,4.0,Animal_Sea_Pattern_Small,-4.0,-4.0,1.0,1.9823133329628035,,,,,,,,
encoding,attention,24,25757400,25760418,25758192.0,25759642.0,1451.0,1451.0,1896.7,581.3,1920.0,1460.0,Animal_Sea_Pattern_Small,68.51654116704594,71.53482820896897,4.0,Animal_Sea_Pattern_Small,-4.0,-4.0,1.0,1.9823133329628035,,,,,,,,
encoding,attention,24,25757400,25760418,25760002.0,25760156.0,155.0,155.0,1790.0,789.2,1920.0,1460.0,Animal_Sea_Pattern_Small,68.51654116704594,71.53482820896897,4.0,Animal_Sea_Pattern_Small,-4.0,-4.0,1.0,1.9823133329628035,,,,,,,,
encoding,fixation,25,26052918,26054173,26052958.0,26053132.0,175.0,175.0,2026.0,776.0999999999999,1920.0,1460.0,Animal_Sea_Solid_Small,9.826747959014028,11.08215662499424,5.0,Object_Land_Pattern_Large,-4.0,,,,,,,,,,,
encoding,fixation,25,26052918,26054173,26053178.0,26053312.0,135.0,135.0,1927.5,1089.4,1920.0,1080.0,fixation,9.826747959014028,11.08215662499424,5.0,Object_Land_Pattern_Large,-4.0,,,,,,,,,,,
encoding,fixation,25,26052918,26054173,26053490.0,26053665.0,176.0,176.0,1915.5,1360.9,1920.0,700.0,Animal_Land_Pattern_Large,9.826747959014028,11.08215662499424,5.0,Object_Land_Pattern_Large,-4.0,,,,,,,,,,,
encoding,fixation,25,26052918,26054173,26053702.0,26054188.0,487.0,471.0,2006.2,1191.5,2249.0,891.0,Animal_Land_Solid_Large,9.826747959014028,11.08215662499424,5.0,Object_Land_Pattern_Large,-4.0,,,,,,,,,,,
encoding,image,25,26054173,26055184,26054210.0,26054362.0,153.0,153.0,1989.8,1286.1,1920.0,700.0,Animal_Land_Pattern_Large,11.082267999998294,12.093033874989487,5.0,Object_Land_Pattern_Large,-4.0,,,,,,,,,,,
encoding,image,25,26054173,26055184,26054409.0,26055072.0,664.0,664.0,1616.9,901.9000000000001,1591.0,1269.0,Object_Land_Pattern_Large,11.082267999998294,12.093033874989487,5.0,Object_Land_Pattern_Large,-4.0,,,,,,,,,,,
