phase,event,onset,offset,trial_number,game,image,outcome,choice,correct,rt,letter,match,response,option,true_value,true_position,recalled_position,
encoding,fixation,19.64887479203753,20.910318417008966,1,1,Animal_Sea_Solid_Small,-3,,,,,,,,,,,
encoding,image,20.910452917101793,21.927266792044975,1,1,Animal_Sea_Solid_Small,-3,,,,,,,,,,,
encoding,value,21.927380292094313,27.942025125026703,1,1,Animal_Sea_Solid_Small,-3,,,,,,,,,,,
encoding,attention,27.942159250029363,30.960014750016853,1,1,Animal_Sea_Solid_Small,-3,-3,1,1.4656926250318065,,,,,,,,
encoding,fixation,30.96018804202322,31.96514325006865,2,1,Object_Land_Pattern_Large,2,,,,,,,,,,,
encoding,image,31.96532516705338,32.97699808399193,2,1,Object_Land_Pattern_Large,2,,,,,,,,,,,
encoding,value,32.97711754206102,38.99024266703054,2,1,Object_Land_Pattern_Large,2,,,,,,,,,,,
encoding,attention,38.990348124993034,42.00941879209131,2,1,Object_Land_Pattern_Large,2,+2,1,1.3677532500587404,,,,,,,,
encoding,fixation,42.009589791996405,42.51459254208021,3,1,Object_Land_Pattern_Small,-9,,,,,,,,,,,
encoding,image,42.51470100006554,43.52569041703828,3,1,Object_Land_Pattern_Small,-9,,,,,,,,,,,
encoding,value,43.52587474999018,49.53833900007885,3,1,Object_Land_Pattern_Small,-9,,,,,,,,,,,
encoding,attention,49.53845633403398,52.556559042073786,3,1,Object_Land_Pattern_Small,-9,-9,1,1.4207928749965504,,,,,,,,
encoding,fixation,52.55672133399639,53.56159487506375,4,1,Animal_Land_Pattern_Large,5,,,,,,,,,,,
encoding,image,53.56172350002453,54.57239208405372,4,1,Animal_Land_Pattern_Large,5,,,,,,,,,,,
encoding,value,54.572503584087826,60.58911045908462,4,1,Animal_Land_Pattern_Large,5,,,,,,,,,,,
encoding,attention,60.58929662499577,63.60632325010374,4,1,Animal_Land_Pattern_Large,5,+5,1,1.0193749170284718,,,,,,,,
encoding,fixation,63.606479084002785,64.361438833992,5,1,Object_Sea_Solid_Small,8,,,,,,,,,,,
encoding,image,64.3615420840215,65.37153212504927,5,1,Object_Sea_Solid_Small,8,,,,,,,,,,,
encoding,value,65.3716472920496,71.3826714589959,5,1,Object_Sea_Solid_Small,8,,,,,,,,,,,
encoding,attention,71.38281154201832,74.43266829208005,5,1,Object_Sea_Solid_Small,8,+8,1,1.6484322920441628,,,,,,,,
encoding,fixation,74.43282212503254,75.18937679205555,6,1,Animal_Sea_Solid_Large,-3,,,,,,,,,,,
encoding,image,75.18948795902543,76.2006738340715,6,1,Animal_Sea_Solid_Large,-3,,,,,,,,,,,
encoding,value,76.20078795903828,82.21235525002703,6,1,Animal_Sea_Solid_Large,-3,,,,,,,,,,,
encoding,attention,82.21248533402104,85.22981295909267,6,1,Animal_Sea_Solid_Large,-3,-3,1,1.2626872910186648,,,,,,,,
n-back,,,,1,1,,,,1,None,Z,False,None,,,,,
n-back,,,,2,1,,,,0,None,N,True,None,,,,,
n-back,,,,3,1,,,,1,None,B,False,None,,,,,
n-back,,,,4,1,,,,1,None,C,False,None,,,,,
n-back,,,,5,1,,,,0,None,B,True,None,,,,,
n-back,,,,6,1,,,,1,None,X,False,None,,,,,
n-back,,,,7,1,,,,1,None,Z,False,None,,,,,
n-back,,,,8,1,,,,1,None,Z,False,None,,,,,
n-back,,,,9,1,,,,1,None,N,False,None,,,,,
n-back,,,,10,1,,,,1,0.4847096250159666,Z,True,1,,,,,
n-back,,,,11,1,,,,1,None,V,False,None,,,,,
n-back,,,,12,1,,,,0,None,Z,True,None,,,,,
n-back,,,,13,1,,,,1,None,X,False,None,,,,,
n-back,,,,14,1,,,,1,None,B,False,None,,,,,
n-back,,,,15,1,,,,1,None,N,False,None,,,,,
n-back,,,,16,1,,,,1,None,Z,False,None,,,,,
n-back,,,,17,1,,,,1,0.7404050839832053,N,True,1,,,,,
n-back,,,,18,1,,,,1,0.8276459169574082,Z,True,1,,,,,
n-back,,,,19,1,,,,1,None,V,False,None,,,,,
n-back,,,,20,1,,,,1,None,C,False,None,,,,,
n-back,,,,21,1,,,,1,None,N,False,None,,,,,
n-back,,,,22,1,,,,1,None,V,False,None,,,,,
n-back,,,,23,1,,,,0,None,N,True,None,,,,,
n-back,,,,24,1,,,,1,1.4241858751047403,V,True,1,,,,,
n-back,,,,25,1,,,,1,None,Z,False,None,,,,,
n-back,,,,26,1,,,,1,None,N,False,None,,,,,
n-back,,,,27,1,,,,1,0.3962531660217792,Z,True,1,,,,,
n-back,,,,28,1,,,,1,None,X,False,None,,,,,
n-back,,,,29,1,,,,0,0.8844361659139395,N,False,1,,,,,
n-back,,,,30,1,,,,1,0.9319343339884654,X,True,1,,,,,
choice,fixation,210.28596329200082,210.79221691703424,1,1,,,,,,,,,Animal,,,,
choice,option,210.80190250009764,211.9114995840937,1,1,,,,,,,,,Animal,,,,
choice,choice,211.9116190840723,232.62262633407954,1,1,,,1,0,19.697509375051595,,,,Animal,,,,
choice,fixation,232.62276620906778,233.12787587509956,2,1,,,,,,,,,Small,,,,
choice,option,233.13658516702708,234.1647212090902,2,1,,,,,,,,,Small,,,,
choice,choice,234.1648484170437,246.5150348750176,2,1,,,2,1,11.338163750013337,,,,Small,,,,
choice,fixation,246.51516954205,247.27098975004628,3,1,,,,,,,,,Sea,,,,
choice,option,247.2791471669916,248.30621816706844,3,1,,,,,,,,,Sea,,,,
choice,choice,248.30632387509104,260.7150390840834,3,1,,,1,1,11.399151834077202,,,,Sea,,,,
choice,fixation,260.7152185840532,261.9712402500445,4,1,,,,,,,,,Large,,,,
choice,option,261.9800159590086,263.0074615420308,4,1,,,,,,,,,Large,,,,
choice,choice,263.0075887090061,276.0215094170999,4,1,,,1,1,12.0012861660216,,,,Large,,,,
choice,fixation,276.02163804206066,277.27666595904157,5,1,,,,,,,,,Object,,,,
choice,option,277.2864836670924,278.3138785000192,5,1,,,,,,,,,Object,,,,
choice,choice,278.3139955420047,305.60610075003933,5,1,,,2,0,26.274777084006928,,,,Object,,,,
choice,fixation,305.6062442919938,306.61128995905165,6,1,,,,,,,,,Solid,,,,
choice,option,306.62049866700545,307.6473532920936,6,1,,,,,,,,,Solid,,,,
choice,choice,307.6474846249912,315.5547578340629,6,1,,,1,1,6.892309791990556,,,,Solid,,,,
choice,fixation,315.55492850008886,317.05981054203585,7,1,,,,,,,,,Pattern,,,,
choice,option,317.069045750075,318.09629783406854,7,1,,,,,,,,,Pattern,,,,
choice,choice,318.0964035000652,323.92677000002004,7,1,,,2,1,4.820441082934849,,,,Pattern,,,,
choice,fixation,323.9268917090958,324.93193283409346,8,1,,,,,,,,,Land,,,,
choice,option,324.940730500035,325.9676745000761,8,1,,,,,,,,,Land,,,,
choice,choice,325.9677885840647,334.6186138750054,8,1,,,1,0,7.6413620410021394,,,,Land,,,,
memory,free_recall,437.2044504591031,462.44455170899164,0,1,,,,,,,,,,,,,
memory,value_recall,512.648004500079,517.9559058340965,1,1,Animal_Sea_Solid_Small,,,,5.301887874957174,,,,,-3,,,
memory,value_recall,519.002210500068,525.0928716670023,2,1,Object_Sea_Solid_Small,,,,6.087262875051238,,,,,8,,,
memory,value_recall,526.639418209088,531.1495062090689,3,1,Object_Land_Pattern_Large,,,,4.5059574589831755,,,,,2,,,
memory,value_recall,532.9458950420376,535.9016367919976,4,1,Object_Land_Pattern_Small,,,,2.951720792101696,,,,,-9,,,
memory,value_recall,537.9479054170661,542.6365325840889,5,1,Animal_Sea_Solid_Large,,,,4.682591082993895,,,,,-3,,,
memory,value_recall,543.6842695000814,547.5314634999959,6,1,Animal_Land_Pattern_Large,,,,3.843885417096317,,,,,5,,,
memory,spatial_recall,583.7300310840365,588.2654082500376,6,1,Object_Sea_Solid_Small,,,1,4.5312333749607205,,,,,,"[-329, -190]","[-329, -190]",
memory,spatial_recall,590.0797652089968,595.0929592920002,6,1,Object_Land_Pattern_Large,,,1,5.008943749940954,,,,,,"[329, -190]","[329, -190]",
memory,spatial_recall,596.9009872920578,599.3761525000446,6,1,Animal_Land_Pattern_Large,,,1,2.47119837498758,,,,,,"[-329, 190]","[-329, 190]",
memory,spatial_recall,600.6817051670514,605.4642968750559,6,1,Animal_Sea_Solid_Small,,,1,4.776111916988157,,,,,,"[329, 189]","[329, 189]",
memory,spatial_recall,606.5262395420577,609.1608007090399,6,1,Animal_Sea_Solid_Large,,,1,2.629884083988145,,,,,,"[0, -380]","[0, -380]",
memory,spatial_recall,610.4671949170297,612.1432099590311,6,1,Object_Land_Pattern_Small,,,1,1.67210179194808,,,,,,"[0, 380]","[0, 380]",
encoding,fixation,22.401717458036728,23.407383540994488,7,2,Object_Sea_Pattern_Small,-8,,,,,,,,,,,
encoding,image,23.40750787500292,24.419111541006714,7,2,Object_Sea_Pattern_Small,-8,,,,,,,,,,,
encoding,value,24.419242208008654,30.43221004109364,7,2,Object_Sea_Pattern_Small,-8,,,,,,,,,,,
encoding,attention,30.43233612505719,33.45232262508944,7,2,Object_Sea_Pattern_Small,-8,-8,1,0.8572000829735771,,,,,,,,
encoding,fixation,33.45258066605311,34.95801154104993,8,2,Animal_Land_Pattern_Small,9,,,,,,,,,,,
encoding,image,34.958119290997274,35.96988145809155,8,2,Animal_Land_Pattern_Small,9,,,,,,,,,,,
encoding,value,35.969986625015736,41.98211725009605,8,2,Animal_Land_Pattern_Small,9,,,,,,,,,,,
encoding,attention,41.9823060000781,45.00142554100603,8,2,Animal_Land_Pattern_Small,9,+9,1,0.8037427910603583,,,,,,,,
encoding,fixation,45.00159004109446,45.75712583307177,9,2,Animal_Sea_Pattern_Small,-4,,,,,,,,,,,
encoding,image,45.75724433304276,46.76824620808475,9,2,Animal_Sea_Pattern_Small,-4,,,,,,,,,,,
encoding,value,46.76839025004301,52.780493000056595,9,2,Animal_Sea_Pattern_Small,-4,,,,,,,,,,,
encoding,attention,52.78060295805335,55.797486625029705,9,2,Animal_Sea_Pattern_Small,-4,-4,1,1.1126202910672873,,,,,,,,
encoding,fixation,55.79764458304271,57.05285595799796,10,2,Animal_Land_Solid_Large,-9,,,,,,,,,,,
encoding,image,57.052960000000894,58.06420220807195,10,2,Animal_Land_Solid_Large,-9,,,,,,,,,,,
encoding,value,58.06432500004303,64.07607650000136,10,2,Animal_Land_Solid_Large,-9,,,,,,,,,,,
encoding,attention,64.07628220808692,67.09362120809965,10,2,Animal_Land_Solid_Large,-9,-9,1,2.065013957908377,,,,,,,,
encoding,fixation,67.09379262500443,68.34879354108125,11,2,Object_Land_Solid_Large,1,,,,,,,,,,,
encoding,image,68.34891454107128,69.35929345805198,11,2,Object_Land_Solid_Large,1,,,,,,,,,,,
encoding,value,69.35939941601828,75.37035745801404,11,2,Object_Land_Solid_Large,1,,,,,,,,,,,
encoding,attention,75.37046616605949,78.3868837080663,11,2,Object_Land_Solid_Large,1,+1,1,1.9650028750766069,,,,,,,,
encoding,fixation,78.38704279100057,79.89186216599774,12,2,Object_Sea_Solid_Large,4,,,,,,,,,,,
encoding,image,79.89200058300048,80.90381837508176,12,2,Object_Sea_Solid_Large,4,,,,,,,,,,,
encoding,value,80.90392845799215,86.91549966600724,12,2,Object_Sea_Solid_Large,4,,,,,,,,,,,
encoding,attention,86.9156187500339,89.93408262508456,12,2,Object_Sea_Solid_Large,4,+4,1,1.7279177500167862,,,,,,,,
n-back,,,,31,2,,,,0,None,B,True,None,,,,,
n-back,,,,32,2,,,,1,None,N,False,None,,,,,
n-back,,,,33,2,,,,1,None,N,False,None,,,,,
n-back,,,,34,2,,,,1,None,Z,False,None,,,,,
n-back,,,,35,2,,,,0,1.12518716591876,Z,False,1,,,,,
n-back,,,,36,2,,,,1,None,C,False,None,,,,,
n-back,,,,37,2,,,,1,None,X,False,None,,,,,
n-back,,,,38,2,,,,1,None,B,False,None,,,,,
n-back,,,,39,2,,,,1,None,N,False,None,,,,,
n-back,,,,40,2,,,,1,None,V,False,None,,,,,
n-back,,,,41,2,,,,1,0.5093107910361141,N,True,1,,,,,
n-back,,,,42,2,,,,1,None,B,False,None,,,,,
n-back,,,,43,2,,,,0,None,N,True,None,,,,,
n-back,,,,44,2,,,,1,None,N,False,None,,,,,
n-back,,,,45,2,,,,1,0.45385337492916733,N,True,1,,,,,
n-back,,,,46,2,,,,1,0.5168428750475869,N,True,1,,,,,
n-back,,,,47,2,,,,1,None,B,False,None,,,,,
n-back,,,,48,2,,,,1,None,V,False,None,,,,,
n-back,,,,49,2,,,,1,None,X,False,None,,,,,
n-back,,,,50,2,,,,1,None,N,False,None,,,,,
n-back,,,,51,2,,,,1,None,V,False,None,,,,,
n-back,,,,52,2,,,,1,0.4521674159914255,N,True,1,,,,,
n-back,,,,53,2,,,,1,0.580120375030674,V,True,1,,,,,
n-back,,,,54,2,,,,1,None,X,False,None,,,,,
n-back,,,,55,2,,,,1,0.46429091691970825,V,True,1,,,,,
n-back,,,,56,2,,,,1,None,Z,False,None,,,,,
n-back,,,,57,2,,,,0,None,V,True,None,,,,,
n-back,,,,58,2,,,,1,None,N,False,None,,,,,
n-back,,,,59,2,,,,1,1.0502986250212416,V,True,1,,,,,
n-back,,,,60,2,,,,1,None,V,False,None,,,,,
choice,fixation,170.7616979579907,171.5152063750429,9,2,,,,,,,,,Large,,,,
choice,option,171.52368308301084,172.55056658305693,9,2,,,,,,,,,Large,,,,
choice,choice,172.55068912508432,199.08059937506914,9,2,,,2,1,25.51758929202333,,,,Large,,,,
choice,fixation,199.080727958004,200.58561629103497,10,2,,,,,,,,,Object,,,,
choice,option,200.5954823330976,201.62242858309764,10,2,,,,,,,,,Object,,,,
choice,choice,201.62255312502384,229.60004054103047,10,2,,,2,1,26.962792541016825,,,,Object,,,,
choice,fixation,229.60017079103272,230.85508212505374,11,2,,,,,,,,,Small,,,,
choice,option,230.8640476251021,231.89160558301955,11,2,,,,,,,,,Small,,,,
choice,choice,231.89174941601232,265.52685366605874,11,2,,,2,1,32.623763040988706,,,,Small,,,,
choice,fixation,265.52701333304867,266.7820275000995,12,2,,,,,,,,,Pattern,,,,
choice,option,266.79090333299246,267.8174164160155,12,2,,,,,,,,,Pattern,,,,
choice,choice,267.81754495808855,329.77493204106577,12,2,,,2,1,60.9457821669057,,,,Pattern,,,,
choice,fixation,329.7750628750073,331.2806437910767,13,2,,,,,,,,,Animal,,,,
choice,option,331.29008995799813,332.3166008749977,13,2,,,,,,,,,Animal,,,,
choice,choice,332.31675133307,343.1918029580265,13,2,,,1,0,9.863657708046958,,,,Animal,,,,
choice,fixation,343.1920347500127,344.4477899160702,14,2,,,,,,,,,Land,,,,
choice,option,344.4563548750011,345.4829385000048,14,2,,,,,,,,,Land,,,,
choice,choice,345.48304958303925,362.96974079101346,14,2,,,2,0,16.475982166011818,,,,Land,,,,
choice,fixation,362.96986525005195,364.22567941609304,15,2,,,,,,,,,Solid,,,,
choice,option,364.23528762499336,365.2630977079971,15,2,,,,,,,,,Solid,,,,
choice,choice,365.2632287500892,376.5706095000496,15,2,,,1,0,10.297104791039601,,,,Solid,,,,
choice,fixation,376.5707287910627,377.82586820807774,16,2,,,,,,,,,Sea,,,,
choice,option,377.83425337506924,378.86383379099425,16,2,,,,,,,,,Sea,,,,
choice,choice,378.8639494579984,386.0631580000045,16,2,,,1,0,6.189586499938741,,,,Sea,,,,
memory,free_recall,413.3372226250358,433.59570100007113,6,2,,,,,,,,,,,,,
memory,value_recall,443.601240875083,448.6003037500195,7,2,Object_Sea_Solid_Large,,,,4.994992541964166,,,,,4,,,
memory,value_recall,450.14725241600536,453.9524005410494,8,2,Animal_Sea_Pattern_Small,,,,3.8011145419441164,,,,,-4,,,
memory,value_recall,454.99944604106713,463.0320060000522,9,2,Animal_Land_Pattern_Small,,,,8.029270375031047,,,,,9,,,
memory,value_recall,464.3310046250699,467.45742658304516,10,2,Animal_Land_Solid_Large,,,,3.1223368329228833,,,,,-9,,,
memory,value_recall,469.50453200004995,471.6956590410555,11,2,Object_Sea_Pattern_Small,,,,2.187064665951766,,,,,-8,,,
memory,value_recall,473.74137045803946,477.10529087507166,12,2,Object_Land_Solid_Large,,,,3.359422624926083,,,,,1,,,
memory,spatial_recall,485.33335745800287,488.60567816603,12,2,Object_Sea_Solid_Large,,,1,3.2682287079514936,,,,,,"[329, 189]","[329, 189]",
memory,spatial_recall,489.67246187501587,495.7189650000073,12,2,Animal_Sea_Pattern_Small,,,1,6.041405374999158,,,,,,"[-329, 190]","[-329, 190]",
memory,spatial_recall,497.02491166605614,498.4184290410485,12,2,Animal_Land_Pattern_Small,,,1,1.3884066250175238,,,,,,"[0, 380]","[0, 380]",
memory,spatial_recall,499.97488587500993,501.5218152080197,12,2,Object_Sea_Pattern_Small,,,1,1.5418448330601677,,,,,,"[-329, -190]","[-329, -190]",
memory,spatial_recall,502.83292012510356,507.5730995410122,12,2,Object_Land_Solid_Large,,,1,4.736232875031419,,,,,,"[329, -190]","[329, -190]",
memory,spatial_recall,509.6351124580251,516.3360040000407,12,2,Animal_Land_Solid_Large,,,1,6.6966426249127835,,,,,,"[0, -380]","[0, -380]",
encoding,fixation,13.277888042037375,14.533713959041052,13,3,Animal_Land_Pattern_Large,8,,,,,,,,,,,
encoding,image,14.533842958975583,15.545972584048286,13,3,Animal_Land_Pattern_Large,8,,,,,,,,,,,
encoding,value,15.546130417031236,21.559919667080976,13,3,Animal_Land_Pattern_Large,8,,,,,,,,,,,
encoding,attention,21.56005254201591,24.577975417021662,13,3,Animal_Land_Pattern_Large,8,+8,1,1.057932624942623,,,,,,,,
encoding,fixation,24.578129542060196,25.58343204203993,14,3,Animal_Land_Solid_Small,-1,,,,,,,,,,,
encoding,image,25.583540834020823,26.594630292034708,14,3,Animal_Land_Solid_Small,-1,,,,,,,,,,,
encoding,value,26.594753084005788,32.606692541972734,14,3,Animal_Land_Solid_Small,-1,,,,,,,,,,,
encoding,attention,32.60682620899752,35.6239660839783,14,3,Animal_Land_Solid_Small,-1,-1,1,0.6225687080295756,,,,,,,,
encoding,fixation,35.624128959025256,36.37918350007385,15,3,Object_Sea_Solid_Small,9,,,,,,,,,,,
encoding,image,36.379310874966905,37.38945766701363,15,3,Object_Sea_Solid_Small,9,,,,,,,,,,,
encoding,value,37.38957983406726,43.40020350005943,15,3,Object_Sea_Solid_Small,9,,,,,,,,,,,
encoding,attention,43.40030800004024,46.416979250032455,15,3,Object_Sea_Solid_Small,9,+9,1,1.626422500004992,,,,,,,,
encoding,fixation,46.417153584072366,47.92373804200906,16,3,Animal_Sea_Pattern_Large,8,,,,,,,,,,,
encoding,image,47.92383887502365,48.93367699999362,16,3,Animal_Sea_Pattern_Large,8,,,,,,,,,,,
encoding,value,48.93382891698275,54.94471654202789,16,3,Animal_Sea_Pattern_Large,8,,,,,,,,,,,
encoding,attention,54.9448372090701,57.961549791973084,16,3,Animal_Sea_Pattern_Large,8,+8,1,0.9065799580421299,,,,,,,,
encoding,fixation,57.96170687500853,59.46696500002872,17,3,Object_Sea_Pattern_Large,-9,,,,,,,,,,,
encoding,image,59.46707183402032,60.47840941697359,17,3,Object_Sea_Pattern_Large,-9,,,,,,,,,,,
encoding,value,60.47851916705258,66.49012362502981,17,3,Object_Sea_Pattern_Large,-9,,,,,,,,,,,
encoding,attention,66.49028833396733,69.50877141708042,17,3,Object_Sea_Pattern_Large,-9,-9,1,0.9983864160021767,,,,,,,,
encoding,fixation,69.50891500001308,70.26398633397184,18,3,Object_Land_Solid_Small,-3,,,,,,,,,,,
encoding,image,70.26409937499557,71.27532645897008,18,3,Object_Land_Solid_Small,-3,,,,,,,,,,,
encoding,value,71.27544008404948,77.28694370901212,18,3,Object_Land_Solid_Small,-3,,,,,,,,,,,
encoding,attention,77.28706608398352,80.3051907500485,18,3,Object_Land_Solid_Small,-3,-3,1,2.162800500052981,,,,,,,,
n-back,,,,61,3,,,,1,None,C,False,None,,,,,
n-back,,,,62,3,,,,1,None,Z,False,None,,,,,
n-back,,,,63,3,,,,1,0.7319417089456692,C,True,1,,,,,
n-back,,,,64,3,,,,1,None,B,False,None,,,,,
n-back,,,,65,3,,,,1,None,N,False,None,,,,,
n-back,,,,66,3,,,,1,None,C,False,None,,,,,
n-back,,,,67,3,,,,1,None,V,False,None,,,,,
n-back,,,,68,3,,,,0,None,C,True,None,,,,,
n-back,,,,69,3,,,,0,1.2578416250180453,C,False,1,,,,,
n-back,,,,70,3,,,,1,0.5153612919384614,C,True,1,,,,,
n-back,,,,71,3,,,,1,0.6529820000287145,C,True,1,,,,,
n-back,,,,72,3,,,,1,None,X,False,None,,,,,
n-back,,,,73,3,,,,1,None,B,False,None,,,,,
n-back,,,,74,3,,,,1,None,B,False,None,,,,,
n-back,,,,75,3,,,,1,None,C,False,None,,,,,
n-back,,,,76,3,,,,1,None,X,False,None,,,,,
n-back,,,,77,3,,,,1,None,B,False,None,,,,,
n-back,,,,78,3,,,,1,1.4067299159942195,X,True,1,,,,,
n-back,,,,79,3,,,,1,None,N,False,None,,,,,
n-back,,,,80,3,,,,1,None,Z,False,None,,,,,
n-back,,,,81,3,,,,1,None,C,False,None,,,,,
n-back,,,,82,3,,,,1,0.9723775840830058,Z,True,1,,,,,
n-back,,,,83,3,,,,1,None,B,False,None,,,,,
n-back,,,,84,3,,,,0,None,Z,True,None,,,,,
n-back,,,,85,3,,,,1,0.41840504098217934,B,True,1,,,,,
n-back,,,,86,3,,,,1,0.4133058750303462,Z,True,1,,,,,
n-back,,,,87,3,,,,1,None,C,False,None,,,,,
n-back,,,,88,3,,,,1,0.5474027920281515,Z,True,1,,,,,
n-back,,,,89,3,,,,1,None,X,False,None,,,,,
n-back,,,,90,3,,,,1,None,V,False,None,,,,,
choice,fixation,168.39012833405286,168.89344883407466,17,3,,,,,,,,,Sea,,,,
choice,option,168.9014382089954,169.92766470904462,17,3,,,,,,,,,Sea,,,,
choice,choice,169.9278660840355,182.03700987505727,17,3,,,1,1,11.098587457905523,,,,Sea,,,,
choice,fixation,182.03715516696684,183.29214483406395,18,3,,,,,,,,,Solid,,,,
choice,option,183.3020712500438,184.32921654207166,18,3,,,,,,,,,Solid,,,,
choice,choice,184.32932541705668,188.69897466700058,18,3,,,1,1,3.3601507919374853,,,,Solid,,,,
choice,fixation,188.699141375022,189.4541655840585,19,3,,,,,,,,,Large,,,,
choice,option,189.46270783396903,190.49078054202255,19,3,,,,,,,,,Large,,,,
choice,choice,190.4908938750159,235.59679341700394,19,3,,,2,0,44.09479374997318,,,,Large,,,,
choice,fixation,235.59702920902055,237.10281729197595,20,3,,,,,,,,,Animal,,,,
choice,option,237.1123977090465,238.1405734170694,20,3,,,,,,,,,Animal,,,,
choice,choice,238.14073950005695,241.0618003749987,20,3,,,1,1,1.911240249988623,,,,Animal,,,,
choice,fixation,241.06193762505427,242.56685279204976,21,3,,,,,,,,,Land,,,,
choice,option,242.57530395907816,243.60198633407708,21,3,,,,,,,,,Land,,,,
choice,choice,243.60210333403666,254.83101075002924,21,3,,,1,1,10.21736474998761,,,,Land,,,,
choice,fixation,254.8312092500273,256.3361600419739,22,3,,,,,,,,,Small,,,,
choice,option,256.34514820901677,257.3740090840729,22,3,,,,,,,,,Small,,,,
choice,choice,257.374124999973,268.9172886670567,22,3,,,2,0,10.532125167082995,,,,Small,,,,
choice,fixation,268.9175074590603,270.42412995907944,23,3,,,,,,,,,Pattern,,,,
choice,option,270.43327100004535,271.4594646670157,23,3,,,,,,,,,Pattern,,,,
choice,choice,271.459582917043,296.30000645900145,23,3,,,1,1,23.828971832990646,,,,Pattern,,,,
choice,fixation,296.30016412504483,297.8062790420372,24,3,,,,,,,,,Object,,,,
choice,option,297.81559162505437,298.84257566707674,24,3,,,,,,,,,Object,,,,
choice,choice,298.8427020839881,303.1245343340561,24,3,,,2,1,3.2699362080311403,,,,Object,,,,
memory,free_recall,315.42510179197416,333.5261576670455,12,3,,,,,,,,,,,,,
memory,value_recall,337.95721970906015,340.70061362499837,13,3,Object_Sea_Pattern_Large,,,,2.7400001250207424,,,,,-9,,,
memory,value_recall,342.49730812502094,344.09376924997196,14,3,Animal_Land_Solid_Small,,,,1.5922876669792458,,,,,-1,,,
memory,value_recall,345.3907202919945,347.49281466705725,15,3,Animal_Land_Pattern_Large,,,,2.0980280420044437,,,,,8,,,
memory,value_recall,349.040651874966,351.5265482920222,16,3,Object_Land_Solid_Small,,,,2.481317083002068,,,,,-3,,,
memory,value_recall,352.57470445905346,355.9404626250034,17,3,Object_Sea_Solid_Small,,,,3.3632239169673994,,,,,9,,,
memory,value_recall,357.9880633749999,362.05434583406895,18,3,Animal_Sea_Pattern_Large,,,,4.0614637499675155,,,,,8,,,
memory,spatial_recall,371.07408879196737,378.54576020897366,18,3,Animal_Sea_Pattern_Large,,,1,7.467613375047222,,,,,,"[329, -190]","[329, -190]",
memory,spatial_recall,380.1075563339982,381.6625055420445,18,3,Animal_Land_Pattern_Large,,,1,1.550948999938555,,,,,,"[-329, 190]","[-329, 190]",
memory,spatial_recall,382.70699841703754,385.67611166706774,18,3,Object_Sea_Solid_Small,,,1,2.966710334061645,,,,,,"[-329, -190]","[-329, -190]",
memory,spatial_recall,387.481430209009,388.442757916986,18,3,Animal_Land_Solid_Small,,,1,0.9572860830230638,,,,,,"[329, 189]","[329, 189]",
memory,spatial_recall,390.4987670839764,396.9455615839688,18,3,Object_Land_Solid_Small,,,1,6.442832917091437,,,,,,"[0, -380]","[0, -380]",
memory,spatial_recall,398.5010365420021,402.6484432499856,18,3,Object_Sea_Pattern_Large,,,1,4.143105125054717,,,,,,"[0, 380]","[0, 380]",
encoding,fixation,10.596663541975431,11.602474416955374,19,4,Animal_Sea_Solid_Small,-8,,,,,,,,,,,
encoding,image,11.60259408398997,12.614209083956666,19,4,Animal_Sea_Solid_Small,-8,,,,,,,,,,,
encoding,value,12.614333334029652,18.627200167044066,19,4,Animal_Sea_Solid_Small,-8,,,,,,,,,,,
encoding,attention,18.62731074995827,21.645269999979064,19,4,Animal_Sea_Solid_Small,-8,-8,1,0.9294674170669168,,,,,,,,
encoding,fixation,21.645435584010556,22.65076820901595,20,4,Object_Sea_Solid_Small,-5,,,,,,,,,,,
encoding,image,22.65089683397673,23.661025875015184,20,4,Object_Sea_Solid_Small,-5,,,,,,,,,,,
encoding,value,23.66116845898796,29.67220783396624,20,4,Object_Sea_Solid_Small,-5,,,,,,,,,,,
encoding,attention,29.672338249976747,32.6897825000342,20,4,Object_Sea_Solid_Small,-5,-5,1,0.9110125829465687,,,,,,,,
encoding,fixation,32.68999254202936,33.6985239170026,21,4,Object_Land_Pattern_Small,9,,,,,,,,,,,
encoding,image,33.698633583961055,34.70987508399412,21,4,Object_Land_Pattern_Small,9,,,,,,,,,,,
encoding,value,34.7099957090104,40.72233837505337,21,4,Object_Land_Pattern_Small,9,,,,,,,,,,,
encoding,attention,40.722459084005095,43.74199550005142,21,4,Object_Land_Pattern_Small,9,+9,1,0.7722914170008153,,,,,,,,
encoding,fixation,43.74215387494769,44.74895795900375,22,4,Object_Land_Pattern_Large,-1,,,,,,,,,,,
encoding,image,44.74905837501865,45.76102970901411,22,4,Object_Land_Pattern_Large,-1,,,,,,,,,,,
encoding,value,45.761171916965395,51.77377437497489,22,4,Object_Land_Pattern_Large,-1,,,,,,,,,,,
encoding,attention,51.77393549995031,54.7922550420044,22,4,Object_Land_Pattern_Large,-1,-1,1,0.9624243750004098,,,,,,,,
encoding,fixation,54.79247233399656,55.298324333969504,23,4,Animal_Sea_Solid_Large,8,,,,,,,,,,,
encoding,image,55.29843387496658,56.30896825005766,23,4,Animal_Sea_Solid_Large,8,,,,,,,,,,,
encoding,value,56.309101833961904,62.32086841703858,23,4,Animal_Sea_Solid_Large,8,,,,,,,,,,,
encoding,attention,62.321026416961104,65.33813933399506,23,4,Animal_Sea_Solid_Large,8,+8,1,0.9986859579803422,,,,,,,,
encoding,fixation,65.33829587500077,65.84380887495354,24,4,Animal_Land_Pattern_Large,-5,,,,,,,,,,,
encoding,image,65.84392837504856,66.85570974997245,24,4,Animal_Land_Pattern_Large,-5,,,,,,,,,,,
encoding,value,66.85589574999176,72.86696845898405,24,4,Animal_Land_Pattern_Large,-5,,,,,,,,,,,
encoding,attention,72.86708287498914,75.88590137497522,24,4,Animal_Land_Pattern_Large,-5,-5,1,0.866415666998364,,,,,,,,
n-back,,,,91,4,,,,0,None,V,True,None,,,,,
n-back,,,,92,4,,,,0,None,V,True,None,,,,,
n-back,,,,93,4,,,,1,None,X,False,None,,,,,
n-back,,,,94,4,,,,1,None,B,False,None,,,,,
n-back,,,,95,4,,,,0,None,X,True,None,,,,,
n-back,,,,96,4,,,,1,None,V,False,None,,,,,
n-back,,,,97,4,,,,1,None,Z,False,None,,,,,
n-back,,,,98,4,,,,1,None,B,False,None,,,,,
n-back,,,,99,4,,,,1,None,N,False,None,,,,,
n-back,,,,100,4,,,,1,0.45560945896431804,B,True,1,,,,,
n-back,,,,101,4,,,,1,0.8610012499848381,N,True,1,,,,,
n-back,,,,102,4,,,,1,0.8419285420095548,B,True,1,,,,,
n-back,,,,103,4,,,,1,0.7641541250050068,N,True,1,,,,,
n-back,,,,104,4,,,,1,None,C,False,None,,,,,
n-back,,,,105,4,,,,1,None,B,False,None,,,,,
n-back,,,,106,4,,,,1,None,Z,False,None,,,,,
n-back,,,,107,4,,,,1,None,X,False,None,,,,,
n-back,,,,108,4,,,,1,None,V,False,None,,,,,
n-back,,,,109,4,,,,1,None,Z,False,None,,,,,
n-back,,,,110,4,,,,0,None,V,True,None,,,,,
n-back,,,,111,4,,,,1,0.39862791704945266,Z,True,1,,,,,
n-back,,,,112,4,,,,1,None,N,False,None,,,,,
n-back,,,,113,4,,,,1,None,V,False,None,,,,,
n-back,,,,114,4,,,,1,None,B,False,None,,,,,
n-back,,,,115,4,,,,1,None,C,False,None,,,,,
n-back,,,,116,4,,,,1,None,Z,False,None,,,,,
n-back,,,,117,4,,,,1,None,N,False,None,,,,,
n-back,,,,118,4,,,,1,None,N,False,None,,,,,
n-back,,,,119,4,,,,1,0.37808937509544194,N,True,1,,,,,
n-back,,,,120,4,,,,1,None,B,False,None,,,,,
choice,fixation,163.63350050000008,164.13676095905248,25,4,,,,,,,,,Large,,,,
choice,option,164.14537679206114,165.17066779197194,25,4,,,,,,,,,Large,,,,
choice,choice,165.1707958340412,199.65766729204915,25,4,,,1,1,33.47600424999837,,,,Large,,,,
choice,fixation,199.65779816696886,201.16500120901037,26,4,,,,,,,,,Small,,,,
choice,option,201.1738860839978,202.20083079196047,26,4,,,,,,,,,Small,,,,
choice,choice,202.20095762505662,211.69588041701354,26,4,,,2,1,8.484020375064574,,,,Small,,,,
choice,fixation,211.69601254200097,212.70095175004099,27,4,,,,,,,,,Object,,,,
choice,option,212.71055820898619,213.73725962499157,27,4,,,,,,,,,Object,,,,
choice,choice,213.73741850000806,222.94374166696798,27,4,,,1,1,8.195469291997142,,,,Object,,,,
choice,fixation,222.94386783405207,223.69888658402488,28,4,,,,,,,,,Animal,,,,
choice,option,223.70851458399557,224.73501520894933,28,4,,,,,,,,,Animal,,,,
choice,choice,224.73511608398985,233.729184292024,28,4,,,2,1,7.982579417061061,,,,Animal,,,,
choice,fixation,233.7292989169946,234.73432479205076,29,4,,,,,,,,,Pattern,,,,
choice,option,234.74341833405197,235.7705759590026,29,4,,,,,,,,,Pattern,,,,
choice,choice,235.7706840840401,240.6714915840421,29,4,,,1,1,3.891333166975528,,,,Pattern,,,,
choice,fixation,240.67162066698074,241.67661133396905,30,4,,,,,,,,,Land,,,,
choice,option,241.68521541694645,242.71113395900466,30,4,,,,,,,,,Land,,,,
choice,choice,242.7112642090069,260.79975812498014,30,4,,,1,1,17.077876582974568,,,,Land,,,,
choice,fixation,260.7998874170007,261.30475604196545,31,4,,,,,,,,,Sea,,,,
choice,option,261.31355766695924,262.340071124956,31,4,,,,,,,,,Sea,,,,
choice,choice,262.34025279199705,269.13662429200485,31,4,,,2,1,5.784241124987602,,,,Sea,,,,
choice,fixation,269.136759334011,270.1417103339918,32,4,,,,,,,,,Solid,,,,
choice,option,270.15087124996353,271.1779725840315,32,4,,,,,,,,,Solid,,,,
choice,choice,271.1780968339881,290.0027683340013,32,4,,,2,1,17.813648834009655,,,,Solid,,,,
memory,free_recall,306.5150687500136,322.66629041696433,18,4,,,,,,,,,,,,,
memory,value_recall,326.28810845897533,332.47510479204357,19,4,Object_Land_Pattern_Large,,,,6.183680666028522,,,,,-1,,,
memory,value_recall,334.02006845897995,335.90498858399224,20,4,Animal_Sea_Solid_Large,,,,1.8805298749357462,,,,,8,,,
memory,value_recall,336.95114849996753,338.22953895898536,21,4,Animal_Sea_Solid_Small,,,,1.2757835420779884,,,,,-8,,,
memory,value_recall,340.2749468750553,341.43346808396745,22,4,Animal_Land_Pattern_Large,,,,1.1537191250827163,,,,,-5,,,
memory,value_recall,342.97279945900664,345.15518783405423,23,4,Object_Sea_Solid_Small,,,,2.178297708975151,,,,,-5,,,
memory,value_recall,346.2003506249748,347.7336065840209,24,4,Object_Land_Pattern_Small,,,,1.5306166249793023,,,,,9,,,
memory,spatial_recall,351.6569585839752,359.27311091695447,24,4,Object_Land_Pattern_Large,,,1,7.609417791012675,,,,,,"[329, -190]","[329, -190]",
memory,spatial_recall,360.83728795906063,362.4901966250036,24,4,Animal_Sea_Solid_Small,,,1,1.6484850420383736,,,,,,"[329, 189]","[329, 189]",
memory,spatial_recall,364.3024555000011,365.7569631249644,24,4,Object_Land_Pattern_Small,,,1,1.4504742079880089,,,,,,"[0, 380]","[0, 380]",
memory,spatial_recall,367.569306334015,370.88633795897476,24,4,Animal_Sea_Solid_Large,,,1,3.3130890000611544,,,,,,"[0, -380]","[0, -380]",
memory,spatial_recall,372.69284604198765,374.21658895898145,24,4,Animal_Land_Pattern_Large,,,1,1.5194774579722434,,,,,,"[-329, 190]","[-329, 190]",
memory,spatial_recall,375.51769620901905,377.33331962500233,24,4,Object_Sea_Solid_Small,,,1,1.8116901670582592,,,,,,"[-329, -190]","[-329, -190]",
encoding,fixation,14.894419000018388,15.649639750015922,25,5,Object_Sea_Solid_Large,6,,,,,,,,,,,
encoding,image,15.649758415995166,16.66148437501397,25,5,Object_Sea_Solid_Large,6,,,,,,,,,,,
encoding,value,16.661614625016227,22.674858250073157,25,5,Object_Sea_Solid_Large,6,,,,,,,,,,,
encoding,attention,22.674977333052084,25.692513708025217,25,5,Object_Sea_Solid_Large,6,+6,1,0.43174662499222904,,,,,,,,
encoding,fixation,25.69271612504963,26.19783629104495,26,5,Animal_Land_Pattern_Small,2,,,,,,,,,,,
encoding,image,26.197940375073813,27.208658375078812,26,5,Animal_Land_Pattern_Small,2,,,,,,,,,,,
encoding,value,27.208777207997628,33.22118037508335,26,5,Animal_Land_Pattern_Small,2,,,,,,,,,,,
encoding,attention,33.22129304101691,36.23841245798394,26,5,Animal_Land_Pattern_Small,2,+2,1,0.9253926670644432,,,,,,,,
encoding,fixation,36.23860270809382,36.99440000008326,27,5,Animal_Sea_Pattern_Small,-9,,,,,,,,,,,
encoding,image,36.99451629107352,38.0058001660509,27,5,Animal_Sea_Pattern_Small,-9,,,,,,,,,,,
encoding,value,38.005921000032686,44.02029587503057,27,5,Animal_Sea_Pattern_Small,-9,,,,,,,,,,,
encoding,attention,44.02042304107454,47.03777733305469,27,5,Animal_Sea_Pattern_Small,-9,-9,1,1.120378499967046,,,,,,,,
encoding,fixation,47.03794920805376,47.7933562080143,28,5,Animal_Land_Solid_Large,1,,,,,,,,,,,
encoding,image,47.793480499996804,48.805196375004016,28,5,Animal_Land_Solid_Large,1,,,,,,,,,,,
encoding,value,48.80529812502209,54.817997083067894,28,5,Animal_Land_Solid_Large,1,,,,,,,,,,,
encoding,attention,54.81811037508305,57.830906041082926,28,5,Animal_Land_Solid_Large,1,None,None,None,,,,,,,,
encoding,fixation,57.83104658301454,58.33692112506833,29,5,Object_Sea_Pattern_Small,5,,,,,,,,,,,
encoding,image,58.33704445802141,59.34787754109129,29,5,Object_Sea_Pattern_Small,5,,,,,,,,,,,
encoding,value,59.34799441602081,65.35974637500476,29,5,Object_Sea_Pattern_Small,5,,,,,,,,,,,
encoding,attention,65.35987883305643,68.37646254105493,29,5,Object_Sea_Pattern_Small,5,+5,1,0.9467992500867695,,,,,,,,
encoding,fixation,68.37661250005476,69.8817481660517,30,5,Object_Land_Solid_Large,-9,,,,,,,,,,,
encoding,image,69.8818613330368,70.89221004105639,30,5,Object_Land_Solid_Large,-9,,,,,,,,,,,
encoding,value,70.89237029105425,76.90262070798781,30,5,Object_Land_Solid_Large,-9,,,,,,,,,,,
encoding,attention,76.90273483307101,79.91880595800467,30,5,Object_Land_Solid_Large,-9,-9,1,1.27495012502186,,,,,,,,
n-back,,,,121,5,,,,0,None,N,True,None,,,,,
n-back,,,,122,5,,,,1,None,B,False,None,,,,,
n-back,,,,123,5,,,,1,1.1142710000276566,N,True,1,,,,,
n-back,,,,124,5,,,,1,None,V,False,None,,,,,
n-back,,,,125,5,,,,1,1.321916207903996,N,True,1,,,,,
n-back,,,,126,5,,,,1,None,Z,False,None,,,,,
n-back,,,,127,5,,,,1,None,B,False,None,,,,,
n-back,,,,128,5,,,,1,None,X,False,None,,,,,
n-back,,,,129,5,,,,0,None,B,True,None,,,,,
n-back,,,,130,5,,,,1,None,Z,False,None,,,,,
n-back,,,,131,5,,,,1,None,N,False,None,,,,,
n-back,,,,132,5,,,,1,None,N,False,None,,,,,
n-back,,,,133,5,,,,1,None,Z,False,None,,,,,
n-back,,,,134,5,,,,1,None,X,False,None,,,,,
n-back,,,,135,5,,,,1,None,X,False,None,,,,,
n-back,,,,136,5,,,,1,0.38320862501859665,X,True,1,,,,,
n-back,,,,137,5,,,,1,None,V,False,None,,,,,
n-back,,,,138,5,,,,1,None,N,False,None,,,,,
n-back,,,,139,5,,,,1,None,N,False,None,,,,,
n-back,,,,140,5,,,,1,0.7913936669938266,N,True,1,,,,,
n-back,,,,141,5,,,,1,None,B,False,None,,,,,
n-back,,,,142,5,,,,1,1.0592224999563769,N,True,1,,,,,
n-back,,,,143,5,,,,1,None,N,False,None,,,,,
n-back,,,,144,5,,,,1,None,X,False,None,,,,,
n-back,,,,145,5,,,,0,None,N,True,None,,,,,
n-back,,,,146,5,,,,1,None,C,False,None,,,,,
n-back,,,,147,5,,,,1,1.2862227499717847,N,True,1,,,,,
n-back,,,,148,5,,,,1,None,V,False,None,,,,,
n-back,,,,149,5,,,,1,None,V,False,None,,,,,
n-back,,,,150,5,,,,0,None,V,True,None,,,,,
choice,fixation,157.78181583306286,159.28738354099914,33,5,,,,,,,,,Small,,,,
choice,option,159.2960675000213,160.32171062508132,33,5,,,,,,,,,Small,,,,
choice,choice,160.3218262080336,185.31659154105,33,5,,,2,1,23.9832946669776,,,,Small,,,,
choice,fixation,185.31672120804433,186.57172112504486,34,5,,,,,,,,,Solid,,,,
choice,option,186.58106783300173,187.60794225009158,34,5,,,,,,,,,Solid,,,,
choice,choice,187.6080504580168,204.17593487503473,34,5,,,1,0,15.557168708997779,,,,Solid,,,,
choice,fixation,204.17606504098512,204.68126974999905,35,5,,,,,,,,,Land,,,,
choice,option,204.69014858303126,205.71700529102236,35,5,,,,,,,,,Land,,,,
choice,choice,205.7171134580858,231.96466508309823,35,5,,,1,0,25.236593500012532,,,,Land,,,,
choice,fixation,231.96478825004306,233.22106166603044,36,5,,,,,,,,,Large,,,,
choice,option,233.22978595807217,234.2561732500326,36,5,,,,,,,,,Large,,,,
choice,choice,234.25630425009876,237.45031400001608,36,5,,,1,0,2.18437279202044,,,,Large,,,,
choice,fixation,237.4504383330932,238.20542829099577,37,5,,,,,,,,,Pattern,,,,
choice,option,238.21463737508748,239.24066762509756,37,5,,,,,,,,,Pattern,,,,
choice,choice,239.24079529102892,240.63861854106653,37,5,,,2,1,0.3854997089365497,,,,Pattern,,,,
choice,fixation,240.6388307909947,242.1440074160928,38,5,,,,,,,,,Animal,,,,
choice,option,242.15361670800485,243.18014950002544,38,5,,,,,,,,,Animal,,,,
choice,choice,243.1802710830234,245.3746430410538,38,5,,,2,1,1.1828185840277001,,,,Animal,,,,
choice,fixation,245.3747876250418,246.8800213750219,39,5,,,,,,,,,Sea,,,,
choice,option,246.88833149999846,247.9148402500432,39,5,,,,,,,,,Sea,,,,
choice,choice,247.91495766607113,251.114253540989,39,5,,,2,0,2.189051458030008,,,,Sea,,,,
choice,fixation,251.11445695802104,252.6196666250471,40,5,,,,,,,,,Object,,,,
choice,option,252.62885445798747,253.65550429106224,40,5,,,,,,,,,Object,,,,
choice,choice,253.65560937509872,268.1004613750847,40,5,,,1,1,13.434347625006922,,,,Object,,,,
memory,free_recall,277.22138041607104,281.0467340410687,24,5,,,,,,,,,,,,,
memory,value_recall,304.11315633310005,310.6864857079927,25,5,Animal_Sea_Pattern_Small,,,,6.566765625029802,,,,,-9,,,
memory,value_recall,311.98254320805427,312.9815331250429,26,5,Object_Sea_Solid_Large,,,,0.9948924999916926,,,,,6,,,
memory,value_recall,314.52095466607716,316.628871416091,27,5,Animal_Land_Pattern_Small,,,,2.104008874972351,,,,,2,,,
memory,value_recall,318.424463625066,323.3053900829982,28,5,Object_Sea_Pattern_Small,,,,4.87688979099039,,,,,5,,,
memory,value_recall,324.60061679105274,327.61359283304773,29,5,Object_Land_Solid_Large,,,,3.008402624982409,,,,,-9,,,
memory,value_recall,328.9113221660955,330.42919737508055,30,5,Animal_Land_Solid_Large,,,,1.5136911250883713,,,,,1,,,
memory,spatial_recall,336.137308083009,337.8432140410878,30,5,Animal_Land_Pattern_Small,,,1,1.7019075840944424,,,,,,"[0, 380]","[0, 380]",
memory,spatial_recall,338.89882624999154,339.7255895830458,30,5,Object_Land_Solid_Large,,,1,0.8234479579841718,,,,,,"[329, -190]","[329, -190]",
memory,spatial_recall,341.0209596250206,341.9261200410547,30,5,Animal_Land_Solid_Large,,,1,0.9012570410268381,,,,,,"[0, -380]","[0, -380]",
memory,spatial_recall,343.7318194160471,344.8397064580349,30,5,Object_Sea_Solid_Large,,,1,1.1038262910442427,,,,,,"[329, 189]","[329, 189]",
memory,spatial_recall,346.1407687080791,347.0980430410709,30,5,Object_Sea_Pattern_Small,,,1,0.9533635830739513,,,,,,"[-329, -190]","[-329, -190]",
memory,spatial_recall,348.4039101250237,349.8136171250371,30,5,Animal_Sea_Pattern_Small,,,1,1.4056580408941954,,,,,,"[-329, 190]","[-329, 190]",
encoding,fixation,1.9186205000150949,2.92370604199823,31,6,Object_Land_Solid_Small,6,,,,,,,,,,,
encoding,image,2.9238280419958755,3.9356042919680476,31,6,Object_Land_Solid_Small,6,,,,,,,,,,,
encoding,value,3.9357227500295267,9.948955875006504,31,6,Object_Land_Solid_Small,6,,,,,,,,,,,
encoding,attention,9.949069624999538,12.96656187507324,31,6,Object_Land_Solid_Small,6,+6,1,1.0787331250030547,,,,,,,,
encoding,fixation,12.966712250025012,13.971785083063878,32,6,Object_Sea_Pattern_Large,6,,,,,,,,,,,
encoding,image,13.971891666995361,14.983370166970417,32,6,Object_Sea_Pattern_Large,6,,,,,,,,,,,
encoding,value,14.983492958010174,20.99600525002461,32,6,Object_Sea_Pattern_Large,6,,,,,,,,,,,
encoding,attention,20.99612912500743,24.01698650000617,32,6,Object_Sea_Pattern_Large,6,+6,1,0.958417083020322,,,,,,,,
encoding,fixation,24.017149792052805,25.52224754204508,33,6,Animal_Sea_Pattern_Large,-1,,,,,,,,,,,
encoding,image,25.522374249994755,26.533837666967884,33,6,Animal_Sea_Pattern_Large,-1,,,,,,,,,,,
encoding,value,26.533947958028875,32.545092749991454,33,6,Animal_Sea_Pattern_Large,-1,,,,,,,,,,,
encoding,attention,32.54520425002556,35.56226841697935,33,6,Animal_Sea_Pattern_Large,-1,-1,1,1.0198823750251904,,,,,,,,
encoding,fixation,35.562433333019726,36.81741320807487,34,6,Animal_Land_Solid_Small,5,,,,,,,,,,,
encoding,image,36.817535417038016,37.828279500012286,34,6,Animal_Land_Solid_Small,5,,,,,,,,,,,
encoding,value,37.82840841705911,43.84139812504873,34,6,Animal_Land_Solid_Small,5,,,,,,,,,,,
encoding,attention,43.84155520796776,46.85806912498083,34,6,Animal_Land_Solid_Small,5,+5,1,0.6042831660015509,,,,,,,,
encoding,fixation,46.858240292058326,47.363263292005286,35,6,Animal_Land_Pattern_Large,-2,,,,,,,,,,,
encoding,image,47.363381750066765,48.37488945806399,35,6,Animal_Land_Pattern_Large,-2,,,,,,,,,,,
encoding,value,48.375018000020646,54.38677700003609,35,6,Animal_Land_Pattern_Large,-2,,,,,,,,,,,
encoding,attention,54.38689837499987,57.403754875063896,35,6,Animal_Land_Pattern_Large,-2,-2,1,1.8328419589670375,,,,,,,,
encoding,fixation,57.4039050830761,58.65921541699208,36,6,Object_Sea_Solid_Small,-6,,,,,,,,,,,
encoding,image,58.65933308308013,59.66977241705172,36,6,Object_Sea_Solid_Small,-6,,,,,,,,,,,
encoding,value,59.669886208022945,65.68051337497309,36,6,Object_Sea_Solid_Small,-6,,,,,,,,,,,
encoding,attention,65.68062858306803,68.69691920804325,36,6,Object_Sea_Solid_Small,-6,+8,0,0.7942270420026034,,,,,,,,
n-back,,,,151,6,,,,0,None,B,True,None,,,,,
n-back,,,,152,6,,,,1,None,B,False,None,,,,,
n-back,,,,153,6,,,,1,None,C,False,None,,,,,
n-back,,,,154,6,,,,1,None,C,False,None,,,,,
n-back,,,,155,6,,,,1,None,V,False,None,,,,,
n-back,,,,156,6,,,,1,None,B,False,None,,,,,
n-back,,,,157,6,,,,1,None,C,False,None,,,,,
n-back,,,,158,6,,,,1,None,Z,False,None,,,,,
n-back,,,,159,6,,,,1,None,V,False,None,,,,,
n-back,,,,160,6,,,,1,0.41697195800952613,Z,True,1,,,,,
n-back,,,,161,6,,,,1,None,B,False,None,,,,,
n-back,,,,162,6,,,,1,None,X,False,None,,,,,
n-back,,,,163,6,,,,1,None,X,False,None,,,,,
n-back,,,,164,6,,,,1,None,N,False,None,,,,,
n-back,,,,165,6,,,,0,None,X,True,None,,,,,
n-back,,,,166,6,,,,1,None,C,False,None,,,,,
n-back,,,,167,6,,,,1,None,N,False,None,,,,,
n-back,,,,168,6,,,,1,None,V,False,None,,,,,
n-back,,,,169,6,,,,1,0.6294364159693941,N,True,1,,,,,
n-back,,,,170,6,,,,1,0.6361427499214187,V,True,1,,,,,
n-back,,,,171,6,,,,1,None,X,False,None,,,,,
n-back,,,,172,6,,,,1,0.42572858394123614,V,True,1,,,,,
n-back,,,,173,6,,,,1,0.4931686660274863,X,True,1,,,,,
n-back,,,,174,6,,,,0,None,V,True,None,,,,,
n-back,,,,175,6,,,,1,None,Z,False,None,,,,,
n-back,,,,176,6,,,,1,0.5403562500141561,V,True,1,,,,,
n-back,,,,177,6,,,,1,None,B,False,None,,,,,
n-back,,,,178,6,,,,1,None,N,False,None,,,,,
n-back,,,,179,6,,,,1,1.3241708340356126,B,True,1,,,,,
n-back,,,,180,6,,,,1,None,B,False,None,,,,,
choice,fixation,143.40879916702397,143.91417437500786,41,6,,,,,,,,,Sea,,,,
choice,option,143.92225666705053,144.94764933304396,41,6,,,,,,,,,Sea,,,,
choice,choice,144.94776062504388,171.38261195807718,41,6,,,1,0,25.423263040953316,,,,Sea,,,,
choice,fixation,171.38278895802796,172.13781983300578,42,6,,,,,,,,,Small,,,,
choice,option,172.14721458300482,173.1737294580089,42,6,,,,,,,,,Small,,,,
choice,choice,173.17384420800954,179.88432437507436,42,6,,,1,1,5.700971250073053,,,,Small,,,,
choice,fixation,179.88444112497382,180.3908481670078,43,6,,,,,,,,,Land,,,,
choice,option,180.3993901250651,181.4273009999888,43,6,,,,,,,,,Land,,,,
choice,choice,181.42740849999245,191.52519712504,43,6,,,1,1,9.086826708982699,,,,Land,,,,
choice,fixation,191.5253325420199,192.28060845797881,44,6,,,,,,,,,Solid,,,,
choice,option,192.29055087501183,193.3169699170394,44,6,,,,,,,,,Solid,,,,
choice,choice,193.31716262502596,205.9659424580168,44,6,,,1,1,11.637963874964043,,,,Solid,,,,
choice,fixation,205.96607791702263,206.4711164580658,45,6,,,,,,,,,Large,,,,
choice,option,206.47989175003022,207.50892870803364,45,6,,,,,,,,,Large,,,,
choice,choice,207.50905008299742,214.0910248750588,45,6,,,1,1,5.572189374943264,,,,Large,,,,
choice,fixation,214.09116179205012,214.84643008303829,46,6,,,,,,,,,Pattern,,,,
choice,option,214.8560938750161,215.88287275005132,46,6,,,,,,,,,Pattern,,,,
choice,choice,215.88298870797735,229.58223687508143,46,6,,,1,1,12.688425624975935,,,,Pattern,,,,
choice,fixation,229.5823886670405,230.33757833298296,47,6,,,,,,,,,Animal,,,,
choice,option,230.34730395802762,231.37524575006682,47,6,,,,,,,,,Animal,,,,
choice,choice,231.3753562499769,235.86109316698276,47,6,,,1,1,3.4761131670093164,,,,Animal,,,,
choice,fixation,235.861217583064,236.86611412500497,48,6,,,,,,,,,Object,,,,
choice,option,236.87537720799446,237.90144579205662,48,6,,,,,,,,,Object,,,,
choice,choice,237.90163941704668,248.61516741698142,48,6,,,1,1,9.700936458073556,,,,Object,,,,
memory,free_recall,255.46259224996902,268.16695916699246,30,6,,,,,,,,,,,,,
memory,value_recall,272.39301095798146,275.02927620802075,31,6,Animal_Land_Solid_Small,,,,2.632208333001472,,,,,5,,,
memory,value_recall,276.32615533308126,278.10952583304606,32,6,Object_Sea_Pattern_Large,,,,1.7790392499882728,,,,,6,,,
memory,value_recall,279.9051653749775,282.0398753749905,33,6,Animal_Land_Pattern_Large,,,,2.130561832920648,,,,,-2,,,
memory,value_recall,284.08604983298574,286.7590477920603,34,6,Object_Land_Solid_Small,,,,2.668633749941364,,,,,6,,,
memory,value_recall,287.80402858299203,289.64703512506094,35,6,Object_Sea_Solid_Small,,,,1.8397327909478918,,,,,-6,,,
memory,value_recall,290.9421368329786,292.44707179197576,36,6,Animal_Sea_Pattern_Large,,,,1.5008878749795258,,,,,-1,,,
memory,spatial_recall,295.693451542058,299.0469702499686,36,6,Animal_Land_Solid_Small,,,1,3.349557749927044,,,,,,"[329, 189]","[329, 189]",
memory,spatial_recall,301.1079888329841,308.52996308298316,36,6,Animal_Land_Pattern_Large,,,1,7.417998959077522,,,,,,"[-329, 190]","[-329, 190]",
memory,spatial_recall,309.836425333051,310.88461341697257,36,6,Object_Land_Solid_Small,,,1,1.0441769170574844,,,,,,"[0, -380]","[0, -380]",
memory,spatial_recall,312.1924583329819,313.36738112499006,36,6,Object_Sea_Pattern_Large,,,1,1.1709917089901865,,,,,,"[0, 380]","[0, 380]",
memory,spatial_recall,315.4262574170716,317.297794208047,36,6,Animal_Sea_Pattern_Large,,,1,1.8674664589343593,,,,,,"[329, -190]","[329, -190]",
memory,spatial_recall,319.10079591698013,322.3797123329714,36,6,Object_Sea_Solid_Small,,,1,3.272165957954712,,,,,,"[-329, -190]","[-329, -190]",
encoding,fixation,5.354341167025268,6.6095721669262275,37,7,Animal_Land_Pattern_Small,-4,,,,,,,,,,,
encoding,image,6.609683291986585,7.621433624997735,37,7,Animal_Land_Pattern_Small,-4,,,,,,,,,,,
encoding,value,7.621542667038739,13.636177459033206,37,7,Animal_Land_Pattern_Small,-4,,,,,,,,,,,
encoding,attention,13.636297874967568,16.653518834034912,37,7,Animal_Land_Pattern_Small,-4,-4,1,0.9556685839779675,,,,,,,,
encoding,fixation,16.653733999934047,17.409061084035784,38,7,Animal_Sea_Pattern_Small,4,,,,,,,,,,,
encoding,image,17.409154916997068,18.42014320893213,38,7,Animal_Sea_Pattern_Small,4,,,,,,,,,,,
encoding,value,18.42027100000996,24.431979374960065,38,7,Animal_Sea_Pattern_Small,4,,,,,,,,,,,
encoding,attention,24.43210408394225,27.450485083973035,38,7,Animal_Sea_Pattern_Small,4,+4,1,0.8388993749395013,,,,,,,,
encoding,fixation,27.450639334041625,28.70587937498931,39,7,Animal_Land_Solid_Large,-1,,,,,,,,,,,
encoding,image,28.705989792011678,29.718793916981667,39,7,Animal_Land_Solid_Large,-1,,,,,,,,,,,
encoding,value,29.718901625019498,35.73014120897278,39,7,Animal_Land_Solid_Large,-1,,,,,,,,,,,
encoding,attention,35.730287292040884,38.747399167041294,39,7,Animal_Land_Solid_Large,-1,-1,1,0.8699219160480425,,,,,,,,
encoding,fixation,38.74755304201972,39.25352995900903,40,7,Object_Sea_Solid_Large,-7,,,,,,,,,,,
encoding,image,39.25364424998406,40.26554220903199,40,7,Object_Sea_Solid_Large,-7,,,,,,,,,,,
encoding,value,40.26571129192598,46.27783604199067,40,7,Object_Sea_Solid_Large,-7,,,,,,,,,,,
encoding,attention,46.27795883396175,49.29553870903328,40,7,Object_Sea_Solid_Large,-7,-9,0,1.2476463749771938,,,,,,,,
encoding,fixation,49.295698583940975,49.80443970893975,41,7,Object_Land_Solid_Large,9,,,,,,,,,,,
encoding,image,49.804551249952056,50.81505329196807,41,7,Object_Land_Solid_Large,9,,,,,,,,,,,
encoding,value,50.815276874927804,56.82686079200357,41,7,Object_Land_Solid_Large,9,,,,,,,,,,,
encoding,attention,56.82703395897988,59.84244904201478,41,7,Object_Land_Solid_Large,9,+9,1,0.8473739579785615,,,,,,,,
encoding,fixation,59.842602791963145,61.10057220899034,42,7,Object_Sea_Pattern_Small,2,,,,,,,,,,,
encoding,image,61.10070900002029,62.11111829197034,42,7,Object_Sea_Pattern_Small,2,,,,,,,,,,,
encoding,value,62.11122887500096,68.12213933398016,42,7,Object_Sea_Pattern_Small,2,,,,,,,,,,,
encoding,attention,68.12225616700016,71.1404837500304,42,7,Object_Sea_Pattern_Small,2,+2,1,1.372755124932155,,,,,,,,
n-back,,,,181,7,,,,1,None,C,False,None,,,,,
n-back,,,,182,7,,,,1,None,V,False,None,,,,,
n-back,,,,183,7,,,,0,None,C,True,None,,,,,
n-back,,,,184,7,,,,1,0.7548434579512104,V,True,1,,,,,
n-back,,,,185,7,,,,1,None,N,False,None,,,,,
n-back,,,,186,7,,,,0,None,V,True,None,,,,,
n-back,,,,187,7,,,,1,None,V,False,None,,,,,
n-back,,,,188,7,,,,1,0.3520215000025928,V,True,1,,,,,
n-back,,,,189,7,,,,1,0.45502541691530496,V,True,1,,,,,
n-back,,,,190,7,,,,1,None,N,False,None,,,,,
n-back,,,,191,7,,,,0,None,V,True,None,,,,,
n-back,,,,192,7,,,,1,None,X,False,None,,,,,
n-back,,,,193,7,,,,0,None,V,True,None,,,,,
n-back,,,,194,7,,,,1,None,B,False,None,,,,,
n-back,,,,195,7,,,,1,None,N,False,None,,,,,
n-back,,,,196,7,,,,1,None,V,False,None,,,,,
n-back,,,,197,7,,,,0,None,N,True,None,,,,,
n-back,,,,198,7,,,,1,None,Z,False,None,,,,,
n-back,,,,199,7,,,,1,None,V,False,None,,,,,
n-back,,,,200,7,,,,1,0.4877240411005914,Z,True,1,,,,,
n-back,,,,201,7,,,,1,None,B,False,None,,,,,
n-back,,,,202,7,,,,1,None,C,False,None,,,,,
n-back,,,,203,7,,,,1,None,N,False,None,,,,,
n-back,,,,204,7,,,,1,None,N,False,None,,,,,
n-back,,,,205,7,,,,1,None,V,False,None,,,,,
n-back,,,,206,7,,,,1,0.3949930409435183,N,True,1,,,,,
n-back,,,,207,7,,,,1,None,C,False,None,,,,,
n-back,,,,208,7,,,,1,None,Z,False,None,,,,,
n-back,,,,209,7,,,,1,None,N,False,None,,,,,
n-back,,,,210,7,,,,1,None,X,False,None,,,,,
choice,fixation,143.50220141699538,144.50748124998063,49,7,,,,,,,,,Large,,,,
choice,option,144.51575349993072,145.5424257919658,49,7,,,,,,,,,Large,,,,
choice,choice,145.5425503749866,155.77790104201995,49,7,,,1,1,9.224559583002701,,,,Large,,,,
choice,fixation,155.77801929193083,156.5331133339787,50,7,,,,,,,,,Land,,,,
choice,option,156.54179420892615,157.56957062496804,50,7,,,,,,,,,Land,,,,
choice,choice,157.56972366699483,164.06513695896138,50,7,,,1,1,5.484991000033915,,,,Land,,,,
choice,fixation,164.06536358396988,164.82039779203478,51,7,,,,,,,,,Object,,,,
choice,option,164.83015362499282,165.85657304199412,51,7,,,,,,,,,Object,,,,
choice,choice,165.8566852089716,171.98753425001632,51,7,,,1,1,5.118776416988112,,,,Object,,,,
choice,fixation,171.987666958943,173.4926508750068,52,7,,,,,,,,,Solid,,,,
choice,option,173.50214008393232,174.53012437501457,52,7,,,,,,,,,Solid,,,,
choice,choice,174.53024037496652,190.2265467919642,52,7,,,2,0,14.684405457926914,,,,Solid,,,,
choice,fixation,190.22667379199993,191.23162670899183,53,7,,,,,,,,,Small,,,,
choice,option,191.2405184590025,192.2668397499947,53,7,,,,,,,,,Small,,,,
choice,choice,192.26694966701325,203.9143154589692,53,7,,,2,0,10.636579625075683,,,,Small,,,,
choice,fixation,203.9145077499561,205.41963779192884,54,7,,,,,,,,,Sea,,,,
choice,option,205.42787520901766,206.4544548749691,54,7,,,,,,,,,Sea,,,,
choice,choice,206.45456908398774,213.48980166693218,54,7,,,1,0,6.025330916978419,,,,Sea,,,,
choice,fixation,213.49000550003257,214.24509445903823,55,7,,,,,,,,,Pattern,,,,
choice,option,214.25434383400716,215.2810245839646,55,7,,,,,,,,,Pattern,,,,
choice,choice,215.2811576250242,225.17692124994937,55,7,,,2,0,8.88543995807413,,,,Pattern,,,,
choice,fixation,225.17710087494925,225.68233958398923,56,7,,,,,,,,,Animal,,,,
choice,option,225.691921834019,226.72016566700768,56,7,,,,,,,,,Animal,,,,
choice,choice,226.72029179194942,230.95318704203237,56,7,,,1,0,3.2211181249003857,,,,Animal,,,,
memory,free_recall,247.37785437493585,260.378808959038,36,7,,,,,,,,,,,,,
memory,value_recall,263.8491045839619,265.5394397089258,37,7,Animal_Land_Solid_Large,,,,1.6860799589194357,,,,,-1,,,
memory,value_recall,267.08620958402753,268.96414974995423,38,7,Animal_Land_Pattern_Small,,,,1.873771374928765,,,,,-4,,,
memory,value_recall,271.01070991693996,274.1791162500158,39,7,Object_Sea_Pattern_Small,,,,3.1642282500397414,,,,,2,,,
memory,value_recall,275.9745449590264,277.1178104169667,40,7,Object_Land_Solid_Large,,,,1.1381712909787893,,,,,9,,,
memory,value_recall,278.9133144170046,280.2258900000015,41,7,Object_Sea_Solid_Large,,,,1.3069294579327106,,,,,-7,,,
memory,value_recall,281.2693619169295,282.92373199993744,42,7,Animal_Sea_Pattern_Small,,,,1.6510743749095127,,,,,4,,,
memory,spatial_recall,288.5544113749638,290.2250555839855,42,7,Object_Land_Solid_Large,,,1,1.6666636249283329,,,,,,"[329, -190]","[329, -190]",
memory,spatial_recall,292.2853881249903,293.71201741695404,42,7,Object_Sea_Solid_Large,,,1,1.4226820420008153,,,,,,"[329, 189]","[329, 189]",
memory,spatial_recall,295.52521904197056,298.1429698750144,42,7,Animal_Land_Solid_Large,,,1,2.6135785420192406,,,,,,"[0, -380]","[0, -380]",
memory,spatial_recall,300.2006658749888,302.79162904201075,42,7,Animal_Sea_Pattern_Small,,,1,2.586834124987945,,,,,,"[-329, 190]","[-329, 190]",
memory,spatial_recall,303.84720216703136,304.8127786249388,42,7,Object_Sea_Pattern_Small,,,1,0.9615406250813976,,,,,,"[-329, -190]","[-329, -190]",
memory,spatial_recall,306.6236528339796,308.0914379589958,42,7,Animal_Land_Pattern_Small,,,1,1.4632336249342188,,,,,,"[0, 380]","[0, 380]",
