phase,event,trial_number,eyetracker_onset,eyetracker_offset,fix_start,fix_end,fix_duration_full,fix_duration_bounded,fix_x,fix_y,roi_x,roi_y,roi_content,onset,offset,game,image,outcome,choice,correct,rt,letter,match,response,option,true_value,true_position,recalled_position,Unnamed: 18
encoding,fixation,1,10007943,10009204,10008194.0,10008512.0,319.0,319.0,1923.3,1159.7,1920.0,700.0,Object_Land_Pattern_Small,19.64887479203753,20.91031841700897,1.0,Animal_Sea_Solid_Small,-3.0,,,,,,,,,,,
encoding,fixation,1,10007943,10009204,10008705.0,10008993.0,289.0,289.0,1777.1,1418.0,1920.0,700.0,Object_Land_Pattern_Small,19.64887479203753,20.91031841700897,1.0,Animal_Sea_Solid_Small,-3.0,,,,,,,,,,,
encoding,fixation,1,10007943,10009204,10009169.0,10009267.0,99.0,35.0,1767.8,1122.7,1591.0,891.0,Animal_Land_Pattern_Large,19.64887479203753,20.91031841700897,1.0,Animal_Sea_Solid_Small,-3.0,,,,,,,,,,,
encoding,image,1,10009205,10010222,10009486.0,10009541.0,56.0,56.0,2149.0,1121.3,2249.0,891.0,Animal_Sea_Solid_Small,20.910452917101793,21.927266792044975,1.0,Animal_Sea_Solid_Small,-3.0,,,,,,,,,,,
encoding,image,1,10009205,10010222,10009568.0,10009982.0,415.0,415.0,2252.2,1273.8,2249.0,891.0,Animal_Sea_Solid_Small,20.910452917101793,21.927266792044975,1.0,Animal_Sea_Solid_Small,-3.0,,,,,,,,,,,
encoding,image,1,10009205,10010222,10009997.0,10010192.0,196.0,196.0,2247.7,1186.1,2249.0,891.0,Animal_Sea_Solid_Small,20.910452917101793,21.927266792044975,1.0,Animal_Sea_Solid_Small,-3.0,,,,,,,,,,,
encoding,image,1,10009205,10010222,10010205.0,10010341.0,137.0,17.0,2234.3,1226.4,2249.0,891.0,Animal_Sea_Solid_Small,20.910452917101793,21.927266792044975,1.0,Animal_Sea_Solid_Small,-3.0,,,,,,,,,,,
encoding,value,1,10010222,10016237,10010491.0,10010604.0,114.0,114.0,2249.1,1138.0,2249.0,891.0,Animal_Sea_Solid_Small,21.927380292094313,27.942025125026703,1.0,Animal_Sea_Solid_Small,-3.0,,,,,,,,,,,
encoding,value,1,10010222,10016237,10010803.0,10011173.0,371.0,371.0,2227.3,1247.7,2249.0,891.0,Animal_Sea_Solid_Small,21.927380292094313,27.942025125026703,1.0,Animal_Sea_Solid_Small,-3.0,,,,,,,,,,,
encoding,value,1,10010222,10016237,10011183.0,10011356.0,174.0,174.0,2230.7,1284.6,2249.0,891.0,Animal_Sea_Solid_Small,21.927380292094313,27.942025125026703,1.0,Animal_Sea_Solid_Small,-3.0,,,,,,,,,,,
encoding,value,1,10010222,10016237,10011540.0,10011695.0,156.0,156.0,2229.9,1027.5,2249.0,1269.0,Object_Land_Pattern_Large,21.927380292094313,27.942025125026703,1.0,Animal_Sea_Solid_Small,-3.0,,,,,,,,,,,
encoding,value,1,10010222,10016237,10011900.0,10012015.0,116.0,116.0,2233.9,1009.3,2249.0,1269.0,Object_Land_Pattern_Large,21.927380292094313,27.942025125026703,1.0,Animal_Sea_Solid_Small,-3.0,,,,,,,,,,,
encoding,value,1,10010222,10016237,10012234.0,10012530.0,297.0,297.0,2244.2,1161.0,2249.0,891.0,Animal_Sea_Solid_Small,21.927380292094313,27.942025125026703,1.0,Animal_Sea_Solid_Small,-3.0,,,,,,,,,,,
encoding,value,1,10010222,10016237,10012715.0,10013102.0,388.0,388.0,2248.3,1266.1,2249.0,891.0,Animal_Sea_Solid_Small,21.927380292094313,27.942025125026703,1.0,Animal_Sea_Solid_Small,-3.0,,,,,,,,,,,
encoding,value,1,10010222,10016237,10013111.0,10013173.0,63.0,63.0,2238.6,1258.6,2249.0,891.0,Animal_Sea_Solid_Small,21.927380292094313,27.942025125026703,1.0,Animal_Sea_Solid_Small,-3.0,,,,,,,,,,,
encoding,value,1,10010222,10016237,10013313.0,10013333.0,21.0,21.0,2268.5,627.0999999999999,2249.0,1269.0,Object_Land_Pattern_Large,21.927380292094313,27.942025125026703,1.0,Animal_Sea_Solid_Small,-3.0,,,,,,,,,,,
encoding,value,1,10010222,10016237,10013543.0,10013966.0,424.0,424.0,2220.5,1271.9,2249.0,891.0,Animal_Sea_Solid_Small,21.927380292094313,27.942025125026703,1.0,Animal_Sea_Solid_Small,-3.0,,,,,,,,,,,
encoding,value,1,10010222,10016237,10014147.0,10014236.0,90.0,90.0,2219.0,1125.7,2249.0,891.0,Animal_Sea_Solid_Small,21.927380292094313,27.942025125026703,1.0,Animal_Sea_Solid_Small,-3.0,,,,,,,,,,,
encoding,value,1,10010222,10016237,10014432.0,10014599.0,168.0,168.0,2218.2,1155.3,2249.0,891.0,Animal_Sea_Solid_Small,21.927380292094313,27.942025125026703,1.0,Animal_Sea_Solid_Small,-3.0,,,,,,,,,,,
encoding,value,1,10010222,10016237,10014607.0,10014739.0,133.0,133.0,2229.1,1234.5,2249.0,891.0,Animal_Sea_Solid_Small,21.927380292094313,27.942025125026703,1.0,Animal_Sea_Solid_Small,-3.0,,,,,,,,,,,
encoding,value,1,10010222,10016237,10014930.0,10015004.0,75.0,75.0,2229.3,1031.2,2249.0,1269.0,Object_Land_Pattern_Large,21.927380292094313,27.942025125026703,1.0,Animal_Sea_Solid_Small,-3.0,,,,,,,,,,,
encoding,value,1,10010222,10016237,10015200.0,10015330.0,131.0,131.0,2222.0,1198.3,2249.0,891.0,Animal_Sea_Solid_Small,21.927380292094313,27.942025125026703,1.0,Animal_Sea_Solid_Small,-3.0,,,,,,,,,,,
encoding,value,1,10010222,10016237,10015357.0,10015549.0,193.0,193.0,2017.8,1226.5,2249.0,891.0,Animal_Sea_Solid_Small,21.927380292094313,27.942025125026703,1.0,Animal_Sea_Solid_Small,-3.0,,,,,,,,,,,
encoding,value,1,10010222,10016237,10015571.0,10015726.0,156.0,156.0,2213.1,1207.1,2249.0,891.0,Animal_Sea_Solid_Small,21.927380292094313,27.942025125026703,1.0,Animal_Sea_Solid_Small,-3.0,,,,,,,,,,,
encoding,value,1,10010222,10016237,10015902.0,10016062.0,161.0,161.0,2201.3,1157.4,2249.0,891.0,Animal_Sea_Solid_Small,21.927380292094313,27.942025125026703,1.0,Animal_Sea_Solid_Small,-3.0,,,,,,,,,,,
encoding,attention,1,10016237,10019255,10016267.0,10016328.0,62.0,62.0,1931.0,761.3,1920.0,1460.0,Animal_Sea_Solid_Large,27.942159250029363,30.960014750016853,1.0,Animal_Sea_Solid_Small,-3.0,-3.0,1.0,1.4656926250318063,,,,,,,,
encoding,attention,1,10016237,10019255,10016398.0,10016558.0,161.0,161.0,1271.1,634.8,,,none,27.942159250029363,30.960014750016853,1.0,Animal_Sea_Solid_Small,-3.0,-3.0,1.0,1.4656926250318063,,,,,,,,
encoding,attention,1,10016237,10019255,10016624.0,10016918.0,295.0,295.0,2278.6,1186.8,2249.0,891.0,Animal_Sea_Solid_Small,27.942159250029363,30.960014750016853,1.0,Animal_Sea_Solid_Small,-3.0,-3.0,1.0,1.4656926250318063,,,,,,,,
encoding,attention,1,10016237,10019255,10016928.0,10017137.0,210.0,210.0,2247.6,1152.9,2249.0,891.0,Animal_Sea_Solid_Small,27.942159250029363,30.960014750016853,1.0,Animal_Sea_Solid_Small,-3.0,-3.0,1.0,1.4656926250318063,,,,,,,,
encoding,attention,1,10016237,10019255,10017148.0,10017276.0,129.0,129.0,2296.7,1156.1,2249.0,891.0,Animal_Sea_Solid_Small,27.942159250029363,30.960014750016853,1.0,Animal_Sea_Solid_Small,-3.0,-3.0,1.0,1.4656926250318063,,,,,,,,
encoding,attention,1,10016237,10019255,10017447.0,10017987.0,541.0,541.0,2284.7,1165.7,2249.0,891.0,Animal_Sea_Solid_Small,27.942159250029363,30.960014750016853,1.0,Animal_Sea_Solid_Small,-3.0,-3.0,1.0,1.4656926250318063,,,,,,,,
encoding,attention,1,10016237,10019255,10018174.0,10018212.0,39.0,39.0,2239.9,643.9000000000001,2249.0,1269.0,Object_Land_Pattern_Large,27.942159250029363,30.960014750016853,1.0,Animal_Sea_Solid_Small,-3.0,-3.0,1.0,1.4656926250318063,,,,,,,,
encoding,attention,1,10016237,10019255,10018397.0,10018849.0,453.0,453.0,2223.2,1237.7,2249.0,891.0,Animal_Sea_Solid_Small,27.942159250029363,30.960014750016853,1.0,Animal_Sea_Solid_Small,-3.0,-3.0,1.0,1.4656926250318063,,,,,,,,
encoding,attention,1,10016237,10019255,10019023.0,10019067.0,45.0,45.0,2246.0,668.2,2249.0,1269.0,Object_Land_Pattern_Large,27.942159250029363,30.960014750016853,1.0,Animal_Sea_Solid_Small,-3.0,-3.0,1.0,1.4656926250318063,,,,,,,,
encoding,fixation,2,10019255,10020260,10019272.0,10019453.0,182.0,182.0,2214.9,1143.8,2249.0,891.0,Animal_Sea_Solid_Small,30.96018804202322,31.96514325006865,1.0,Object_Land_Pattern_Large,2.0,,,,,,,,,,,
encoding,fixation,2,10019255,10020260,10019485.0,10019672.0,188.0,188.0,1936.1,1187.8,1920.0,700.0,Object_Land_Pattern_Small,30.96018804202322,31.96514325006865,1.0,Object_Land_Pattern_Large,2.0,,,,,,,,,,,
encoding,fixation,2,10019255,10020260,10019866.0,10020062.0,197.0,197.0,1896.6,975.2,1920.0,1460.0,Animal_Sea_Solid_Large,30.96018804202322,31.96514325006865,1.0,Object_Land_Pattern_Large,2.0,,,,,,,,,,,
encoding,fixation,2,10019255,10020260,10020072.0,10020706.0,635.0,188.0,1887.9,1167.2,1920.0,700.0,Object_Land_Pattern_Small,30.96018804202322,31.96514325006865,1.0,Object_Land_Pattern_Large,2.0,,,,,,,,,,,
encoding,image,2,10020260,10021272,10020743.0,10020911.0,169.0,169.0,2205.8,957.0999999999999,2249.0,1269.0,Object_Land_Pattern_Large,31.96532516705338,32.97699808399193,1.0,Object_Land_Pattern_Large,2.0,,,,,,,,,,,
encoding,image,2,10020260,10021272,10020925.0,10021088.0,164.0,164.0,2241.4,897.0999999999999,2249.0,1269.0,Object_Land_Pattern_Large,31.96532516705338,32.97699808399193,1.0,Object_Land_Pattern_Large,2.0,,,,,,,,,,,
encoding,image,2,10020260,10021272,10021249.0,10021292.0,44.0,23.0,2102.7,320.5,,,none,31.96532516705338,32.97699808399193,1.0,Object_Land_Pattern_Large,2.0,,,,,,,,,,,
encoding,value,2,10021272,10027285,10021497.0,10021660.0,164.0,164.0,2193.4,641.7,2249.0,1269.0,Object_Land_Pattern_Large,32.97711754206102,38.99024266703054,1.0,Object_Land_Pattern_Large,2.0,,,,,,,,,,,
encoding,value,2,10021272,10027285,10021671.0,10022061.0,391.0,391.0,2215.3,770.2,2249.0,1269.0,Object_Land_Pattern_Large,32.97711754206102,38.99024266703054,1.0,Object_Land_Pattern_Large,2.0,,,,,,,,,,,
encoding,value,2,10021272,10027285,10022244.0,10022267.0,24.0,24.0,1912.3,120.79999999999995,,,none,32.97711754206102,38.99024266703054,1.0,Object_Land_Pattern_Large,2.0,,,,,,,,,,,
encoding,value,2,10021272,10027285,10022484.0,10022763.0,280.0,280.0,2179.1,597.4000000000001,1920.0,1460.0,Animal_Sea_Solid_Large,32.97711754206102,38.99024266703054,1.0,Object_Land_Pattern_Large,2.0,,,,,,,,,,,
encoding,value,2,10021272,10027285,10022959.0,10026208.0,3250.0,3250.0,2236.7,774.7,2249.0,1269.0,Object_Land_Pattern_Large,32.97711754206102,38.99024266703054,1.0,Object_Land_Pattern_Large,2.0,,,,,,,,,,,
encoding,value,2,10021272,10027285,10026435.0,10026463.0,29.0,29.0,2208.5,552.4000000000001,,,none,32.97711754206102,38.99024266703054,1.0,Object_Land_Pattern_Large,2.0,,,,,,,,,,,
encoding,value,2,10021272,10027285,10026673.0,10026899.0,227.0,227.0,2210.3,794.2,2249.0,1269.0,Object_Land_Pattern_Large,32.97711754206102,38.99024266703054,1.0,Object_Land_Pattern_Large,2.0,,,,,,,,,,,
encoding,value,2,10021272,10027285,10027124.0,10027281.0,158.0,158.0,2204.7,629.3,2249.0,1269.0,Object_Land_Pattern_Large,32.97711754206102,38.99024266703054,1.0,Object_Land_Pattern_Large,2.0,,,,,,,,,,,
encoding,attention,2,10027285,10030304,10027462.0,10027530.0,69.0,69.0,2158.6,372.0,,,none,38.990348124993034,42.00941879209131,1.0,Object_Land_Pattern_Large,2.0,2.0,1.0,1.3677532500587404,,,,,,,,
encoding,attention,2,10027285,10030304,10027728.0,10028121.0,394.0,394.0,2226.5,574.0,,,none,38.990348124993034,42.00941879209131,1.0,Object_Land_Pattern_Large,2.0,2.0,1.0,1.3677532500587404,,,,,,,,
encoding,attention,2,10027285,10030304,10028139.0,10028981.0,843.0,843.0,2179.9,734.7,2249.0,1269.0,Object_Land_Pattern_Large,38.990348124993034,42.00941879209131,1.0,Object_Land_Pattern_Large,2.0,2.0,1.0,1.3677532500587404,,,,,,,,
encoding,attention,2,10027285,10030304,10029243.0,10029273.0,31.0,31.0,2101.0,275.4000000000001,,,none,38.990348124993034,42.00941879209131,1.0,Object_Land_Pattern_Large,2.0,2.0,1.0,1.3677532500587404,,,,,,,,
encoding,attention,2,10027285,10030304,10029479.0,10029857.0,379.0,379.0,2210.0,723.3,2249.0,1269.0,Object_Land_Pattern_Large,38.990348124993034,42.00941879209131,1.0,Object_Land_Pattern_Large,2.0,2.0,1.0,1.3677532500587404,,,,,,,,
encoding,attention,2,10027285,10030304,10029877.0,10030048.0,172.0,172.0,2127.7,1097.0,2249.0,891.0,Animal_Sea_Solid_Small,38.990348124993034,42.00941879209131,1.0,Object_Land_Pattern_Large,2.0,2.0,1.0,1.3677532500587404,,,,,,,,
encoding,attention,2,10027285,10030304,10030225.0,10030269.0,45.0,45.0,2145.7,473.5,,,none,38.990348124993034,42.00941879209131,1.0,Object_Land_Pattern_Large,2.0,2.0,1.0,1.3677532500587404,,,,,,,,
encoding,fixation,3,10030305,10030810,10030460.0,10030664.0,205.0,205.0,2212.0,669.9000000000001,2249.0,1269.0,Object_Land_Pattern_Large,42.009589791996405,42.51459254208021,1.0,Object_Land_Pattern_Small,-9.0,,,,,,,,,,,
encoding,fixation,3,10030305,10030810,10030687.0,10030807.0,121.0,121.0,1978.8,994.4000000000001,2249.0,1269.0,Object_Land_Pattern_Large,42.009589791996405,42.51459254208021,1.0,Object_Land_Pattern_Small,-9.0,,,,,,,,,,,
encoding,image,3,10030810,10031821,10030997.0,10031218.0,222.0,222.0,1821.9,1196.3,1591.0,891.0,Animal_Land_Pattern_Large,42.51470100006554,43.52569041703828,1.0,Object_Land_Pattern_Small,-9.0,,,,,,,,,,,
encoding,image,3,10030810,10031821,10031244.0,10031399.0,156.0,156.0,1896.3,1499.9,1920.0,700.0,Object_Land_Pattern_Small,42.51470100006554,43.52569041703828,1.0,Object_Land_Pattern_Small,-9.0,,,,,,,,,,,
encoding,image,3,10030810,10031821,10031645.0,10031667.0,23.0,23.0,1845.3,736.2,1920.0,1460.0,Animal_Sea_Solid_Large,42.51470100006554,43.52569041703828,1.0,Object_Land_Pattern_Small,-9.0,,,,,,,,,,,
encoding,value,3,10031821,10037834,10031890.0,10032220.0,331.0,331.0,1943.0,1291.1,1920.0,700.0,Object_Land_Pattern_Small,43.52587474999018,49.53833900007885,1.0,Object_Land_Pattern_Small,-9.0,,,,,,,,,,,
encoding,value,3,10031821,10037834,10032228.0,10032459.0,232.0,232.0,1901.8,1417.9,1920.0,700.0,Object_Land_Pattern_Small,43.52587474999018,49.53833900007885,1.0,Object_Land_Pattern_Small,-9.0,,,,,,,,,,,
encoding,value,3,10031821,10037834,10032659.0,10033250.0,592.0,592.0,1880.6,1345.2,1920.0,700.0,Object_Land_Pattern_Small,43.52587474999018,49.53833900007885,1.0,Object_Land_Pattern_Small,-9.0,,,,,,,,,,,
encoding,value,3,10031821,10037834,10033473.0,10033736.0,264.0,264.0,1887.1,1180.1,1920.0,700.0,Object_Land_Pattern_Small,43.52587474999018,49.53833900007885,1.0,Object_Land_Pattern_Small,-9.0,,,,,,,,,,,
encoding,value,3,10031821,10037834,10033929.0,10033960.0,32.0,32.0,1886.1,868.3,1920.0,1460.0,Animal_Sea_Solid_Large,43.52587474999018,49.53833900007885,1.0,Object_Land_Pattern_Small,-9.0,,,,,,,,,,,
encoding,value,3,10031821,10037834,10033973.0,10034136.0,164.0,164.0,1865.2,1316.7,1920.0,700.0,Object_Land_Pattern_Small,43.52587474999018,49.53833900007885,1.0,Object_Land_Pattern_Small,-9.0,,,,,,,,,,,
encoding,value,3,10031821,10037834,10034403.0,10034550.0,148.0,148.0,1914.7,1289.1,1920.0,700.0,Object_Land_Pattern_Small,43.52587474999018,49.53833900007885,1.0,Object_Land_Pattern_Small,-9.0,,,,,,,,,,,
encoding,value,3,10031821,10037834,10034749.0,10034822.0,74.0,74.0,1901.0,1069.8,1920.0,1080.0,fixation,43.52587474999018,49.53833900007885,1.0,Object_Land_Pattern_Small,-9.0,,,,,,,,,,,
encoding,value,3,10031821,10037834,10035076.0,10035342.0,267.0,267.0,1889.9,1189.6,1920.0,700.0,Object_Land_Pattern_Small,43.52587474999018,49.53833900007885,1.0,Object_Land_Pattern_Small,-9.0,,,,,,,,,,,
encoding,value,3,10031821,10037834,10035361.0,10035548.0,188.0,188.0,2025.1,1379.3,1920.0,700.0,Object_Land_Pattern_Small,43.52587474999018,49.53833900007885,1.0,Object_Land_Pattern_Small,-9.0,,,,,,,,,,,
encoding,value,3,10031821,10037834,10035742.0,10035774.0,33.0,33.0,1954.6,718.0999999999999,1920.0,1460.0,Animal_Sea_Solid_Large,43.52587474999018,49.53833900007885,1.0,Object_Land_Pattern_Small,-9.0,,,,,,,,,,,
encoding,value,3,10031821,10037834,10035977.0,10036339.0,363.0,363.0,1893.3,1233.0,1920.0,700.0,Object_Land_Pattern_Small,43.52587474999018,49.53833900007885,1.0,Object_Land_Pattern_Small,-9.0,,,,,,,,,,,
encoding,value,3,10031821,10037834,10036531.0,10036693.0,163.0,163.0,1921.8,887.3,1920.0,1460.0,Animal_Sea_Solid_Large,43.52587474999018,49.53833900007885,1.0,Object_Land_Pattern_Small,-9.0,,,,,,,,,,,
encoding,value,3,10031821,10037834,10036924.0,10036967.0,44.0,44.0,1924.5,639.8,1920.0,1460.0,Animal_Sea_Solid_Large,43.52587474999018,49.53833900007885,1.0,Object_Land_Pattern_Small,-9.0,,,,,,,,,,,
encoding,value,3,10031821,10037834,10037135.0,10037421.0,287.0,287.0,1873.1,1162.4,1920.0,700.0,Object_Land_Pattern_Small,43.52587474999018,49.53833900007885,1.0,Object_Land_Pattern_Small,-9.0,,,,,,,,,,,
encoding,value,3,10031821,10037834,10037445.0,10037490.0,46.0,46.0,1885.1,1061.6,1920.0,1080.0,fixation,43.52587474999018,49.53833900007885,1.0,Object_Land_Pattern_Small,-9.0,,,,,,,,,,,
encoding,attention,3,10037834,10040852,10038044.0,10038394.0,351.0,351.0,2142.4,970.5999999999999,2249.0,1269.0,Object_Land_Pattern_Large,49.53845633403398,52.556559042073786,1.0,Object_Land_Pattern_Small,-9.0,-9.0,1.0,1.4207928749965504,,,,,,,,
encoding,attention,3,10037834,10040852,10038416.0,10038611.0,196.0,196.0,1918.8,1293.6,1920.0,700.0,Object_Land_Pattern_Small,49.53845633403398,52.556559042073786,1.0,Object_Land_Pattern_Small,-9.0,-9.0,1.0,1.4207928749965504,,,,,,,,
encoding,attention,3,10037834,10040852,10038622.0,10038908.0,287.0,287.0,1859.9,1413.8,1920.0,700.0,Object_Land_Pattern_Small,49.53845633403398,52.556559042073786,1.0,Object_Land_Pattern_Small,-9.0,-9.0,1.0,1.4207928749965504,,,,,,,,
encoding,attention,3,10037834,10040852,10038920.0,10039042.0,123.0,123.0,1929.5,1387.4,1920.0,700.0,Object_Land_Pattern_Small,49.53845633403398,52.556559042073786,1.0,Object_Land_Pattern_Small,-9.0,-9.0,1.0,1.4207928749965504,,,,,,,,
encoding,attention,3,10037834,10040852,10039188.0,10039458.0,271.0,271.0,1924.4,1146.1,1920.0,1080.0,fixation,49.53845633403398,52.556559042073786,1.0,Object_Land_Pattern_Small,-9.0,-9.0,1.0,1.4207928749965504,,,,,,,,
encoding,attention,3,10037834,10040852,10039667.0,10040031.0,365.0,365.0,1903.5,1192.0,1920.0,700.0,Object_Land_Pattern_Small,49.53845633403398,52.556559042073786,1.0,Object_Land_Pattern_Small,-9.0,-9.0,1.0,1.4207928749965504,,,,,,,,
encoding,attention,3,10037834,10040852,10040043.0,10040267.0,225.0,225.0,1883.5,1451.7,1920.0,700.0,Object_Land_Pattern_Small,49.53845633403398,52.556559042073786,1.0,Object_Land_Pattern_Small,-9.0,-9.0,1.0,1.4207928749965504,,,,,,,,
encoding,attention,3,10037834,10040852,10040443.0,10040800.0,358.0,358.0,1905.8,1306.9,1920.0,700.0,Object_Land_Pattern_Small,49.53845633403398,52.556559042073786,1.0,Object_Land_Pattern_Small,-9.0,-9.0,1.0,1.4207928749965504,,,,,,,,
encoding,fixation,4,10040852,10041857,10041020.0,10041171.0,152.0,152.0,1882.1,1095.9,1920.0,1080.0,fixation,52.55672133399639,53.56159487506375,1.0,Animal_Land_Pattern_Large,5.0,,,,,,,,,,,
encoding,fixation,4,10040852,10041857,10041398.0,10041461.0,64.0,64.0,2016.2,747.0999999999999,1920.0,1460.0,Animal_Sea_Solid_Large,52.55672133399639,53.56159487506375,1.0,Animal_Land_Pattern_Large,5.0,,,,,,,,,,,
encoding,fixation,4,10040852,10041857,10041682.0,10041951.0,270.0,175.0,2111.7,1071.3,2249.0,1269.0,Object_Land_Pattern_Large,52.55672133399639,53.56159487506375,1.0,Animal_Land_Pattern_Large,5.0,,,,,,,,,,,
encoding,image,4,10041857,10042868,10042140.0,10042297.0,158.0,158.0,1779.2,936.5,1591.0,1269.0,Object_Sea_Solid_Small,53.56172350002453,54.57239208405372,1.0,Animal_Land_Pattern_Large,5.0,,,,,,,,,,,
encoding,image,4,10041857,10042868,10042622.0,10042780.0,159.0,159.0,1817.1,1045.6,1591.0,1269.0,Object_Sea_Solid_Small,53.56172350002453,54.57239208405372,1.0,Animal_Land_Pattern_Large,5.0,,,,,,,,,,,
encoding,image,4,10041857,10042868,10042808.0,10043148.0,341.0,60.0,1588.7,1265.8,1591.0,891.0,Animal_Land_Pattern_Large,53.56172350002453,54.57239208405372,1.0,Animal_Land_Pattern_Large,5.0,,,,,,,,,,,
encoding,value,4,10042868,10048885,10043169.0,10043422.0,254.0,254.0,1577.1,1229.8,1591.0,891.0,Animal_Land_Pattern_Large,54.572503584087826,60.58911045908462,1.0,Animal_Land_Pattern_Large,5.0,,,,,,,,,,,
encoding,value,4,10042868,10048885,10043608.0,10043751.0,144.0,144.0,1548.9,857.3,1591.0,1269.0,Object_Sea_Solid_Small,54.572503584087826,60.58911045908462,1.0,Animal_Land_Pattern_Large,5.0,,,,,,,,,,,
encoding,value,4,10042868,10048885,10043953.0,10044236.0,284.0,284.0,1538.6,1048.0,1591.0,1269.0,Object_Sea_Solid_Small,54.572503584087826,60.58911045908462,1.0,Animal_Land_Pattern_Large,5.0,,,,,,,,,,,
encoding,value,4,10042868,10048885,10044408.0,10044502.0,95.0,95.0,1540.3,733.0999999999999,1591.0,1269.0,Object_Sea_Solid_Small,54.572503584087826,60.58911045908462,1.0,Animal_Land_Pattern_Large,5.0,,,,,,,,,,,
encoding,value,4,10042868,10048885,10044661.0,10044920.0,260.0,260.0,1557.7,971.7,1591.0,1269.0,Object_Sea_Solid_Small,54.572503584087826,60.58911045908462,1.0,Animal_Land_Pattern_Large,5.0,,,,,,,,,,,
encoding,value,4,10042868,10048885,10045062.0,10045186.0,125.0,125.0,1591.5,800.3,1591.0,1269.0,Object_Sea_Solid_Small,54.572503584087826,60.58911045908462,1.0,Animal_Land_Pattern_Large,5.0,,,,,,,,,,,
encoding,value,4,10042868,10048885,10045355.0,10045425.0,71.0,71.0,1555.5,705.9000000000001,1591.0,1269.0,Object_Sea_Solid_Small,54.572503584087826,60.58911045908462,1.0,Animal_Land_Pattern_Large,5.0,,,,,,,,,,,
encoding,value,4,10042868,10048885,10045584.0,10045638.0,55.0,55.0,1604.5,650.3,1591.0,1269.0,Object_Sea_Solid_Small,54.572503584087826,60.58911045908462,1.0,Animal_Land_Pattern_Large,5.0,,,,,,,,,,,
encoding,value,4,10042868,10048885,10045791.0,10046035.0,245.0,245.0,1565.7,861.5,1591.0,1269.0,Object_Sea_Solid_Small,54.572503584087826,60.58911045908462,1.0,Animal_Land_Pattern_Large,5.0,,,,,,,,,,,
encoding,value,4,10042868,10048885,10046062.0,10046166.0,105.0,105.0,1845.2,1041.9,1591.0,1269.0,Object_Sea_Solid_Small,54.572503584087826,60.58911045908462,1.0,Animal_Land_Pattern_Large,5.0,,,,,,,,,,,
encoding,value,4,10042868,10048885,10046353.0,10046443.0,91.0,91.0,1837.4,671.4000000000001,1920.0,1460.0,Animal_Sea_Solid_Large,54.572503584087826,60.58911045908462,1.0,Animal_Land_Pattern_Large,5.0,,,,,,,,,,,
encoding,value,4,10042868,10048885,10046631.0,10046742.0,112.0,112.0,1888.5,766.5,1920.0,1460.0,Animal_Sea_Solid_Large,54.572503584087826,60.58911045908462,1.0,Animal_Land_Pattern_Large,5.0,,,,,,,,,,,
encoding,value,4,10042868,10048885,10046935.0,10047331.0,397.0,397.0,1547.7,982.4000000000001,1591.0,1269.0,Object_Sea_Solid_Small,54.572503584087826,60.58911045908462,1.0,Animal_Land_Pattern_Large,5.0,,,,,,,,,,,
encoding,value,4,10042868,10048885,10047341.0,10047480.0,140.0,140.0,1593.4,1126.6,1591.0,891.0,Animal_Land_Pattern_Large,54.572503584087826,60.58911045908462,1.0,Animal_Land_Pattern_Large,5.0,,,,,,,,,,,
encoding,value,4,10042868,10048885,10047629.0,10047728.0,100.0,100.0,1533.8,669.0,1591.0,1269.0,Object_Sea_Solid_Small,54.572503584087826,60.58911045908462,1.0,Animal_Land_Pattern_Large,5.0,,,,,,,,,,,
encoding,value,4,10042868,10048885,10047914.0,10048115.0,202.0,202.0,1531.7,935.0,1591.0,1269.0,Object_Sea_Solid_Small,54.572503584087826,60.58911045908462,1.0,Animal_Land_Pattern_Large,5.0,,,,,,,,,,,
encoding,value,4,10042868,10048885,10048306.0,10048396.0,91.0,91.0,1525.1,685.0999999999999,1591.0,1269.0,Object_Sea_Solid_Small,54.572503584087826,60.58911045908462,1.0,Animal_Land_Pattern_Large,5.0,,,,,,,,,,,
encoding,value,4,10042868,10048885,10048426.0,10048450.0,25.0,25.0,1405.6,522.9000000000001,,,none,54.572503584087826,60.58911045908462,1.0,Animal_Land_Pattern_Large,5.0,,,,,,,,,,,
encoding,value,4,10042868,10048885,10048634.0,10048963.0,330.0,251.0,1564.7,1028.5,1591.0,1269.0,Object_Sea_Solid_Small,54.572503584087826,60.58911045908462,1.0,Animal_Land_Pattern_Large,5.0,,,,,,,,,,,
encoding,attention,4,10048885,10051902,10049118.0,10049480.0,363.0,363.0,1579.7,958.5999999999999,1591.0,1269.0,Object_Sea_Solid_Small,60.58929662499577,63.60632325010374,1.0,Animal_Land_Pattern_Large,5.0,5.0,1.0,1.0193749170284718,,,,,,,,
encoding,attention,4,10048885,10051902,10049494.0,10050104.0,611.0,611.0,1532.3,1112.4,1591.0,891.0,Animal_Land_Pattern_Large,60.58929662499577,63.60632325010374,1.0,Animal_Land_Pattern_Large,5.0,5.0,1.0,1.0193749170284718,,,,,,,,
encoding,attention,4,10048885,10051902,10050299.0,10050345.0,47.0,47.0,1505.8,537.7,,,none,60.58929662499577,63.60632325010374,1.0,Animal_Land_Pattern_Large,5.0,5.0,1.0,1.0193749170284718,,,,,,,,
encoding,attention,4,10048885,10051902,10050542.0,10050781.0,240.0,240.0,1564.4,1008.3,1591.0,1269.0,Object_Sea_Solid_Small,60.58929662499577,63.60632325010374,1.0,Animal_Land_Pattern_Large,5.0,5.0,1.0,1.0193749170284718,,,,,,,,
encoding,attention,4,10048885,10051902,10051011.0,10051088.0,78.0,78.0,1948.6,708.5,1920.0,1460.0,Animal_Sea_Solid_Large,60.58929662499577,63.60632325010374,1.0,Animal_Land_Pattern_Large,5.0,5.0,1.0,1.0193749170284718,,,,,,,,
encoding,attention,4,10048885,10051902,10051251.0,10051356.0,106.0,106.0,1579.4,868.0,1591.0,1269.0,Object_Sea_Solid_Small,60.58929662499577,63.60632325010374,1.0,Animal_Land_Pattern_Large,5.0,5.0,1.0,1.0193749170284718,,,,,,,,
encoding,attention,4,10048885,10051902,10051547.0,10051634.0,88.0,88.0,1517.5,685.5999999999999,1591.0,1269.0,Object_Sea_Solid_Small,60.58929662499577,63.60632325010374,1.0,Animal_Land_Pattern_Large,5.0,5.0,1.0,1.0193749170284718,,,,,,,,
encoding,fixation,5,10051902,10052657,10052270.0,10052290.0,21.0,21.0,1882.2,1085.3,1920.0,1080.0,fixation,63.606479084002785,64.361438833992,1.0,Object_Sea_Solid_Small,8.0,,,,,,,,,,,
encoding,fixation,5,10051902,10052657,10052539.0,10052575.0,37.0,37.0,1926.9,578.5,1920.0,1460.0,Animal_Sea_Solid_Large,63.606479084002785,64.361438833992,1.0,Object_Sea_Solid_Small,8.0,,,,,,,,,,,
encoding,image,5,10052658,10053668,10052779.0,10052970.0,192.0,192.0,2019.3,755.5,1920.0,1460.0,Animal_Sea_Solid_Large,64.3615420840215,65.37153212504927,1.0,Object_Sea_Solid_Small,8.0,,,,,,,,,,,
encoding,image,5,10052658,10053668,10053007.0,10053148.0,142.0,142.0,1710.4,790.7,1591.0,1269.0,Object_Sea_Solid_Small,64.3615420840215,65.37153212504927,1.0,Object_Sea_Solid_Small,8.0,,,,,,,,,,,
encoding,image,5,10052658,10053668,10053166.0,10053568.0,403.0,403.0,1616.2,836.9000000000001,1591.0,1269.0,Object_Sea_Solid_Small,64.3615420840215,65.37153212504927,1.0,Object_Sea_Solid_Small,8.0,,,,,,,,,,,
encoding,value,5,10053668,10059679,10053859.0,10054014.0,156.0,156.0,1510.1,628.5999999999999,,,none,65.3716472920496,71.3826714589959,1.0,Object_Sea_Solid_Small,8.0,,,,,,,,,,,
encoding,value,5,10053668,10059679,10054040.0,10054199.0,160.0,160.0,1955.9,873.2,1920.0,1460.0,Animal_Sea_Solid_Large,65.3716472920496,71.3826714589959,1.0,Object_Sea_Solid_Small,8.0,,,,,,,,,,,
encoding,value,5,10053668,10059679,10054240.0,10054560.0,321.0,321.0,1611.2,778.5,1591.0,1269.0,Object_Sea_Solid_Small,65.3716472920496,71.3826714589959,1.0,Object_Sea_Solid_Small,8.0,,,,,,,,,,,
encoding,value,5,10053668,10059679,10054728.0,10054840.0,113.0,113.0,1459.7,573.4000000000001,,,none,65.3716472920496,71.3826714589959,1.0,Object_Sea_Solid_Small,8.0,,,,,,,,,,,
encoding,value,5,10053668,10059679,10055062.0,10055164.0,103.0,103.0,1367.4,515.0,,,none,65.3716472920496,71.3826714589959,1.0,Object_Sea_Solid_Small,8.0,,,,,,,,,,,
encoding,value,5,10053668,10059679,10055385.0,10055425.0,41.0,41.0,1169.7,442.4000000000001,,,none,65.3716472920496,71.3826714589959,1.0,Object_Sea_Solid_Small,8.0,,,,,,,,,,,
encoding,value,5,10053668,10059679,10055630.0,10056342.0,713.0,713.0,1835.6,861.4000000000001,1920.0,1460.0,Animal_Sea_Solid_Large,65.3716472920496,71.3826714589959,1.0,Object_Sea_Solid_Small,8.0,,,,,,,,,,,
encoding,value,5,10053668,10059679,10056572.0,10056603.0,32.0,32.0,1440.9,465.4000000000001,,,none,65.3716472920496,71.3826714589959,1.0,Object_Sea_Solid_Small,8.0,,,,,,,,,,,
encoding,value,5,10053668,10059679,10056783.0,10057322.0,540.0,540.0,1611.9,781.4000000000001,1591.0,1269.0,Object_Sea_Solid_Small,65.3716472920496,71.3826714589959,1.0,Object_Sea_Solid_Small,8.0,,,,,,,,,,,
encoding,value,5,10053668,10059679,10057331.0,10057573.0,243.0,243.0,1628.3,800.0999999999999,1591.0,1269.0,Object_Sea_Solid_Small,65.3716472920496,71.3826714589959,1.0,Object_Sea_Solid_Small,8.0,,,,,,,,,,,
encoding,value,5,10053668,10059679,10057731.0,10057826.0,96.0,96.0,1456.6,551.3,,,none,65.3716472920496,71.3826714589959,1.0,Object_Sea_Solid_Small,8.0,,,,,,,,,,,
encoding,value,5,10053668,10059679,10057990.0,10058019.0,30.0,30.0,1340.7,491.20000000000005,,,none,65.3716472920496,71.3826714589959,1.0,Object_Sea_Solid_Small,8.0,,,,,,,,,,,
encoding,value,5,10053668,10059679,10058182.0,10058519.0,338.0,338.0,1555.3,652.5999999999999,1591.0,1269.0,Object_Sea_Solid_Small,65.3716472920496,71.3826714589959,1.0,Object_Sea_Solid_Small,8.0,,,,,,,,,,,
encoding,value,5,10053668,10059679,10058707.0,10058746.0,40.0,40.0,1290.4,472.20000000000005,,,none,65.3716472920496,71.3826714589959,1.0,Object_Sea_Solid_Small,8.0,,,,,,,,,,,
encoding,value,5,10053668,10059679,10058935.0,10059227.0,293.0,293.0,1597.7,672.5999999999999,1591.0,1269.0,Object_Sea_Solid_Small,65.3716472920496,71.3826714589959,1.0,Object_Sea_Solid_Small,8.0,,,,,,,,,,,
encoding,value,5,10053668,10059679,10059236.0,10059415.0,180.0,180.0,1609.9,782.5999999999999,1591.0,1269.0,Object_Sea_Solid_Small,65.3716472920496,71.3826714589959,1.0,Object_Sea_Solid_Small,8.0,,,,,,,,,,,
encoding,value,5,10053668,10059679,10059634.0,10059673.0,40.0,40.0,1285.5,460.5999999999999,,,none,65.3716472920496,71.3826714589959,1.0,Object_Sea_Solid_Small,8.0,,,,,,,,,,,
encoding,attention,5,10059679,10062729,10059838.0,10060019.0,182.0,182.0,1554.0,631.7,1591.0,1269.0,Object_Sea_Solid_Small,71.38281154201832,74.43266829208005,1.0,Object_Sea_Solid_Small,8.0,8.0,1.0,1.6484322920441628,,,,,,,,
encoding,attention,5,10059679,10062729,10060176.0,10060366.0,191.0,191.0,1497.2,590.8,,,none,71.38281154201832,74.43266829208005,1.0,Object_Sea_Solid_Small,8.0,8.0,1.0,1.6484322920441628,,,,,,,,
encoding,attention,5,10059679,10062729,10060374.0,10060756.0,383.0,383.0,1636.7,721.4000000000001,1591.0,1269.0,Object_Sea_Solid_Small,71.38281154201832,74.43266829208005,1.0,Object_Sea_Solid_Small,8.0,8.0,1.0,1.6484322920441628,,,,,,,,
encoding,attention,5,10059679,10062729,10060769.0,10061067.0,299.0,299.0,1573.0,723.0,1591.0,1269.0,Object_Sea_Solid_Small,71.38281154201832,74.43266829208005,1.0,Object_Sea_Solid_Small,8.0,8.0,1.0,1.6484322920441628,,,,,,,,
encoding,attention,5,10059679,10062729,10061250.0,10061551.0,302.0,302.0,1424.4,578.8,,,none,71.38281154201832,74.43266829208005,1.0,Object_Sea_Solid_Small,8.0,8.0,1.0,1.6484322920441628,,,,,,,,
encoding,attention,5,10059679,10062729,10061717.0,10062115.0,399.0,399.0,1607.0,741.4000000000001,1591.0,1269.0,Object_Sea_Solid_Small,71.38281154201832,74.43266829208005,1.0,Object_Sea_Solid_Small,8.0,8.0,1.0,1.6484322920441628,,,,,,,,
encoding,attention,5,10059679,10062729,10062137.0,10062381.0,245.0,245.0,1838.8,922.3,1920.0,1460.0,Animal_Sea_Solid_Large,71.38281154201832,74.43266829208005,1.0,Object_Sea_Solid_Small,8.0,8.0,1.0,1.6484322920441628,,,,,,,,
encoding,fixation,6,10062729,10063486,10063425.0,10063481.0,57.0,57.0,1786.2,472.29999999999995,,,none,74.43282212503254,75.18937679205555,1.0,Animal_Sea_Solid_Large,-3.0,,,,,,,,,,,
encoding,image,6,10063486,10064497,10063678.0,10063908.0,231.0,231.0,1949.4,846.5999999999999,1920.0,1460.0,Animal_Sea_Solid_Large,75.18948795902543,76.2006738340715,1.0,Animal_Sea_Solid_Large,-3.0,,,,,,,,,,,
encoding,image,6,10063486,10064497,10063949.0,10064365.0,417.0,417.0,1895.5,752.2,1920.0,1460.0,Animal_Sea_Solid_Large,75.18948795902543,76.2006738340715,1.0,Animal_Sea_Solid_Large,-3.0,,,,,,,,,,,
encoding,value,6,10064497,10070509,10064551.0,10064572.0,22.0,22.0,1567.4,316.5,,,none,76.20078795903828,82.21235525002703,1.0,Animal_Sea_Solid_Large,-3.0,,,,,,,,,,,
encoding,value,6,10064497,10070509,10064779.0,10064933.0,155.0,155.0,2028.2,847.5999999999999,1920.0,1460.0,Animal_Sea_Solid_Large,76.20078795903828,82.21235525002703,1.0,Animal_Sea_Solid_Large,-3.0,,,,,,,,,,,
encoding,value,6,10064497,10070509,10064972.0,10065032.0,61.0,61.0,1895.0,690.0999999999999,1920.0,1460.0,Animal_Sea_Solid_Large,76.20078795903828,82.21235525002703,1.0,Animal_Sea_Solid_Large,-3.0,,,,,,,,,,,
encoding,value,6,10064497,10070509,10065207.0,10065265.0,59.0,59.0,1711.6,423.5999999999999,,,none,76.20078795903828,82.21235525002703,1.0,Animal_Sea_Solid_Large,-3.0,,,,,,,,,,,
encoding,value,6,10064497,10070509,10065652.0,10065729.0,78.0,78.0,1852.1,751.8,1920.0,1460.0,Animal_Sea_Solid_Large,76.20078795903828,82.21235525002703,1.0,Animal_Sea_Solid_Large,-3.0,,,,,,,,,,,
encoding,value,6,10064497,10070509,10065949.0,10066125.0,177.0,177.0,1831.7,830.8,1920.0,1460.0,Animal_Sea_Solid_Large,76.20078795903828,82.21235525002703,1.0,Animal_Sea_Solid_Large,-3.0,,,,,,,,,,,
encoding,value,6,10064497,10070509,10066147.0,10066371.0,225.0,225.0,1874.6,760.2,1920.0,1460.0,Animal_Sea_Solid_Large,76.20078795903828,82.21235525002703,1.0,Animal_Sea_Solid_Large,-3.0,,,,,,,,,,,
encoding,value,6,10064497,10070509,10066393.0,10066552.0,160.0,160.0,1891.9,657.7,1920.0,1460.0,Animal_Sea_Solid_Large,76.20078795903828,82.21235525002703,1.0,Animal_Sea_Solid_Large,-3.0,,,,,,,,,,,
encoding,value,6,10064497,10070509,10066729.0,10066769.0,41.0,41.0,796.2,273.5,,,none,76.20078795903828,82.21235525002703,1.0,Animal_Sea_Solid_Large,-3.0,,,,,,,,,,,
encoding,value,6,10064497,10070509,10066778.0,10066825.0,48.0,48.0,983.1,250.5999999999999,,,none,76.20078795903828,82.21235525002703,1.0,Animal_Sea_Solid_Large,-3.0,,,,,,,,,,,
encoding,value,6,10064497,10070509,10067051.0,10067147.0,97.0,97.0,1456.1,238.0999999999999,,,none,76.20078795903828,82.21235525002703,1.0,Animal_Sea_Solid_Large,-3.0,,,,,,,,,,,
encoding,value,6,10064497,10070509,10067360.0,10067560.0,201.0,201.0,1750.6,472.79999999999995,,,none,76.20078795903828,82.21235525002703,1.0,Animal_Sea_Solid_Large,-3.0,,,,,,,,,,,
encoding,value,6,10064497,10070509,10067768.0,10068026.0,259.0,259.0,1695.9,692.5,1591.0,1269.0,Object_Sea_Solid_Small,76.20078795903828,82.21235525002703,1.0,Animal_Sea_Solid_Large,-3.0,,,,,,,,,,,
encoding,value,6,10064497,10070509,10068239.0,10068295.0,57.0,57.0,1787.6,507.20000000000005,,,none,76.20078795903828,82.21235525002703,1.0,Animal_Sea_Solid_Large,-3.0,,,,,,,,,,,
encoding,value,6,10064497,10070509,10068484.0,10068585.0,102.0,102.0,1734.5,440.29999999999995,,,none,76.20078795903828,82.21235525002703,1.0,Animal_Sea_Solid_Large,-3.0,,,,,,,,,,,
encoding,value,6,10064497,10070509,10068767.0,10068802.0,36.0,36.0,1650.6,373.20000000000005,,,none,76.20078795903828,82.21235525002703,1.0,Animal_Sea_Solid_Large,-3.0,,,,,,,,,,,
encoding,value,6,10064497,10070509,10068982.0,10069071.0,90.0,90.0,1743.4,492.70000000000005,,,none,76.20078795903828,82.21235525002703,1.0,Animal_Sea_Solid_Large,-3.0,,,,,,,,,,,
encoding,value,6,10064497,10070509,10069279.0,10069526.0,248.0,248.0,1748.9,649.3,1920.0,1460.0,Animal_Sea_Solid_Large,76.20078795903828,82.21235525002703,1.0,Animal_Sea_Solid_Large,-3.0,,,,,,,,,,,
encoding,value,6,10064497,10070509,10069728.0,10069865.0,138.0,138.0,1617.0,603.2,1591.0,1269.0,Object_Sea_Solid_Small,76.20078795903828,82.21235525002703,1.0,Animal_Sea_Solid_Large,-3.0,,,,,,,,,,,
encoding,value,6,10064497,10070509,10070114.0,10070379.0,266.0,266.0,1845.9,915.5999999999999,1920.0,1460.0,Animal_Sea_Solid_Large,76.20078795903828,82.21235525002703,1.0,Animal_Sea_Solid_Large,-3.0,,,,,,,,,,,
encoding,value,6,10064497,10070509,10070419.0,10070469.0,51.0,51.0,1901.2,788.8,1920.0,1460.0,Animal_Sea_Solid_Large,76.20078795903828,82.21235525002703,1.0,Animal_Sea_Solid_Large,-3.0,,,,,,,,,,,
encoding,attention,6,10070509,10073527,10070656.0,10070690.0,35.0,35.0,1691.2,410.0999999999999,,,none,82.21248533402104,85.22981295909267,1.0,Animal_Sea_Solid_Large,-3.0,-3.0,1.0,1.2626872910186648,,,,,,,,
encoding,attention,6,10070509,10073527,10070894.0,10070965.0,72.0,72.0,1798.2,541.9000000000001,1920.0,1460.0,Animal_Sea_Solid_Large,82.21248533402104,85.22981295909267,1.0,Animal_Sea_Solid_Large,-3.0,-3.0,1.0,1.2626872910186648,,,,,,,,
encoding,attention,6,10070509,10073527,10070972.0,10072017.0,1046.0,1046.0,1895.1,597.7,1920.0,1460.0,Animal_Sea_Solid_Large,82.21248533402104,85.22981295909267,1.0,Animal_Sea_Solid_Large,-3.0,-3.0,1.0,1.2626872910186648,,,,,,,,
encoding,attention,6,10070509,10073527,10072217.0,10072254.0,38.0,38.0,792.3,286.29999999999995,,,none,82.21248533402104,85.22981295909267,1.0,Animal_Sea_Solid_Large,-3.0,-3.0,1.0,1.2626872910186648,,,,,,,,
encoding,attention,6,10070509,10073527,10072462.0,10072618.0,157.0,157.0,1898.2,610.5999999999999,1920.0,1460.0,Animal_Sea_Solid_Large,82.21248533402104,85.22981295909267,1.0,Animal_Sea_Solid_Large,-3.0,-3.0,1.0,1.2626872910186648,,,,,,,,
encoding,attention,6,10070509,10073527,10072637.0,10072828.0,192.0,192.0,1875.5,668.3,1920.0,1460.0,Animal_Sea_Solid_Large,82.21248533402104,85.22981295909267,1.0,Animal_Sea_Solid_Large,-3.0,-3.0,1.0,1.2626872910186648,,,,,,,,
encoding,attention,6,10070509,10073527,10072842.0,10072935.0,94.0,94.0,1847.6,646.5999999999999,1920.0,1460.0,Animal_Sea_Solid_Large,82.21248533402104,85.22981295909267,1.0,Animal_Sea_Solid_Large,-3.0,-3.0,1.0,1.2626872910186648,,,,,,,,
encoding,attention,6,10070509,10073527,10073121.0,10073163.0,43.0,43.0,1394.7,293.5,,,none,82.21248533402104,85.22981295909267,1.0,Animal_Sea_Solid_Large,-3.0,-3.0,1.0,1.2626872910186648,,,,,,,,
encoding,fixation,7,10717835,10718840,10718075.0,10718146.0,72.0,72.0,1885.2,1156.3,1920.0,700.0,Animal_Land_Pattern_Small,22.401717458036728,23.407383540994488,2.0,Object_Sea_Pattern_Small,-8.0,,,,,,,,,,,
encoding,fixation,7,10717835,10718840,10718669.0,10718965.0,297.0,171.0,1828.2,1392.4,1920.0,700.0,Animal_Land_Pattern_Small,22.401717458036728,23.407383540994488,2.0,Object_Sea_Pattern_Small,-8.0,,,,,,,,,,,
encoding,image,7,10718841,10719852,10719013.0,10719110.0,98.0,98.0,1757.7,964.9000000000001,1591.0,1269.0,Object_Sea_Pattern_Small,23.40750787500292,24.41911154100671,2.0,Object_Sea_Pattern_Small,-8.0,,,,,,,,,,,
encoding,image,7,10718841,10719852,10719118.0,10719156.0,39.0,39.0,1735.5,1113.2,1591.0,891.0,Animal_Sea_Pattern_Small,23.40750787500292,24.41911154100671,2.0,Object_Sea_Pattern_Small,-8.0,,,,,,,,,,,
encoding,image,7,10718841,10719852,10719196.0,10719547.0,352.0,352.0,1567.5,933.8,1591.0,1269.0,Object_Sea_Pattern_Small,23.40750787500292,24.41911154100671,2.0,Object_Sea_Pattern_Small,-8.0,,,,,,,,,,,
encoding,image,7,10718841,10719852,10719752.0,10720159.0,408.0,100.0,1533.6,912.5,1591.0,1269.0,Object_Sea_Pattern_Small,23.40750787500292,24.41911154100671,2.0,Object_Sea_Pattern_Small,-8.0,,,,,,,,,,,
encoding,value,7,10719852,10725866,10720180.0,10720501.0,322.0,322.0,1560.9,845.5,1591.0,1269.0,Object_Sea_Pattern_Small,24.419242208008654,30.43221004109364,2.0,Object_Sea_Pattern_Small,-8.0,,,,,,,,,,,
encoding,value,7,10719852,10725866,10720524.0,10720704.0,181.0,181.0,1614.5,960.9000000000001,1591.0,1269.0,Object_Sea_Pattern_Small,24.419242208008654,30.43221004109364,2.0,Object_Sea_Pattern_Small,-8.0,,,,,,,,,,,
encoding,value,7,10719852,10725866,10720885.0,10721041.0,157.0,157.0,1521.6,840.8,1591.0,1269.0,Object_Sea_Pattern_Small,24.419242208008654,30.43221004109364,2.0,Object_Sea_Pattern_Small,-8.0,,,,,,,,,,,
encoding,value,7,10719852,10725866,10721055.0,10721172.0,118.0,118.0,1549.8,858.0,1591.0,1269.0,Object_Sea_Pattern_Small,24.419242208008654,30.43221004109364,2.0,Object_Sea_Pattern_Small,-8.0,,,,,,,,,,,
encoding,value,7,10719852,10725866,10721661.0,10722793.0,1133.0,1133.0,1563.5,778.3,1591.0,1269.0,Object_Sea_Pattern_Small,24.419242208008654,30.43221004109364,2.0,Object_Sea_Pattern_Small,-8.0,,,,,,,,,,,
encoding,value,7,10719852,10725866,10723005.0,10723051.0,47.0,47.0,1542.4,317.0999999999999,,,none,24.419242208008654,30.43221004109364,2.0,Object_Sea_Pattern_Small,-8.0,,,,,,,,,,,
encoding,value,7,10719852,10725866,10723266.0,10723455.0,190.0,190.0,1545.3,737.7,1591.0,1269.0,Object_Sea_Pattern_Small,24.419242208008654,30.43221004109364,2.0,Object_Sea_Pattern_Small,-8.0,,,,,,,,,,,
encoding,value,7,10719852,10725866,10723479.0,10723608.0,130.0,130.0,1746.5,976.7,1591.0,1269.0,Object_Sea_Pattern_Small,24.419242208008654,30.43221004109364,2.0,Object_Sea_Pattern_Small,-8.0,,,,,,,,,,,
encoding,value,7,10719852,10725866,10723827.0,10724026.0,200.0,200.0,1541.1,759.3,1591.0,1269.0,Object_Sea_Pattern_Small,24.419242208008654,30.43221004109364,2.0,Object_Sea_Pattern_Small,-8.0,,,,,,,,,,,
encoding,value,7,10719852,10725866,10724249.0,10724425.0,177.0,177.0,1554.7,675.7,1591.0,1269.0,Object_Sea_Pattern_Small,24.419242208008654,30.43221004109364,2.0,Object_Sea_Pattern_Small,-8.0,,,,,,,,,,,
encoding,value,7,10719852,10725866,10724711.0,10724927.0,217.0,217.0,1595.2,828.5999999999999,1591.0,1269.0,Object_Sea_Pattern_Small,24.419242208008654,30.43221004109364,2.0,Object_Sea_Pattern_Small,-8.0,,,,,,,,,,,
encoding,value,7,10719852,10725866,10724945.0,10725052.0,108.0,108.0,1566.1,840.8,1591.0,1269.0,Object_Sea_Pattern_Small,24.419242208008654,30.43221004109364,2.0,Object_Sea_Pattern_Small,-8.0,,,,,,,,,,,
encoding,value,7,10719852,10725866,10725267.0,10725580.0,314.0,314.0,1561.4,733.2,1591.0,1269.0,Object_Sea_Pattern_Small,24.419242208008654,30.43221004109364,2.0,Object_Sea_Pattern_Small,-8.0,,,,,,,,,,,
encoding,attention,7,10725866,10728886,10725988.0,10727017.0,1030.0,1030.0,1554.5,798.5,1591.0,1269.0,Object_Sea_Pattern_Small,30.43233612505719,33.45232262508944,2.0,Object_Sea_Pattern_Small,-8.0,-8.0,1.0,0.8572000829735771,,,,,,,,
encoding,attention,7,10725866,10728886,10727027.0,10727143.0,117.0,117.0,1605.6,814.0999999999999,1591.0,1269.0,Object_Sea_Pattern_Small,30.43233612505719,33.45232262508944,2.0,Object_Sea_Pattern_Small,-8.0,-8.0,1.0,0.8572000829735771,,,,,,,,
encoding,attention,7,10725866,10728886,10727531.0,10728312.0,782.0,782.0,1602.6,892.5,1591.0,1269.0,Object_Sea_Pattern_Small,30.43233612505719,33.45232262508944,2.0,Object_Sea_Pattern_Small,-8.0,-8.0,1.0,0.8572000829735771,,,,,,,,
encoding,attention,7,10725866,10728886,10728337.0,10728499.0,163.0,163.0,1810.4,1023.8,1591.0,1269.0,Object_Sea_Pattern_Small,30.43233612505719,33.45232262508944,2.0,Object_Sea_Pattern_Small,-8.0,-8.0,1.0,0.8572000829735771,,,,,,,,
encoding,attention,7,10725866,10728886,10728688.0,10728717.0,30.0,30.0,1583.6,576.8,,,none,30.43233612505719,33.45232262508944,2.0,Object_Sea_Pattern_Small,-8.0,-8.0,1.0,0.8572000829735771,,,,,,,,
encoding,fixation,8,10728886,10730391,10728919.0,10729105.0,187.0,187.0,1571.5,810.7,1591.0,1269.0,Object_Sea_Pattern_Small,33.45258066605311,34.95801154104993,2.0,Animal_Land_Pattern_Small,9.0,,,,,,,,,,,
encoding,fixation,8,10728886,10730391,10729131.0,10729219.0,89.0,89.0,1829.6,1018.5999999999999,1591.0,1269.0,Object_Sea_Pattern_Small,33.45258066605311,34.95801154104993,2.0,Animal_Land_Pattern_Small,9.0,,,,,,,,,,,
encoding,fixation,8,10728886,10730391,10729427.0,10729815.0,389.0,389.0,1839.3,1045.8,1591.0,1269.0,Object_Sea_Pattern_Small,33.45258066605311,34.95801154104993,2.0,Animal_Land_Pattern_Small,9.0,,,,,,,,,,,
encoding,fixation,8,10728886,10730391,10730041.0,10730595.0,555.0,350.0,1798.0,1034.1,1591.0,1269.0,Object_Sea_Pattern_Small,33.45258066605311,34.95801154104993,2.0,Animal_Land_Pattern_Small,9.0,,,,,,,,,,,
encoding,image,8,10730392,10731403,10730622.0,10730857.0,236.0,236.0,1853.4,1412.9,1920.0,700.0,Animal_Land_Pattern_Small,34.958119290997274,35.96988145809155,2.0,Animal_Land_Pattern_Small,9.0,,,,,,,,,,,
encoding,image,8,10730392,10731403,10731042.0,10731183.0,142.0,142.0,1897.4,1182.9,1920.0,700.0,Animal_Land_Pattern_Small,34.958119290997274,35.96988145809155,2.0,Animal_Land_Pattern_Small,9.0,,,,,,,,,,,
encoding,image,8,10730392,10731403,10731391.0,10731531.0,141.0,12.0,1822.4,1192.6,1591.0,891.0,Animal_Sea_Pattern_Small,34.958119290997274,35.96988145809155,2.0,Animal_Land_Pattern_Small,9.0,,,,,,,,,,,
encoding,value,8,10731403,10737416,10731555.0,10731632.0,78.0,78.0,1736.6,1173.5,1591.0,891.0,Animal_Sea_Pattern_Small,35.969986625015736,41.98211725009605,2.0,Animal_Land_Pattern_Small,9.0,,,,,,,,,,,
encoding,value,8,10731403,10737416,10731770.0,10731952.0,183.0,183.0,1847.9,1202.7,1591.0,891.0,Animal_Sea_Pattern_Small,35.969986625015736,41.98211725009605,2.0,Animal_Land_Pattern_Small,9.0,,,,,,,,,,,
encoding,value,8,10731403,10737416,10732148.0,10732332.0,185.0,185.0,1824.6,1220.6,1591.0,891.0,Animal_Sea_Pattern_Small,35.969986625015736,41.98211725009605,2.0,Animal_Land_Pattern_Small,9.0,,,,,,,,,,,
encoding,value,8,10731403,10737416,10732527.0,10732560.0,34.0,34.0,1811.9,708.7,1920.0,1460.0,Animal_Land_Solid_Large,35.969986625015736,41.98211725009605,2.0,Animal_Land_Pattern_Small,9.0,,,,,,,,,,,
encoding,value,8,10731403,10737416,10732786.0,10732905.0,120.0,120.0,1816.1,873.8,1920.0,1460.0,Animal_Land_Solid_Large,35.969986625015736,41.98211725009605,2.0,Animal_Land_Pattern_Small,9.0,,,,,,,,,,,
encoding,value,8,10731403,10737416,10733119.0,10733147.0,29.0,29.0,1804.6,690.8,1920.0,1460.0,Animal_Land_Solid_Large,35.969986625015736,41.98211725009605,2.0,Animal_Land_Pattern_Small,9.0,,,,,,,,,,,
encoding,value,8,10731403,10737416,10733361.0,10733559.0,199.0,199.0,1826.0,1092.9,1591.0,891.0,Animal_Sea_Pattern_Small,35.969986625015736,41.98211725009605,2.0,Animal_Land_Pattern_Small,9.0,,,,,,,,,,,
encoding,value,8,10731403,10737416,10733776.0,10733996.0,221.0,221.0,1832.3,1173.8,1591.0,891.0,Animal_Sea_Pattern_Small,35.969986625015736,41.98211725009605,2.0,Animal_Land_Pattern_Small,9.0,,,,,,,,,,,
encoding,value,8,10731403,10737416,10734007.0,10734120.0,114.0,114.0,1828.7,1436.2,1920.0,700.0,Animal_Land_Pattern_Small,35.969986625015736,41.98211725009605,2.0,Animal_Land_Pattern_Small,9.0,,,,,,,,,,,
encoding,value,8,10731403,10737416,10734281.0,10734351.0,71.0,71.0,1807.3,1169.7,1591.0,891.0,Animal_Sea_Pattern_Small,35.969986625015736,41.98211725009605,2.0,Animal_Land_Pattern_Small,9.0,,,,,,,,,,,
encoding,value,8,10731403,10737416,10734528.0,10734771.0,244.0,244.0,1817.0,1315.8,1920.0,700.0,Animal_Land_Pattern_Small,35.969986625015736,41.98211725009605,2.0,Animal_Land_Pattern_Small,9.0,,,,,,,,,,,
encoding,value,8,10731403,10737416,10734949.0,10735013.0,65.0,65.0,1831.3,914.8,1920.0,1460.0,Animal_Land_Solid_Large,35.969986625015736,41.98211725009605,2.0,Animal_Land_Pattern_Small,9.0,,,,,,,,,,,
encoding,value,8,10731403,10737416,10735207.0,10735390.0,184.0,184.0,1765.2,1124.0,1591.0,891.0,Animal_Sea_Pattern_Small,35.969986625015736,41.98211725009605,2.0,Animal_Land_Pattern_Small,9.0,,,,,,,,,,,
encoding,value,8,10731403,10737416,10735412.0,10735715.0,304.0,304.0,1642.4,1101.3,1591.0,891.0,Animal_Sea_Pattern_Small,35.969986625015736,41.98211725009605,2.0,Animal_Land_Pattern_Small,9.0,,,,,,,,,,,
encoding,value,8,10731403,10737416,10735742.0,10735872.0,131.0,131.0,1781.7,1345.8,1920.0,700.0,Animal_Land_Pattern_Small,35.969986625015736,41.98211725009605,2.0,Animal_Land_Pattern_Small,9.0,,,,,,,,,,,
encoding,value,8,10731403,10737416,10736054.0,10736115.0,62.0,62.0,1806.1,1078.2,1591.0,1269.0,Object_Sea_Pattern_Small,35.969986625015736,41.98211725009605,2.0,Animal_Land_Pattern_Small,9.0,,,,,,,,,,,
encoding,value,8,10731403,10737416,10736282.0,10736464.0,183.0,183.0,1825.1,1250.9,1920.0,700.0,Animal_Land_Pattern_Small,35.969986625015736,41.98211725009605,2.0,Animal_Land_Pattern_Small,9.0,,,,,,,,,,,
encoding,value,8,10731403,10737416,10736664.0,10736835.0,172.0,172.0,1806.6,1186.0,1591.0,891.0,Animal_Sea_Pattern_Small,35.969986625015736,41.98211725009605,2.0,Animal_Land_Pattern_Small,9.0,,,,,,,,,,,
encoding,value,8,10731403,10737416,10737051.0,10737882.0,832.0,365.0,1837.8,1327.6,1920.0,700.0,Animal_Land_Pattern_Small,35.969986625015736,41.98211725009605,2.0,Animal_Land_Pattern_Small,9.0,,,,,,,,,,,
encoding,attention,8,10737416,10740435,10737894.0,10738541.0,648.0,648.0,1807.6,1386.0,1920.0,700.0,Animal_Land_Pattern_Small,41.9823060000781,45.00142554100603,2.0,Animal_Land_Pattern_Small,9.0,9.0,1.0,0.8037427910603583,,,,,,,,
encoding,attention,8,10737416,10740435,10738706.0,10738869.0,164.0,164.0,1849.7,1185.0,1591.0,891.0,Animal_Sea_Pattern_Small,41.9823060000781,45.00142554100603,2.0,Animal_Land_Pattern_Small,9.0,9.0,1.0,0.8037427910603583,,,,,,,,
encoding,attention,8,10737416,10740435,10738878.0,10738956.0,79.0,79.0,1823.2,1391.0,1920.0,700.0,Animal_Land_Pattern_Small,41.9823060000781,45.00142554100603,2.0,Animal_Land_Pattern_Small,9.0,9.0,1.0,0.8037427910603583,,,,,,,,
encoding,attention,8,10737416,10740435,10739162.0,10739197.0,36.0,36.0,1784.2,760.9000000000001,1920.0,1460.0,Animal_Land_Solid_Large,41.9823060000781,45.00142554100603,2.0,Animal_Land_Pattern_Small,9.0,9.0,1.0,0.8037427910603583,,,,,,,,
encoding,attention,8,10737416,10740435,10739416.0,10739788.0,373.0,373.0,1811.3,1240.9,1591.0,891.0,Animal_Sea_Pattern_Small,41.9823060000781,45.00142554100603,2.0,Animal_Land_Pattern_Small,9.0,9.0,1.0,0.8037427910603583,,,,,,,,
encoding,attention,8,10737416,10740435,10739964.0,10739994.0,31.0,31.0,1716.0,653.5999999999999,1920.0,1460.0,Animal_Land_Solid_Large,41.9823060000781,45.00142554100603,2.0,Animal_Land_Pattern_Small,9.0,9.0,1.0,0.8037427910603583,,,,,,,,
encoding,attention,8,10737416,10740435,10740194.0,10740235.0,42.0,42.0,1741.3,936.5,1591.0,1269.0,Object_Sea_Pattern_Small,41.9823060000781,45.00142554100603,2.0,Animal_Land_Pattern_Small,9.0,9.0,1.0,0.8037427910603583,,,,,,,,
encoding,fixation,9,10740436,10741191,10740437.0,10740534.0,98.0,98.0,1758.6,977.4000000000001,1591.0,1269.0,Object_Sea_Pattern_Small,45.00159004109446,45.75712583307177,2.0,Animal_Sea_Pattern_Small,-4.0,,,,,,,,,,,
encoding,fixation,9,10740436,10741191,10740777.0,10741085.0,309.0,309.0,1800.7,1116.1,1591.0,891.0,Animal_Sea_Pattern_Small,45.00159004109446,45.75712583307177,2.0,Animal_Sea_Pattern_Small,-4.0,,,,,,,,,,,
encoding,image,9,10741191,10742202,10741323.0,10741530.0,208.0,208.0,1763.8,976.0999999999999,1591.0,1269.0,Object_Sea_Pattern_Small,45.75724433304276,46.76824620808475,2.0,Animal_Sea_Pattern_Small,-4.0,,,,,,,,,,,
encoding,image,9,10741191,10742202,10741553.0,10741936.0,384.0,384.0,1545.0,1227.7,1591.0,891.0,Animal_Sea_Pattern_Small,45.75724433304276,46.76824620808475,2.0,Animal_Sea_Pattern_Small,-4.0,,,,,,,,,,,
encoding,image,9,10741191,10742202,10741959.0,10742181.0,223.0,223.0,1760.8,1260.8,1591.0,891.0,Animal_Sea_Pattern_Small,45.75724433304276,46.76824620808475,2.0,Animal_Sea_Pattern_Small,-4.0,,,,,,,,,,,
encoding,value,9,10742202,10748215,10742343.0,10742446.0,104.0,104.0,1664.9,1038.4,1591.0,1269.0,Object_Sea_Pattern_Small,46.76839025004301,52.780493000056595,2.0,Animal_Sea_Pattern_Small,-4.0,,,,,,,,,,,
encoding,value,9,10742202,10748215,10742638.0,10742798.0,161.0,161.0,1693.0,1073.2,1591.0,1269.0,Object_Sea_Pattern_Small,46.76839025004301,52.780493000056595,2.0,Animal_Sea_Pattern_Small,-4.0,,,,,,,,,,,
encoding,value,9,10742202,10748215,10742991.0,10743109.0,119.0,119.0,1587.2,1008.5,1591.0,1269.0,Object_Sea_Pattern_Small,46.76839025004301,52.780493000056595,2.0,Animal_Sea_Pattern_Small,-4.0,,,,,,,,,,,
encoding,value,9,10742202,10748215,10743133.0,10743540.0,408.0,408.0,1497.2,1191.4,1591.0,891.0,Animal_Sea_Pattern_Small,46.76839025004301,52.780493000056595,2.0,Animal_Sea_Pattern_Small,-4.0,,,,,,,,,,,
encoding,value,9,10742202,10748215,10743549.0,10743704.0,156.0,156.0,1521.7,1235.6,1591.0,891.0,Animal_Sea_Pattern_Small,46.76839025004301,52.780493000056595,2.0,Animal_Sea_Pattern_Small,-4.0,,,,,,,,,,,
encoding,value,9,10742202,10748215,10743873.0,10743917.0,45.0,45.0,1499.0,728.3,1591.0,1269.0,Object_Sea_Pattern_Small,46.76839025004301,52.780493000056595,2.0,Animal_Sea_Pattern_Small,-4.0,,,,,,,,,,,
encoding,value,9,10742202,10748215,10744115.0,10744142.0,28.0,28.0,1506.0,690.7,1591.0,1269.0,Object_Sea_Pattern_Small,46.76839025004301,52.780493000056595,2.0,Animal_Sea_Pattern_Small,-4.0,,,,,,,,,,,
encoding,value,9,10742202,10748215,10744350.0,10744669.0,320.0,320.0,1524.4,1127.9,1591.0,891.0,Animal_Sea_Pattern_Small,46.76839025004301,52.780493000056595,2.0,Animal_Sea_Pattern_Small,-4.0,,,,,,,,,,,
encoding,value,9,10742202,10748215,10744882.0,10745088.0,207.0,207.0,1489.5,1027.2,1591.0,1269.0,Object_Sea_Pattern_Small,46.76839025004301,52.780493000056595,2.0,Animal_Sea_Pattern_Small,-4.0,,,,,,,,,,,
encoding,value,9,10742202,10748215,10745307.0,10745463.0,157.0,157.0,1507.0,964.5999999999999,1591.0,1269.0,Object_Sea_Pattern_Small,46.76839025004301,52.780493000056595,2.0,Animal_Sea_Pattern_Small,-4.0,,,,,,,,,,,
encoding,value,9,10742202,10748215,10745686.0,10746101.0,416.0,416.0,1530.7,1097.3,1591.0,891.0,Animal_Sea_Pattern_Small,46.76839025004301,52.780493000056595,2.0,Animal_Sea_Pattern_Small,-4.0,,,,,,,,,,,
encoding,value,9,10742202,10748215,10746350.0,10746427.0,78.0,78.0,1477.8,629.5999999999999,,,none,46.76839025004301,52.780493000056595,2.0,Animal_Sea_Pattern_Small,-4.0,,,,,,,,,,,
encoding,value,9,10742202,10748215,10746653.0,10746974.0,322.0,322.0,1528.8,1102.0,1591.0,891.0,Animal_Sea_Pattern_Small,46.76839025004301,52.780493000056595,2.0,Animal_Sea_Pattern_Small,-4.0,,,,,,,,,,,
encoding,value,9,10742202,10748215,10747188.0,10747325.0,138.0,138.0,1690.6,1042.3,1591.0,1269.0,Object_Sea_Pattern_Small,46.76839025004301,52.780493000056595,2.0,Animal_Sea_Pattern_Small,-4.0,,,,,,,,,,,
encoding,value,9,10742202,10748215,10747522.0,10747714.0,193.0,193.0,1527.5,1018.0999999999999,1591.0,1269.0,Object_Sea_Pattern_Small,46.76839025004301,52.780493000056595,2.0,Animal_Sea_Pattern_Small,-4.0,,,,,,,,,,,
encoding,value,9,10742202,10748215,10747897.0,10747940.0,44.0,44.0,1524.1,783.0999999999999,1591.0,1269.0,Object_Sea_Pattern_Small,46.76839025004301,52.780493000056595,2.0,Animal_Sea_Pattern_Small,-4.0,,,,,,,,,,,
encoding,value,9,10742202,10748215,10748117.0,10748145.0,29.0,29.0,1510.0,768.0,1591.0,1269.0,Object_Sea_Pattern_Small,46.76839025004301,52.780493000056595,2.0,Animal_Sea_Pattern_Small,-4.0,,,,,,,,,,,
encoding,attention,9,10748215,10751232,10748345.0,10748700.0,356.0,356.0,1492.2,1074.1,1591.0,1269.0,Object_Sea_Pattern_Small,52.78060295805335,55.797486625029705,2.0,Animal_Sea_Pattern_Small,-4.0,-4.0,1.0,1.112620291067287,,,,,,,,
encoding,attention,9,10748215,10751232,10748710.0,10749005.0,296.0,296.0,1554.7,1196.2,1591.0,891.0,Animal_Sea_Pattern_Small,52.78060295805335,55.797486625029705,2.0,Animal_Sea_Pattern_Small,-4.0,-4.0,1.0,1.112620291067287,,,,,,,,
encoding,attention,9,10748215,10751232,10749026.0,10749510.0,485.0,485.0,1466.6,1210.0,1591.0,891.0,Animal_Sea_Pattern_Small,52.78060295805335,55.797486625029705,2.0,Animal_Sea_Pattern_Small,-4.0,-4.0,1.0,1.112620291067287,,,,,,,,
encoding,attention,9,10748215,10751232,10749681.0,10749743.0,63.0,63.0,1667.8,865.4000000000001,1591.0,1269.0,Object_Sea_Pattern_Small,52.78060295805335,55.797486625029705,2.0,Animal_Sea_Pattern_Small,-4.0,-4.0,1.0,1.112620291067287,,,,,,,,
encoding,attention,9,10748215,10751232,10750154.0,10750234.0,81.0,81.0,1668.1,921.0999999999999,1591.0,1269.0,Object_Sea_Pattern_Small,52.78060295805335,55.797486625029705,2.0,Animal_Sea_Pattern_Small,-4.0,-4.0,1.0,1.112620291067287,,,,,,,,
encoding,attention,9,10748215,10751232,10750476.0,10750531.0,56.0,56.0,1633.2,836.4000000000001,1591.0,1269.0,Object_Sea_Pattern_Small,52.78060295805335,55.797486625029705,2.0,Animal_Sea_Pattern_Small,-4.0,-4.0,1.0,1.112620291067287,,,,,,,,
encoding,attention,9,10748215,10751232,10750730.0,10750916.0,187.0,187.0,1667.4,1059.2,1591.0,1269.0,Object_Sea_Pattern_Small,52.78060295805335,55.797486625029705,2.0,Animal_Sea_Pattern_Small,-4.0,-4.0,1.0,1.112620291067287,,,,,,,,
encoding,attention,9,10748215,10751232,10750940.0,10751027.0,88.0,88.0,1858.9,1363.7,1920.0,700.0,Animal_Land_Pattern_Small,52.78060295805335,55.797486625029705,2.0,Animal_Sea_Pattern_Small,-4.0,-4.0,1.0,1.112620291067287,,,,,,,,
encoding,fixation,10,10751232,10752487,10751443.0,10751477.0,35.0,35.0,1675.4,737.5,1591.0,1269.0,Object_Sea_Pattern_Small,55.79764458304271,57.05285595799796,2.0,Animal_Land_Solid_Large,-9.0,,,,,,,,,,,
encoding,fixation,10,10751232,10752487,10751671.0,10751836.0,166.0,166.0,1730.7,1048.5,1591.0,1269.0,Object_Sea_Pattern_Small,55.79764458304271,57.05285595799796,2.0,Animal_Land_Solid_Large,-9.0,,,,,,,,,,,
encoding,fixation,10,10751232,10752487,10751858.0,10752161.0,304.0,304.0,1924.8,1302.1,1920.0,700.0,Animal_Land_Pattern_Small,55.79764458304271,57.05285595799796,2.0,Animal_Land_Solid_Large,-9.0,,,,,,,,,,,
encoding,fixation,10,10751232,10752487,10752370.0,10752762.0,393.0,117.0,1705.2,1252.7,1591.0,891.0,Animal_Sea_Pattern_Small,55.79764458304271,57.05285595799796,2.0,Animal_Land_Solid_Large,-9.0,,,,,,,,,,,
encoding,image,10,10752487,10753499,10752770.0,10752792.0,23.0,23.0,1700.8,1248.6,1591.0,891.0,Animal_Sea_Pattern_Small,57.052960000000894,58.06420220807195,2.0,Animal_Land_Solid_Large,-9.0,,,,,,,,,,,
encoding,image,10,10752487,10753499,10752843.0,10753043.0,201.0,201.0,1834.3,869.0999999999999,1920.0,1460.0,Animal_Land_Solid_Large,57.052960000000894,58.06420220807195,2.0,Animal_Land_Solid_Large,-9.0,,,,,,,,,,,
encoding,image,10,10752487,10753499,10753055.0,10753236.0,182.0,182.0,1853.5,797.4000000000001,1920.0,1460.0,Animal_Land_Solid_Large,57.052960000000894,58.06420220807195,2.0,Animal_Land_Solid_Large,-9.0,,,,,,,,,,,
encoding,image,10,10752487,10753499,10753455.0,10753488.0,34.0,34.0,1712.6,851.3,1591.0,1269.0,Object_Sea_Pattern_Small,57.052960000000894,58.06420220807195,2.0,Animal_Land_Solid_Large,-9.0,,,,,,,,,,,
encoding,value,10,10753499,10759511,10753679.0,10753875.0,197.0,197.0,1761.9,1202.6,1591.0,891.0,Animal_Sea_Pattern_Small,58.06432500004303,64.07607650000136,2.0,Animal_Land_Solid_Large,-9.0,,,,,,,,,,,
encoding,value,10,10753499,10759511,10753902.0,10754013.0,112.0,112.0,1807.8,1040.7,1591.0,1269.0,Object_Sea_Pattern_Small,58.06432500004303,64.07607650000136,2.0,Animal_Land_Solid_Large,-9.0,,,,,,,,,,,
encoding,value,10,10753499,10759511,10754253.0,10754608.0,356.0,356.0,1807.3,770.5999999999999,1920.0,1460.0,Animal_Land_Solid_Large,58.06432500004303,64.07607650000136,2.0,Animal_Land_Solid_Large,-9.0,,,,,,,,,,,
encoding,value,10,10753499,10759511,10754626.0,10755022.0,397.0,397.0,1800.5,1157.1,1591.0,891.0,Animal_Sea_Pattern_Small,58.06432500004303,64.07607650000136,2.0,Animal_Land_Solid_Large,-9.0,,,,,,,,,,,
encoding,value,10,10753499,10759511,10755071.0,10755152.0,82.0,82.0,1848.0,697.8,1920.0,1460.0,Animal_Land_Solid_Large,58.06432500004303,64.07607650000136,2.0,Animal_Land_Solid_Large,-9.0,,,,,,,,,,,
encoding,value,10,10753499,10759511,10755364.0,10755870.0,507.0,507.0,1848.3,658.0,1920.0,1460.0,Animal_Land_Solid_Large,58.06432500004303,64.07607650000136,2.0,Animal_Land_Solid_Large,-9.0,,,,,,,,,,,
encoding,value,10,10753499,10759511,10756345.0,10756618.0,274.0,274.0,1847.1,658.8,1920.0,1460.0,Animal_Land_Solid_Large,58.06432500004303,64.07607650000136,2.0,Animal_Land_Solid_Large,-9.0,,,,,,,,,,,
encoding,value,10,10753499,10759511,10756634.0,10756714.0,81.0,81.0,1845.2,672.9000000000001,1920.0,1460.0,Animal_Land_Solid_Large,58.06432500004303,64.07607650000136,2.0,Animal_Land_Solid_Large,-9.0,,,,,,,,,,,
encoding,value,10,10753499,10759511,10756950.0,10757083.0,134.0,134.0,1832.0,489.0,,,none,58.06432500004303,64.07607650000136,2.0,Animal_Land_Solid_Large,-9.0,,,,,,,,,,,
encoding,value,10,10753499,10759511,10757519.0,10757809.0,291.0,291.0,1808.3,768.4000000000001,1920.0,1460.0,Animal_Land_Solid_Large,58.06432500004303,64.07607650000136,2.0,Animal_Land_Solid_Large,-9.0,,,,,,,,,,,
encoding,value,10,10753499,10759511,10757990.0,10758027.0,38.0,38.0,1819.0,276.0,,,none,58.06432500004303,64.07607650000136,2.0,Animal_Land_Solid_Large,-9.0,,,,,,,,,,,
encoding,value,10,10753499,10759511,10758444.0,10758630.0,187.0,187.0,1817.4,546.5999999999999,1920.0,1460.0,Animal_Land_Solid_Large,58.06432500004303,64.07607650000136,2.0,Animal_Land_Solid_Large,-9.0,,,,,,,,,,,
encoding,value,10,10753499,10759511,10758852.0,10758932.0,81.0,81.0,1817.2,458.5999999999999,,,none,58.06432500004303,64.07607650000136,2.0,Animal_Land_Solid_Large,-9.0,,,,,,,,,,,
encoding,value,10,10753499,10759511,10759171.0,10759428.0,258.0,258.0,1819.2,695.8,1920.0,1460.0,Animal_Land_Solid_Large,58.06432500004303,64.07607650000136,2.0,Animal_Land_Solid_Large,-9.0,,,,,,,,,,,
encoding,value,10,10753499,10759511,10759442.0,10759531.0,90.0,69.0,1855.7,688.8,1920.0,1460.0,Animal_Land_Solid_Large,58.06432500004303,64.07607650000136,2.0,Animal_Land_Solid_Large,-9.0,,,,,,,,,,,
encoding,attention,10,10759511,10762529,10759997.0,10760039.0,43.0,43.0,1831.1,566.3,1920.0,1460.0,Animal_Land_Solid_Large,64.07628220808692,67.09362120809965,2.0,Animal_Land_Solid_Large,-9.0,-9.0,1.0,2.065013957908377,,,,,,,,
encoding,attention,10,10759511,10762529,10760060.0,10760386.0,327.0,327.0,1866.4,603.7,1920.0,1460.0,Animal_Land_Solid_Large,64.07628220808692,67.09362120809965,2.0,Animal_Land_Solid_Large,-9.0,-9.0,1.0,2.065013957908377,,,,,,,,
encoding,attention,10,10759511,10762529,10760402.0,10760579.0,178.0,178.0,1801.2,627.3,1920.0,1460.0,Animal_Land_Solid_Large,64.07628220808692,67.09362120809965,2.0,Animal_Land_Solid_Large,-9.0,-9.0,1.0,2.065013957908377,,,,,,,,
encoding,attention,10,10759511,10762529,10760591.0,10760717.0,127.0,127.0,1871.6,634.4000000000001,1920.0,1460.0,Animal_Land_Solid_Large,64.07628220808692,67.09362120809965,2.0,Animal_Land_Solid_Large,-9.0,-9.0,1.0,2.065013957908377,,,,,,,,
encoding,attention,10,10759511,10762529,10761185.0,10761501.0,317.0,317.0,1850.0,688.5,1920.0,1460.0,Animal_Land_Solid_Large,64.07628220808692,67.09362120809965,2.0,Animal_Land_Solid_Large,-9.0,-9.0,1.0,2.065013957908377,,,,,,,,
encoding,attention,10,10759511,10762529,10761552.0,10761782.0,231.0,231.0,1714.9,826.4000000000001,1591.0,1269.0,Object_Sea_Pattern_Small,64.07628220808692,67.09362120809965,2.0,Animal_Land_Solid_Large,-9.0,-9.0,1.0,2.065013957908377,,,,,,,,
encoding,attention,10,10759511,10762529,10761972.0,10761993.0,22.0,22.0,1610.9,556.5,,,none,64.07628220808692,67.09362120809965,2.0,Animal_Land_Solid_Large,-9.0,-9.0,1.0,2.065013957908377,,,,,,,,
encoding,fixation,11,10762529,10763784,10762549.0,10762863.0,315.0,315.0,1702.7,1245.6,1591.0,891.0,Animal_Sea_Pattern_Small,67.09379262500443,68.34879354108125,2.0,Object_Land_Solid_Large,1.0,,,,,,,,,,,
encoding,fixation,11,10762529,10763784,10763039.0,10763112.0,74.0,74.0,1606.0,914.3,1591.0,1269.0,Object_Sea_Pattern_Small,67.09379262500443,68.34879354108125,2.0,Object_Land_Solid_Large,1.0,,,,,,,,,,,
encoding,fixation,11,10762529,10763784,10763451.0,10763685.0,235.0,235.0,1690.1,995.7,1591.0,1269.0,Object_Sea_Pattern_Small,67.09379262500443,68.34879354108125,2.0,Object_Land_Solid_Large,1.0,,,,,,,,,,,
encoding,image,11,10763784,10764794,10764162.0,10764219.0,58.0,58.0,1753.2,797.3,1591.0,1269.0,Object_Sea_Pattern_Small,68.34891454107128,69.35929345805198,2.0,Object_Land_Solid_Large,1.0,,,,,,,,,,,
encoding,image,11,10763784,10764794,10764636.0,10764865.0,230.0,158.0,2019.0,1000.7,2249.0,1269.0,Object_Land_Solid_Large,68.34891454107128,69.35929345805198,2.0,Object_Land_Solid_Large,1.0,,,,,,,,,,,
encoding,value,11,10764794,10770806,10765167.0,10765398.0,232.0,232.0,1922.0,940.9000000000001,1920.0,1460.0,Animal_Land_Solid_Large,69.35939941601828,75.37035745801404,2.0,Object_Land_Solid_Large,1.0,,,,,,,,,,,
encoding,value,11,10764794,10770806,10765789.0,10765931.0,143.0,143.0,1742.0,877.4000000000001,1591.0,1269.0,Object_Sea_Pattern_Small,69.35939941601828,75.37035745801404,2.0,Object_Land_Solid_Large,1.0,,,,,,,,,,,
encoding,value,11,10764794,10770806,10765971.0,10766215.0,245.0,245.0,2136.0,855.2,2249.0,1269.0,Object_Land_Solid_Large,69.35939941601828,75.37035745801404,2.0,Object_Land_Solid_Large,1.0,,,,,,,,,,,
encoding,value,11,10764794,10770806,10766653.0,10767026.0,374.0,374.0,2156.2,871.8,2249.0,1269.0,Object_Land_Solid_Large,69.35939941601828,75.37035745801404,2.0,Object_Land_Solid_Large,1.0,,,,,,,,,,,
encoding,value,11,10764794,10770806,10767203.0,10767243.0,41.0,41.0,2085.1,612.2,1920.0,1460.0,Animal_Land_Solid_Large,69.35939941601828,75.37035745801404,2.0,Object_Land_Solid_Large,1.0,,,,,,,,,,,
encoding,value,11,10764794,10770806,10767446.0,10767611.0,166.0,166.0,2141.1,839.5,2249.0,1269.0,Object_Land_Solid_Large,69.35939941601828,75.37035745801404,2.0,Object_Land_Solid_Large,1.0,,,,,,,,,,,
encoding,value,11,10764794,10770806,10767812.0,10767987.0,176.0,176.0,2151.8,719.0999999999999,2249.0,1269.0,Object_Land_Solid_Large,69.35939941601828,75.37035745801404,2.0,Object_Land_Solid_Large,1.0,,,,,,,,,,,
encoding,value,11,10764794,10770806,10768002.0,10768087.0,86.0,86.0,2135.1,918.9000000000001,2249.0,1269.0,Object_Land_Solid_Large,69.35939941601828,75.37035745801404,2.0,Object_Land_Solid_Large,1.0,,,,,,,,,,,
encoding,value,11,10764794,10770806,10768509.0,10768757.0,249.0,249.0,2120.4,849.2,2249.0,1269.0,Object_Land_Solid_Large,69.35939941601828,75.37035745801404,2.0,Object_Land_Solid_Large,1.0,,,,,,,,,,,
encoding,value,11,10764794,10770806,10768773.0,10768850.0,78.0,78.0,2152.2,841.2,2249.0,1269.0,Object_Land_Solid_Large,69.35939941601828,75.37035745801404,2.0,Object_Land_Solid_Large,1.0,,,,,,,,,,,
encoding,value,11,10764794,10770806,10769275.0,10769448.0,174.0,174.0,2135.7,765.3,2249.0,1269.0,Object_Land_Solid_Large,69.35939941601828,75.37035745801404,2.0,Object_Land_Solid_Large,1.0,,,,,,,,,,,
encoding,value,11,10764794,10770806,10769719.0,10769920.0,202.0,202.0,2115.7,639.5,1920.0,1460.0,Animal_Land_Solid_Large,69.35939941601828,75.37035745801404,2.0,Object_Land_Solid_Large,1.0,,,,,,,,,,,
encoding,value,11,10764794,10770806,10770357.0,10770694.0,338.0,338.0,2141.7,823.4000000000001,2249.0,1269.0,Object_Land_Solid_Large,69.35939941601828,75.37035745801404,2.0,Object_Land_Solid_Large,1.0,,,,,,,,,,,
encoding,attention,11,10770806,10773822,10771180.0,10771360.0,181.0,181.0,1874.2,832.2,1920.0,1460.0,Animal_Land_Solid_Large,75.37046616605949,78.3868837080663,2.0,Object_Land_Solid_Large,1.0,1.0,1.0,1.9650028750766069,,,,,,,,
encoding,attention,11,10770806,10773822,10771397.0,10771574.0,178.0,178.0,2159.0,833.9000000000001,2249.0,1269.0,Object_Land_Solid_Large,75.37046616605949,78.3868837080663,2.0,Object_Land_Solid_Large,1.0,1.0,1.0,1.9650028750766069,,,,,,,,
encoding,attention,11,10770806,10773822,10771584.0,10771773.0,190.0,190.0,2209.8,820.0,2249.0,1269.0,Object_Land_Solid_Large,75.37046616605949,78.3868837080663,2.0,Object_Land_Solid_Large,1.0,1.0,1.0,1.9650028750766069,,,,,,,,
encoding,attention,11,10770806,10773822,10771985.0,10772011.0,27.0,27.0,2114.2,134.9000000000001,,,none,75.37046616605949,78.3868837080663,2.0,Object_Land_Solid_Large,1.0,1.0,1.0,1.9650028750766069,,,,,,,,
encoding,attention,11,10770806,10773822,10772243.0,10772434.0,192.0,192.0,2211.4,679.0,2249.0,1269.0,Object_Land_Solid_Large,75.37046616605949,78.3868837080663,2.0,Object_Land_Solid_Large,1.0,1.0,1.0,1.9650028750766069,,,,,,,,
encoding,attention,11,10770806,10773822,10772656.0,10773006.0,351.0,351.0,2215.6,720.8,2249.0,1269.0,Object_Land_Solid_Large,75.37046616605949,78.3868837080663,2.0,Object_Land_Solid_Large,1.0,1.0,1.0,1.9650028750766069,,,,,,,,
encoding,attention,11,10770806,10773822,10773234.0,10773352.0,119.0,119.0,2094.5,594.3,1920.0,1460.0,Animal_Land_Solid_Large,75.37046616605949,78.3868837080663,2.0,Object_Land_Solid_Large,1.0,1.0,1.0,1.9650028750766069,,,,,,,,
encoding,attention,11,10770806,10773822,10773617.0,10773673.0,57.0,57.0,1907.8,470.20000000000005,,,none,75.37046616605949,78.3868837080663,2.0,Object_Land_Solid_Large,1.0,1.0,1.0,1.9650028750766069,,,,,,,,
encoding,fixation,12,10773822,10775327,10773904.0,10773926.0,23.0,23.0,1757.0,398.0,,,none,78.38704279100057,79.89186216599774,2.0,Object_Sea_Solid_Large,4.0,,,,,,,,,,,
encoding,fixation,12,10773822,10775327,10774384.0,10774686.0,303.0,303.0,1740.1,1001.9000000000001,1591.0,1269.0,Object_Sea_Pattern_Small,78.38704279100057,79.89186216599774,2.0,Object_Sea_Solid_Large,4.0,,,,,,,,,,,
encoding,fixation,12,10773822,10775327,10774905.0,10775094.0,190.0,190.0,1756.2,821.2,1591.0,1269.0,Object_Sea_Pattern_Small,78.38704279100057,79.89186216599774,2.0,Object_Sea_Solid_Large,4.0,,,,,,,,,,,
encoding,fixation,12,10773822,10775327,10775322.0,10775445.0,124.0,5.0,1653.8,651.7,1591.0,1269.0,Object_Sea_Pattern_Small,78.38704279100057,79.89186216599774,2.0,Object_Sea_Solid_Large,4.0,,,,,,,,,,,
encoding,image,12,10775328,10776339,10775639.0,10775953.0,315.0,315.0,2040.5,1082.2,2249.0,891.0,Object_Sea_Solid_Large,79.89200058300048,80.90381837508176,2.0,Object_Sea_Solid_Large,4.0,,,,,,,,,,,
encoding,value,12,10776339,10782351,10776716.0,10776986.0,271.0,271.0,1978.4,992.0,2249.0,1269.0,Object_Land_Solid_Large,80.90392845799215,86.91549966600724,2.0,Object_Sea_Solid_Large,4.0,,,,,,,,,,,
encoding,value,12,10776339,10782351,10777006.0,10777074.0,69.0,69.0,2144.1,1131.1,2249.0,891.0,Object_Sea_Solid_Large,80.90392845799215,86.91549966600724,2.0,Object_Sea_Solid_Large,4.0,,,,,,,,,,,
encoding,value,12,10776339,10782351,10777238.0,10777301.0,64.0,64.0,2152.4,1035.5,2249.0,1269.0,Object_Land_Solid_Large,80.90392845799215,86.91549966600724,2.0,Object_Sea_Solid_Large,4.0,,,,,,,,,,,
encoding,value,12,10776339,10782351,10777499.0,10777661.0,163.0,163.0,2187.2,1191.6,2249.0,891.0,Object_Sea_Solid_Large,80.90392845799215,86.91549966600724,2.0,Object_Sea_Solid_Large,4.0,,,,,,,,,,,
encoding,value,12,10776339,10782351,10777856.0,10777894.0,39.0,39.0,2167.9,923.0,2249.0,1269.0,Object_Land_Solid_Large,80.90392845799215,86.91549966600724,2.0,Object_Sea_Solid_Large,4.0,,,,,,,,,,,
encoding,value,12,10776339,10782351,10778083.0,10778380.0,298.0,298.0,2167.7,1218.4,2249.0,891.0,Object_Sea_Solid_Large,80.90392845799215,86.91549966600724,2.0,Object_Sea_Solid_Large,4.0,,,,,,,,,,,
encoding,value,12,10776339,10782351,10778577.0,10778674.0,98.0,98.0,2148.5,1089.5,2249.0,891.0,Object_Sea_Solid_Large,80.90392845799215,86.91549966600724,2.0,Object_Sea_Solid_Large,4.0,,,,,,,,,,,
encoding,value,12,10776339,10782351,10778861.0,10778898.0,38.0,38.0,2136.3,987.0,2249.0,1269.0,Object_Land_Solid_Large,80.90392845799215,86.91549966600724,2.0,Object_Sea_Solid_Large,4.0,,,,,,,,,,,
encoding,value,12,10776339,10782351,10779089.0,10779300.0,212.0,212.0,2158.6,1231.3,2249.0,891.0,Object_Sea_Solid_Large,80.90392845799215,86.91549966600724,2.0,Object_Sea_Solid_Large,4.0,,,,,,,,,,,
encoding,value,12,10776339,10782351,10779552.0,10779759.0,208.0,208.0,2159.9,1142.5,2249.0,891.0,Object_Sea_Solid_Large,80.90392845799215,86.91549966600724,2.0,Object_Sea_Solid_Large,4.0,,,,,,,,,,,
encoding,value,12,10776339,10782351,10779772.0,10779905.0,134.0,134.0,2184.1,1196.6,2249.0,891.0,Object_Sea_Solid_Large,80.90392845799215,86.91549966600724,2.0,Object_Sea_Solid_Large,4.0,,,,,,,,,,,
encoding,value,12,10776339,10782351,10780106.0,10780330.0,225.0,225.0,2159.5,1210.4,2249.0,891.0,Object_Sea_Solid_Large,80.90392845799215,86.91549966600724,2.0,Object_Sea_Solid_Large,4.0,,,,,,,,,,,
encoding,value,12,10776339,10782351,10780340.0,10780589.0,250.0,250.0,2189.2,1176.6,2249.0,891.0,Object_Sea_Solid_Large,80.90392845799215,86.91549966600724,2.0,Object_Sea_Solid_Large,4.0,,,,,,,,,,,
encoding,value,12,10776339,10782351,10780623.0,10780647.0,25.0,25.0,2179.8,988.0,2249.0,1269.0,Object_Land_Solid_Large,80.90392845799215,86.91549966600724,2.0,Object_Sea_Solid_Large,4.0,,,,,,,,,,,
encoding,value,12,10776339,10782351,10780660.0,10780687.0,28.0,28.0,2160.8,1112.1,2249.0,891.0,Object_Sea_Solid_Large,80.90392845799215,86.91549966600724,2.0,Object_Sea_Solid_Large,4.0,,,,,,,,,,,
encoding,value,12,10776339,10782351,10780848.0,10781062.0,215.0,215.0,2174.7,1175.8,2249.0,891.0,Object_Sea_Solid_Large,80.90392845799215,86.91549966600724,2.0,Object_Sea_Solid_Large,4.0,,,,,,,,,,,
encoding,value,12,10776339,10782351,10781242.0,10781261.0,20.0,20.0,2141.8,702.5,2249.0,1269.0,Object_Land_Solid_Large,80.90392845799215,86.91549966600724,2.0,Object_Sea_Solid_Large,4.0,,,,,,,,,,,
encoding,value,12,10776339,10782351,10781469.0,10781661.0,193.0,193.0,2155.7,1080.5,2249.0,891.0,Object_Sea_Solid_Large,80.90392845799215,86.91549966600724,2.0,Object_Sea_Solid_Large,4.0,,,,,,,,,,,
encoding,value,12,10776339,10782351,10781878.0,10781950.0,73.0,73.0,2071.7,783.4000000000001,1920.0,1460.0,Animal_Land_Solid_Large,80.90392845799215,86.91549966600724,2.0,Object_Sea_Solid_Large,4.0,,,,,,,,,,,
encoding,value,12,10776339,10782351,10782159.0,10782181.0,23.0,23.0,1960.1,783.2,1920.0,1460.0,Animal_Land_Solid_Large,80.90392845799215,86.91549966600724,2.0,Object_Sea_Solid_Large,4.0,,,,,,,,,,,
encoding,attention,12,10782351,10785370,10782386.0,10782553.0,168.0,168.0,2075.6,1088.9,2249.0,891.0,Object_Sea_Solid_Large,86.9156187500339,89.93408262508456,2.0,Object_Sea_Solid_Large,4.0,4.0,1.0,1.7279177500167862,,,,,,,,
encoding,attention,12,10782351,10785370,10782573.0,10782758.0,186.0,186.0,2157.4,1220.5,2249.0,891.0,Object_Sea_Solid_Large,86.9156187500339,89.93408262508456,2.0,Object_Sea_Solid_Large,4.0,4.0,1.0,1.7279177500167862,,,,,,,,
encoding,attention,12,10782351,10785370,10782767.0,10782931.0,165.0,165.0,2215.7,1206.7,2249.0,891.0,Object_Sea_Solid_Large,86.9156187500339,89.93408262508456,2.0,Object_Sea_Solid_Large,4.0,4.0,1.0,1.7279177500167862,,,,,,,,
encoding,attention,12,10782351,10785370,10783145.0,10783347.0,203.0,203.0,2280.5,1084.7,2249.0,891.0,Object_Sea_Solid_Large,86.9156187500339,89.93408262508456,2.0,Object_Sea_Solid_Large,4.0,4.0,1.0,1.7279177500167862,,,,,,,,
encoding,attention,12,10782351,10785370,10783358.0,10783593.0,236.0,236.0,2241.8,1210.1,2249.0,891.0,Object_Sea_Solid_Large,86.9156187500339,89.93408262508456,2.0,Object_Sea_Solid_Large,4.0,4.0,1.0,1.7279177500167862,,,,,,,,
encoding,attention,12,10782351,10785370,10783789.0,10784234.0,446.0,446.0,2194.5,1126.8,2249.0,891.0,Object_Sea_Solid_Large,86.9156187500339,89.93408262508456,2.0,Object_Sea_Solid_Large,4.0,4.0,1.0,1.7279177500167862,,,,,,,,
encoding,attention,12,10782351,10785370,10784441.0,10785007.0,567.0,567.0,1895.9,1033.2,1920.0,1080.0,fixation,86.9156187500339,89.93408262508456,2.0,Object_Sea_Solid_Large,4.0,4.0,1.0,1.7279177500167862,,,,,,,,
encoding,fixation,13,11274458,11275714,11274466.0,11274701.0,236.0,236.0,1917.8,1238.1,1920.0,700.0,Object_Sea_Pattern_Large,13.277888042037375,14.533713959041052,3.0,Animal_Land_Pattern_Large,8.0,,,,,,,,,,,
encoding,fixation,13,11274458,11275714,11274721.0,11274854.0,134.0,134.0,1901.0,1197.1,1920.0,700.0,Object_Sea_Pattern_Large,13.277888042037375,14.533713959041052,3.0,Animal_Land_Pattern_Large,8.0,,,,,,,,,,,
encoding,fixation,13,11274458,11275714,11275098.0,11275389.0,292.0,292.0,1896.1,1068.7,1920.0,1080.0,fixation,13.277888042037375,14.533713959041052,3.0,Animal_Land_Pattern_Large,8.0,,,,,,,,,,,
encoding,fixation,13,11274458,11275714,11275406.0,11275531.0,126.0,126.0,1838.3,1083.9,1591.0,891.0,Animal_Land_Pattern_Large,13.277888042037375,14.533713959041052,3.0,Animal_Land_Pattern_Large,8.0,,,,,,,,,,,
encoding,image,13,11275714,11276727,11275884.0,11275903.0,20.0,20.0,1904.8,726.2,1920.0,1460.0,Object_Land_Solid_Small,14.533842958975583,15.545972584048286,3.0,Animal_Land_Pattern_Large,8.0,,,,,,,,,,,
encoding,image,13,11275714,11276727,11276110.0,11276182.0,73.0,73.0,1892.6,1102.0,1920.0,1080.0,fixation,14.533842958975583,15.545972584048286,3.0,Animal_Land_Pattern_Large,8.0,,,,,,,,,,,
encoding,image,13,11275714,11276727,11276217.0,11276369.0,153.0,153.0,1623.7,1278.7,1591.0,891.0,Animal_Land_Pattern_Large,14.533842958975583,15.545972584048286,3.0,Animal_Land_Pattern_Large,8.0,,,,,,,,,,,
encoding,image,13,11275714,11276727,11276387.0,11276630.0,244.0,244.0,1560.8,1312.7,1591.0,891.0,Animal_Land_Pattern_Large,14.533842958975583,15.545972584048286,3.0,Animal_Land_Pattern_Large,8.0,,,,,,,,,,,
encoding,value,13,11276727,11282741,11276798.0,11276834.0,37.0,37.0,1497.7,1014.7,1591.0,1269.0,Object_Sea_Solid_Small,15.546130417031236,21.559919667080976,3.0,Animal_Land_Pattern_Large,8.0,,,,,,,,,,,
encoding,value,13,11276727,11282741,11277032.0,11277319.0,288.0,288.0,1556.9,1214.4,1591.0,891.0,Animal_Land_Pattern_Large,15.546130417031236,21.559919667080976,3.0,Animal_Land_Pattern_Large,8.0,,,,,,,,,,,
encoding,value,13,11276727,11282741,11277500.0,11277613.0,114.0,114.0,1500.3,1157.7,1591.0,891.0,Animal_Land_Pattern_Large,15.546130417031236,21.559919667080976,3.0,Animal_Land_Pattern_Large,8.0,,,,,,,,,,,
encoding,value,13,11276727,11282741,11277814.0,11278136.0,323.0,323.0,1530.4,1245.8,1591.0,891.0,Animal_Land_Pattern_Large,15.546130417031236,21.559919667080976,3.0,Animal_Land_Pattern_Large,8.0,,,,,,,,,,,
encoding,value,13,11276727,11282741,11278352.0,11278606.0,255.0,255.0,1525.4,1242.4,1591.0,891.0,Animal_Land_Pattern_Large,15.546130417031236,21.559919667080976,3.0,Animal_Land_Pattern_Large,8.0,,,,,,,,,,,
encoding,value,13,11276727,11282741,11278835.0,11278859.0,25.0,25.0,1530.4,734.5,1591.0,1269.0,Object_Sea_Solid_Small,15.546130417031236,21.559919667080976,3.0,Animal_Land_Pattern_Large,8.0,,,,,,,,,,,
encoding,value,13,11276727,11282741,11279056.0,11279248.0,193.0,193.0,1544.9,1065.0,1591.0,1269.0,Object_Sea_Solid_Small,15.546130417031236,21.559919667080976,3.0,Animal_Land_Pattern_Large,8.0,,,,,,,,,,,
encoding,value,13,11276727,11282741,11279452.0,11279512.0,61.0,61.0,1526.1,955.5,1591.0,1269.0,Object_Sea_Solid_Small,15.546130417031236,21.559919667080976,3.0,Animal_Land_Pattern_Large,8.0,,,,,,,,,,,
encoding,value,13,11276727,11282741,11279695.0,11279748.0,54.0,54.0,1529.0,894.8,1591.0,1269.0,Object_Sea_Solid_Small,15.546130417031236,21.559919667080976,3.0,Animal_Land_Pattern_Large,8.0,,,,,,,,,,,
encoding,value,13,11276727,11282741,11279957.0,11280194.0,238.0,238.0,1516.8,1127.1,1591.0,891.0,Animal_Land_Pattern_Large,15.546130417031236,21.559919667080976,3.0,Animal_Land_Pattern_Large,8.0,,,,,,,,,,,
encoding,value,13,11276727,11282741,11280209.0,11280391.0,183.0,183.0,1629.9,1277.1,1591.0,891.0,Animal_Land_Pattern_Large,15.546130417031236,21.559919667080976,3.0,Animal_Land_Pattern_Large,8.0,,,,,,,,,,,
encoding,value,13,11276727,11282741,11280403.0,11280557.0,155.0,155.0,1580.5,1232.6,1591.0,891.0,Animal_Land_Pattern_Large,15.546130417031236,21.559919667080976,3.0,Animal_Land_Pattern_Large,8.0,,,,,,,,,,,
encoding,value,13,11276727,11282741,11280718.0,11280741.0,24.0,24.0,1543.8,702.7,1591.0,1269.0,Object_Sea_Solid_Small,15.546130417031236,21.559919667080976,3.0,Animal_Land_Pattern_Large,8.0,,,,,,,,,,,
encoding,value,13,11276727,11282741,11280927.0,11281081.0,155.0,155.0,1556.1,1074.8,1591.0,1269.0,Object_Sea_Solid_Small,15.546130417031236,21.559919667080976,3.0,Animal_Land_Pattern_Large,8.0,,,,,,,,,,,
encoding,value,13,11276727,11282741,11281303.0,11281654.0,352.0,352.0,1559.8,1179.0,1591.0,891.0,Animal_Land_Pattern_Large,15.546130417031236,21.559919667080976,3.0,Animal_Land_Pattern_Large,8.0,,,,,,,,,,,
encoding,value,13,11276727,11282741,11282014.0,11282101.0,88.0,88.0,1551.1,993.4000000000001,1591.0,1269.0,Object_Sea_Solid_Small,15.546130417031236,21.559919667080976,3.0,Animal_Land_Pattern_Large,8.0,,,,,,,,,,,
encoding,value,13,11276727,11282741,11282296.0,11282411.0,116.0,116.0,1567.6,916.7,1591.0,1269.0,Object_Sea_Solid_Small,15.546130417031236,21.559919667080976,3.0,Animal_Land_Pattern_Large,8.0,,,,,,,,,,,
encoding,value,13,11276727,11282741,11282617.0,11282864.0,248.0,124.0,1570.9,1003.8,1591.0,1269.0,Object_Sea_Solid_Small,15.546130417031236,21.559919667080976,3.0,Animal_Land_Pattern_Large,8.0,,,,,,,,,,,
encoding,attention,13,11282741,11285759,11283013.0,11283038.0,26.0,26.0,1557.4,642.0,1591.0,1269.0,Object_Sea_Solid_Small,21.56005254201591,24.577975417021666,3.0,Animal_Land_Pattern_Large,8.0,8.0,1.0,1.057932624942623,,,,,,,,
encoding,attention,13,11282741,11285759,11283252.0,11283492.0,241.0,241.0,1572.9,1051.2,1591.0,1269.0,Object_Sea_Solid_Small,21.56005254201591,24.577975417021666,3.0,Animal_Land_Pattern_Large,8.0,8.0,1.0,1.057932624942623,,,,,,,,
encoding,attention,13,11282741,11285759,11283510.0,11284055.0,546.0,546.0,1500.0,1156.8,1591.0,891.0,Animal_Land_Pattern_Large,21.56005254201591,24.577975417021666,3.0,Animal_Land_Pattern_Large,8.0,8.0,1.0,1.057932624942623,,,,,,,,
encoding,attention,13,11282741,11285759,11284494.0,11284520.0,27.0,27.0,1594.5,613.7,1591.0,1269.0,Object_Sea_Solid_Small,21.56005254201591,24.577975417021666,3.0,Animal_Land_Pattern_Large,8.0,8.0,1.0,1.057932624942623,,,,,,,,
encoding,attention,13,11282741,11285759,11284738.0,11285207.0,470.0,470.0,1636.5,1254.6,1591.0,891.0,Animal_Land_Pattern_Large,21.56005254201591,24.577975417021666,3.0,Animal_Land_Pattern_Large,8.0,8.0,1.0,1.057932624942623,,,,,,,,
encoding,attention,13,11282741,11285759,11285361.0,11285390.0,30.0,30.0,1647.8,708.5999999999999,1591.0,1269.0,Object_Sea_Solid_Small,21.56005254201591,24.577975417021666,3.0,Animal_Land_Pattern_Large,8.0,8.0,1.0,1.057932624942623,,,,,,,,
encoding,fixation,14,11285759,11286764,11286300.0,11286398.0,99.0,99.0,1875.9,1035.3,1920.0,1080.0,fixation,24.578129542060196,25.58343204203993,3.0,Animal_Land_Solid_Small,-1.0,,,,,,,,,,,
encoding,fixation,14,11285759,11286764,11286593.0,11286614.0,22.0,22.0,1887.8,693.0,1920.0,1460.0,Object_Land_Solid_Small,24.578129542060196,25.58343204203993,3.0,Animal_Land_Solid_Small,-1.0,,,,,,,,,,,
encoding,image,14,11286765,11287776,11286815.0,11286918.0,104.0,104.0,1922.0,784.4000000000001,1920.0,1460.0,Object_Land_Solid_Small,25.583540834020823,26.594630292034708,3.0,Animal_Land_Solid_Small,-1.0,,,,,,,,,,,
encoding,image,14,11286765,11287776,11287133.0,11287374.0,242.0,242.0,2150.7,1132.6,2249.0,891.0,Animal_Land_Solid_Small,25.583540834020823,26.594630292034708,3.0,Animal_Land_Solid_Small,-1.0,,,,,,,,,,,
encoding,image,14,11286765,11287776,11287554.0,11287600.0,47.0,47.0,1841.1,827.5999999999999,1920.0,1460.0,Object_Land_Solid_Small,25.583540834020823,26.594630292034708,3.0,Animal_Land_Solid_Small,-1.0,,,,,,,,,,,
encoding,value,14,11287776,11293788,11287790.0,11287829.0,40.0,40.0,1791.9,953.4000000000001,1591.0,1269.0,Object_Sea_Solid_Small,26.594753084005788,32.606692541972734,3.0,Animal_Land_Solid_Small,-1.0,,,,,,,,,,,
encoding,value,14,11287776,11293788,11288018.0,11288287.0,270.0,270.0,2178.4,1134.6,2249.0,891.0,Animal_Land_Solid_Small,26.594753084005788,32.606692541972734,3.0,Animal_Land_Solid_Small,-1.0,,,,,,,,,,,
encoding,value,14,11287776,11293788,11288702.0,11289044.0,343.0,343.0,2056.9,1134.0,2249.0,891.0,Animal_Land_Solid_Small,26.594753084005788,32.606692541972734,3.0,Animal_Land_Solid_Small,-1.0,,,,,,,,,,,
encoding,value,14,11287776,11293788,11289241.0,11289475.0,235.0,235.0,1700.3,1012.9000000000001,1591.0,1269.0,Object_Sea_Solid_Small,26.594753084005788,32.606692541972734,3.0,Animal_Land_Solid_Small,-1.0,,,,,,,,,,,
encoding,value,14,11287776,11293788,11289519.0,11289751.0,233.0,233.0,2183.0,1230.0,2249.0,891.0,Animal_Land_Solid_Small,26.594753084005788,32.606692541972734,3.0,Animal_Land_Solid_Small,-1.0,,,,,,,,,,,
encoding,value,14,11287776,11293788,11289989.0,11290201.0,213.0,213.0,2134.3,1119.1,2249.0,891.0,Animal_Land_Solid_Small,26.594753084005788,32.606692541972734,3.0,Animal_Land_Solid_Small,-1.0,,,,,,,,,,,
encoding,value,14,11287776,11293788,11290393.0,11290616.0,224.0,224.0,2172.2,1138.1,2249.0,891.0,Animal_Land_Solid_Small,26.594753084005788,32.606692541972734,3.0,Animal_Land_Solid_Small,-1.0,,,,,,,,,,,
encoding,value,14,11287776,11293788,11290804.0,11291107.0,304.0,304.0,2181.1,1144.2,2249.0,891.0,Animal_Land_Solid_Small,26.594753084005788,32.606692541972734,3.0,Animal_Land_Solid_Small,-1.0,,,,,,,,,,,
encoding,value,14,11287776,11293788,11291117.0,11291340.0,224.0,224.0,2143.8,1177.9,2249.0,891.0,Animal_Land_Solid_Small,26.594753084005788,32.606692541972734,3.0,Animal_Land_Solid_Small,-1.0,,,,,,,,,,,
encoding,value,14,11287776,11293788,11291384.0,11291413.0,30.0,30.0,2134.5,720.0999999999999,2249.0,1269.0,Animal_Sea_Pattern_Large,26.594753084005788,32.606692541972734,3.0,Animal_Land_Solid_Small,-1.0,,,,,,,,,,,
encoding,value,14,11287776,11293788,11291685.0,11291858.0,174.0,174.0,2184.5,1099.4,2249.0,891.0,Animal_Land_Solid_Small,26.594753084005788,32.606692541972734,3.0,Animal_Land_Solid_Small,-1.0,,,,,,,,,,,
encoding,value,14,11287776,11293788,11292040.0,11292179.0,140.0,140.0,2168.0,1112.3,2249.0,891.0,Animal_Land_Solid_Small,26.594753084005788,32.606692541972734,3.0,Animal_Land_Solid_Small,-1.0,,,,,,,,,,,
encoding,value,14,11287776,11293788,11292359.0,11292441.0,83.0,83.0,2155.8,1025.9,2249.0,1269.0,Animal_Sea_Pattern_Large,26.594753084005788,32.606692541972734,3.0,Animal_Land_Solid_Small,-1.0,,,,,,,,,,,
encoding,value,14,11287776,11293788,11292649.0,11292834.0,186.0,186.0,2190.4,1099.7,2249.0,891.0,Animal_Land_Solid_Small,26.594753084005788,32.606692541972734,3.0,Animal_Land_Solid_Small,-1.0,,,,,,,,,,,
encoding,value,14,11287776,11293788,11293022.0,11293053.0,32.0,32.0,2197.3,813.8,2249.0,1269.0,Animal_Sea_Pattern_Large,26.594753084005788,32.606692541972734,3.0,Animal_Land_Solid_Small,-1.0,,,,,,,,,,,
encoding,value,14,11287776,11293788,11293244.0,11293388.0,145.0,145.0,2195.9,1047.9,2249.0,1269.0,Animal_Sea_Pattern_Large,26.594753084005788,32.606692541972734,3.0,Animal_Land_Solid_Small,-1.0,,,,,,,,,,,
encoding,value,14,11287776,11293788,11293413.0,11293451.0,39.0,39.0,1956.4,1153.0,1920.0,700.0,Object_Sea_Pattern_Large,26.594753084005788,32.606692541972734,3.0,Animal_Land_Solid_Small,-1.0,,,,,,,,,,,
encoding,value,14,11287776,11293788,11293618.0,11293647.0,30.0,30.0,2149.2,890.0,2249.0,1269.0,Animal_Sea_Pattern_Large,26.594753084005788,32.606692541972734,3.0,Animal_Land_Solid_Small,-1.0,,,,,,,,,,,
encoding,attention,14,11293788,11296805,11293835.0,11294280.0,446.0,446.0,2217.2,1118.8,2249.0,891.0,Animal_Land_Solid_Small,32.60682620899752,35.6239660839783,3.0,Animal_Land_Solid_Small,-1.0,-1.0,1.0,0.6225687080295756,,,,,,,,
encoding,attention,14,11293788,11296805,11294290.0,11294647.0,358.0,358.0,2265.3,1168.1,2249.0,891.0,Animal_Land_Solid_Small,32.60682620899752,35.6239660839783,3.0,Animal_Land_Solid_Small,-1.0,-1.0,1.0,0.6225687080295756,,,,,,,,
encoding,attention,14,11293788,11296805,11294666.0,11294791.0,126.0,126.0,2178.2,1174.8,2249.0,891.0,Animal_Land_Solid_Small,32.60682620899752,35.6239660839783,3.0,Animal_Land_Solid_Small,-1.0,-1.0,1.0,0.6225687080295756,,,,,,,,
encoding,attention,14,11293788,11296805,11294980.0,11295030.0,51.0,51.0,2195.6,864.0999999999999,2249.0,1269.0,Animal_Sea_Pattern_Large,32.60682620899752,35.6239660839783,3.0,Animal_Land_Solid_Small,-1.0,-1.0,1.0,0.6225687080295756,,,,,,,,
encoding,attention,14,11293788,11296805,11295214.0,11295257.0,44.0,44.0,2111.1,890.9000000000001,2249.0,1269.0,Animal_Sea_Pattern_Large,32.60682620899752,35.6239660839783,3.0,Animal_Land_Solid_Small,-1.0,-1.0,1.0,0.6225687080295756,,,,,,,,
encoding,attention,14,11293788,11296805,11295458.0,11295851.0,394.0,394.0,1680.5,1254.1,1591.0,891.0,Animal_Land_Pattern_Large,32.60682620899752,35.6239660839783,3.0,Animal_Land_Solid_Small,-1.0,-1.0,1.0,0.6225687080295756,,,,,,,,
encoding,attention,14,11293788,11296805,11296049.0,11296350.0,302.0,302.0,1759.1,1201.8,1591.0,891.0,Animal_Land_Pattern_Large,32.60682620899752,35.6239660839783,3.0,Animal_Land_Solid_Small,-1.0,-1.0,1.0,0.6225687080295756,,,,,,,,
encoding,attention,14,11293788,11296805,11296391.0,11296735.0,345.0,345.0,2199.8,1265.7,2249.0,891.0,Animal_Land_Solid_Small,32.60682620899752,35.6239660839783,3.0,Animal_Land_Solid_Small,-1.0,-1.0,1.0,0.6225687080295756,,,,,,,,
encoding,fixation,15,11296805,11297561,11297167.0,11297235.0,69.0,69.0,1829.2,917.5999999999999,1920.0,1460.0,Object_Land_Solid_Small,35.624128959025256,36.37918350007385,3.0,Object_Sea_Solid_Small,9.0,,,,,,,,,,,
encoding,fixation,15,11296805,11297561,11297421.0,11297464.0,44.0,44.0,1761.9,855.2,1591.0,1269.0,Object_Sea_Solid_Small,35.624128959025256,36.37918350007385,3.0,Object_Sea_Solid_Small,9.0,,,,,,,,,,,
encoding,image,15,11297561,11298571,11297655.0,11297956.0,302.0,302.0,1622.4,1200.4,1591.0,891.0,Animal_Land_Pattern_Large,36.379310874966905,37.38945766701363,3.0,Object_Sea_Solid_Small,9.0,,,,,,,,,,,
encoding,image,15,11297561,11298571,11298000.0,11298207.0,208.0,208.0,1602.4,912.2,1591.0,1269.0,Object_Sea_Solid_Small,36.379310874966905,37.38945766701363,3.0,Object_Sea_Solid_Small,9.0,,,,,,,,,,,
encoding,image,15,11297561,11298571,11298215.0,11298330.0,116.0,116.0,1583.9,910.9000000000001,1591.0,1269.0,Object_Sea_Solid_Small,36.379310874966905,37.38945766701363,3.0,Object_Sea_Solid_Small,9.0,,,,,,,,,,,
encoding,value,15,11298571,11304582,11299163.0,11299499.0,337.0,337.0,1607.2,624.7,1591.0,1269.0,Object_Sea_Solid_Small,37.38957983406726,43.40020350005943,3.0,Object_Sea_Solid_Small,9.0,,,,,,,,,,,
encoding,value,15,11298571,11304582,11299964.0,11300323.0,360.0,360.0,1555.0,1068.8,1591.0,1269.0,Object_Sea_Solid_Small,37.38957983406726,43.40020350005943,3.0,Object_Sea_Solid_Small,9.0,,,,,,,,,,,
encoding,value,15,11298571,11304582,11300346.0,11300526.0,181.0,181.0,1604.2,932.0999999999999,1591.0,1269.0,Object_Sea_Solid_Small,37.38957983406726,43.40020350005943,3.0,Object_Sea_Solid_Small,9.0,,,,,,,,,,,
encoding,value,15,11298571,11304582,11300733.0,11300980.0,248.0,248.0,1577.0,773.2,1591.0,1269.0,Object_Sea_Solid_Small,37.38957983406726,43.40020350005943,3.0,Object_Sea_Solid_Small,9.0,,,,,,,,,,,
encoding,value,15,11298571,11304582,11301217.0,11301267.0,51.0,51.0,1604.7,475.0,,,none,37.38957983406726,43.40020350005943,3.0,Object_Sea_Solid_Small,9.0,,,,,,,,,,,
encoding,value,15,11298571,11304582,11301486.0,11301600.0,115.0,115.0,1652.5,516.0999999999999,,,none,37.38957983406726,43.40020350005943,3.0,Object_Sea_Solid_Small,9.0,,,,,,,,,,,
encoding,value,15,11298571,11304582,11301616.0,11301665.0,50.0,50.0,1599.7,695.0,1591.0,1269.0,Object_Sea_Solid_Small,37.38957983406726,43.40020350005943,3.0,Object_Sea_Solid_Small,9.0,,,,,,,,,,,
encoding,value,15,11298571,11304582,11301891.0,11302030.0,140.0,140.0,1640.2,772.5,1591.0,1269.0,Object_Sea_Solid_Small,37.38957983406726,43.40020350005943,3.0,Object_Sea_Solid_Small,9.0,,,,,,,,,,,
encoding,value,15,11298571,11304582,11302048.0,11302386.0,339.0,339.0,1580.0,786.0999999999999,1591.0,1269.0,Object_Sea_Solid_Small,37.38957983406726,43.40020350005943,3.0,Object_Sea_Solid_Small,9.0,,,,,,,,,,,
encoding,value,15,11298571,11304582,11302612.0,11302845.0,234.0,234.0,1545.5,693.0,1591.0,1269.0,Object_Sea_Solid_Small,37.38957983406726,43.40020350005943,3.0,Object_Sea_Solid_Small,9.0,,,,,,,,,,,
encoding,value,15,11298571,11304582,11302861.0,11303062.0,202.0,202.0,1558.4,758.4000000000001,1591.0,1269.0,Object_Sea_Solid_Small,37.38957983406726,43.40020350005943,3.0,Object_Sea_Solid_Small,9.0,,,,,,,,,,,
encoding,value,15,11298571,11304582,11303472.0,11303620.0,149.0,149.0,1580.4,703.0999999999999,1591.0,1269.0,Object_Sea_Solid_Small,37.38957983406726,43.40020350005943,3.0,Object_Sea_Solid_Small,9.0,,,,,,,,,,,
encoding,value,15,11298571,11304582,11303638.0,11303952.0,315.0,315.0,1572.9,724.7,1591.0,1269.0,Object_Sea_Solid_Small,37.38957983406726,43.40020350005943,3.0,Object_Sea_Solid_Small,9.0,,,,,,,,,,,
encoding,value,15,11298571,11304582,11304354.0,11304470.0,117.0,117.0,1608.3,542.3,,,none,37.38957983406726,43.40020350005943,3.0,Object_Sea_Solid_Small,9.0,,,,,,,,,,,
encoding,attention,15,11304582,11307599,11304695.0,11305044.0,350.0,350.0,1636.0,1066.7,1591.0,1269.0,Object_Sea_Solid_Small,43.40030800004024,46.416979250032455,3.0,Object_Sea_Solid_Small,9.0,9.0,1.0,1.626422500004992,,,,,,,,
encoding,attention,15,11304582,11307599,11305233.0,11305277.0,45.0,45.0,1572.8,544.0999999999999,,,none,43.40030800004024,46.416979250032455,3.0,Object_Sea_Solid_Small,9.0,9.0,1.0,1.626422500004992,,,,,,,,
encoding,attention,15,11304582,11307599,11305485.0,11305613.0,129.0,129.0,1614.7,773.7,1591.0,1269.0,Object_Sea_Solid_Small,43.40030800004024,46.416979250032455,3.0,Object_Sea_Solid_Small,9.0,9.0,1.0,1.626422500004992,,,,,,,,
encoding,attention,15,11304582,11307599,11305638.0,11306175.0,538.0,538.0,1564.5,801.9000000000001,1591.0,1269.0,Object_Sea_Solid_Small,43.40030800004024,46.416979250032455,3.0,Object_Sea_Solid_Small,9.0,9.0,1.0,1.626422500004992,,,,,,,,
encoding,attention,15,11304582,11307599,11306184.0,11306450.0,267.0,267.0,1555.5,840.9000000000001,1591.0,1269.0,Object_Sea_Solid_Small,43.40030800004024,46.416979250032455,3.0,Object_Sea_Solid_Small,9.0,9.0,1.0,1.626422500004992,,,,,,,,
encoding,attention,15,11304582,11307599,11306687.0,11306790.0,104.0,104.0,1620.3,553.0999999999999,,,none,43.40030800004024,46.416979250032455,3.0,Object_Sea_Solid_Small,9.0,9.0,1.0,1.626422500004992,,,,,,,,
encoding,attention,15,11304582,11307599,11306828.0,11307155.0,328.0,328.0,1988.9,1222.0,1920.0,700.0,Object_Sea_Pattern_Large,43.40030800004024,46.416979250032455,3.0,Object_Sea_Solid_Small,9.0,9.0,1.0,1.626422500004992,,,,,,,,
encoding,attention,15,11304582,11307599,11307346.0,11307509.0,164.0,164.0,1572.6,1126.0,1591.0,891.0,Animal_Land_Pattern_Large,43.40030800004024,46.416979250032455,3.0,Object_Sea_Solid_Small,9.0,9.0,1.0,1.626422500004992,,,,,,,,
encoding,fixation,16,11307599,11309106,11307698.0,11307834.0,137.0,137.0,1665.2,1019.5999999999999,1591.0,1269.0,Object_Sea_Solid_Small,46.417153584072366,47.92373804200906,3.0,Animal_Sea_Pattern_Large,8.0,,,,,,,,,,,
encoding,fixation,16,11307599,11309106,11308037.0,11308371.0,335.0,335.0,1656.7,1267.7,1591.0,891.0,Animal_Land_Pattern_Large,46.417153584072366,47.92373804200906,3.0,Animal_Sea_Pattern_Large,8.0,,,,,,,,,,,
encoding,fixation,16,11307599,11309106,11308600.0,11308872.0,273.0,273.0,1551.3,1220.3,1591.0,891.0,Animal_Land_Pattern_Large,46.417153584072366,47.92373804200906,3.0,Animal_Sea_Pattern_Large,8.0,,,,,,,,,,,
encoding,image,16,11309106,11310116,11309563.0,11309898.0,336.0,336.0,1827.2,1246.2,1920.0,700.0,Object_Sea_Pattern_Large,47.92383887502365,48.93367699999362,3.0,Animal_Sea_Pattern_Large,8.0,,,,,,,,,,,
encoding,value,16,11310116,11316127,11310134.0,11310239.0,106.0,106.0,1784.0,1007.7,1591.0,1269.0,Object_Sea_Solid_Small,48.93382891698275,54.94471654202789,3.0,Animal_Sea_Pattern_Large,8.0,,,,,,,,,,,
encoding,value,16,11310116,11316127,11310427.0,11310451.0,25.0,25.0,1938.5,880.8,1920.0,1460.0,Object_Land_Solid_Small,48.93382891698275,54.94471654202789,3.0,Animal_Sea_Pattern_Large,8.0,,,,,,,,,,,
encoding,value,16,11310116,11316127,11310490.0,11310652.0,163.0,163.0,2285.7,835.8,2249.0,1269.0,Animal_Sea_Pattern_Large,48.93382891698275,54.94471654202789,3.0,Animal_Sea_Pattern_Large,8.0,,,,,,,,,,,
encoding,value,16,11310116,11316127,11310667.0,11310832.0,166.0,166.0,2224.5,856.8,2249.0,1269.0,Animal_Sea_Pattern_Large,48.93382891698275,54.94471654202789,3.0,Animal_Sea_Pattern_Large,8.0,,,,,,,,,,,
encoding,value,16,11310116,11316127,11310843.0,11311209.0,367.0,367.0,2209.8,875.2,2249.0,1269.0,Animal_Sea_Pattern_Large,48.93382891698275,54.94471654202789,3.0,Animal_Sea_Pattern_Large,8.0,,,,,,,,,,,
encoding,value,16,11310116,11316127,11311362.0,11311498.0,137.0,137.0,2154.9,810.4000000000001,2249.0,1269.0,Animal_Sea_Pattern_Large,48.93382891698275,54.94471654202789,3.0,Animal_Sea_Pattern_Large,8.0,,,,,,,,,,,
encoding,value,16,11310116,11316127,11311509.0,11311764.0,256.0,256.0,2198.8,865.5999999999999,2249.0,1269.0,Animal_Sea_Pattern_Large,48.93382891698275,54.94471654202789,3.0,Animal_Sea_Pattern_Large,8.0,,,,,,,,,,,
encoding,value,16,11310116,11316127,11312172.0,11312406.0,235.0,235.0,1898.9,1309.8,1920.0,700.0,Object_Sea_Pattern_Large,48.93382891698275,54.94471654202789,3.0,Animal_Sea_Pattern_Large,8.0,,,,,,,,,,,
encoding,value,16,11310116,11316127,11312430.0,11312527.0,98.0,98.0,1862.3,1199.6,1920.0,700.0,Object_Sea_Pattern_Large,48.93382891698275,54.94471654202789,3.0,Animal_Sea_Pattern_Large,8.0,,,,,,,,,,,
encoding,value,16,11310116,11316127,11312707.0,11312927.0,221.0,221.0,2168.2,931.8,2249.0,1269.0,Animal_Sea_Pattern_Large,48.93382891698275,54.94471654202789,3.0,Animal_Sea_Pattern_Large,8.0,,,,,,,,,,,
encoding,value,16,11310116,11316127,11313111.0,11313136.0,26.0,26.0,2154.6,645.5999999999999,1920.0,1460.0,Object_Land_Solid_Small,48.93382891698275,54.94471654202789,3.0,Animal_Sea_Pattern_Large,8.0,,,,,,,,,,,
encoding,value,16,11310116,11316127,11313327.0,11313525.0,199.0,199.0,1968.2,1115.3,1920.0,1080.0,fixation,48.93382891698275,54.94471654202789,3.0,Animal_Sea_Pattern_Large,8.0,,,,,,,,,,,
encoding,value,16,11310116,11316127,11313562.0,11313660.0,99.0,99.0,2160.6,983.4000000000001,2249.0,1269.0,Animal_Sea_Pattern_Large,48.93382891698275,54.94471654202789,3.0,Animal_Sea_Pattern_Large,8.0,,,,,,,,,,,
encoding,value,16,11310116,11316127,11313844.0,11313872.0,29.0,29.0,2090.2,625.7,1920.0,1460.0,Object_Land_Solid_Small,48.93382891698275,54.94471654202789,3.0,Animal_Sea_Pattern_Large,8.0,,,,,,,,,,,
encoding,value,16,11310116,11316127,11314066.0,11314305.0,240.0,240.0,2000.6,934.4000000000001,1920.0,1460.0,Object_Land_Solid_Small,48.93382891698275,54.94471654202789,3.0,Animal_Sea_Pattern_Large,8.0,,,,,,,,,,,
encoding,value,16,11310116,11316127,11314535.0,11314634.0,100.0,100.0,2053.5,736.5,1920.0,1460.0,Object_Land_Solid_Small,48.93382891698275,54.94471654202789,3.0,Animal_Sea_Pattern_Large,8.0,,,,,,,,,,,
encoding,value,16,11310116,11316127,11314654.0,11314731.0,78.0,78.0,2200.6,840.0,2249.0,1269.0,Animal_Sea_Pattern_Large,48.93382891698275,54.94471654202789,3.0,Animal_Sea_Pattern_Large,8.0,,,,,,,,,,,
encoding,value,16,11310116,11316127,11314949.0,11315136.0,188.0,188.0,2156.5,786.5999999999999,2249.0,1269.0,Animal_Sea_Pattern_Large,48.93382891698275,54.94471654202789,3.0,Animal_Sea_Pattern_Large,8.0,,,,,,,,,,,
encoding,value,16,11310116,11316127,11315155.0,11315513.0,359.0,359.0,2106.1,807.0,2249.0,1269.0,Animal_Sea_Pattern_Large,48.93382891698275,54.94471654202789,3.0,Animal_Sea_Pattern_Large,8.0,,,,,,,,,,,
encoding,value,16,11310116,11316127,11315525.0,11315572.0,48.0,48.0,2181.3,828.9000000000001,2249.0,1269.0,Animal_Sea_Pattern_Large,48.93382891698275,54.94471654202789,3.0,Animal_Sea_Pattern_Large,8.0,,,,,,,,,,,
encoding,value,16,11310116,11316127,11315733.0,11315777.0,45.0,45.0,2151.3,357.0,,,none,48.93382891698275,54.94471654202789,3.0,Animal_Sea_Pattern_Large,8.0,,,,,,,,,,,
encoding,value,16,11310116,11316127,11316032.0,11316124.0,93.0,93.0,2167.8,684.5,2249.0,1269.0,Animal_Sea_Pattern_Large,48.93382891698275,54.94471654202789,3.0,Animal_Sea_Pattern_Large,8.0,,,,,,,,,,,
encoding,attention,16,11316127,11319144,11316147.0,11316268.0,122.0,122.0,2002.4,871.4000000000001,1920.0,1460.0,Object_Land_Solid_Small,54.9448372090701,57.96154979197309,3.0,Animal_Sea_Pattern_Large,8.0,8.0,1.0,0.90657995804213,,,,,,,,
encoding,attention,16,11316127,11319144,11316396.0,11316612.0,217.0,217.0,2197.3,647.2,2249.0,1269.0,Animal_Sea_Pattern_Large,54.9448372090701,57.96154979197309,3.0,Animal_Sea_Pattern_Large,8.0,8.0,1.0,0.90657995804213,,,,,,,,
encoding,attention,16,11316127,11319144,11316818.0,11317245.0,428.0,428.0,2111.6,657.8,1920.0,1460.0,Object_Land_Solid_Small,54.9448372090701,57.96154979197309,3.0,Animal_Sea_Pattern_Large,8.0,8.0,1.0,0.90657995804213,,,,,,,,
encoding,attention,16,11316127,11319144,11317480.0,11317510.0,31.0,31.0,1885.1,724.8,1920.0,1460.0,Object_Land_Solid_Small,54.9448372090701,57.96154979197309,3.0,Animal_Sea_Pattern_Large,8.0,8.0,1.0,0.90657995804213,,,,,,,,
encoding,attention,16,11316127,11319144,11317749.0,11318091.0,343.0,343.0,1555.1,1336.3,1591.0,891.0,Animal_Land_Pattern_Large,54.9448372090701,57.96154979197309,3.0,Animal_Sea_Pattern_Large,8.0,8.0,1.0,0.90657995804213,,,,,,,,
encoding,attention,16,11316127,11319144,11318344.0,11318389.0,46.0,46.0,1639.2,976.5,1591.0,1269.0,Object_Sea_Solid_Small,54.9448372090701,57.96154979197309,3.0,Animal_Sea_Pattern_Large,8.0,8.0,1.0,0.90657995804213,,,,,,,,
encoding,attention,16,11316127,11319144,11318615.0,11318811.0,197.0,197.0,1792.4,1076.2,1591.0,1269.0,Object_Sea_Solid_Small,54.9448372090701,57.96154979197309,3.0,Animal_Sea_Pattern_Large,8.0,8.0,1.0,0.90657995804213,,,,,,,,
encoding,attention,16,11316127,11319144,11318853.0,11318905.0,53.0,53.0,2112.4,1028.2,2249.0,1269.0,Animal_Sea_Pattern_Large,54.9448372090701,57.96154979197309,3.0,Animal_Sea_Pattern_Large,8.0,8.0,1.0,0.90657995804213,,,,,,,,
encoding,fixation,17,11319144,11320649,11319419.0,11319534.0,116.0,116.0,1954.2,990.3,1920.0,1460.0,Object_Land_Solid_Small,57.96170687500853,59.46696500002872,3.0,Object_Sea_Pattern_Large,-9.0,,,,,,,,,,,
encoding,fixation,17,11319144,11320649,11319748.0,11319802.0,55.0,55.0,1875.8,925.3,1920.0,1460.0,Object_Land_Solid_Small,57.96170687500853,59.46696500002872,3.0,Object_Sea_Pattern_Large,-9.0,,,,,,,,,,,
encoding,fixation,17,11319144,11320649,11320012.0,11320122.0,111.0,111.0,1795.2,1075.3,1591.0,1269.0,Object_Sea_Solid_Small,57.96170687500853,59.46696500002872,3.0,Object_Sea_Pattern_Large,-9.0,,,,,,,,,,,
encoding,fixation,17,11319144,11320649,11320564.0,11320780.0,217.0,85.0,1899.8,960.0,1920.0,1460.0,Object_Land_Solid_Small,57.96170687500853,59.46696500002872,3.0,Object_Sea_Pattern_Large,-9.0,,,,,,,,,,,
