subject,phase,event,trial_number,game,option,choice,rt,roi_content,item_index,is_relevant,fix_start,fix_end,fix_duration_bounded
110,choice,choice,1,1.0,Animal,1.0,19.697509375051595,Animal_Land_Pattern_Large,0,1,10200650.0,10201168.0,518.0
110,choice,choice,1,1.0,Animal,1.0,19.697509375051595,Object_Land_Pattern_Small,1,0,10202197.0,10202823.0,626.0
110,choice,choice,1,1.0,Animal,1.0,19.697509375051595,Animal_Land_Pattern_Large,0,1,10207088.0,10207327.0,239.0
110,choice,choice,1,1.0,Animal,1.0,19.697509375051595,Object_Land_Pattern_Small,1,0,10207711.0,10207842.0,131.0
110,choice,choice,1,1.0,Animal,1.0,19.697509375051595,Animal_Land_Pattern_Large,0,1,10208061.0,10208127.0,66.0
110,choice,choice,1,1.0,Animal,1.0,19.697509375051595,Object_Land_Pattern_Small,1,0,10208396.0,10208596.0,200.0
110,choice,choice,1,1.0,Animal,1.0,19.697509375051595,Animal_Land_Pattern_Large,0,1,10208801.0,10208823.0,22.0
110,choice,choice,1,1.0,Animal,1.0,19.697509375051595,Object_Land_Pattern_Small,1,0,10209049.0,10210242.0,1193.0
110,choice,choice,1,1.0,Animal,1.0,19.697509375051595,Animal_Land_Pattern_Large,0,1,10211572.0,10212127.0,555.0
110,choice,choice,1,1.0,Animal,1.0,19.697509375051595,Object_Land_Pattern_Small,1,0,10212509.0,10212658.0,149.0
110,choice,choice,1,1.0,Animal,1.0,19.697509375051595,Animal_Sea_Solid_Large,2,1,10212918.0,10212934.0,16.0
110,choice,choice,1,1.0,Animal,1.0,19.697509375051595,Object_Land_Pattern_Small,1,0,10212941.0,10213236.0,295.0
110,choice,choice,1,1.0,Animal,1.0,19.697509375051595,Animal_Land_Pattern_Large,0,1,10213889.0,10214984.0,1095.0
110,choice,choice,1,1.0,Animal,1.0,19.697509375051595,Object_Sea_Solid_Small,3,0,10215921.0,10215964.0,43.0
110,choice,choice,1,1.0,Animal,1.0,19.697509375051595,Animal_Land_Pattern_Large,0,1,10216259.0,10216978.0,719.0
110,choice,choice,1,1.0,Animal,1.0,19.697509375051595,Object_Land_Pattern_Small,1,0,10218067.0,10218252.0,185.0
110,choice,choice,1,1.0,Animal,1.0,19.697509375051595,Animal_Sea_Solid_Small,4,1,10218276.0,10218630.0,354.0
110,choice,choice,1,1.0,Animal,1.0,19.697509375051595,Object_Land_Pattern_Large,5,0,10219058.0,10219080.0,22.0
110,choice,choice,1,1.0,Animal,1.0,19.697509375051595,Animal_Land_Pattern_Large,0,1,10219313.0,10219726.0,413.0
110,choice,choice,2,1.0,Small,2.0,11.338163750013337,Object_Land_Pattern_Small,1,1,10222896.0,10223306.0,410.0
110,choice,choice,2,1.0,Small,2.0,11.338163750013337,Object_Sea_Solid_Small,3,1,10224358.0,10224759.0,401.0
110,choice,choice,2,1.0,Small,2.0,11.338163750013337,Object_Land_Pattern_Small,1,1,10224778.0,10224910.0,132.0
110,choice,choice,2,1.0,Small,2.0,11.338163750013337,Animal_Land_Pattern_Large,0,0,10225406.0,10225658.0,252.0
110,choice,choice,2,1.0,Small,2.0,11.338163750013337,Object_Land_Pattern_Small,1,1,10225683.0,10225987.0,304.0
110,choice,choice,2,1.0,Small,2.0,11.338163750013337,Animal_Sea_Solid_Large,2,0,10227215.0,10227255.0,40.0
110,choice,choice,2,1.0,Small,2.0,11.338163750013337,Animal_Sea_Solid_Small,4,1,10227577.0,10227822.0,245.0
110,choice,choice,2,1.0,Small,2.0,11.338163750013337,Object_Land_Pattern_Small,1,1,10228073.0,10228231.0,158.0
110,choice,choice,2,1.0,Small,2.0,11.338163750013337,Animal_Land_Pattern_Large,0,0,10228478.0,10229010.0,532.0
110,choice,choice,2,1.0,Small,2.0,11.338163750013337,Object_Land_Pattern_Small,1,1,10230157.0,10230452.0,295.0
110,choice,choice,2,1.0,Small,2.0,11.338163750013337,Animal_Sea_Solid_Large,2,0,10230671.0,10230716.0,45.0
110,choice,choice,2,1.0,Small,2.0,11.338163750013337,Object_Sea_Solid_Small,3,1,10230917.0,10231078.0,161.0
110,choice,choice,2,1.0,Small,2.0,11.338163750013337,Animal_Land_Pattern_Large,0,0,10231110.0,10231204.0,94.0
110,choice,choice,2,1.0,Small,2.0,11.338163750013337,Object_Sea_Solid_Small,3,1,10231420.0,10232419.0,999.0
110,choice,choice,2,1.0,Small,2.0,11.338163750013337,Object_Land_Pattern_Large,5,0,10232850.0,10233259.0,409.0
110,choice,choice,2,1.0,Small,2.0,11.338163750013337,Animal_Sea_Solid_Large,2,0,10233415.0,10233597.0,182.0
110,choice,choice,3,1.0,Sea,1.0,11.399151834077202,Animal_Sea_Solid_Large,2,1,10236717.0,10236882.0,165.0
110,choice,choice,3,1.0,Sea,1.0,11.399151834077202,Animal_Land_Pattern_Large,0,0,10238149.0,10238471.0,322.0
110,choice,choice,3,1.0,Sea,1.0,11.399151834077202,Object_Land_Pattern_Small,1,0,10238497.0,10238775.0,278.0
110,choice,choice,3,1.0,Sea,1.0,11.399151834077202,Animal_Sea_Solid_Large,2,1,10238960.0,10239027.0,67.0
110,choice,choice,3,1.0,Sea,1.0,11.399151834077202,Object_Sea_Solid_Small,3,1,10239224.0,10239474.0,250.0
110,choice,choice,3,1.0,Sea,1.0,11.399151834077202,Object_Land_Pattern_Large,5,0,10239909.0,10240036.0,127.0
110,choice,choice,3,1.0,Sea,1.0,11.399151834077202,Object_Sea_Solid_Small,3,1,10240064.0,10240145.0,81.0
110,choice,choice,3,1.0,Sea,1.0,11.399151834077202,Animal_Sea_Solid_Large,2,1,10240534.0,10240572.0,38.0
110,choice,choice,3,1.0,Sea,1.0,11.399151834077202,Object_Sea_Solid_Small,3,1,10241037.0,10241342.0,305.0
110,choice,choice,3,1.0,Sea,1.0,11.399151834077202,Object_Land_Pattern_Small,1,0,10241361.0,10241511.0,150.0
110,choice,choice,3,1.0,Sea,1.0,11.399151834077202,Animal_Sea_Solid_Large,2,1,10241734.0,10241859.0,125.0
110,choice,choice,3,1.0,Sea,1.0,11.399151834077202,Object_Land_Pattern_Large,5,0,10242352.0,10242589.0,237.0
110,choice,choice,3,1.0,Sea,1.0,11.399151834077202,Animal_Land_Pattern_Large,0,0,10242826.0,10243441.0,615.0
110,choice,choice,3,1.0,Sea,1.0,11.399151834077202,Object_Land_Pattern_Small,1,0,10243906.0,10244120.0,214.0
110,choice,choice,3,1.0,Sea,1.0,11.399151834077202,Animal_Land_Pattern_Large,0,0,10244711.0,10244909.0,198.0
110,choice,choice,3,1.0,Sea,1.0,11.399151834077202,Animal_Sea_Solid_Large,2,1,10245336.0,10245371.0,35.0
110,choice,choice,3,1.0,Sea,1.0,11.399151834077202,Object_Sea_Solid_Small,3,1,10245806.0,10246761.0,955.0
110,choice,choice,4,1.0,Large,1.0,12.0012861660216,Animal_Sea_Solid_Large,2,1,10251730.0,10251943.0,213.0
110,choice,choice,4,1.0,Large,1.0,12.0012861660216,Animal_Land_Pattern_Large,0,1,10252671.0,10253419.0,748.0
110,choice,choice,4,1.0,Large,1.0,12.0012861660216,Object_Sea_Solid_Small,3,0,10253589.0,10254064.0,475.0
110,choice,choice,4,1.0,Large,1.0,12.0012861660216,Animal_Land_Pattern_Large,0,1,10254716.0,10254832.0,116.0
110,choice,choice,4,1.0,Large,1.0,12.0012861660216,Object_Sea_Solid_Small,3,0,10255041.0,10255214.0,173.0
110,choice,choice,4,1.0,Large,1.0,12.0012861660216,Animal_Sea_Solid_Large,2,1,10255651.0,10255792.0,141.0
110,choice,choice,4,1.0,Large,1.0,12.0012861660216,Object_Sea_Solid_Small,3,0,10256166.0,10256558.0,392.0
110,choice,choice,4,1.0,Large,1.0,12.0012861660216,Object_Land_Pattern_Large,5,1,10257006.0,10257177.0,171.0
110,choice,choice,4,1.0,Large,1.0,12.0012861660216,Animal_Sea_Solid_Large,2,1,10257494.0,10257812.0,318.0
110,choice,choice,4,1.0,Large,1.0,12.0012861660216,Object_Sea_Solid_Small,3,0,10258414.0,10258683.0,269.0
110,choice,choice,4,1.0,Large,1.0,12.0012861660216,Animal_Land_Pattern_Large,0,1,10258918.0,10259139.0,221.0
110,choice,choice,4,1.0,Large,1.0,12.0012861660216,Object_Sea_Solid_Small,3,0,10259383.0,10259413.0,30.0
110,choice,choice,4,1.0,Large,1.0,12.0012861660216,Object_Land_Pattern_Large,5,1,10259963.0,10260397.0,434.0
110,choice,choice,4,1.0,Large,1.0,12.0012861660216,Animal_Sea_Solid_Large,2,1,10260647.0,10260731.0,84.0
110,choice,choice,4,1.0,Large,1.0,12.0012861660216,Animal_Land_Pattern_Large,0,1,10260941.0,10261136.0,195.0
110,choice,choice,4,1.0,Large,1.0,12.0012861660216,Object_Sea_Solid_Small,3,0,10261388.0,10261575.0,187.0
110,choice,choice,4,1.0,Large,1.0,12.0012861660216,Object_Land_Pattern_Large,5,1,10261854.0,10262368.0,514.0
110,choice,choice,4,1.0,Large,1.0,12.0012861660216,Animal_Sea_Solid_Large,2,1,10262847.0,10262947.0,100.0
110,choice,choice,4,1.0,Large,1.0,12.0012861660216,Object_Sea_Solid_Small,3,0,10263193.0,10263318.0,125.0
110,choice,choice,5,1.0,Object,2.0,26.274777084006928,Object_Land_Pattern_Large,5,1,10267069.0,10267724.0,655.0
110,choice,choice,5,1.0,Object,2.0,26.274777084006928,Animal_Sea_Solid_Large,2,0,10268185.0,10268397.0,212.0
110,choice,choice,5,1.0,Object,2.0,26.274777084006928,Object_Sea_Solid_Small,3,1,10268847.0,10269096.0,249.0
110,choice,choice,5,1.0,Object,2.0,26.274777084006928,Animal_Sea_Solid_Small,4,0,10269631.0,10269710.0,79.0
110,choice,choice,5,1.0,Object,2.0,26.274777084006928,Object_Land_Pattern_Small,1,1,10269977.0,10270435.0,458.0
110,choice,choice,5,1.0,Object,2.0,26.274777084006928,Animal_Sea_Solid_Large,2,0,10271273.0,10272039.0,766.0
110,choice,choice,5,1.0,Object,2.0,26.274777084006928,Object_Sea_Solid_Small,3,1,10272787.0,10273388.0,601.0
110,choice,choice,5,1.0,Object,2.0,26.274777084006928,Object_Land_Pattern_Small,1,1,10275363.0,10275574.0,211.0
110,choice,choice,5,1.0,Object,2.0,26.274777084006928,Animal_Land_Pattern_Large,0,0,10275787.0,10275935.0,148.0
110,choice,choice,5,1.0,Object,2.0,26.274777084006928,Object_Sea_Solid_Small,3,1,10276558.0,10277055.0,497.0
110,choice,choice,5,1.0,Object,2.0,26.274777084006928,Object_Land_Pattern_Large,5,1,10277959.0,10278038.0,79.0
110,choice,choice,5,1.0,Object,2.0,26.274777084006928,Animal_Sea_Solid_Large,2,0,10279825.0,10279908.0,83.0
110,choice,choice,5,1.0,Object,2.0,26.274777084006928,Object_Sea_Solid_Small,3,1,10280482.0,10280849.0,367.0
110,choice,choice,5,1.0,Object,2.0,26.274777084006928,Animal_Sea_Solid_Large,2,0,10281094.0,10281373.0,279.0
110,choice,choice,5,1.0,Object,2.0,26.274777084006928,Object_Land_Pattern_Large,5,1,10281648.0,10281957.0,309.0
110,choice,choice,5,1.0,Object,2.0,26.274777084006928,Object_Sea_Solid_Small,3,1,10282168.0,10282313.0,145.0
110,choice,choice,5,1.0,Object,2.0,26.274777084006928,Animal_Sea_Solid_Large,2,0,10282711.0,10282806.0,95.0
110,choice,choice,5,1.0,Object,2.0,26.274777084006928,Object_Land_Pattern_Large,5,1,10282828.0,10282970.0,142.0
110,choice,choice,5,1.0,Object,2.0,26.274777084006928,Object_Sea_Solid_Small,3,1,10283198.0,10283393.0,195.0
110,choice,choice,5,1.0,Object,2.0,26.274777084006928,Animal_Sea_Solid_Small,4,0,10283450.0,10283729.0,279.0
110,choice,choice,5,1.0,Object,2.0,26.274777084006928,Object_Land_Pattern_Large,5,1,10283737.0,10283948.0,211.0
110,choice,choice,5,1.0,Object,2.0,26.274777084006928,Animal_Sea_Solid_Large,2,0,10284405.0,10284537.0,132.0
110,choice,choice,5,1.0,Object,2.0,26.274777084006928,Object_Land_Pattern_Large,5,1,10284549.0,10284732.0,183.0
110,choice,choice,5,1.0,Object,2.0,26.274777084006928,Animal_Sea_Solid_Large,2,0,10284946.0,10285415.0,469.0
110,choice,choice,5,1.0,Object,2.0,26.274777084006928,Object_Land_Pattern_Large,5,1,10286257.0,10286344.0,87.0
110,choice,choice,5,1.0,Object,2.0,26.274777084006928,Animal_Sea_Solid_Large,2,0,10286798.0,10286910.0,112.0
110,choice,choice,5,1.0,Object,2.0,26.274777084006928,Object_Sea_Solid_Small,3,1,10286946.0,10287148.0,202.0
110,choice,choice,5,1.0,Object,2.0,26.274777084006928,Animal_Sea_Solid_Large,2,0,10287891.0,10288043.0,152.0
110,choice,choice,5,1.0,Object,2.0,26.274777084006928,Object_Sea_Solid_Small,3,1,10288263.0,10288720.0,457.0
110,choice,choice,5,1.0,Object,2.0,26.274777084006928,Object_Land_Pattern_Large,5,1,10289475.0,10289926.0,451.0
110,choice,choice,5,1.0,Object,2.0,26.274777084006928,Object_Sea_Solid_Small,3,1,10289970.0,10290293.0,323.0
110,choice,choice,5,1.0,Object,2.0,26.274777084006928,Animal_Sea_Solid_Large,2,0,10290515.0,10290638.0,123.0
110,choice,choice,5,1.0,Object,2.0,26.274777084006928,Animal_Land_Pattern_Large,0,0,10290887.0,10291728.0,841.0
110,choice,choice,5,1.0,Object,2.0,26.274777084006928,Object_Land_Pattern_Small,1,1,10291745.0,10292252.0,507.0
110,choice,choice,5,1.0,Object,2.0,26.274777084006928,Animal_Land_Pattern_Large,0,0,10292276.0,10292903.0,627.0
110,choice,choice,6,1.0,Solid,1.0,6.892309791990556,Animal_Land_Pattern_Large,0,0,10298187.0,10298351.0,164.0
110,choice,choice,6,1.0,Solid,1.0,6.892309791990556,Object_Sea_Solid_Small,3,1,10298547.0,10298659.0,112.0
110,choice,choice,6,1.0,Solid,1.0,6.892309791990556,Animal_Land_Pattern_Large,0,0,10299113.0,10299287.0,174.0
110,choice,choice,6,1.0,Solid,1.0,6.892309791990556,Object_Land_Pattern_Small,1,0,10299313.0,10299573.0,260.0
110,choice,choice,6,1.0,Solid,1.0,6.892309791990556,Animal_Land_Pattern_Large,0,0,10299862.0,10300097.0,235.0
110,choice,choice,6,1.0,Solid,1.0,6.892309791990556,Animal_Sea_Solid_Large,2,1,10300458.0,10300524.0,66.0
110,choice,choice,6,1.0,Solid,1.0,6.892309791990556,Object_Land_Pattern_Large,5,0,10300745.0,10300789.0,44.0
110,choice,choice,6,1.0,Solid,1.0,6.892309791990556,Object_Land_Pattern_Small,1,0,10301068.0,10301362.0,294.0
110,choice,choice,6,1.0,Solid,1.0,6.892309791990556,Object_Land_Pattern_Large,5,0,10301918.0,10302060.0,142.0
110,choice,choice,6,1.0,Solid,1.0,6.892309791990556,Object_Sea_Solid_Small,3,1,10302112.0,10302663.0,551.0
110,choice,choice,8,1.0,Land,1.0,7.6413620410021394,Animal_Sea_Solid_Large,2,0,10314534.0,10314646.0,112.0
110,choice,choice,8,1.0,Land,1.0,7.6413620410021394,Object_Sea_Solid_Small,3,0,10314864.0,10315224.0,360.0
110,choice,choice,8,1.0,Land,1.0,7.6413620410021394,Object_Land_Pattern_Small,1,1,10315471.0,10315556.0,85.0
110,choice,choice,8,1.0,Land,1.0,7.6413620410021394,Animal_Sea_Solid_Large,2,0,10315788.0,10315954.0,166.0
110,choice,choice,8,1.0,Land,1.0,7.6413620410021394,Animal_Land_Pattern_Large,0,1,10316794.0,10316876.0,82.0
110,choice,choice,8,1.0,Land,1.0,7.6413620410021394,Object_Sea_Solid_Small,3,0,10317086.0,10317486.0,400.0
110,choice,choice,8,1.0,Land,1.0,7.6413620410021394,Animal_Sea_Solid_Small,4,0,10317767.0,10318008.0,241.0
110,choice,choice,8,1.0,Land,1.0,7.6413620410021394,Object_Land_Pattern_Large,5,1,10318228.0,10318359.0,131.0
110,choice,choice,8,1.0,Land,1.0,7.6413620410021394,Object_Land_Pattern_Small,1,1,10319110.0,10319467.0,357.0
110,choice,choice,8,1.0,Land,1.0,7.6413620410021394,Animal_Sea_Solid_Large,2,0,10319982.0,10320178.0,196.0
110,choice,choice,8,1.0,Land,1.0,7.6413620410021394,Object_Sea_Solid_Small,3,0,10320411.0,10321196.0,785.0
110,choice,choice,11,2.0,Small,2.0,32.623763040988706,Animal_Land_Pattern_Small,0,1,10927573.0,10927854.0,281.0
110,choice,choice,11,2.0,Small,2.0,32.623763040988706,Object_Sea_Pattern_Small,1,1,10928033.0,10928057.0,24.0
110,choice,choice,11,2.0,Small,2.0,32.623763040988706,Animal_Sea_Pattern_Small,2,1,10928495.0,10928813.0,318.0
110,choice,choice,11,2.0,Small,2.0,32.623763040988706,Object_Sea_Pattern_Small,1,1,10929015.0,10929190.0,175.0
110,choice,choice,11,2.0,Small,2.0,32.623763040988706,Animal_Land_Solid_Large,3,0,10929569.0,10929700.0,131.0
110,choice,choice,11,2.0,Small,2.0,32.623763040988706,Animal_Sea_Pattern_Small,2,1,10930247.0,10930481.0,234.0
110,choice,choice,11,2.0,Small,2.0,32.623763040988706,Object_Sea_Pattern_Small,1,1,10930719.0,10931554.0,835.0
110,choice,choice,11,2.0,Small,2.0,32.623763040988706,Animal_Sea_Pattern_Small,2,1,10934994.0,10935137.0,143.0
110,choice,choice,11,2.0,Small,2.0,32.623763040988706,Object_Sea_Pattern_Small,1,1,10935356.0,10935394.0,38.0
110,choice,choice,11,2.0,Small,2.0,32.623763040988706,Animal_Sea_Pattern_Small,2,1,10936249.0,10936674.0,425.0
110,choice,choice,11,2.0,Small,2.0,32.623763040988706,Object_Sea_Pattern_Small,1,1,10936945.0,10937092.0,147.0
110,choice,choice,11,2.0,Small,2.0,32.623763040988706,Animal_Land_Pattern_Small,0,1,10937323.0,10937584.0,261.0
110,choice,choice,11,2.0,Small,2.0,32.623763040988706,Animal_Sea_Pattern_Small,2,1,10937605.0,10937828.0,223.0
110,choice,choice,11,2.0,Small,2.0,32.623763040988706,Animal_Land_Pattern_Small,0,1,10938155.0,10938318.0,163.0
110,choice,choice,11,2.0,Small,2.0,32.623763040988706,Object_Sea_Solid_Large,4,0,10938527.0,10938674.0,147.0
110,choice,choice,11,2.0,Small,2.0,32.623763040988706,Object_Sea_Pattern_Small,1,1,10938860.0,10938886.0,26.0
110,choice,choice,11,2.0,Small,2.0,32.623763040988706,Animal_Sea_Pattern_Small,2,1,10939107.0,10939174.0,67.0
110,choice,choice,11,2.0,Small,2.0,32.623763040988706,Object_Sea_Pattern_Small,1,1,10939372.0,10939498.0,126.0
110,choice,choice,11,2.0,Small,2.0,32.623763040988706,Animal_Land_Pattern_Small,0,1,10940551.0,10940713.0,162.0
110,choice,choice,11,2.0,Small,2.0,32.623763040988706,Animal_Sea_Pattern_Small,2,1,10940940.0,10941097.0,157.0
110,choice,choice,11,2.0,Small,2.0,32.623763040988706,Object_Sea_Pattern_Small,1,1,10941336.0,10941422.0,86.0
110,choice,choice,11,2.0,Small,2.0,32.623763040988706,Animal_Land_Solid_Large,3,0,10941932.0,10942072.0,140.0
110,choice,choice,11,2.0,Small,2.0,32.623763040988706,Object_Land_Solid_Large,5,0,10942300.0,10942469.0,169.0
110,choice,choice,11,2.0,Small,2.0,32.623763040988706,Object_Sea_Pattern_Small,1,1,10942685.0,10942712.0,27.0
110,choice,choice,11,2.0,Small,2.0,32.623763040988706,Animal_Sea_Pattern_Small,2,1,10943183.0,10943426.0,243.0
110,choice,choice,11,2.0,Small,2.0,32.623763040988706,Object_Sea_Pattern_Small,1,1,10943629.0,10943789.0,160.0
110,choice,choice,11,2.0,Small,2.0,32.623763040988706,Animal_Land_Pattern_Small,0,1,10943812.0,10943912.0,100.0
110,choice,choice,11,2.0,Small,2.0,32.623763040988706,Object_Land_Solid_Large,5,0,10944117.0,10944144.0,27.0
110,choice,choice,11,2.0,Small,2.0,32.623763040988706,Object_Sea_Solid_Large,4,0,10944364.0,10944498.0,134.0
110,choice,choice,11,2.0,Small,2.0,32.623763040988706,Object_Sea_Pattern_Small,1,1,10944721.0,10944805.0,84.0
110,choice,choice,11,2.0,Small,2.0,32.623763040988706,Animal_Sea_Pattern_Small,2,1,10945039.0,10945751.0,712.0
110,choice,choice,11,2.0,Small,2.0,32.623763040988706,Object_Sea_Solid_Large,4,0,10946618.0,10946855.0,237.0
110,choice,choice,11,2.0,Small,2.0,32.623763040988706,Animal_Sea_Pattern_Small,2,1,10947644.0,10947806.0,162.0
110,choice,choice,11,2.0,Small,2.0,32.623763040988706,Object_Sea_Pattern_Small,1,1,10948265.0,10948673.0,408.0
110,choice,choice,11,2.0,Small,2.0,32.623763040988706,Animal_Land_Solid_Large,3,0,10951360.0,10951406.0,46.0
110,choice,choice,11,2.0,Small,2.0,32.623763040988706,Animal_Land_Pattern_Small,0,1,10952168.0,10952420.0,252.0
110,choice,choice,11,2.0,Small,2.0,32.623763040988706,Animal_Sea_Pattern_Small,2,1,10952652.0,10952874.0,222.0
110,choice,choice,11,2.0,Small,2.0,32.623763040988706,Object_Sea_Pattern_Small,1,1,10952897.0,10953079.0,182.0
110,choice,choice,11,2.0,Small,2.0,32.623763040988706,Animal_Sea_Pattern_Small,2,1,10953530.0,10953856.0,326.0
110,choice,choice,11,2.0,Small,2.0,32.623763040988706,Animal_Land_Solid_Large,3,0,10954132.0,10954274.0,142.0
110,choice,choice,11,2.0,Small,2.0,32.623763040988706,Animal_Sea_Pattern_Small,2,1,10955228.0,10955761.0,533.0
110,choice,choice,11,2.0,Small,2.0,32.623763040988706,Animal_Land_Solid_Large,3,0,10956256.0,10956311.0,55.0
110,choice,choice,11,2.0,Small,2.0,32.623763040988706,Object_Sea_Pattern_Small,1,1,10956535.0,10956861.0,326.0
110,choice,choice,11,2.0,Small,2.0,32.623763040988706,Object_Land_Solid_Large,5,0,10957420.0,10957669.0,249.0
110,choice,choice,11,2.0,Small,2.0,32.623763040988706,Object_Sea_Solid_Large,4,0,10957877.0,10958568.0,691.0
110,choice,choice,11,2.0,Small,2.0,32.623763040988706,Animal_Land_Solid_Large,3,0,10959277.0,10959361.0,84.0
110,choice,choice,11,2.0,Small,2.0,32.623763040988706,Animal_Sea_Pattern_Small,2,1,10959568.0,10959963.0,395.0
110,choice,choice,12,2.0,Pattern,2.0,60.9457821669057,Animal_Land_Pattern_Small,0,1,10963730.0,10964229.0,499.0
110,choice,choice,12,2.0,Pattern,2.0,60.9457821669057,Animal_Sea_Pattern_Small,2,1,10964716.0,10965019.0,303.0
110,choice,choice,12,2.0,Pattern,2.0,60.9457821669057,Animal_Land_Pattern_Small,0,1,10965293.0,10965486.0,193.0
110,choice,choice,12,2.0,Pattern,2.0,60.9457821669057,Animal_Land_Solid_Large,3,0,10965745.0,10965770.0,25.0
110,choice,choice,12,2.0,Pattern,2.0,60.9457821669057,Object_Sea_Pattern_Small,1,1,10966043.0,10966139.0,96.0
110,choice,choice,12,2.0,Pattern,2.0,60.9457821669057,Animal_Land_Pattern_Small,0,1,10966420.0,10966686.0,266.0
110,choice,choice,12,2.0,Pattern,2.0,60.9457821669057,Animal_Sea_Pattern_Small,2,1,10966702.0,10966723.0,21.0
110,choice,choice,12,2.0,Pattern,2.0,60.9457821669057,Object_Land_Solid_Large,5,0,10967324.0,10967399.0,75.0
110,choice,choice,12,2.0,Pattern,2.0,60.9457821669057,Object_Sea_Pattern_Small,1,1,10967655.0,10967965.0,310.0
110,choice,choice,12,2.0,Pattern,2.0,60.9457821669057,Animal_Land_Pattern_Small,0,1,10968480.0,10968743.0,263.0
110,choice,choice,12,2.0,Pattern,2.0,60.9457821669057,Animal_Sea_Pattern_Small,2,1,10968978.0,10969234.0,256.0
110,choice,choice,12,2.0,Pattern,2.0,60.9457821669057,Animal_Land_Solid_Large,3,0,10969542.0,10969744.0,202.0
110,choice,choice,12,2.0,Pattern,2.0,60.9457821669057,Object_Land_Solid_Large,5,0,10970531.0,10970639.0,108.0
110,choice,choice,12,2.0,Pattern,2.0,60.9457821669057,Object_Sea_Solid_Large,4,0,10970868.0,10970993.0,125.0
110,choice,choice,12,2.0,Pattern,2.0,60.9457821669057,Object_Land_Solid_Large,5,0,10971224.0,10971350.0,126.0
110,choice,choice,12,2.0,Pattern,2.0,60.9457821669057,Object_Sea_Solid_Large,4,0,10971818.0,10971957.0,139.0
110,choice,choice,12,2.0,Pattern,2.0,60.9457821669057,Object_Land_Solid_Large,5,0,10972191.0,10972409.0,218.0
110,choice,choice,12,2.0,Pattern,2.0,60.9457821669057,Animal_Land_Solid_Large,3,0,10972636.0,10972896.0,260.0
110,choice,choice,12,2.0,Pattern,2.0,60.9457821669057,Object_Sea_Solid_Large,4,0,10973616.0,10974039.0,423.0
110,choice,choice,12,2.0,Pattern,2.0,60.9457821669057,Object_Sea_Pattern_Small,1,1,10974701.0,10974767.0,66.0
110,choice,choice,12,2.0,Pattern,2.0,60.9457821669057,Animal_Sea_Pattern_Small,2,1,10974983.0,10975162.0,179.0
110,choice,choice,12,2.0,Pattern,2.0,60.9457821669057,Object_Sea_Pattern_Small,1,1,10975373.0,10975885.0,512.0
110,choice,choice,12,2.0,Pattern,2.0,60.9457821669057,Animal_Land_Solid_Large,3,0,10976390.0,10976644.0,254.0
110,choice,choice,12,2.0,Pattern,2.0,60.9457821669057,Animal_Sea_Pattern_Small,2,1,10978494.0,10978651.0,157.0
110,choice,choice,12,2.0,Pattern,2.0,60.9457821669057,Object_Sea_Pattern_Small,1,1,10979657.0,10979991.0,334.0
110,choice,choice,12,2.0,Pattern,2.0,60.9457821669057,Animal_Land_Solid_Large,3,0,10981390.0,10981439.0,49.0
110,choice,choice,12,2.0,Pattern,2.0,60.9457821669057,Object_Sea_Pattern_Small,1,1,10981902.0,10982569.0,667.0
110,choice,choice,12,2.0,Pattern,2.0,60.9457821669057,Animal_Land_Solid_Large,3,0,10983301.0,10983370.0,69.0
110,choice,choice,12,2.0,Pattern,2.0,60.9457821669057,Animal_Land_Pattern_Small,0,1,10983581.0,10983811.0,230.0
110,choice,choice,12,2.0,Pattern,2.0,60.9457821669057,Object_Sea_Solid_Large,4,0,10983830.0,10984046.0,216.0
110,choice,choice,12,2.0,Pattern,2.0,60.9457821669057,Animal_Land_Solid_Large,3,0,10984705.0,10984992.0,287.0
110,choice,choice,12,2.0,Pattern,2.0,60.9457821669057,Object_Sea_Pattern_Small,1,1,10985474.0,10985669.0,195.0
110,choice,choice,12,2.0,Pattern,2.0,60.9457821669057,Animal_Land_Pattern_Small,0,1,10986200.0,10986371.0,171.0
110,choice,choice,12,2.0,Pattern,2.0,60.9457821669057,Animal_Sea_Pattern_Small,2,1,10986392.0,10986520.0,128.0
110,choice,choice,12,2.0,Pattern,2.0,60.9457821669057,Object_Sea_Pattern_Small,1,1,10986740.0,10986850.0,110.0
110,choice,choice,12,2.0,Pattern,2.0,60.9457821669057,Animal_Land_Solid_Large,3,0,10987060.0,10987162.0,102.0
110,choice,choice,12,2.0,Pattern,2.0,60.9457821669057,Object_Sea_Pattern_Small,1,1,10987581.0,10988566.0,985.0
110,choice,choice,12,2.0,Pattern,2.0,60.9457821669057,Object_Sea_Solid_Large,4,0,10990636.0,10991008.0,372.0
110,choice,choice,12,2.0,Pattern,2.0,60.9457821669057,Object_Sea_Pattern_Small,1,1,10991197.0,10991489.0,292.0
110,choice,choice,12,2.0,Pattern,2.0,60.9457821669057,Object_Sea_Solid_Large,4,0,10991511.0,10991928.0,417.0
110,choice,choice,12,2.0,Pattern,2.0,60.9457821669057,Object_Land_Solid_Large,5,0,10992173.0,10992250.0,77.0
110,choice,choice,12,2.0,Pattern,2.0,60.9457821669057,Animal_Land_Solid_Large,3,0,10992458.0,10992527.0,69.0
110,choice,choice,12,2.0,Pattern,2.0,60.9457821669057,Object_Sea_Pattern_Small,1,1,10992766.0,10992888.0,122.0
110,choice,choice,12,2.0,Pattern,2.0,60.9457821669057,Animal_Sea_Pattern_Small,2,1,10993200.0,10993965.0,765.0
110,choice,choice,12,2.0,Pattern,2.0,60.9457821669057,Object_Sea_Solid_Large,4,0,10994521.0,10994757.0,236.0
110,choice,choice,12,2.0,Pattern,2.0,60.9457821669057,Animal_Land_Solid_Large,3,0,10995413.0,10995448.0,35.0
110,choice,choice,12,2.0,Pattern,2.0,60.9457821669057,Object_Land_Solid_Large,5,0,10995697.0,10995864.0,167.0
110,choice,choice,12,2.0,Pattern,2.0,60.9457821669057,Animal_Sea_Pattern_Small,2,1,10996134.0,10996289.0,155.0
110,choice,choice,12,2.0,Pattern,2.0,60.9457821669057,Object_Sea_Pattern_Small,1,1,10996552.0,10996674.0,122.0
110,choice,choice,12,2.0,Pattern,2.0,60.9457821669057,Animal_Land_Pattern_Small,0,1,10998373.0,10998564.0,191.0
110,choice,choice,12,2.0,Pattern,2.0,60.9457821669057,Object_Sea_Solid_Large,4,0,10998759.0,10999028.0,269.0
110,choice,choice,12,2.0,Pattern,2.0,60.9457821669057,Animal_Sea_Pattern_Small,2,1,10999075.0,10999303.0,228.0
110,choice,choice,12,2.0,Pattern,2.0,60.9457821669057,Animal_Land_Pattern_Small,0,1,10999591.0,10999956.0,365.0
110,choice,choice,12,2.0,Pattern,2.0,60.9457821669057,Object_Sea_Solid_Large,4,0,11000239.0,11000531.0,292.0
110,choice,choice,12,2.0,Pattern,2.0,60.9457821669057,Animal_Land_Pattern_Small,0,1,11000744.0,11001086.0,342.0
110,choice,choice,12,2.0,Pattern,2.0,60.9457821669057,Animal_Sea_Pattern_Small,2,1,11001125.0,11001689.0,564.0
110,choice,choice,12,2.0,Pattern,2.0,60.9457821669057,Object_Sea_Solid_Large,4,0,11002125.0,11002412.0,287.0
110,choice,choice,12,2.0,Pattern,2.0,60.9457821669057,Object_Sea_Pattern_Small,1,1,11002678.0,11003501.0,823.0
110,choice,choice,12,2.0,Pattern,2.0,60.9457821669057,Object_Sea_Solid_Large,4,0,11004040.0,11004535.0,495.0
110,choice,choice,12,2.0,Pattern,2.0,60.9457821669057,Object_Sea_Pattern_Small,1,1,11004578.0,11005014.0,436.0
110,choice,choice,12,2.0,Pattern,2.0,60.9457821669057,Object_Sea_Solid_Large,4,0,11005989.0,11006317.0,328.0
110,choice,choice,12,2.0,Pattern,2.0,60.9457821669057,Animal_Sea_Pattern_Small,2,1,11006567.0,11007079.0,512.0
110,choice,choice,12,2.0,Pattern,2.0,60.9457821669057,Object_Sea_Pattern_Small,1,1,11007566.0,11007632.0,66.0
110,choice,choice,12,2.0,Pattern,2.0,60.9457821669057,Animal_Sea_Pattern_Small,2,1,11007848.0,11007920.0,72.0
110,choice,choice,12,2.0,Pattern,2.0,60.9457821669057,Object_Sea_Pattern_Small,1,1,11008290.0,11008839.0,549.0
110,choice,choice,12,2.0,Pattern,2.0,60.9457821669057,Animal_Land_Solid_Large,3,0,11009543.0,11009597.0,54.0
110,choice,choice,12,2.0,Pattern,2.0,60.9457821669057,Object_Sea_Solid_Large,4,0,11010139.0,11010624.0,485.0
110,choice,choice,12,2.0,Pattern,2.0,60.9457821669057,Animal_Land_Solid_Large,3,0,11011083.0,11011177.0,94.0
110,choice,choice,12,2.0,Pattern,2.0,60.9457821669057,Object_Sea_Solid_Large,4,0,11011425.0,11011617.0,192.0
110,choice,choice,12,2.0,Pattern,2.0,60.9457821669057,Animal_Land_Pattern_Small,0,1,11011636.0,11011725.0,89.0
110,choice,choice,12,2.0,Pattern,2.0,60.9457821669057,Animal_Land_Solid_Large,3,0,11011955.0,11012043.0,88.0
110,choice,choice,12,2.0,Pattern,2.0,60.9457821669057,Object_Sea_Pattern_Small,1,1,11012291.0,11013620.0,1329.0
110,choice,choice,12,2.0,Pattern,2.0,60.9457821669057,Animal_Sea_Pattern_Small,2,1,11015205.0,11015629.0,424.0
110,choice,choice,12,2.0,Pattern,2.0,60.9457821669057,Object_Sea_Pattern_Small,1,1,11015647.0,11016700.0,1053.0
110,choice,choice,12,2.0,Pattern,2.0,60.9457821669057,Animal_Sea_Pattern_Small,2,1,11018353.0,11018623.0,270.0
110,choice,choice,12,2.0,Pattern,2.0,60.9457821669057,Object_Sea_Pattern_Small,1,1,11019530.0,11020983.0,1453.0
110,choice,choice,13,2.0,Animal,1.0,9.863657708046958,Animal_Sea_Pattern_Small,2,1,11028223.0,11028339.0,116.0
110,choice,choice,13,2.0,Animal,1.0,9.863657708046958,Object_Sea_Pattern_Small,1,0,11028791.0,11029976.0,1185.0
110,choice,choice,13,2.0,Animal,1.0,9.863657708046958,Animal_Land_Solid_Large,3,1,11031522.0,11031672.0,150.0
110,choice,choice,13,2.0,Animal,1.0,9.863657708046958,Animal_Land_Pattern_Small,0,1,11031930.0,11032516.0,586.0
110,choice,choice,13,2.0,Animal,1.0,9.863657708046958,Object_Sea_Pattern_Small,1,0,11033450.0,11033477.0,27.0
110,choice,choice,13,2.0,Animal,1.0,9.863657708046958,Animal_Sea_Pattern_Small,2,1,11033688.0,11034033.0,345.0
110,choice,choice,13,2.0,Animal,1.0,9.863657708046958,Object_Sea_Pattern_Small,1,0,11034257.0,11034907.0,650.0
110,choice,choice,13,2.0,Animal,1.0,9.863657708046958,Animal_Land_Solid_Large,3,1,11036551.0,11036656.0,105.0
110,choice,choice,13,2.0,Animal,1.0,9.863657708046958,Animal_Land_Pattern_Small,0,1,11037202.0,11037473.0,271.0
110,choice,choice,13,2.0,Animal,1.0,9.863657708046958,Animal_Sea_Pattern_Small,2,1,11037518.0,11037633.0,115.0
110,choice,choice,14,2.0,Land,2.0,16.475982166011818,Object_Sea_Pattern_Small,1,0,11041097.0,11041197.0,100.0
110,choice,choice,14,2.0,Land,2.0,16.475982166011818,Animal_Land_Solid_Large,3,1,11041425.0,11041489.0,64.0
110,choice,choice,14,2.0,Land,2.0,16.475982166011818,Object_Sea_Pattern_Small,1,0,11041708.0,11041929.0,221.0
110,choice,choice,14,2.0,Land,2.0,16.475982166011818,Animal_Sea_Pattern_Small,2,0,11042654.0,11042940.0,286.0
110,choice,choice,14,2.0,Land,2.0,16.475982166011818,Animal_Land_Pattern_Small,0,1,11043412.0,11043688.0,276.0
110,choice,choice,14,2.0,Land,2.0,16.475982166011818,Object_Land_Solid_Large,5,1,11043906.0,11044108.0,202.0
110,choice,choice,14,2.0,Land,2.0,16.475982166011818,Object_Sea_Pattern_Small,1,0,11044585.0,11045338.0,753.0
110,choice,choice,14,2.0,Land,2.0,16.475982166011818,Object_Land_Solid_Large,5,1,11046176.0,11046243.0,67.0
110,choice,choice,14,2.0,Land,2.0,16.475982166011818,Object_Sea_Pattern_Small,1,0,11046519.0,11046740.0,221.0
110,choice,choice,14,2.0,Land,2.0,16.475982166011818,Animal_Land_Pattern_Small,0,1,11046998.0,11047342.0,344.0
110,choice,choice,14,2.0,Land,2.0,16.475982166011818,Object_Sea_Pattern_Small,1,0,11048477.0,11048571.0,94.0
110,choice,choice,14,2.0,Land,2.0,16.475982166011818,Animal_Sea_Pattern_Small,2,0,11048848.0,11050127.0,1279.0
110,choice,choice,14,2.0,Land,2.0,16.475982166011818,Object_Sea_Pattern_Small,1,0,11050864.0,11051218.0,354.0
110,choice,choice,14,2.0,Land,2.0,16.475982166011818,Animal_Sea_Pattern_Small,2,0,11053592.0,11053756.0,164.0
110,choice,choice,14,2.0,Land,2.0,16.475982166011818,Object_Sea_Solid_Large,4,0,11053981.0,11054177.0,196.0
110,choice,choice,14,2.0,Land,2.0,16.475982166011818,Object_Land_Solid_Large,5,1,11054428.0,11054523.0,95.0
110,choice,choice,14,2.0,Land,2.0,16.475982166011818,Animal_Land_Solid_Large,3,1,11054728.0,11054770.0,42.0
110,choice,choice,14,2.0,Land,2.0,16.475982166011818,Object_Sea_Pattern_Small,1,0,11055246.0,11055541.0,295.0
110,choice,choice,14,2.0,Land,2.0,16.475982166011818,Animal_Land_Solid_Large,3,1,11055980.0,11056181.0,201.0
110,choice,choice,14,2.0,Land,2.0,16.475982166011818,Object_Sea_Pattern_Small,1,0,11056411.0,11056682.0,271.0
110,choice,choice,14,2.0,Land,2.0,16.475982166011818,Animal_Land_Solid_Large,3,1,11057158.0,11057343.0,185.0
110,choice,choice,14,2.0,Land,2.0,16.475982166011818,Object_Sea_Pattern_Small,1,0,11057363.0,11057411.0,48.0
110,choice,choice,15,2.0,Solid,1.0,10.2971047910396,Animal_Land_Solid_Large,3,1,11061121.0,11061330.0,209.0
110,choice,choice,15,2.0,Solid,1.0,10.2971047910396,Object_Sea_Pattern_Small,1,0,11062043.0,11062157.0,114.0
110,choice,choice,15,2.0,Solid,1.0,10.2971047910396,Animal_Sea_Pattern_Small,2,0,11063363.0,11063741.0,378.0
110,choice,choice,15,2.0,Solid,1.0,10.2971047910396,Animal_Land_Pattern_Small,0,0,11064188.0,11064371.0,183.0
110,choice,choice,15,2.0,Solid,1.0,10.2971047910396,Animal_Sea_Pattern_Small,2,0,11065102.0,11065418.0,316.0
110,choice,choice,15,2.0,Solid,1.0,10.2971047910396,Object_Sea_Pattern_Small,1,0,11065643.0,11065698.0,55.0
110,choice,choice,15,2.0,Solid,1.0,10.2971047910396,Animal_Sea_Pattern_Small,2,0,11065933.0,11066196.0,263.0
110,choice,choice,15,2.0,Solid,1.0,10.2971047910396,Animal_Land_Pattern_Small,0,0,11066231.0,11066399.0,168.0
110,choice,choice,15,2.0,Solid,1.0,10.2971047910396,Animal_Land_Solid_Large,3,1,11066872.0,11066963.0,91.0
110,choice,choice,15,2.0,Solid,1.0,10.2971047910396,Object_Sea_Solid_Large,4,1,11067216.0,11067495.0,279.0
110,choice,choice,15,2.0,Solid,1.0,10.2971047910396,Animal_Land_Solid_Large,3,1,11067731.0,11067915.0,184.0
110,choice,choice,15,2.0,Solid,1.0,10.2971047910396,Object_Sea_Pattern_Small,1,0,11068719.0,11069136.0,417.0
110,choice,choice,15,2.0,Solid,1.0,10.2971047910396,Animal_Land_Solid_Large,3,1,11069461.0,11069550.0,89.0
110,choice,choice,15,2.0,Solid,1.0,10.2971047910396,Object_Land_Solid_Large,5,1,11069766.0,11069973.0,207.0
110,choice,choice,15,2.0,Solid,1.0,10.2971047910396,Object_Sea_Pattern_Small,1,0,11070417.0,11070838.0,421.0
110,choice,choice,16,2.0,Sea,1.0,6.189586499938741,Object_Sea_Solid_Large,4,1,11074896.0,11074949.0,53.0
110,choice,choice,16,2.0,Sea,1.0,6.189586499938741,Animal_Land_Pattern_Small,0,0,11075302.0,11075881.0,579.0
110,choice,choice,16,2.0,Sea,1.0,6.189586499938741,Animal_Sea_Pattern_Small,2,1,11076747.0,11077148.0,401.0
110,choice,choice,16,2.0,Sea,1.0,6.189586499938741,Object_Sea_Pattern_Small,1,1,11077969.0,11078315.0,346.0
110,choice,choice,16,2.0,Sea,1.0,6.189586499938741,Animal_Land_Pattern_Small,0,0,11078942.0,11079154.0,212.0
110,choice,choice,16,2.0,Sea,1.0,6.189586499938741,Object_Sea_Solid_Large,4,1,11079357.0,11079773.0,416.0
110,choice,choice,16,2.0,Sea,1.0,6.189586499938741,Object_Sea_Pattern_Small,1,1,11080283.0,11080507.0,224.0
110,choice,choice,17,3.0,Sea,1.0,11.098587457905523,Object_Sea_Solid_Small,0,1,11431144.0,11431188.0,44.0
110,choice,choice,17,3.0,Sea,1.0,11.098587457905523,Animal_Land_Pattern_Large,1,0,11431418.0,11431537.0,119.0
110,choice,choice,17,3.0,Sea,1.0,11.098587457905523,Object_Sea_Solid_Small,0,1,11431768.0,11432050.0,282.0
110,choice,choice,17,3.0,Sea,1.0,11.098587457905523,Animal_Land_Pattern_Large,1,0,11433325.0,11433554.0,229.0
110,choice,choice,17,3.0,Sea,1.0,11.098587457905523,Object_Land_Solid_Small,2,0,11434190.0,11434356.0,166.0
110,choice,choice,17,3.0,Sea,1.0,11.098587457905523,Object_Sea_Solid_Small,0,1,11435436.0,11435593.0,157.0
110,choice,choice,17,3.0,Sea,1.0,11.098587457905523,Object_Sea_Pattern_Large,3,1,11436132.0,11436384.0,252.0
110,choice,choice,17,3.0,Sea,1.0,11.098587457905523,Animal_Land_Pattern_Large,1,0,11436634.0,11437234.0,600.0
110,choice,choice,17,3.0,Sea,1.0,11.098587457905523,Object_Sea_Pattern_Large,3,1,11438502.0,11438625.0,123.0
110,choice,choice,17,3.0,Sea,1.0,11.098587457905523,Object_Sea_Solid_Small,0,1,11438835.0,11438947.0,112.0
110,choice,choice,17,3.0,Sea,1.0,11.098587457905523,Object_Land_Solid_Small,2,0,11439284.0,11439468.0,184.0
110,choice,choice,17,3.0,Sea,1.0,11.098587457905523,Object_Sea_Solid_Small,0,1,11439487.0,11439566.0,79.0
110,choice,choice,17,3.0,Sea,1.0,11.098587457905523,Object_Land_Solid_Small,2,0,11439768.0,11440002.0,234.0
110,choice,choice,17,3.0,Sea,1.0,11.098587457905523,Object_Sea_Pattern_Large,3,1,11440239.0,11440435.0,196.0
110,choice,choice,17,3.0,Sea,1.0,11.098587457905523,Object_Land_Solid_Small,2,0,11440634.0,11440775.0,141.0
110,choice,choice,17,3.0,Sea,1.0,11.098587457905523,Object_Sea_Solid_Small,0,1,11440815.0,11441969.0,1154.0
110,choice,choice,18,3.0,Solid,1.0,3.3601507919374853,Object_Sea_Pattern_Large,3,0,11445588.0,11445774.0,186.0
110,choice,choice,18,3.0,Solid,1.0,3.3601507919374853,Object_Sea_Solid_Small,0,1,11445986.0,11446035.0,49.0
110,choice,choice,18,3.0,Solid,1.0,3.3601507919374853,Animal_Land_Pattern_Large,1,0,11446288.0,11446473.0,185.0
110,choice,choice,18,3.0,Solid,1.0,3.3601507919374853,Object_Sea_Solid_Small,0,1,11446691.0,11447032.0,341.0
110,choice,choice,18,3.0,Solid,1.0,3.3601507919374853,Object_Land_Solid_Small,2,1,11447449.0,11447699.0,250.0
110,choice,choice,18,3.0,Solid,1.0,3.3601507919374853,Object_Sea_Solid_Small,0,1,11448378.0,11448612.0,234.0
110,choice,choice,19,3.0,Large,2.0,44.09479374997318,Object_Land_Solid_Small,2,0,11452466.0,11452941.0,475.0
110,choice,choice,19,3.0,Large,2.0,44.09479374997318,Object_Sea_Solid_Small,0,0,11454481.0,11454751.0,270.0
110,choice,choice,19,3.0,Large,2.0,44.09479374997318,Animal_Land_Pattern_Large,1,1,11455616.0,11455742.0,126.0
110,choice,choice,19,3.0,Large,2.0,44.09479374997318,Object_Land_Solid_Small,2,0,11455957.0,11456021.0,64.0
110,choice,choice,19,3.0,Large,2.0,44.09479374997318,Object_Sea_Pattern_Large,3,1,11456673.0,11456855.0,182.0
110,choice,choice,19,3.0,Large,2.0,44.09479374997318,Object_Land_Solid_Small,2,0,11457072.0,11457119.0,47.0
110,choice,choice,19,3.0,Large,2.0,44.09479374997318,Object_Sea_Pattern_Large,3,1,11457316.0,11457485.0,169.0
110,choice,choice,19,3.0,Large,2.0,44.09479374997318,Object_Land_Solid_Small,2,0,11457694.0,11457759.0,65.0
110,choice,choice,19,3.0,Large,2.0,44.09479374997318,Animal_Sea_Pattern_Large,4,1,11457982.0,11458252.0,270.0
110,choice,choice,19,3.0,Large,2.0,44.09479374997318,Object_Land_Solid_Small,2,0,11458533.0,11458603.0,70.0
110,choice,choice,19,3.0,Large,2.0,44.09479374997318,Object_Sea_Solid_Small,0,0,11459377.0,11459642.0,265.0
110,choice,choice,19,3.0,Large,2.0,44.09479374997318,Animal_Land_Pattern_Large,1,1,11459957.0,11460304.0,347.0
110,choice,choice,19,3.0,Large,2.0,44.09479374997318,Object_Sea_Solid_Small,0,0,11461063.0,11461317.0,254.0
110,choice,choice,19,3.0,Large,2.0,44.09479374997318,Animal_Land_Pattern_Large,1,1,11461947.0,11462087.0,140.0
110,choice,choice,19,3.0,Large,2.0,44.09479374997318,Object_Sea_Solid_Small,0,0,11462326.0,11462431.0,105.0
110,choice,choice,19,3.0,Large,2.0,44.09479374997318,Animal_Land_Pattern_Large,1,1,11463110.0,11463358.0,248.0
110,choice,choice,19,3.0,Large,2.0,44.09479374997318,Object_Sea_Solid_Small,0,0,11463595.0,11463628.0,33.0
110,choice,choice,19,3.0,Large,2.0,44.09479374997318,Animal_Land_Pattern_Large,1,1,11464410.0,11464821.0,411.0
110,choice,choice,19,3.0,Large,2.0,44.09479374997318,Object_Sea_Solid_Small,0,0,11466141.0,11466203.0,62.0
110,choice,choice,19,3.0,Large,2.0,44.09479374997318,Animal_Land_Pattern_Large,1,1,11466402.0,11466821.0,419.0
110,choice,choice,19,3.0,Large,2.0,44.09479374997318,Object_Sea_Solid_Small,0,0,11467203.0,11467310.0,107.0
110,choice,choice,19,3.0,Large,2.0,44.09479374997318,Animal_Land_Pattern_Large,1,1,11468467.0,11468928.0,461.0
110,choice,choice,19,3.0,Large,2.0,44.09479374997318,Animal_Land_Solid_Small,5,0,11469494.0,11469763.0,269.0
110,choice,choice,19,3.0,Large,2.0,44.09479374997318,Animal_Sea_Pattern_Large,4,1,11469983.0,11470037.0,54.0
110,choice,choice,19,3.0,Large,2.0,44.09479374997318,Object_Land_Solid_Small,2,0,11470268.0,11470379.0,111.0
110,choice,choice,19,3.0,Large,2.0,44.09479374997318,Object_Sea_Solid_Small,0,0,11471791.0,11471928.0,137.0
110,choice,choice,19,3.0,Large,2.0,44.09479374997318,Animal_Land_Pattern_Large,1,1,11472168.0,11472520.0,352.0
110,choice,choice,19,3.0,Large,2.0,44.09479374997318,Object_Sea_Pattern_Large,3,1,11472984.0,11473322.0,338.0
110,choice,choice,19,3.0,Large,2.0,44.09479374997318,Animal_Land_Pattern_Large,1,1,11473782.0,11474089.0,307.0
110,choice,choice,19,3.0,Large,2.0,44.09479374997318,Object_Sea_Pattern_Large,3,1,11474954.0,11475140.0,186.0
110,choice,choice,19,3.0,Large,2.0,44.09479374997318,Animal_Land_Solid_Small,5,0,11475604.0,11475738.0,134.0
110,choice,choice,19,3.0,Large,2.0,44.09479374997318,Animal_Land_Pattern_Large,1,1,11475958.0,11476173.0,215.0
110,choice,choice,19,3.0,Large,2.0,44.09479374997318,Object_Land_Solid_Small,2,0,11476403.0,11476441.0,38.0
110,choice,choice,19,3.0,Large,2.0,44.09479374997318,Animal_Land_Pattern_Large,1,1,11476656.0,11476842.0,186.0
110,choice,choice,19,3.0,Large,2.0,44.09479374997318,Object_Sea_Solid_Small,0,0,11477070.0,11477316.0,246.0
110,choice,choice,19,3.0,Large,2.0,44.09479374997318,Object_Land_Solid_Small,2,0,11477613.0,11477649.0,36.0
110,choice,choice,19,3.0,Large,2.0,44.09479374997318,Object_Sea_Pattern_Large,3,1,11477860.0,11478156.0,296.0
110,choice,choice,19,3.0,Large,2.0,44.09479374997318,Animal_Land_Pattern_Large,1,1,11478176.0,11478373.0,197.0
110,choice,choice,19,3.0,Large,2.0,44.09479374997318,Object_Sea_Solid_Small,0,0,11479467.0,11479819.0,352.0
110,choice,choice,19,3.0,Large,2.0,44.09479374997318,Animal_Land_Pattern_Large,1,1,11480581.0,11480828.0,247.0
110,choice,choice,19,3.0,Large,2.0,44.09479374997318,Object_Sea_Pattern_Large,3,1,11480850.0,11480950.0,100.0
110,choice,choice,19,3.0,Large,2.0,44.09479374997318,Object_Sea_Solid_Small,0,0,11481396.0,11482423.0,1027.0
110,choice,choice,19,3.0,Large,2.0,44.09479374997318,Animal_Sea_Pattern_Large,4,1,11484726.0,11484849.0,123.0
110,choice,choice,19,3.0,Large,2.0,44.09479374997318,Object_Land_Solid_Small,2,0,11485077.0,11485339.0,262.0
110,choice,choice,19,3.0,Large,2.0,44.09479374997318,Object_Sea_Solid_Small,0,0,11486544.0,11486702.0,158.0
110,choice,choice,19,3.0,Large,2.0,44.09479374997318,Object_Land_Solid_Small,2,0,11487085.0,11487127.0,42.0
110,choice,choice,19,3.0,Large,2.0,44.09479374997318,Object_Sea_Solid_Small,0,0,11487350.0,11487453.0,103.0
110,choice,choice,19,3.0,Large,2.0,44.09479374997318,Animal_Land_Pattern_Large,1,1,11487701.0,11487985.0,284.0
110,choice,choice,19,3.0,Large,2.0,44.09479374997318,Object_Land_Solid_Small,2,0,11488208.0,11488241.0,33.0
110,choice,choice,19,3.0,Large,2.0,44.09479374997318,Object_Sea_Solid_Small,0,0,11488454.0,11488646.0,192.0
110,choice,choice,19,3.0,Large,2.0,44.09479374997318,Object_Land_Solid_Small,2,0,11488957.0,11489011.0,54.0
110,choice,choice,19,3.0,Large,2.0,44.09479374997318,Object_Sea_Solid_Small,0,0,11489229.0,11489477.0,248.0
110,choice,choice,19,3.0,Large,2.0,44.09479374997318,Animal_Land_Pattern_Large,1,1,11489918.0,11490235.0,317.0
110,choice,choice,19,3.0,Large,2.0,44.09479374997318,Object_Sea_Solid_Small,0,0,11490490.0,11490610.0,120.0
110,choice,choice,19,3.0,Large,2.0,44.09479374997318,Animal_Land_Pattern_Large,1,1,11491327.0,11491765.0,438.0
110,choice,choice,19,3.0,Large,2.0,44.09479374997318,Object_Sea_Pattern_Large,3,1,11492455.0,11492625.0,170.0
110,choice,choice,19,3.0,Large,2.0,44.09479374997318,Object_Land_Solid_Small,2,0,11493145.0,11493337.0,192.0
110,choice,choice,19,3.0,Large,2.0,44.09479374997318,Object_Sea_Solid_Small,0,0,11493569.0,11493780.0,211.0
110,choice,choice,19,3.0,Large,2.0,44.09479374997318,Animal_Land_Pattern_Large,1,1,11494203.0,11494444.0,241.0
110,choice,choice,19,3.0,Large,2.0,44.09479374997318,Object_Sea_Pattern_Large,3,1,11494702.0,11495032.0,330.0
110,choice,choice,19,3.0,Large,2.0,44.09479374997318,Animal_Land_Pattern_Large,1,1,11495276.0,11495452.0,176.0
110,choice,choice,19,3.0,Large,2.0,44.09479374997318,Object_Land_Solid_Small,2,0,11495520.0,11495543.0,23.0
110,choice,choice,19,3.0,Large,2.0,44.09479374997318,Object_Sea_Solid_Small,0,0,11495756.0,11495780.0,24.0
110,choice,choice,20,3.0,Animal,1.0,1.911240249988623,Object_Sea_Pattern_Large,3,0,11500176.0,11500441.0,265.0
110,choice,choice,20,3.0,Animal,1.0,1.911240249988623,Object_Sea_Solid_Small,0,0,11500646.0,11500863.0,217.0
110,choice,choice,20,3.0,Animal,1.0,1.911240249988623,Animal_Land_Pattern_Large,1,1,11501099.0,11501247.0,148.0
110,choice,choice,21,3.0,Land,1.0,10.21736474998761,Object_Sea_Pattern_Large,3,0,11504908.0,11505458.0,550.0
110,choice,choice,21,3.0,Land,1.0,10.21736474998761,Animal_Land_Pattern_Large,1,1,11506058.0,11506465.0,407.0
110,choice,choice,21,3.0,Land,1.0,10.21736474998761,Object_Sea_Solid_Small,0,0,11506479.0,11506763.0,284.0
110,choice,choice,21,3.0,Land,1.0,10.21736474998761,Animal_Land_Pattern_Large,1,1,11507176.0,11507996.0,820.0
110,choice,choice,21,3.0,Land,1.0,10.21736474998761,Object_Land_Solid_Small,2,1,11509685.0,11509787.0,102.0
110,choice,choice,21,3.0,Land,1.0,10.21736474998761,Animal_Land_Pattern_Large,1,1,11510273.0,11510369.0,96.0
110,choice,choice,21,3.0,Land,1.0,10.21736474998761,Object_Sea_Solid_Small,0,0,11510832.0,11510915.0,83.0
110,choice,choice,21,3.0,Land,1.0,10.21736474998761,Animal_Land_Pattern_Large,1,1,11512269.0,11512410.0,141.0
110,choice,choice,21,3.0,Land,1.0,10.21736474998761,Object_Sea_Pattern_Large,3,0,11512884.0,11513126.0,242.0
110,choice,choice,21,3.0,Land,1.0,10.21736474998761,Animal_Land_Pattern_Large,1,1,11513363.0,11513495.0,132.0
110,choice,choice,21,3.0,Land,1.0,10.21736474998761,Object_Sea_Pattern_Large,3,0,11513535.0,11513643.0,108.0
110,choice,choice,21,3.0,Land,1.0,10.21736474998761,Object_Land_Solid_Small,2,1,11513869.0,11513898.0,29.0
110,choice,choice,21,3.0,Land,1.0,10.21736474998761,Object_Sea_Solid_Small,0,0,11514353.0,11514511.0,158.0
110,choice,choice,21,3.0,Land,1.0,10.21736474998761,Object_Land_Solid_Small,2,1,11514524.0,11514872.0,348.0
110,choice,choice,21,3.0,Land,1.0,10.21736474998761,Object_Sea_Solid_Small,0,0,11514896.0,11515015.0,119.0
110,choice,choice,22,3.0,Small,2.0,10.532125167082995,Object_Sea_Pattern_Large,3,0,11518853.0,11519010.0,157.0
110,choice,choice,22,3.0,Small,2.0,10.532125167082995,Animal_Land_Pattern_Large,1,0,11519226.0,11519515.0,289.0
110,choice,choice,22,3.0,Small,2.0,10.532125167082995,Object_Land_Solid_Small,2,1,11519972.0,11520315.0,343.0
110,choice,choice,22,3.0,Small,2.0,10.532125167082995,Animal_Land_Pattern_Large,1,0,11520833.0,11521089.0,256.0
110,choice,choice,22,3.0,Small,2.0,10.532125167082995,Object_Sea_Solid_Small,0,1,11521635.0,11521663.0,28.0
110,choice,choice,22,3.0,Small,2.0,10.532125167082995,Animal_Land_Pattern_Large,1,0,11521871.0,11522119.0,248.0
110,choice,choice,22,3.0,Small,2.0,10.532125167082995,Object_Land_Solid_Small,2,1,11522359.0,11522391.0,32.0
110,choice,choice,22,3.0,Small,2.0,10.532125167082995,Object_Sea_Solid_Small,0,1,11522607.0,11523094.0,487.0
110,choice,choice,22,3.0,Small,2.0,10.532125167082995,Animal_Land_Pattern_Large,1,0,11523982.0,11524268.0,286.0
110,choice,choice,22,3.0,Small,2.0,10.532125167082995,Animal_Land_Solid_Small,5,1,11525038.0,11525185.0,147.0
110,choice,choice,22,3.0,Small,2.0,10.532125167082995,Object_Land_Solid_Small,2,1,11525385.0,11525436.0,51.0
110,choice,choice,22,3.0,Small,2.0,10.532125167082995,Object_Sea_Pattern_Large,3,0,11526246.0,11526397.0,151.0
110,choice,choice,22,3.0,Small,2.0,10.532125167082995,Animal_Land_Pattern_Large,1,0,11526428.0,11526483.0,55.0
110,choice,choice,22,3.0,Small,2.0,10.532125167082995,Object_Land_Solid_Small,2,1,11526698.0,11526788.0,90.0
110,choice,choice,22,3.0,Small,2.0,10.532125167082995,Object_Sea_Solid_Small,0,1,11527007.0,11527054.0,47.0
110,choice,choice,22,3.0,Small,2.0,10.532125167082995,Animal_Land_Pattern_Large,1,0,11527273.0,11527660.0,387.0
110,choice,choice,22,3.0,Small,2.0,10.532125167082995,Object_Sea_Solid_Small,0,1,11527878.0,11527957.0,79.0
110,choice,choice,22,3.0,Small,2.0,10.532125167082995,Animal_Land_Solid_Small,5,1,11527993.0,11528129.0,136.0
110,choice,choice,22,3.0,Small,2.0,10.532125167082995,Object_Sea_Solid_Small,0,1,11528653.0,11528864.0,211.0
110,choice,choice,22,3.0,Small,2.0,10.532125167082995,Animal_Land_Solid_Small,5,1,11528891.0,11529102.0,211.0
110,choice,choice,23,3.0,Pattern,1.0,23.828971832990646,Object_Sea_Pattern_Large,3,1,11533448.0,11533630.0,182.0
110,choice,choice,23,3.0,Pattern,1.0,23.828971832990646,Animal_Land_Pattern_Large,1,1,11534097.0,11534271.0,174.0
110,choice,choice,23,3.0,Pattern,1.0,23.828971832990646,Object_Land_Solid_Small,2,0,11534511.0,11534579.0,68.0
110,choice,choice,23,3.0,Pattern,1.0,23.828971832990646,Object_Sea_Solid_Small,0,0,11534784.0,11534841.0,57.0
110,choice,choice,23,3.0,Pattern,1.0,23.828971832990646,Animal_Land_Pattern_Large,1,1,11535050.0,11535167.0,117.0
110,choice,choice,23,3.0,Pattern,1.0,23.828971832990646,Object_Sea_Solid_Small,0,0,11535960.0,11536027.0,67.0
110,choice,choice,23,3.0,Pattern,1.0,23.828971832990646,Animal_Land_Pattern_Large,1,1,11536246.0,11536514.0,268.0
110,choice,choice,23,3.0,Pattern,1.0,23.828971832990646,Object_Sea_Solid_Small,0,0,11536789.0,11536831.0,42.0
110,choice,choice,23,3.0,Pattern,1.0,23.828971832990646,Animal_Land_Pattern_Large,1,1,11537282.0,11537582.0,300.0
110,choice,choice,23,3.0,Pattern,1.0,23.828971832990646,Animal_Land_Solid_Small,5,0,11538236.0,11538426.0,190.0
110,choice,choice,23,3.0,Pattern,1.0,23.828971832990646,Object_Land_Solid_Small,2,0,11538660.0,11538709.0,49.0
110,choice,choice,23,3.0,Pattern,1.0,23.828971832990646,Object_Sea_Solid_Small,0,0,11538916.0,11538995.0,79.0
110,choice,choice,23,3.0,Pattern,1.0,23.828971832990646,Object_Land_Solid_Small,2,0,11539214.0,11539352.0,138.0
110,choice,choice,23,3.0,Pattern,1.0,23.828971832990646,Animal_Sea_Pattern_Large,4,1,11540239.0,11540310.0,71.0
110,choice,choice,23,3.0,Pattern,1.0,23.828971832990646,Animal_Land_Solid_Small,5,0,11540525.0,11540703.0,178.0
110,choice,choice,23,3.0,Pattern,1.0,23.828971832990646,Object_Sea_Pattern_Large,3,1,11540943.0,11541170.0,227.0
110,choice,choice,23,3.0,Pattern,1.0,23.828971832990646,Animal_Land_Solid_Small,5,0,11541380.0,11541471.0,91.0
110,choice,choice,23,3.0,Pattern,1.0,23.828971832990646,Animal_Land_Pattern_Large,1,1,11541759.0,11541843.0,84.0
110,choice,choice,23,3.0,Pattern,1.0,23.828971832990646,Object_Sea_Pattern_Large,3,1,11542052.0,11542504.0,452.0
110,choice,choice,23,3.0,Pattern,1.0,23.828971832990646,Animal_Land_Pattern_Large,1,1,11543897.0,11544127.0,230.0
110,choice,choice,23,3.0,Pattern,1.0,23.828971832990646,Object_Sea_Pattern_Large,3,1,11544891.0,11545016.0,125.0
110,choice,choice,23,3.0,Pattern,1.0,23.828971832990646,Object_Land_Solid_Small,2,0,11545735.0,11545783.0,48.0
110,choice,choice,23,3.0,Pattern,1.0,23.828971832990646,Object_Sea_Solid_Small,0,0,11546259.0,11546341.0,82.0
110,choice,choice,23,3.0,Pattern,1.0,23.828971832990646,Object_Land_Solid_Small,2,0,11546569.0,11546616.0,47.0
110,choice,choice,23,3.0,Pattern,1.0,23.828971832990646,Object_Sea_Solid_Small,0,0,11546827.0,11546864.0,37.0
110,choice,choice,23,3.0,Pattern,1.0,23.828971832990646,Object_Land_Solid_Small,2,0,11547166.0,11547245.0,79.0
110,choice,choice,23,3.0,Pattern,1.0,23.828971832990646,Animal_Land_Solid_Small,5,0,11547449.0,11547771.0,322.0
110,choice,choice,23,3.0,Pattern,1.0,23.828971832990646,Object_Land_Solid_Small,2,0,11548036.0,11548076.0,40.0
110,choice,choice,23,3.0,Pattern,1.0,23.828971832990646,Animal_Land_Pattern_Large,1,1,11548497.0,11548678.0,181.0
110,choice,choice,23,3.0,Pattern,1.0,23.828971832990646,Object_Land_Solid_Small,2,0,11548896.0,11548916.0,20.0
110,choice,choice,23,3.0,Pattern,1.0,23.828971832990646,Animal_Sea_Pattern_Large,4,1,11549122.0,11549346.0,224.0
110,choice,choice,23,3.0,Pattern,1.0,23.828971832990646,Object_Land_Solid_Small,2,0,11549648.0,11549693.0,45.0
110,choice,choice,23,3.0,Pattern,1.0,23.828971832990646,Animal_Sea_Pattern_Large,4,1,11549899.0,11549975.0,76.0
110,choice,choice,23,3.0,Pattern,1.0,23.828971832990646,Object_Land_Solid_Small,2,0,11550522.0,11550547.0,25.0
110,choice,choice,23,3.0,Pattern,1.0,23.828971832990646,Object_Sea_Pattern_Large,3,1,11551368.0,11552030.0,662.0
110,choice,choice,23,3.0,Pattern,1.0,23.828971832990646,Animal_Land_Pattern_Large,1,1,11553135.0,11553325.0,190.0
110,choice,choice,23,3.0,Pattern,1.0,23.828971832990646,Object_Sea_Pattern_Large,3,1,11553367.0,11553741.0,374.0
110,choice,choice,23,3.0,Pattern,1.0,23.828971832990646,Animal_Land_Pattern_Large,1,1,11554211.0,11554369.0,158.0
110,choice,choice,23,3.0,Pattern,1.0,23.828971832990646,Object_Sea_Pattern_Large,3,1,11554611.0,11554892.0,281.0
110,choice,choice,23,3.0,Pattern,1.0,23.828971832990646,Animal_Land_Pattern_Large,1,1,11555384.0,11555604.0,220.0
110,choice,choice,23,3.0,Pattern,1.0,23.828971832990646,Object_Sea_Pattern_Large,3,1,11555820.0,11556003.0,183.0
110,choice,choice,23,3.0,Pattern,1.0,23.828971832990646,Animal_Land_Pattern_Large,1,1,11556223.0,11556402.0,179.0
110,choice,choice,24,3.0,Object,2.0,3.2699362080311403,Object_Sea_Pattern_Large,3,1,11560323.0,11560485.0,162.0
110,choice,choice,24,3.0,Object,2.0,3.2699362080311403,Animal_Land_Pattern_Large,1,0,11560505.0,11560637.0,132.0
110,choice,choice,24,3.0,Object,2.0,3.2699362080311403,Object_Sea_Solid_Small,0,1,11560818.0,11560859.0,41.0
110,choice,choice,24,3.0,Object,2.0,3.2699362080311403,Animal_Land_Pattern_Large,1,0,11561062.0,11561535.0,473.0
110,choice,choice,24,3.0,Object,2.0,3.2699362080311403,Object_Land_Solid_Small,2,1,11562002.0,11562215.0,213.0
110,choice,choice,24,3.0,Object,2.0,3.2699362080311403,Object_Sea_Solid_Small,0,1,11562235.0,11562935.0,700.0
110,choice,choice,25,4.0,Large,1.0,33.47600424999837,Object_Land_Pattern_Large,0,1,11842682.0,11842759.0,77.0
110,choice,choice,25,4.0,Large,1.0,33.47600424999837,Animal_Sea_Solid_Large,1,1,11842986.0,11843254.0,268.0
110,choice,choice,25,4.0,Large,1.0,33.47600424999837,Object_Sea_Solid_Small,2,0,11844173.0,11844360.0,187.0
110,choice,choice,25,4.0,Large,1.0,33.47600424999837,Object_Land_Pattern_Small,3,0,11845223.0,11845509.0,286.0
110,choice,choice,25,4.0,Large,1.0,33.47600424999837,Animal_Sea_Solid_Small,4,0,11846669.0,11846805.0,136.0
110,choice,choice,25,4.0,Large,1.0,33.47600424999837,Object_Land_Pattern_Small,3,0,11847268.0,11847661.0,393.0
110,choice,choice,25,4.0,Large,1.0,33.47600424999837,Animal_Sea_Solid_Small,4,0,11848117.0,11848388.0,271.0
110,choice,choice,25,4.0,Large,1.0,33.47600424999837,Animal_Land_Pattern_Large,5,1,11848642.0,11848819.0,177.0
110,choice,choice,25,4.0,Large,1.0,33.47600424999837,Object_Land_Pattern_Small,3,0,11849650.0,11849777.0,127.0
110,choice,choice,25,4.0,Large,1.0,33.47600424999837,Animal_Land_Pattern_Large,5,1,11850257.0,11850729.0,472.0
110,choice,choice,25,4.0,Large,1.0,33.47600424999837,Object_Sea_Solid_Small,2,0,11851219.0,11851463.0,244.0
110,choice,choice,25,4.0,Large,1.0,33.47600424999837,Animal_Sea_Solid_Large,1,1,11852387.0,11852618.0,231.0
110,choice,choice,25,4.0,Large,1.0,33.47600424999837,Object_Sea_Solid_Small,2,0,11853061.0,11853169.0,108.0
110,choice,choice,25,4.0,Large,1.0,33.47600424999837,Animal_Sea_Solid_Large,1,1,11853615.0,11853660.0,45.0
110,choice,choice,25,4.0,Large,1.0,33.47600424999837,Object_Sea_Solid_Small,2,0,11853911.0,11854154.0,243.0
110,choice,choice,25,4.0,Large,1.0,33.47600424999837,Animal_Sea_Solid_Large,1,1,11854645.0,11854667.0,22.0
110,choice,choice,25,4.0,Large,1.0,33.47600424999837,Object_Sea_Solid_Small,2,0,11854893.0,11855066.0,173.0
110,choice,choice,25,4.0,Large,1.0,33.47600424999837,Animal_Land_Pattern_Large,5,1,11855959.0,11856677.0,718.0
110,choice,choice,25,4.0,Large,1.0,33.47600424999837,Object_Land_Pattern_Small,3,0,11857812.0,11858141.0,329.0
110,choice,choice,25,4.0,Large,1.0,33.47600424999837,Animal_Sea_Solid_Small,4,0,11858357.0,11858538.0,181.0
110,choice,choice,25,4.0,Large,1.0,33.47600424999837,Object_Land_Pattern_Small,3,0,11858738.0,11858915.0,177.0
110,choice,choice,25,4.0,Large,1.0,33.47600424999837,Animal_Sea_Solid_Small,4,0,11859684.0,11859812.0,128.0
110,choice,choice,25,4.0,Large,1.0,33.47600424999837,Animal_Land_Pattern_Large,5,1,11860032.0,11860217.0,185.0
110,choice,choice,25,4.0,Large,1.0,33.47600424999837,Object_Sea_Solid_Small,2,0,11860432.0,11860565.0,133.0
110,choice,choice,25,4.0,Large,1.0,33.47600424999837,Object_Land_Pattern_Small,3,0,11860975.0,11861181.0,206.0
110,choice,choice,25,4.0,Large,1.0,33.47600424999837,Object_Land_Pattern_Large,0,1,11861407.0,11861764.0,357.0
110,choice,choice,25,4.0,Large,1.0,33.47600424999837,Animal_Sea_Solid_Large,1,1,11862474.0,11862543.0,69.0
110,choice,choice,25,4.0,Large,1.0,33.47600424999837,Object_Land_Pattern_Small,3,0,11862921.0,11863160.0,239.0
110,choice,choice,25,4.0,Large,1.0,33.47600424999837,Animal_Sea_Solid_Large,1,1,11863737.0,11863848.0,111.0
110,choice,choice,25,4.0,Large,1.0,33.47600424999837,Object_Sea_Solid_Small,2,0,11864174.0,11864264.0,90.0
110,choice,choice,25,4.0,Large,1.0,33.47600424999837,Animal_Sea_Solid_Small,4,0,11864505.0,11864780.0,275.0
110,choice,choice,25,4.0,Large,1.0,33.47600424999837,Animal_Sea_Solid_Large,1,1,11865068.0,11865173.0,105.0
110,choice,choice,25,4.0,Large,1.0,33.47600424999837,Object_Sea_Solid_Small,2,0,11866064.0,11866678.0,614.0
110,choice,choice,25,4.0,Large,1.0,33.47600424999837,Animal_Land_Pattern_Large,5,1,11867457.0,11867706.0,249.0
110,choice,choice,25,4.0,Large,1.0,33.47600424999837,Object_Sea_Solid_Small,2,0,11868035.0,11868116.0,81.0
110,choice,choice,25,4.0,Large,1.0,33.47600424999837,Object_Land_Pattern_Small,3,0,11868144.0,11868391.0,247.0
110,choice,choice,25,4.0,Large,1.0,33.47600424999837,Object_Sea_Solid_Small,2,0,11868410.0,11868623.0,213.0
110,choice,choice,25,4.0,Large,1.0,33.47600424999837,Animal_Sea_Solid_Large,1,1,11869311.0,11869444.0,133.0
110,choice,choice,25,4.0,Large,1.0,33.47600424999837,Object_Land_Pattern_Small,3,0,11870188.0,11870378.0,190.0
110,choice,choice,25,4.0,Large,1.0,33.47600424999837,Animal_Land_Pattern_Large,5,1,11870888.0,11871356.0,468.0
110,choice,choice,25,4.0,Large,1.0,33.47600424999837,Object_Sea_Solid_Small,2,0,11871583.0,11871728.0,145.0
110,choice,choice,25,4.0,Large,1.0,33.47600424999837,Animal_Land_Pattern_Large,5,1,11872346.0,11872546.0,200.0
110,choice,choice,25,4.0,Large,1.0,33.47600424999837,Object_Sea_Solid_Small,2,0,11873264.0,11873454.0,190.0
110,choice,choice,25,4.0,Large,1.0,33.47600424999837,Animal_Land_Pattern_Large,5,1,11874590.0,11875330.0,740.0
110,choice,choice,25,4.0,Large,1.0,33.47600424999837,Object_Sea_Solid_Small,2,0,11875696.0,11875717.0,21.0
110,choice,choice,28,4.0,Animal,2.0,7.982579417061061,Object_Land_Pattern_Small,3,0,11902022.0,11902161.0,139.0
110,choice,choice,28,4.0,Animal,2.0,7.982579417061061,Object_Land_Pattern_Large,0,0,11902383.0,11902483.0,100.0
110,choice,choice,28,4.0,Animal,2.0,7.982579417061061,Object_Land_Pattern_Small,3,0,11902936.0,11903154.0,218.0
110,choice,choice,28,4.0,Animal,2.0,7.982579417061061,Object_Sea_Solid_Small,2,0,11903400.0,11903428.0,28.0
110,choice,choice,28,4.0,Animal,2.0,7.982579417061061,Object_Land_Pattern_Small,3,0,11903616.0,11903886.0,270.0
110,choice,choice,28,4.0,Animal,2.0,7.982579417061061,Animal_Sea_Solid_Large,1,1,11904130.0,11904195.0,65.0
110,choice,choice,28,4.0,Animal,2.0,7.982579417061061,Object_Sea_Solid_Small,2,0,11904424.0,11904550.0,126.0
110,choice,choice,28,4.0,Animal,2.0,7.982579417061061,Animal_Land_Pattern_Large,5,1,11904771.0,11904988.0,217.0
110,choice,choice,28,4.0,Animal,2.0,7.982579417061061,Object_Sea_Solid_Small,2,0,11905212.0,11905252.0,40.0
110,choice,choice,28,4.0,Animal,2.0,7.982579417061061,Object_Land_Pattern_Large,0,0,11905704.0,11905927.0,223.0
110,choice,choice,28,4.0,Animal,2.0,7.982579417061061,Object_Land_Pattern_Small,3,0,11906701.0,11906903.0,202.0
110,choice,choice,28,4.0,Animal,2.0,7.982579417061061,Object_Sea_Solid_Small,2,0,11907088.0,11907146.0,58.0
110,choice,choice,28,4.0,Animal,2.0,7.982579417061061,Animal_Sea_Solid_Large,1,1,11907395.0,11907416.0,21.0
110,choice,choice,28,4.0,Animal,2.0,7.982579417061061,Object_Land_Pattern_Large,0,0,11908446.0,11908544.0,98.0
110,choice,choice,28,4.0,Animal,2.0,7.982579417061061,Object_Land_Pattern_Small,3,0,11908755.0,11909109.0,354.0
110,choice,choice,28,4.0,Animal,2.0,7.982579417061061,Animal_Land_Pattern_Large,5,1,11909319.0,11909408.0,89.0
110,choice,choice,28,4.0,Animal,2.0,7.982579417061061,Object_Sea_Solid_Small,2,0,11909622.0,11909791.0,169.0
110,choice,choice,31,4.0,Sea,2.0,5.784241124987602,Animal_Land_Pattern_Large,5,0,11939560.0,11939684.0,124.0
110,choice,choice,31,4.0,Sea,2.0,5.784241124987602,Object_Sea_Solid_Small,2,1,11940060.0,11940161.0,101.0
110,choice,choice,31,4.0,Sea,2.0,5.784241124987602,Animal_Land_Pattern_Large,5,0,11940679.0,11941127.0,448.0
110,choice,choice,31,4.0,Sea,2.0,5.784241124987602,Object_Sea_Solid_Small,2,1,11941407.0,11941475.0,68.0
110,choice,choice,31,4.0,Sea,2.0,5.784241124987602,Animal_Sea_Solid_Large,1,1,11941900.0,11942047.0,147.0
110,choice,choice,31,4.0,Sea,2.0,5.784241124987602,Animal_Land_Pattern_Large,5,0,11942069.0,11942174.0,105.0
110,choice,choice,31,4.0,Sea,2.0,5.784241124987602,Animal_Sea_Solid_Large,1,1,11942420.0,11942508.0,88.0
110,choice,choice,31,4.0,Sea,2.0,5.784241124987602,Object_Land_Pattern_Small,3,0,11943026.0,11943308.0,282.0
110,choice,choice,31,4.0,Sea,2.0,5.784241124987602,Animal_Land_Pattern_Large,5,0,11943775.0,11943920.0,145.0
110,choice,choice,31,4.0,Sea,2.0,5.784241124987602,Object_Sea_Solid_Small,2,1,11944180.0,11944773.0,593.0
110,choice,choice,31,4.0,Sea,2.0,5.784241124987602,Animal_Sea_Solid_Large,1,1,11944986.0,11945072.0,86.0
110,choice,choice,31,4.0,Sea,2.0,5.784241124987602,Object_Land_Pattern_Small,3,0,11945097.0,11945200.0,103.0
110,choice,choice,32,4.0,Solid,2.0,17.813648834009655,Object_Sea_Solid_Small,2,1,11948660.0,11948952.0,292.0
110,choice,choice,32,4.0,Solid,2.0,17.813648834009655,Object_Land_Pattern_Small,3,0,11949703.0,11950666.0,963.0
110,choice,choice,32,4.0,Solid,2.0,17.813648834009655,Animal_Land_Pattern_Large,5,0,11951923.0,11952854.0,931.0
110,choice,choice,32,4.0,Solid,2.0,17.813648834009655,Object_Sea_Solid_Small,2,1,11953391.0,11953472.0,81.0
110,choice,choice,32,4.0,Solid,2.0,17.813648834009655,Animal_Land_Pattern_Large,5,0,11953862.0,11955037.0,1175.0
110,choice,choice,32,4.0,Solid,2.0,17.813648834009655,Object_Land_Pattern_Large,0,0,11956563.0,11956738.0,175.0
110,choice,choice,32,4.0,Solid,2.0,17.813648834009655,Object_Land_Pattern_Small,3,0,11957486.0,11957671.0,185.0
110,choice,choice,32,4.0,Solid,2.0,17.813648834009655,Animal_Sea_Solid_Small,4,1,11957878.0,11958035.0,157.0
110,choice,choice,32,4.0,Solid,2.0,17.813648834009655,Animal_Sea_Solid_Large,1,1,11958524.0,11958583.0,59.0
110,choice,choice,32,4.0,Solid,2.0,17.813648834009655,Animal_Sea_Solid_Small,4,1,11958813.0,11959021.0,208.0
110,choice,choice,32,4.0,Solid,2.0,17.813648834009655,Object_Land_Pattern_Small,3,0,11959046.0,11959112.0,66.0
110,choice,choice,32,4.0,Solid,2.0,17.813648834009655,Animal_Sea_Solid_Large,1,1,11959300.0,11959333.0,33.0
110,choice,choice,32,4.0,Solid,2.0,17.813648834009655,Animal_Sea_Solid_Small,4,1,11959555.0,11959924.0,369.0
110,choice,choice,32,4.0,Solid,2.0,17.813648834009655,Animal_Sea_Solid_Large,1,1,11960119.0,11960191.0,72.0
110,choice,choice,32,4.0,Solid,2.0,17.813648834009655,Object_Sea_Solid_Small,2,1,11960428.0,11960927.0,499.0
110,choice,choice,32,4.0,Solid,2.0,17.813648834009655,Animal_Sea_Solid_Large,1,1,11962004.0,11962116.0,112.0
110,choice,choice,32,4.0,Solid,2.0,17.813648834009655,Object_Sea_Solid_Small,2,1,11962334.0,11962560.0,226.0
110,choice,choice,32,4.0,Solid,2.0,17.813648834009655,Animal_Sea_Solid_Large,1,1,11962740.0,11962915.0,175.0
110,choice,choice,32,4.0,Solid,2.0,17.813648834009655,Animal_Sea_Solid_Small,4,1,11964153.0,11964336.0,183.0
110,choice,choice,32,4.0,Solid,2.0,17.813648834009655,Animal_Sea_Solid_Large,1,1,11964546.0,11964749.0,203.0
110,choice,choice,32,4.0,Solid,2.0,17.813648834009655,Object_Land_Pattern_Large,0,0,11965392.0,11965601.0,209.0
110,choice,choice,32,4.0,Solid,2.0,17.813648834009655,Animal_Land_Pattern_Large,5,0,11965939.0,11966066.0,127.0
110,choice,choice,33,5.0,Small,2.0,23.9832946669776,Animal_Sea_Pattern_Small,0,1,12230821.0,12231010.0,189.0
110,choice,choice,33,5.0,Small,2.0,23.9832946669776,Object_Sea_Pattern_Small,1,1,12231245.0,12231682.0,437.0
110,choice,choice,33,5.0,Small,2.0,23.9832946669776,Animal_Land_Pattern_Small,2,1,12232256.0,12232496.0,240.0
110,choice,choice,33,5.0,Small,2.0,23.9832946669776,Animal_Sea_Pattern_Small,0,1,12232529.0,12233308.0,779.0
110,choice,choice,33,5.0,Small,2.0,23.9832946669776,Animal_Land_Pattern_Small,2,1,12234117.0,12234428.0,311.0
110,choice,choice,33,5.0,Small,2.0,23.9832946669776,Animal_Sea_Pattern_Small,0,1,12234762.0,12235864.0,1102.0
110,choice,choice,33,5.0,Small,2.0,23.9832946669776,Object_Land_Solid_Large,3,0,12237410.0,12237463.0,53.0
110,choice,choice,33,5.0,Small,2.0,23.9832946669776,Animal_Land_Pattern_Small,2,1,12237689.0,12237825.0,136.0
110,choice,choice,33,5.0,Small,2.0,23.9832946669776,Object_Land_Solid_Large,3,0,12238038.0,12238075.0,37.0
110,choice,choice,33,5.0,Small,2.0,23.9832946669776,Animal_Land_Solid_Large,4,0,12238622.0,12238644.0,22.0
110,choice,choice,33,5.0,Small,2.0,23.9832946669776,Object_Sea_Pattern_Small,1,1,12238866.0,12239045.0,179.0
110,choice,choice,33,5.0,Small,2.0,23.9832946669776,Animal_Land_Solid_Large,4,0,12239274.0,12239320.0,46.0
110,choice,choice,33,5.0,Small,2.0,23.9832946669776,Object_Sea_Pattern_Small,1,1,12239507.0,12239575.0,68.0
110,choice,choice,33,5.0,Small,2.0,23.9832946669776,Animal_Land_Solid_Large,4,0,12239794.0,12239825.0,31.0
110,choice,choice,33,5.0,Small,2.0,23.9832946669776,Animal_Sea_Pattern_Small,0,1,12240064.0,12240432.0,368.0
110,choice,choice,33,5.0,Small,2.0,23.9832946669776,Object_Sea_Pattern_Small,1,1,12240676.0,12240741.0,65.0
110,choice,choice,33,5.0,Small,2.0,23.9832946669776,Animal_Sea_Pattern_Small,0,1,12240933.0,12241039.0,106.0
110,choice,choice,33,5.0,Small,2.0,23.9832946669776,Object_Sea_Pattern_Small,1,1,12241265.0,12241346.0,81.0
110,choice,choice,33,5.0,Small,2.0,23.9832946669776,Animal_Sea_Pattern_Small,0,1,12241566.0,12241773.0,207.0
110,choice,choice,33,5.0,Small,2.0,23.9832946669776,Animal_Land_Solid_Large,4,0,12242038.0,12242091.0,53.0
110,choice,choice,33,5.0,Small,2.0,23.9832946669776,Animal_Sea_Pattern_Small,0,1,12242547.0,12243141.0,594.0
110,choice,choice,33,5.0,Small,2.0,23.9832946669776,Object_Sea_Pattern_Small,1,1,12244357.0,12244428.0,71.0
110,choice,choice,33,5.0,Small,2.0,23.9832946669776,Animal_Sea_Pattern_Small,0,1,12245048.0,12245463.0,415.0
110,choice,choice,33,5.0,Small,2.0,23.9832946669776,Object_Land_Solid_Large,3,0,12246358.0,12246410.0,52.0
110,choice,choice,33,5.0,Small,2.0,23.9832946669776,Animal_Sea_Pattern_Small,0,1,12246622.0,12246934.0,312.0
110,choice,choice,33,5.0,Small,2.0,23.9832946669776,Object_Sea_Pattern_Small,1,1,12247179.0,12247231.0,52.0
110,choice,choice,33,5.0,Small,2.0,23.9832946669776,Animal_Land_Pattern_Small,2,1,12247913.0,12248170.0,257.0
110,choice,choice,33,5.0,Small,2.0,23.9832946669776,Animal_Sea_Pattern_Small,0,1,12248373.0,12248537.0,164.0
110,choice,choice,33,5.0,Small,2.0,23.9832946669776,Object_Sea_Pattern_Small,1,1,12249012.0,12249033.0,21.0
110,choice,choice,33,5.0,Small,2.0,23.9832946669776,Animal_Sea_Pattern_Small,0,1,12249252.0,12250075.0,823.0
110,choice,choice,33,5.0,Small,2.0,23.9832946669776,Object_Sea_Pattern_Small,1,1,12250760.0,12250883.0,123.0
110,choice,choice,33,5.0,Small,2.0,23.9832946669776,Animal_Sea_Pattern_Small,0,1,12251098.0,12251339.0,241.0
110,choice,choice,33,5.0,Small,2.0,23.9832946669776,Object_Sea_Solid_Large,5,0,12252724.0,12252951.0,227.0
110,choice,choice,33,5.0,Small,2.0,23.9832946669776,Object_Land_Solid_Large,3,0,12253142.0,12253217.0,75.0
110,choice,choice,33,5.0,Small,2.0,23.9832946669776,Object_Sea_Pattern_Small,1,1,12253914.0,12254119.0,205.0
110,choice,choice,33,5.0,Small,2.0,23.9832946669776,Animal_Land_Solid_Large,4,0,12254352.0,12254532.0,180.0
110,choice,choice,33,5.0,Small,2.0,23.9832946669776,Object_Sea_Pattern_Small,1,1,12254554.0,12254652.0,98.0
110,choice,choice,34,5.0,Solid,1.0,15.55716870899778,Animal_Land_Pattern_Small,2,0,12258030.0,12258264.0,234.0
110,choice,choice,34,5.0,Solid,1.0,15.55716870899778,Animal_Land_Solid_Large,4,1,12258499.0,12258555.0,56.0
110,choice,choice,34,5.0,Solid,1.0,15.55716870899778,Object_Sea_Pattern_Small,1,0,12258742.0,12258968.0,226.0
110,choice,choice,34,5.0,Solid,1.0,15.55716870899778,Animal_Land_Solid_Large,4,1,12259176.0,12259208.0,32.0
110,choice,choice,34,5.0,Solid,1.0,15.55716870899778,Object_Sea_Pattern_Small,1,0,12259468.0,12259552.0,84.0
110,choice,choice,34,5.0,Solid,1.0,15.55716870899778,Animal_Sea_Pattern_Small,0,0,12259983.0,12260577.0,594.0
110,choice,choice,34,5.0,Solid,1.0,15.55716870899778,Object_Sea_Pattern_Small,1,0,12261420.0,12261485.0,65.0
110,choice,choice,34,5.0,Solid,1.0,15.55716870899778,Animal_Sea_Pattern_Small,0,0,12261982.0,12262182.0,200.0
110,choice,choice,34,5.0,Solid,1.0,15.55716870899778,Object_Sea_Pattern_Small,1,0,12262381.0,12262525.0,144.0
110,choice,choice,34,5.0,Solid,1.0,15.55716870899778,Object_Land_Solid_Large,3,1,12263370.0,12263540.0,170.0
110,choice,choice,34,5.0,Solid,1.0,15.55716870899778,Animal_Sea_Pattern_Small,0,0,12263996.0,12264436.0,440.0
110,choice,choice,34,5.0,Solid,1.0,15.55716870899778,Object_Sea_Pattern_Small,1,0,12264912.0,12265225.0,313.0
110,choice,choice,34,5.0,Solid,1.0,15.55716870899778,Animal_Land_Solid_Large,4,1,12265836.0,12265858.0,22.0
110,choice,choice,34,5.0,Solid,1.0,15.55716870899778,Object_Land_Solid_Large,3,1,12266079.0,12266213.0,134.0
110,choice,choice,34,5.0,Solid,1.0,15.55716870899778,Animal_Land_Solid_Large,4,1,12266680.0,12266913.0,233.0
110,choice,choice,34,5.0,Solid,1.0,15.55716870899778,Object_Sea_Pattern_Small,1,0,12266939.0,12267030.0,91.0
110,choice,choice,34,5.0,Solid,1.0,15.55716870899778,Animal_Land_Pattern_Small,2,0,12268137.0,12268321.0,184.0
110,choice,choice,34,5.0,Solid,1.0,15.55716870899778,Animal_Sea_Pattern_Small,0,0,12268369.0,12268478.0,109.0
110,choice,choice,34,5.0,Solid,1.0,15.55716870899778,Animal_Land_Pattern_Small,2,0,12269138.0,12269261.0,123.0
110,choice,choice,34,5.0,Solid,1.0,15.55716870899778,Animal_Sea_Pattern_Small,0,0,12269300.0,12269361.0,61.0
110,choice,choice,34,5.0,Solid,1.0,15.55716870899778,Object_Sea_Pattern_Small,1,0,12269552.0,12269579.0,27.0
110,choice,choice,34,5.0,Solid,1.0,15.55716870899778,Animal_Sea_Pattern_Small,0,0,12269796.0,12270016.0,220.0
110,choice,choice,34,5.0,Solid,1.0,15.55716870899778,Object_Sea_Pattern_Small,1,0,12271034.0,12271495.0,461.0
110,choice,choice,34,5.0,Solid,1.0,15.55716870899778,Animal_Land_Solid_Large,4,1,12272117.0,12272151.0,34.0
110,choice,choice,34,5.0,Solid,1.0,15.55716870899778,Animal_Land_Pattern_Small,2,0,12272348.0,12272583.0,235.0
110,choice,choice,34,5.0,Solid,1.0,15.55716870899778,Animal_Sea_Pattern_Small,0,0,12272622.0,12273325.0,703.0
110,choice,choice,35,5.0,Land,1.0,25.236593500012532,Animal_Land_Solid_Large,4,1,12276251.0,12276275.0,24.0
110,choice,choice,35,5.0,Land,1.0,25.236593500012532,Object_Sea_Solid_Large,5,0,12276487.0,12276617.0,130.0
110,choice,choice,35,5.0,Land,1.0,25.236593500012532,Animal_Land_Solid_Large,4,1,12276838.0,12277108.0,270.0
110,choice,choice,35,5.0,Land,1.0,25.236593500012532,Animal_Sea_Pattern_Small,0,0,12277808.0,12278258.0,450.0
110,choice,choice,35,5.0,Land,1.0,25.236593500012532,Object_Sea_Solid_Large,5,0,12279755.0,12280060.0,305.0
110,choice,choice,35,5.0,Land,1.0,25.236593500012532,Object_Land_Solid_Large,3,1,12281150.0,12281179.0,29.0
110,choice,choice,35,5.0,Land,1.0,25.236593500012532,Animal_Land_Pattern_Small,2,1,12281385.0,12281717.0,332.0
110,choice,choice,35,5.0,Land,1.0,25.236593500012532,Animal_Land_Solid_Large,4,1,12281942.0,12281997.0,55.0
110,choice,choice,35,5.0,Land,1.0,25.236593500012532,Animal_Sea_Pattern_Small,0,0,12282904.0,12283068.0,164.0
110,choice,choice,35,5.0,Land,1.0,25.236593500012532,Object_Sea_Solid_Large,5,0,12283090.0,12283325.0,235.0
110,choice,choice,35,5.0,Land,1.0,25.236593500012532,Animal_Land_Solid_Large,4,1,12283550.0,12283641.0,91.0
110,choice,choice,35,5.0,Land,1.0,25.236593500012532,Animal_Land_Pattern_Small,2,1,12283836.0,12284018.0,182.0
110,choice,choice,35,5.0,Land,1.0,25.236593500012532,Object_Sea_Solid_Large,5,0,12284760.0,12284954.0,194.0
110,choice,choice,35,5.0,Land,1.0,25.236593500012532,Animal_Land_Solid_Large,4,1,12285151.0,12285680.0,529.0
110,choice,choice,35,5.0,Land,1.0,25.236593500012532,Object_Sea_Pattern_Small,1,0,12286858.0,12287084.0,226.0
110,choice,choice,35,5.0,Land,1.0,25.236593500012532,Animal_Land_Solid_Large,4,1,12287316.0,12287362.0,46.0
110,choice,choice,35,5.0,Land,1.0,25.236593500012532,Object_Sea_Pattern_Small,1,0,12287554.0,12287749.0,195.0
110,choice,choice,35,5.0,Land,1.0,25.236593500012532,Animal_Land_Solid_Large,4,1,12287764.0,12288127.0,363.0
110,choice,choice,35,5.0,Land,1.0,25.236593500012532,Object_Sea_Pattern_Small,1,0,12288925.0,12289440.0,515.0
110,choice,choice,35,5.0,Land,1.0,25.236593500012532,Animal_Land_Solid_Large,4,1,12289858.0,12290158.0,300.0
110,choice,choice,35,5.0,Land,1.0,25.236593500012532,Object_Sea_Pattern_Small,1,0,12290631.0,12290803.0,172.0
110,choice,choice,35,5.0,Land,1.0,25.236593500012532,Animal_Land_Solid_Large,4,1,12290989.0,12291056.0,67.0
110,choice,choice,35,5.0,Land,1.0,25.236593500012532,Object_Sea_Pattern_Small,1,0,12291484.0,12291673.0,189.0
110,choice,choice,35,5.0,Land,1.0,25.236593500012532,Animal_Sea_Pattern_Small,0,0,12292394.0,12292612.0,218.0
110,choice,choice,35,5.0,Land,1.0,25.236593500012532,Animal_Land_Pattern_Small,2,1,12293076.0,12293539.0,463.0
110,choice,choice,35,5.0,Land,1.0,25.236593500012532,Object_Sea_Pattern_Small,1,0,12293945.0,12294014.0,69.0
110,choice,choice,35,5.0,Land,1.0,25.236593500012532,Animal_Land_Pattern_Small,2,1,12294736.0,12295202.0,466.0
110,choice,choice,35,5.0,Land,1.0,25.236593500012532,Animal_Sea_Pattern_Small,0,0,12296054.0,12296189.0,135.0
110,choice,choice,35,5.0,Land,1.0,25.236593500012532,Object_Sea_Pattern_Small,1,0,12296809.0,12296833.0,24.0
110,choice,choice,35,5.0,Land,1.0,25.236593500012532,Animal_Land_Pattern_Small,2,1,12297034.0,12297202.0,168.0
110,choice,choice,35,5.0,Land,1.0,25.236593500012532,Animal_Sea_Pattern_Small,0,0,12297404.0,12297426.0,22.0
110,choice,choice,35,5.0,Land,1.0,25.236593500012532,Object_Sea_Pattern_Small,1,0,12297853.0,12297954.0,101.0
110,choice,choice,35,5.0,Land,1.0,25.236593500012532,Animal_Sea_Pattern_Small,0,0,12298172.0,12298299.0,127.0
110,choice,choice,35,5.0,Land,1.0,25.236593500012532,Animal_Land_Pattern_Small,2,1,12298740.0,12299143.0,403.0
110,choice,choice,35,5.0,Land,1.0,25.236593500012532,Object_Sea_Pattern_Small,1,0,12299930.0,12300258.0,328.0
110,choice,choice,35,5.0,Land,1.0,25.236593500012532,Object_Land_Solid_Large,3,1,12300598.0,12300788.0,190.0
110,choice,choice,35,5.0,Land,1.0,25.236593500012532,Animal_Sea_Pattern_Small,0,0,12301125.0,12301303.0,178.0
110,choice,choice,37,5.0,Pattern,2.0,0.3854997089365497,Animal_Sea_Pattern_Small,0,1,12309857.0,12309976.0,119.0
110,choice,choice,38,5.0,Animal,2.0,1.1828185840277,Animal_Land_Solid_Large,4,1,12314505.0,12314611.0,106.0
110,choice,choice,38,5.0,Animal,2.0,1.1828185840277,Animal_Sea_Pattern_Small,0,1,12314637.0,12314715.0,78.0
110,choice,choice,39,5.0,Sea,2.0,2.189051458030008,Animal_Sea_Pattern_Small,0,1,12318950.0,12319032.0,82.0
110,choice,choice,39,5.0,Sea,2.0,2.189051458030008,Object_Land_Solid_Large,3,0,12319431.0,12319475.0,44.0
110,choice,choice,39,5.0,Sea,2.0,2.189051458030008,Animal_Sea_Pattern_Small,0,1,12319715.0,12320125.0,410.0
110,choice,choice,39,5.0,Sea,2.0,2.189051458030008,Object_Sea_Pattern_Small,1,1,12320353.0,12320455.0,102.0
110,choice,choice,41,6.0,Sea,1.0,25.423263040953316,Object_Sea_Pattern_Large,0,1,12578567.0,12579878.0,1311.0
110,choice,choice,41,6.0,Sea,1.0,25.423263040953316,Object_Sea_Solid_Small,1,1,12581819.0,12581872.0,53.0
110,choice,choice,41,6.0,Sea,1.0,25.423263040953316,Object_Sea_Pattern_Large,0,1,12582087.0,12582614.0,527.0
110,choice,choice,41,6.0,Sea,1.0,25.423263040953316,Object_Land_Solid_Small,2,0,12583037.0,12583077.0,40.0
110,choice,choice,41,6.0,Sea,1.0,25.423263040953316,Animal_Land_Pattern_Large,3,0,12583291.0,12583588.0,297.0
110,choice,choice,41,6.0,Sea,1.0,25.423263040953316,Object_Sea_Solid_Small,1,1,12583623.0,12583645.0,22.0
110,choice,choice,41,6.0,Sea,1.0,25.423263040953316,Animal_Land_Pattern_Large,3,0,12583845.0,12584020.0,175.0
110,choice,choice,41,6.0,Sea,1.0,25.423263040953316,Object_Sea_Solid_Small,1,1,12584228.0,12584361.0,133.0
110,choice,choice,41,6.0,Sea,1.0,25.423263040953316,Object_Land_Solid_Small,2,0,12584586.0,12584606.0,20.0
110,choice,choice,41,6.0,Sea,1.0,25.423263040953316,Object_Sea_Pattern_Large,0,1,12584843.0,12585308.0,465.0
110,choice,choice,41,6.0,Sea,1.0,25.423263040953316,Object_Sea_Solid_Small,1,1,12585787.0,12585835.0,48.0
110,choice,choice,41,6.0,Sea,1.0,25.423263040953316,Object_Land_Solid_Small,2,0,12586041.0,12586210.0,169.0
110,choice,choice,41,6.0,Sea,1.0,25.423263040953316,Animal_Sea_Pattern_Large,4,1,12586648.0,12586822.0,174.0
110,choice,choice,41,6.0,Sea,1.0,25.423263040953316,Object_Sea_Solid_Small,1,1,12587044.0,12587344.0,300.0
110,choice,choice,41,6.0,Sea,1.0,25.423263040953316,Animal_Land_Pattern_Large,3,0,12587836.0,12587973.0,137.0
110,choice,choice,41,6.0,Sea,1.0,25.423263040953316,Object_Sea_Pattern_Large,0,1,12588942.0,12589538.0,596.0
110,choice,choice,41,6.0,Sea,1.0,25.423263040953316,Object_Sea_Solid_Small,1,1,12590233.0,12590323.0,90.0
110,choice,choice,41,6.0,Sea,1.0,25.423263040953316,Object_Sea_Pattern_Large,0,1,12590812.0,12591045.0,233.0
110,choice,choice,41,6.0,Sea,1.0,25.423263040953316,Animal_Land_Pattern_Large,3,0,12591556.0,12591765.0,209.0
110,choice,choice,41,6.0,Sea,1.0,25.423263040953316,Object_Sea_Pattern_Large,0,1,12591993.0,12592336.0,343.0
110,choice,choice,41,6.0,Sea,1.0,25.423263040953316,Object_Land_Solid_Small,2,0,12592549.0,12592609.0,60.0
110,choice,choice,41,6.0,Sea,1.0,25.423263040953316,Object_Sea_Pattern_Large,0,1,12593089.0,12593324.0,235.0
110,choice,choice,41,6.0,Sea,1.0,25.423263040953316,Animal_Land_Pattern_Large,3,0,12593558.0,12593691.0,133.0
110,choice,choice,41,6.0,Sea,1.0,25.423263040953316,Animal_Land_Solid_Small,5,0,12593927.0,12594160.0,233.0
110,choice,choice,41,6.0,Sea,1.0,25.423263040953316,Object_Sea_Pattern_Large,0,1,12594410.0,12594706.0,296.0
110,choice,choice,41,6.0,Sea,1.0,25.423263040953316,Animal_Land_Pattern_Large,3,0,12594951.0,12595172.0,221.0
110,choice,choice,41,6.0,Sea,1.0,25.423263040953316,Object_Sea_Pattern_Large,0,1,12595414.0,12595805.0,391.0
110,choice,choice,41,6.0,Sea,1.0,25.423263040953316,Animal_Land_Pattern_Large,3,0,12597090.0,12597383.0,293.0
110,choice,choice,41,6.0,Sea,1.0,25.423263040953316,Object_Sea_Solid_Small,1,1,12597645.0,12597799.0,154.0
110,choice,choice,41,6.0,Sea,1.0,25.423263040953316,Animal_Land_Solid_Small,5,0,12597822.0,12598110.0,288.0
110,choice,choice,41,6.0,Sea,1.0,25.423263040953316,Object_Land_Solid_Small,2,0,12598319.0,12598345.0,26.0
110,choice,choice,41,6.0,Sea,1.0,25.423263040953316,Animal_Land_Solid_Small,5,0,12598856.0,12599049.0,193.0
110,choice,choice,41,6.0,Sea,1.0,25.423263040953316,Animal_Land_Pattern_Large,3,0,12599596.0,12599849.0,253.0
110,choice,choice,41,6.0,Sea,1.0,25.423263040953316,Object_Sea_Solid_Small,1,1,12600088.0,12600226.0,138.0
110,choice,choice,41,6.0,Sea,1.0,25.423263040953316,Object_Land_Solid_Small,2,0,12600438.0,12600468.0,30.0
110,choice,choice,41,6.0,Sea,1.0,25.423263040953316,Object_Sea_Solid_Small,1,1,12600683.0,12600955.0,272.0
110,choice,choice,41,6.0,Sea,1.0,25.423263040953316,Object_Land_Solid_Small,2,0,12601183.0,12601216.0,33.0
110,choice,choice,41,6.0,Sea,1.0,25.423263040953316,Object_Sea_Solid_Small,1,1,12601426.0,12601617.0,191.0
110,choice,choice,41,6.0,Sea,1.0,25.423263040953316,Object_Sea_Pattern_Large,0,1,12601649.0,12601744.0,95.0
110,choice,choice,41,6.0,Sea,1.0,25.423263040953316,Object_Land_Solid_Small,2,0,12601938.0,12601997.0,59.0
110,choice,choice,41,6.0,Sea,1.0,25.423263040953316,Object_Sea_Solid_Small,1,1,12602571.0,12602710.0,139.0
110,choice,choice,41,6.0,Sea,1.0,25.423263040953316,Object_Land_Solid_Small,2,0,12602927.0,12603119.0,192.0
110,choice,choice,41,6.0,Sea,1.0,25.423263040953316,Animal_Sea_Pattern_Large,4,1,12603344.0,12603521.0,177.0
110,choice,choice,41,6.0,Sea,1.0,25.423263040953316,Object_Sea_Pattern_Large,0,1,12603797.0,12603829.0,32.0
110,choice,choice,42,6.0,Small,1.0,5.700971250073053,Object_Land_Solid_Small,2,1,12607826.0,12607960.0,134.0
110,choice,choice,42,6.0,Small,1.0,5.700971250073053,Animal_Land_Solid_Small,5,1,12608701.0,12608870.0,169.0
110,choice,choice,42,6.0,Small,1.0,5.700971250073053,Animal_Land_Pattern_Large,3,0,12609318.0,12609556.0,238.0
110,choice,choice,42,6.0,Small,1.0,5.700971250073053,Object_Land_Solid_Small,2,1,12609741.0,12609880.0,139.0
110,choice,choice,42,6.0,Small,1.0,5.700971250073053,Object_Sea_Solid_Small,1,1,12610337.0,12610415.0,78.0
110,choice,choice,42,6.0,Small,1.0,5.700971250073053,Object_Land_Solid_Small,2,1,12610650.0,12610924.0,274.0
110,choice,choice,42,6.0,Small,1.0,5.700971250073053,Object_Sea_Solid_Small,1,1,12611390.0,12611638.0,248.0
110,choice,choice,42,6.0,Small,1.0,5.700971250073053,Animal_Land_Solid_Small,5,1,12611661.0,12612086.0,425.0
110,choice,choice,43,6.0,Land,1.0,9.0868267089827,Object_Sea_Pattern_Large,0,0,12615357.0,12615579.0,222.0
110,choice,choice,43,6.0,Land,1.0,9.0868267089827,Object_Sea_Solid_Small,1,0,12616484.0,12616934.0,450.0
110,choice,choice,43,6.0,Land,1.0,9.0868267089827,Object_Sea_Pattern_Large,0,0,12617535.0,12617982.0,447.0
110,choice,choice,43,6.0,Land,1.0,9.0868267089827,Animal_Sea_Pattern_Large,4,0,12618404.0,12618808.0,404.0
110,choice,choice,43,6.0,Land,1.0,9.0868267089827,Object_Land_Solid_Small,2,1,12619049.0,12619120.0,71.0
110,choice,choice,43,6.0,Land,1.0,9.0868267089827,Object_Sea_Solid_Small,1,0,12619340.0,12619512.0,172.0
110,choice,choice,43,6.0,Land,1.0,9.0868267089827,Object_Sea_Pattern_Large,0,0,12620012.0,12621458.0,1446.0
110,choice,choice,43,6.0,Land,1.0,9.0868267089827,Object_Land_Solid_Small,2,1,12622813.0,12622864.0,51.0
110,choice,choice,43,6.0,Land,1.0,9.0868267089827,Animal_Land_Pattern_Large,3,1,12623052.0,12623307.0,255.0
110,choice,choice,43,6.0,Land,1.0,9.0868267089827,Object_Sea_Solid_Small,1,0,12623495.0,12623575.0,80.0
110,choice,choice,43,6.0,Land,1.0,9.0868267089827,Object_Sea_Pattern_Large,0,0,12623594.0,12623973.0,379.0
110,choice,choice,44,6.0,Solid,1.0,11.637963874964043,Object_Sea_Pattern_Large,0,0,12627639.0,12628123.0,484.0
110,choice,choice,44,6.0,Solid,1.0,11.637963874964043,Object_Sea_Solid_Small,1,1,12628354.0,12628497.0,143.0
110,choice,choice,44,6.0,Solid,1.0,11.637963874964043,Object_Land_Solid_Small,2,1,12628508.0,12628821.0,313.0
110,choice,choice,44,6.0,Solid,1.0,11.637963874964043,Animal_Land_Pattern_Large,3,0,12630427.0,12630621.0,194.0
110,choice,choice,44,6.0,Solid,1.0,11.637963874964043,Object_Land_Solid_Small,2,1,12630829.0,12630867.0,38.0
110,choice,choice,44,6.0,Solid,1.0,11.637963874964043,Object_Sea_Pattern_Large,0,0,12631117.0,12631452.0,335.0
110,choice,choice,44,6.0,Solid,1.0,11.637963874964043,Animal_Land_Solid_Small,5,1,12631663.0,12631850.0,187.0
110,choice,choice,44,6.0,Solid,1.0,11.637963874964043,Object_Land_Solid_Small,2,1,12632345.0,12632399.0,54.0
110,choice,choice,44,6.0,Solid,1.0,11.637963874964043,Animal_Land_Pattern_Large,3,0,12632627.0,12632992.0,365.0
110,choice,choice,44,6.0,Solid,1.0,11.637963874964043,Object_Land_Solid_Small,2,1,12633466.0,12633536.0,70.0
110,choice,choice,44,6.0,Solid,1.0,11.637963874964043,Animal_Land_Solid_Small,5,1,12634041.0,12634541.0,500.0
110,choice,choice,44,6.0,Solid,1.0,11.637963874964043,Object_Land_Solid_Small,2,1,12634801.0,12634858.0,57.0
110,choice,choice,44,6.0,Solid,1.0,11.637963874964043,Animal_Sea_Pattern_Large,4,0,12635264.0,12635464.0,200.0
110,choice,choice,44,6.0,Solid,1.0,11.637963874964043,Object_Land_Solid_Small,2,1,12635776.0,12635882.0,106.0
110,choice,choice,44,6.0,Solid,1.0,11.637963874964043,Object_Sea_Solid_Small,1,1,12636136.0,12636462.0,326.0
110,choice,choice,44,6.0,Solid,1.0,11.637963874964043,Object_Land_Solid_Small,2,1,12636678.0,12636769.0,91.0
110,choice,choice,44,6.0,Solid,1.0,11.637963874964043,Object_Sea_Pattern_Large,0,0,12637185.0,12637428.0,243.0
110,choice,choice,44,6.0,Solid,1.0,11.637963874964043,Animal_Land_Pattern_Large,3,0,12637470.0,12637531.0,61.0
110,choice,choice,44,6.0,Solid,1.0,11.637963874964043,Animal_Land_Solid_Small,5,1,12637926.0,12638168.0,242.0
110,choice,choice,44,6.0,Solid,1.0,11.637963874964043,Object_Sea_Pattern_Large,0,0,12638189.0,12638415.0,226.0
110,choice,choice,45,6.0,Large,1.0,5.572189374943264,Object_Sea_Pattern_Large,0,1,12641392.0,12642559.0,1167.0
110,choice,choice,45,6.0,Large,1.0,5.572189374943264,Object_Land_Solid_Small,2,0,12644084.0,12644137.0,53.0
110,choice,choice,45,6.0,Large,1.0,5.572189374943264,Object_Sea_Pattern_Large,0,1,12644391.0,12644693.0,302.0
110,choice,choice,45,6.0,Large,1.0,5.572189374943264,Animal_Land_Pattern_Large,3,1,12645152.0,12645214.0,62.0
110,choice,choice,45,6.0,Large,1.0,5.572189374943264,Object_Sea_Pattern_Large,0,1,12645424.0,12646299.0,875.0
110,choice,choice,46,6.0,Pattern,1.0,12.688425624975936,Animal_Land_Pattern_Large,3,1,12649704.0,12650378.0,674.0
110,choice,choice,46,6.0,Pattern,1.0,12.688425624975936,Object_Sea_Pattern_Large,0,1,12651037.0,12651391.0,354.0
110,choice,choice,46,6.0,Pattern,1.0,12.688425624975936,Object_Sea_Solid_Small,1,0,12651642.0,12652128.0,486.0
110,choice,choice,46,6.0,Pattern,1.0,12.688425624975936,Animal_Land_Pattern_Large,3,1,12653409.0,12653627.0,218.0
110,choice,choice,46,6.0,Pattern,1.0,12.688425624975936,Object_Sea_Pattern_Large,0,1,12653868.0,12654245.0,377.0
110,choice,choice,46,6.0,Pattern,1.0,12.688425624975936,Animal_Land_Pattern_Large,3,1,12654677.0,12654823.0,146.0
110,choice,choice,46,6.0,Pattern,1.0,12.688425624975936,Object_Sea_Pattern_Large,0,1,12655101.0,12655673.0,572.0
110,choice,choice,46,6.0,Pattern,1.0,12.688425624975936,Object_Sea_Solid_Small,1,0,12656086.0,12656159.0,73.0
110,choice,choice,46,6.0,Pattern,1.0,12.688425624975936,Animal_Land_Pattern_Large,3,1,12656372.0,12656785.0,413.0
110,choice,choice,46,6.0,Pattern,1.0,12.688425624975936,Object_Sea_Solid_Small,1,0,12657019.0,12657423.0,404.0
110,choice,choice,46,6.0,Pattern,1.0,12.688425624975936,Animal_Land_Pattern_Large,3,1,12658131.0,12658481.0,350.0
110,choice,choice,46,6.0,Pattern,1.0,12.688425624975936,Object_Sea_Pattern_Large,0,1,12658993.0,12660462.0,1469.0
110,choice,choice,46,6.0,Pattern,1.0,12.688425624975936,Animal_Land_Pattern_Large,3,1,12661577.0,12661818.0,241.0
110,choice,choice,46,6.0,Pattern,1.0,12.688425624975936,Object_Sea_Pattern_Large,0,1,12661838.0,12662032.0,194.0
110,choice,choice,47,6.0,Animal,1.0,3.4761131670093164,Animal_Sea_Pattern_Large,4,1,12665277.0,12665389.0,112.0
110,choice,choice,47,6.0,Animal,1.0,3.4761131670093164,Object_Land_Solid_Small,2,0,12665649.0,12666144.0,495.0
110,choice,choice,47,6.0,Animal,1.0,3.4761131670093164,Object_Sea_Solid_Small,1,0,12667269.0,12667471.0,202.0
110,choice,choice,47,6.0,Animal,1.0,3.4761131670093164,Animal_Land_Pattern_Large,3,1,12667678.0,12667944.0,266.0
110,choice,choice,47,6.0,Animal,1.0,3.4761131670093164,Animal_Sea_Pattern_Large,4,1,12667970.0,12668027.0,57.0
110,choice,choice,47,6.0,Animal,1.0,3.4761131670093164,Object_Sea_Solid_Small,1,0,12668261.0,12668313.0,52.0
110,choice,choice,48,6.0,Object,1.0,9.700936458073556,Object_Sea_Pattern_Large,0,1,12671440.0,12672416.0,976.0
110,choice,choice,48,6.0,Object,1.0,9.700936458073556,Animal_Land_Pattern_Large,3,0,12673578.0,12674217.0,639.0
110,choice,choice,48,6.0,Object,1.0,9.700936458073556,Object_Sea_Solid_Small,1,1,12674708.0,12674863.0,155.0
110,choice,choice,48,6.0,Object,1.0,9.700936458073556,Object_Land_Solid_Small,2,1,12675086.0,12675265.0,179.0
110,choice,choice,48,6.0,Object,1.0,9.700936458073556,Object_Sea_Solid_Small,1,1,12675484.0,12675849.0,365.0
110,choice,choice,48,6.0,Object,1.0,9.700936458073556,Animal_Land_Pattern_Large,3,0,12676312.0,12676633.0,321.0
110,choice,choice,48,6.0,Object,1.0,9.700936458073556,Object_Land_Solid_Small,2,1,12676885.0,12677114.0,229.0
110,choice,choice,48,6.0,Object,1.0,9.700936458073556,Object_Sea_Solid_Small,1,1,12677825.0,12678120.0,295.0
110,choice,choice,48,6.0,Object,1.0,9.700936458073556,Object_Sea_Pattern_Large,0,1,12678585.0,12678838.0,253.0
110,choice,choice,48,6.0,Object,1.0,9.700936458073556,Animal_Land_Pattern_Large,3,0,12679068.0,12679291.0,223.0
110,choice,choice,48,6.0,Object,1.0,9.700936458073556,Object_Sea_Pattern_Large,0,1,12679999.0,12680239.0,240.0
110,choice,choice,48,6.0,Object,1.0,9.700936458073556,Animal_Land_Pattern_Large,3,0,12680269.0,12680683.0,414.0
110,choice,choice,48,6.0,Object,1.0,9.700936458073556,Object_Sea_Pattern_Large,0,1,12680925.0,12681066.0,141.0
110,choice,choice,49,7.0,Large,1.0,9.2245595830027,Object_Sea_Pattern_Small,0,0,12952618.0,12952663.0,45.0
110,choice,choice,49,7.0,Large,1.0,9.2245595830027,Animal_Sea_Pattern_Small,1,0,12953070.0,12953314.0,244.0
110,choice,choice,49,7.0,Large,1.0,9.2245595830027,Animal_Land_Pattern_Small,2,0,12953565.0,12953963.0,398.0
110,choice,choice,49,7.0,Large,1.0,9.2245595830027,Animal_Sea_Pattern_Small,1,0,12954397.0,12954737.0,340.0
110,choice,choice,49,7.0,Large,1.0,9.2245595830027,Object_Sea_Pattern_Small,0,0,12955215.0,12955257.0,42.0
110,choice,choice,49,7.0,Large,1.0,9.2245595830027,Animal_Sea_Pattern_Small,1,0,12955453.0,12955677.0,224.0
110,choice,choice,49,7.0,Large,1.0,9.2245595830027,Animal_Land_Pattern_Small,2,0,12956138.0,12956306.0,168.0
110,choice,choice,49,7.0,Large,1.0,9.2245595830027,Object_Sea_Pattern_Small,0,0,12956509.0,12956564.0,55.0
110,choice,choice,49,7.0,Large,1.0,9.2245595830027,Animal_Sea_Pattern_Small,1,0,12956752.0,12957148.0,396.0
110,choice,choice,49,7.0,Large,1.0,9.2245595830027,Animal_Land_Solid_Large,3,1,12957352.0,12957369.0,17.0
110,choice,choice,49,7.0,Large,1.0,9.2245595830027,Object_Sea_Pattern_Small,0,0,12957833.0,12958006.0,173.0
110,choice,choice,49,7.0,Large,1.0,9.2245595830027,Animal_Sea_Pattern_Small,1,0,12958221.0,12958416.0,195.0
110,choice,choice,49,7.0,Large,1.0,9.2245595830027,Object_Sea_Pattern_Small,0,0,12959063.0,12959361.0,298.0
110,choice,choice,49,7.0,Large,1.0,9.2245595830027,Animal_Sea_Pattern_Small,1,0,12959932.0,12960138.0,206.0
110,choice,choice,49,7.0,Large,1.0,9.2245595830027,Animal_Land_Pattern_Small,2,0,12960327.0,12960661.0,334.0
110,choice,choice,49,7.0,Large,1.0,9.2245595830027,Animal_Land_Solid_Large,3,1,12960714.0,12960986.0,272.0
110,choice,choice,50,7.0,Land,1.0,5.484991000033915,Animal_Land_Pattern_Small,2,1,12964173.0,12964489.0,316.0
110,choice,choice,50,7.0,Land,1.0,5.484991000033915,Animal_Land_Solid_Large,3,1,12964945.0,12964998.0,53.0
110,choice,choice,50,7.0,Land,1.0,5.484991000033915,Object_Sea_Solid_Large,4,0,12965196.0,12965385.0,189.0
110,choice,choice,50,7.0,Land,1.0,5.484991000033915,Animal_Sea_Pattern_Small,1,0,12965773.0,12966083.0,310.0
110,choice,choice,50,7.0,Land,1.0,5.484991000033915,Object_Sea_Pattern_Small,0,0,12966289.0,12966338.0,49.0
110,choice,choice,50,7.0,Land,1.0,5.484991000033915,Animal_Sea_Pattern_Small,1,0,12966552.0,12966863.0,311.0
110,choice,choice,50,7.0,Land,1.0,5.484991000033915,Animal_Land_Pattern_Small,2,1,12967078.0,12967275.0,197.0
110,choice,choice,50,7.0,Land,1.0,5.484991000033915,Animal_Sea_Pattern_Small,1,0,12967467.0,12967522.0,55.0
110,choice,choice,50,7.0,Land,1.0,5.484991000033915,Animal_Land_Pattern_Small,2,1,12967710.0,12968043.0,333.0
110,choice,choice,50,7.0,Land,1.0,5.484991000033915,Animal_Land_Solid_Large,3,1,12968231.0,12968420.0,189.0
110,choice,choice,50,7.0,Land,1.0,5.484991000033915,Object_Sea_Pattern_Small,0,0,12969162.0,12969248.0,86.0
110,choice,choice,50,7.0,Land,1.0,5.484991000033915,Animal_Land_Pattern_Small,2,1,12969457.0,12969485.0,28.0
110,choice,choice,51,7.0,Object,1.0,5.118776416988112,Animal_Sea_Pattern_Small,1,0,12972526.0,12972755.0,229.0
110,choice,choice,51,7.0,Object,1.0,5.118776416988112,Animal_Land_Pattern_Small,2,0,12972791.0,12973212.0,421.0
110,choice,choice,51,7.0,Object,1.0,5.118776416988112,Object_Sea_Solid_Large,4,1,12973601.0,12973884.0,283.0
110,choice,choice,51,7.0,Object,1.0,5.118776416988112,Animal_Land_Solid_Large,3,0,12974534.0,12974556.0,22.0
110,choice,choice,51,7.0,Object,1.0,5.118776416988112,Animal_Land_Pattern_Small,2,0,12974755.0,12975004.0,249.0
110,choice,choice,51,7.0,Object,1.0,5.118776416988112,Animal_Land_Solid_Large,3,0,12975213.0,12975240.0,27.0
110,choice,choice,51,7.0,Object,1.0,5.118776416988112,Animal_Land_Pattern_Small,2,0,12975442.0,12975694.0,252.0
110,choice,choice,51,7.0,Object,1.0,5.118776416988112,Animal_Land_Solid_Large,3,0,12975912.0,12975970.0,58.0
110,choice,choice,51,7.0,Object,1.0,5.118776416988112,Object_Land_Solid_Large,5,1,12976155.0,12976225.0,70.0
110,choice,choice,51,7.0,Object,1.0,5.118776416988112,Animal_Land_Solid_Large,3,0,12976895.0,12976965.0,70.0
110,choice,choice,51,7.0,Object,1.0,5.118776416988112,Object_Sea_Pattern_Small,0,1,12977175.0,12977405.0,230.0
110,choice,choice,52,7.0,Solid,2.0,14.684405457926914,Animal_Sea_Pattern_Small,1,0,12981491.0,12981618.0,127.0
110,choice,choice,52,7.0,Solid,2.0,14.684405457926914,Animal_Land_Solid_Large,3,1,12981839.0,12981874.0,35.0
110,choice,choice,52,7.0,Solid,2.0,14.684405457926914,Animal_Land_Pattern_Small,2,0,12982122.0,12982328.0,206.0
110,choice,choice,52,7.0,Solid,2.0,14.684405457926914,Animal_Sea_Pattern_Small,1,0,12982538.0,12982707.0,169.0
110,choice,choice,52,7.0,Solid,2.0,14.684405457926914,Animal_Land_Pattern_Small,2,0,12983460.0,12983707.0,247.0
110,choice,choice,52,7.0,Solid,2.0,14.684405457926914,Object_Sea_Solid_Large,4,1,12984384.0,12984444.0,60.0
110,choice,choice,52,7.0,Solid,2.0,14.684405457926914,Object_Sea_Pattern_Small,0,0,12984472.0,12984976.0,504.0
110,choice,choice,52,7.0,Solid,2.0,14.684405457926914,Animal_Land_Pattern_Small,2,0,12985461.0,12985819.0,358.0
110,choice,choice,52,7.0,Solid,2.0,14.684405457926914,Object_Land_Solid_Large,5,1,12986003.0,12986044.0,41.0
110,choice,choice,52,7.0,Solid,2.0,14.684405457926914,Object_Sea_Solid_Large,4,1,12986244.0,12986326.0,82.0
110,choice,choice,52,7.0,Solid,2.0,14.684405457926914,Animal_Land_Pattern_Small,2,0,12986777.0,12986938.0,161.0
110,choice,choice,52,7.0,Solid,2.0,14.684405457926914,Animal_Sea_Pattern_Small,1,0,12986965.0,12987706.0,741.0
110,choice,choice,52,7.0,Solid,2.0,14.684405457926914,Animal_Land_Pattern_Small,2,0,12988819.0,12988945.0,126.0
110,choice,choice,52,7.0,Solid,2.0,14.684405457926914,Object_Sea_Solid_Large,4,1,12989352.0,12989537.0,185.0
110,choice,choice,52,7.0,Solid,2.0,14.684405457926914,Animal_Land_Pattern_Small,2,0,12990157.0,12990326.0,169.0
110,choice,choice,52,7.0,Solid,2.0,14.684405457926914,Animal_Sea_Pattern_Small,1,0,12990557.0,12990807.0,250.0
110,choice,choice,52,7.0,Solid,2.0,14.684405457926914,Animal_Land_Solid_Large,3,1,12991017.0,12991106.0,89.0
110,choice,choice,52,7.0,Solid,2.0,14.684405457926914,Object_Sea_Solid_Large,4,1,12991318.0,12991475.0,157.0
110,choice,choice,52,7.0,Solid,2.0,14.684405457926914,Animal_Sea_Pattern_Small,1,0,12991722.0,12992218.0,496.0
110,choice,choice,52,7.0,Solid,2.0,14.684405457926914,Animal_Land_Pattern_Small,2,0,12993147.0,12993325.0,178.0
110,choice,choice,52,7.0,Solid,2.0,14.684405457926914,Animal_Sea_Pattern_Small,1,0,12993505.0,12993757.0,252.0
110,choice,choice,52,7.0,Solid,2.0,14.684405457926914,Animal_Land_Pattern_Small,2,0,12994208.0,12994352.0,144.0
110,choice,choice,52,7.0,Solid,2.0,14.684405457926914,Animal_Sea_Pattern_Small,1,0,12994577.0,12994796.0,219.0
110,choice,choice,52,7.0,Solid,2.0,14.684405457926914,Animal_Land_Pattern_Small,2,0,12994828.0,12995243.0,415.0
110,choice,choice,53,7.0,Small,2.0,10.636579625075685,Animal_Sea_Pattern_Small,1,1,12999130.0,12999266.0,136.0
110,choice,choice,53,7.0,Small,2.0,10.636579625075685,Animal_Land_Pattern_Small,2,1,12999813.0,12999927.0,114.0
110,choice,choice,53,7.0,Small,2.0,10.636579625075685,Animal_Sea_Pattern_Small,1,1,13000678.0,13000772.0,94.0
110,choice,choice,53,7.0,Small,2.0,10.636579625075685,Animal_Land_Solid_Large,3,0,13001249.0,13001318.0,69.0
110,choice,choice,53,7.0,Small,2.0,10.636579625075685,Animal_Sea_Pattern_Small,1,1,13001906.0,13002362.0,456.0
110,choice,choice,53,7.0,Small,2.0,10.636579625075685,Animal_Land_Pattern_Small,2,1,13003138.0,13003901.0,763.0
110,choice,choice,53,7.0,Small,2.0,10.636579625075685,Object_Land_Solid_Large,5,0,13004775.0,13004830.0,55.0
110,choice,choice,53,7.0,Small,2.0,10.636579625075685,Animal_Land_Solid_Large,3,0,13005028.0,13005066.0,38.0
110,choice,choice,53,7.0,Small,2.0,10.636579625075685,Animal_Sea_Pattern_Small,1,1,13005287.0,13005568.0,281.0
110,choice,choice,53,7.0,Small,2.0,10.636579625075685,Object_Sea_Pattern_Small,0,1,13006195.0,13006361.0,166.0
110,choice,choice,53,7.0,Small,2.0,10.636579625075685,Animal_Land_Pattern_Small,2,1,13006932.0,13007443.0,511.0
110,choice,choice,53,7.0,Small,2.0,10.636579625075685,Animal_Sea_Pattern_Small,1,1,13007931.0,13008470.0,539.0
110,choice,choice,53,7.0,Small,2.0,10.636579625075685,Object_Sea_Pattern_Small,0,1,13008705.0,13008742.0,37.0
110,choice,choice,53,7.0,Small,2.0,10.636579625075685,Animal_Sea_Pattern_Small,1,1,13008942.0,13009334.0,392.0
110,choice,choice,54,7.0,Sea,1.0,6.025330916978419,Animal_Land_Solid_Large,3,0,13012930.0,13012954.0,24.0
110,choice,choice,54,7.0,Sea,1.0,6.025330916978419,Animal_Sea_Pattern_Small,1,1,13013257.0,13013410.0,153.0
110,choice,choice,54,7.0,Sea,1.0,6.025330916978419,Animal_Land_Pattern_Small,2,0,13013457.0,13013922.0,465.0
110,choice,choice,54,7.0,Sea,1.0,6.025330916978419,Object_Sea_Pattern_Small,0,1,13014589.0,13014620.0,31.0
110,choice,choice,54,7.0,Sea,1.0,6.025330916978419,Animal_Land_Pattern_Small,2,0,13014851.0,13014899.0,48.0
110,choice,choice,54,7.0,Sea,1.0,6.025330916978419,Animal_Sea_Pattern_Small,1,1,13015393.0,13016015.0,622.0
110,choice,choice,54,7.0,Sea,1.0,6.025330916978419,Animal_Land_Pattern_Small,2,0,13016952.0,13017314.0,362.0
110,choice,choice,54,7.0,Sea,1.0,6.025330916978419,Animal_Land_Solid_Large,3,0,13017756.0,13017785.0,29.0
110,choice,choice,54,7.0,Sea,1.0,6.025330916978419,Animal_Sea_Pattern_Small,1,1,13017996.0,13018705.0,709.0
110,choice,choice,55,7.0,Pattern,2.0,8.88543995807413,Animal_Sea_Pattern_Small,1,1,13022036.0,13022359.0,323.0
110,choice,choice,55,7.0,Pattern,2.0,8.88543995807413,Object_Sea_Pattern_Small,0,1,13022587.0,13022609.0,22.0
110,choice,choice,55,7.0,Pattern,2.0,8.88543995807413,Animal_Sea_Pattern_Small,1,1,13022838.0,13023126.0,288.0
110,choice,choice,55,7.0,Pattern,2.0,8.88543995807413,Object_Sea_Pattern_Small,0,1,13023582.0,13023612.0,30.0
110,choice,choice,55,7.0,Pattern,2.0,8.88543995807413,Animal_Sea_Pattern_Small,1,1,13023814.0,13024098.0,284.0
110,choice,choice,55,7.0,Pattern,2.0,8.88543995807413,Animal_Land_Pattern_Small,2,1,13024116.0,13024154.0,38.0
110,choice,choice,55,7.0,Pattern,2.0,8.88543995807413,Object_Sea_Pattern_Small,0,1,13024358.0,13024380.0,22.0
110,choice,choice,55,7.0,Pattern,2.0,8.88543995807413,Animal_Land_Pattern_Small,2,1,13024607.0,13024881.0,274.0
110,choice,choice,55,7.0,Pattern,2.0,8.88543995807413,Object_Sea_Pattern_Small,0,1,13025079.0,13025106.0,27.0
110,choice,choice,55,7.0,Pattern,2.0,8.88543995807413,Animal_Sea_Pattern_Small,1,1,13025778.0,13026456.0,678.0
110,choice,choice,55,7.0,Pattern,2.0,8.88543995807413,Object_Land_Solid_Large,5,0,13026908.0,13026955.0,47.0
110,choice,choice,55,7.0,Pattern,2.0,8.88543995807413,Animal_Land_Pattern_Small,2,1,13027168.0,13027295.0,127.0
110,choice,choice,55,7.0,Pattern,2.0,8.88543995807413,Object_Sea_Solid_Large,4,0,13027519.0,13027652.0,133.0
110,choice,choice,55,7.0,Pattern,2.0,8.88543995807413,Object_Land_Solid_Large,5,0,13028319.0,13028448.0,129.0
110,choice,choice,55,7.0,Pattern,2.0,8.88543995807413,Animal_Sea_Pattern_Small,1,1,13028485.0,13028720.0,235.0
110,choice,choice,55,7.0,Pattern,2.0,8.88543995807413,Object_Sea_Pattern_Small,0,1,13029164.0,13029249.0,85.0
110,choice,choice,55,7.0,Pattern,2.0,8.88543995807413,Animal_Sea_Pattern_Small,1,1,13030042.0,13030598.0,556.0
110,choice,choice,56,7.0,Animal,1.0,3.2211181249003857,Object_Sea_Pattern_Small,0,0,13033438.0,13033479.0,41.0
110,choice,choice,56,7.0,Animal,1.0,3.2211181249003857,Animal_Sea_Pattern_Small,1,1,13033685.0,13033957.0,272.0
110,choice,choice,56,7.0,Animal,1.0,3.2211181249003857,Animal_Land_Pattern_Small,2,1,13034402.0,13034592.0,190.0
110,choice,choice,56,7.0,Animal,1.0,3.2211181249003857,Animal_Land_Solid_Large,3,1,13035022.0,13035046.0,24.0
110,choice,choice,56,7.0,Animal,1.0,3.2211181249003857,Animal_Land_Pattern_Small,2,1,13035268.0,13035964.0,696.0
