phase,event,trial_number,eyetracker_onset,eyetracker_offset,fix_start,fix_end,fix_duration_full,fix_duration_bounded,fix_x,fix_y,roi_x,roi_y,roi_content,onset,offset,game,image,outcome,choice,correct,rt,letter,match,response,option,true_value,true_position,recalled_position,Unnamed: 18
encoding,fixation,1,17301998,17303509,17302229.0,17302512.0,284.0,284.0,1903.3,1151.5,1920.0,700.0,Animal_Sea_Solid_Large,7.916741790948436,9.427466082968747,1.0,Object_Sea_Pattern_Small,-8.0,,,,,,,,,,,
encoding,fixation,1,17301998,17303509,17302555.0,17302847.0,293.0,293.0,1962.8,1427.9,1920.0,700.0,Animal_Sea_Solid_Large,7.916741790948436,9.427466082968747,1.0,Object_Sea_Pattern_Small,-8.0,,,,,,,,,,,
encoding,fixation,1,17301998,17303509,17302858.0,17303659.0,802.0,651.0,1895.4,1466.5,1920.0,700.0,Animal_Sea_Solid_Large,7.916741790948436,9.427466082968747,1.0,Object_Sea_Pattern_Small,-8.0,,,,,,,,,,,
encoding,image,1,17303509,17304527,17303707.0,17303800.0,94.0,94.0,1924.7,976.3,1920.0,1460.0,Object_Sea_Pattern_Small,9.427631041035056,10.44484074995853,1.0,Object_Sea_Pattern_Small,-8.0,,,,,,,,,,,
encoding,image,1,17303509,17304527,17303846.0,17303972.0,127.0,127.0,1932.0,1270.7,1920.0,700.0,Animal_Sea_Solid_Large,9.427631041035056,10.44484074995853,1.0,Object_Sea_Pattern_Small,-8.0,,,,,,,,,,,
encoding,image,1,17303509,17304527,17304011.0,17304719.0,709.0,516.0,1911.9,831.9000000000001,1920.0,1460.0,Object_Sea_Pattern_Small,9.427631041035056,10.44484074995853,1.0,Object_Sea_Pattern_Small,-8.0,,,,,,,,,,,
encoding,value,1,17304527,17310542,17304738.0,17305087.0,350.0,350.0,1914.4,709.9000000000001,1920.0,1460.0,Object_Sea_Pattern_Small,10.44496049999725,16.45943204103969,1.0,Object_Sea_Pattern_Small,-8.0,,,,,,,,,,,
encoding,value,1,17304527,17310542,17305396.0,17306609.0,1214.0,1214.0,1905.7,807.4000000000001,1920.0,1460.0,Object_Sea_Pattern_Small,10.44496049999725,16.45943204103969,1.0,Object_Sea_Pattern_Small,-8.0,,,,,,,,,,,
encoding,value,1,17304527,17310542,17306793.0,17306806.0,14.0,14.0,1890.1,934.3,1920.0,1460.0,Object_Sea_Pattern_Small,10.44496049999725,16.45943204103969,1.0,Object_Sea_Pattern_Small,-8.0,,,,,,,,,,,
encoding,value,1,17304527,17310542,17306843.0,17307014.0,172.0,172.0,1908.4,790.4000000000001,1920.0,1460.0,Object_Sea_Pattern_Small,10.44496049999725,16.45943204103969,1.0,Object_Sea_Pattern_Small,-8.0,,,,,,,,,,,
encoding,value,1,17304527,17310542,17307233.0,17307267.0,35.0,35.0,1893.6,952.9000000000001,1920.0,1460.0,Object_Sea_Pattern_Small,10.44496049999725,16.45943204103969,1.0,Object_Sea_Pattern_Small,-8.0,,,,,,,,,,,
encoding,value,1,17304527,17310542,17307288.0,17307350.0,63.0,63.0,1910.0,785.2,1920.0,1460.0,Object_Sea_Pattern_Small,10.44496049999725,16.45943204103969,1.0,Object_Sea_Pattern_Small,-8.0,,,,,,,,,,,
encoding,value,1,17304527,17310542,17307607.0,17307658.0,52.0,52.0,1894.6,943.0,1920.0,1460.0,Object_Sea_Pattern_Small,10.44496049999725,16.45943204103969,1.0,Object_Sea_Pattern_Small,-8.0,,,,,,,,,,,
encoding,value,1,17304527,17310542,17307678.0,17307996.0,319.0,319.0,1917.0,801.5,1920.0,1460.0,Object_Sea_Pattern_Small,10.44496049999725,16.45943204103969,1.0,Object_Sea_Pattern_Small,-8.0,,,,,,,,,,,
encoding,value,1,17304527,17310542,17308367.0,17308420.0,54.0,54.0,1865.0,952.5999999999999,1920.0,1460.0,Object_Sea_Pattern_Small,10.44496049999725,16.45943204103969,1.0,Object_Sea_Pattern_Small,-8.0,,,,,,,,,,,
encoding,value,1,17304527,17310542,17308439.0,17308545.0,107.0,107.0,1884.9,801.0,1920.0,1460.0,Object_Sea_Pattern_Small,10.44496049999725,16.45943204103969,1.0,Object_Sea_Pattern_Small,-8.0,,,,,,,,,,,
encoding,value,1,17304527,17310542,17308564.0,17308855.0,292.0,292.0,1918.2,723.5,1920.0,1460.0,Object_Sea_Pattern_Small,10.44496049999725,16.45943204103969,1.0,Object_Sea_Pattern_Small,-8.0,,,,,,,,,,,
encoding,value,1,17304527,17310542,17309062.0,17309149.0,88.0,88.0,1891.6,948.4000000000001,1920.0,1460.0,Object_Sea_Pattern_Small,10.44496049999725,16.45943204103969,1.0,Object_Sea_Pattern_Small,-8.0,,,,,,,,,,,
encoding,value,1,17304527,17310542,17309397.0,17309451.0,55.0,55.0,1891.2,950.0,1920.0,1460.0,Object_Sea_Pattern_Small,10.44496049999725,16.45943204103969,1.0,Object_Sea_Pattern_Small,-8.0,,,,,,,,,,,
encoding,value,1,17304527,17310542,17309479.0,17310266.0,788.0,788.0,1916.2,793.8,1920.0,1460.0,Object_Sea_Pattern_Small,10.44496049999725,16.45943204103969,1.0,Object_Sea_Pattern_Small,-8.0,,,,,,,,,,,
encoding,value,1,17304527,17310542,17310442.0,17310506.0,65.0,65.0,1887.2,934.2,1920.0,1460.0,Object_Sea_Pattern_Small,10.44496049999725,16.45943204103969,1.0,Object_Sea_Pattern_Small,-8.0,,,,,,,,,,,
encoding,value,1,17304527,17310542,17310534.0,17310808.0,275.0,8.0,1909.8,802.0999999999999,1920.0,1460.0,Object_Sea_Pattern_Small,10.44496049999725,16.45943204103969,1.0,Object_Sea_Pattern_Small,-8.0,,,,,,,,,,,
encoding,attention,1,17310542,17313560,17310831.0,17311333.0,503.0,503.0,1873.2,677.7,1920.0,1460.0,Object_Sea_Pattern_Small,16.459557499969378,19.477470290963534,1.0,Object_Sea_Pattern_Small,-8.0,-8.0,1.0,2.449351750081405,,,,,,,,
encoding,attention,1,17310542,17313560,17311505.0,17311559.0,55.0,55.0,1844.0,883.4000000000001,1920.0,1460.0,Object_Sea_Pattern_Small,16.459557499969378,19.477470290963534,1.0,Object_Sea_Pattern_Small,-8.0,-8.0,1.0,2.449351750081405,,,,,,,,
encoding,attention,1,17310542,17313560,17311581.0,17311660.0,80.0,80.0,1850.9,711.8,1920.0,1460.0,Object_Sea_Pattern_Small,16.459557499969378,19.477470290963534,1.0,Object_Sea_Pattern_Small,-8.0,-8.0,1.0,2.449351750081405,,,,,,,,
encoding,attention,1,17310542,17313560,17311676.0,17312557.0,882.0,882.0,1935.9,719.0999999999999,1920.0,1460.0,Object_Sea_Pattern_Small,16.459557499969378,19.477470290963534,1.0,Object_Sea_Pattern_Small,-8.0,-8.0,1.0,2.449351750081405,,,,,,,,
encoding,attention,1,17310542,17313560,17312725.0,17312775.0,51.0,51.0,1906.2,883.5,1920.0,1460.0,Object_Sea_Pattern_Small,16.459557499969378,19.477470290963534,1.0,Object_Sea_Pattern_Small,-8.0,-8.0,1.0,2.449351750081405,,,,,,,,
encoding,fixation,2,17313560,17314065,17313833.0,17314012.0,180.0,180.0,1937.5,1102.2,1920.0,1080.0,fixation,19.477648625033908,19.982635083026253,1.0,Animal_Sea_Pattern_Large,5.0,,,,,,,,,,,
encoding,image,2,17314065,17315074,17314337.0,17314511.0,175.0,175.0,1913.3,1060.5,1920.0,1080.0,fixation,19.98275529104285,20.992174666025676,1.0,Animal_Sea_Pattern_Large,5.0,,,,,,,,,,,
encoding,image,2,17314065,17315074,17314552.0,17314756.0,205.0,205.0,1638.4,1289.2,1591.0,891.0,Animal_Sea_Pattern_Large,19.98275529104285,20.992174666025676,1.0,Animal_Sea_Pattern_Large,5.0,,,,,,,,,,,
encoding,image,2,17314065,17315074,17314769.0,17315258.0,490.0,305.0,1578.3,1312.2,1591.0,891.0,Animal_Sea_Pattern_Large,19.98275529104285,20.992174666025676,1.0,Animal_Sea_Pattern_Large,5.0,,,,,,,,,,,
encoding,value,2,17315075,17321086,17315282.0,17315440.0,159.0,159.0,1600.3,1197.2,1591.0,891.0,Animal_Sea_Pattern_Large,20.99230808299035,27.003644624957815,1.0,Animal_Sea_Pattern_Large,5.0,,,,,,,,,,,
encoding,value,2,17315075,17321086,17315447.0,17315741.0,295.0,295.0,1607.1,1225.5,1591.0,891.0,Animal_Sea_Pattern_Large,20.99230808299035,27.003644624957815,1.0,Animal_Sea_Pattern_Large,5.0,,,,,,,,,,,
encoding,value,2,17315075,17321086,17315890.0,17316139.0,250.0,250.0,1584.2,1262.2,1591.0,891.0,Animal_Sea_Pattern_Large,20.99230808299035,27.003644624957815,1.0,Animal_Sea_Pattern_Large,5.0,,,,,,,,,,,
encoding,value,2,17315075,17321086,17316295.0,17316533.0,239.0,239.0,1577.4,1249.1,1591.0,891.0,Animal_Sea_Pattern_Large,20.99230808299035,27.003644624957815,1.0,Animal_Sea_Pattern_Large,5.0,,,,,,,,,,,
encoding,value,2,17315075,17321086,17316672.0,17317013.0,342.0,342.0,1559.5,1304.8,1591.0,891.0,Animal_Sea_Pattern_Large,20.99230808299035,27.003644624957815,1.0,Animal_Sea_Pattern_Large,5.0,,,,,,,,,,,
encoding,value,2,17315075,17321086,17317038.0,17319113.0,2076.0,2076.0,1599.9,1256.1,1591.0,891.0,Animal_Sea_Pattern_Large,20.99230808299035,27.003644624957815,1.0,Animal_Sea_Pattern_Large,5.0,,,,,,,,,,,
encoding,value,2,17315075,17321086,17319120.0,17319288.0,169.0,169.0,1636.3,1294.1,1591.0,891.0,Animal_Sea_Pattern_Large,20.99230808299035,27.003644624957815,1.0,Animal_Sea_Pattern_Large,5.0,,,,,,,,,,,
encoding,value,2,17315075,17321086,17319435.0,17320006.0,572.0,572.0,1606.2,1254.9,1591.0,891.0,Animal_Sea_Pattern_Large,20.99230808299035,27.003644624957815,1.0,Animal_Sea_Pattern_Large,5.0,,,,,,,,,,,
encoding,value,2,17315075,17321086,17320128.0,17320852.0,725.0,725.0,1587.0,1246.1,1591.0,891.0,Animal_Sea_Pattern_Large,20.99230808299035,27.003644624957815,1.0,Animal_Sea_Pattern_Large,5.0,,,,,,,,,,,
encoding,value,2,17315075,17321086,17320983.0,17321340.0,358.0,103.0,1600.4,1251.7,1591.0,891.0,Animal_Sea_Pattern_Large,20.99230808299035,27.003644624957815,1.0,Animal_Sea_Pattern_Large,5.0,,,,,,,,,,,
encoding,attention,2,17321086,17324105,17321349.0,17321464.0,116.0,116.0,1567.6,1228.6,1591.0,891.0,Animal_Sea_Pattern_Large,27.003766166046265,30.02201758301817,1.0,Animal_Sea_Pattern_Large,5.0,5.0,1.0,0.9395730829564856,,,,,,,,
encoding,attention,2,17321086,17324105,17321477.0,17322241.0,765.0,765.0,1641.1,1228.8,1591.0,891.0,Animal_Sea_Pattern_Large,27.003766166046265,30.02201758301817,1.0,Animal_Sea_Pattern_Large,5.0,5.0,1.0,0.9395730829564856,,,,,,,,
encoding,attention,2,17321086,17324105,17322530.0,17322919.0,390.0,390.0,1630.1,1294.9,1591.0,891.0,Animal_Sea_Pattern_Large,27.003766166046265,30.02201758301817,1.0,Animal_Sea_Pattern_Large,5.0,5.0,1.0,0.9395730829564856,,,,,,,,
encoding,attention,2,17321086,17324105,17322934.0,17323428.0,495.0,495.0,1589.2,1339.3,1591.0,891.0,Animal_Sea_Pattern_Large,27.003766166046265,30.02201758301817,1.0,Animal_Sea_Pattern_Large,5.0,5.0,1.0,0.9395730829564856,,,,,,,,
encoding,fixation,3,17324105,17325110,17324342.0,17325289.0,948.0,768.0,1917.0,1175.3,1920.0,700.0,Animal_Sea_Solid_Large,30.022171541000716,31.027514875051565,1.0,Object_Land_Solid_Small,-2.0,,,,,,,,,,,
encoding,image,3,17325110,17326121,17325323.0,17325623.0,301.0,301.0,1591.1,1015.9000000000001,1591.0,1269.0,Object_Land_Solid_Small,31.027727582957596,32.03854241594672,1.0,Object_Land_Solid_Small,-2.0,,,,,,,,,,,
encoding,image,3,17325110,17326121,17325822.0,17325850.0,29.0,29.0,1618.3,1100.1,1591.0,891.0,Animal_Sea_Pattern_Large,31.027727582957596,32.03854241594672,1.0,Object_Land_Solid_Small,-2.0,,,,,,,,,,,
encoding,image,3,17325110,17326121,17325870.0,17325892.0,23.0,23.0,1586.0,1083.5,1591.0,891.0,Animal_Sea_Pattern_Large,31.027727582957596,32.03854241594672,1.0,Object_Land_Solid_Small,-2.0,,,,,,,,,,,
encoding,image,3,17325110,17326121,17325902.0,17326054.0,153.0,153.0,1593.1,1024.9,1591.0,1269.0,Object_Land_Solid_Small,31.027727582957596,32.03854241594672,1.0,Object_Land_Solid_Small,-2.0,,,,,,,,,,,
encoding,value,3,17326121,17332134,17326289.0,17326555.0,267.0,267.0,1590.4,1035.3,1591.0,1269.0,Object_Land_Solid_Small,32.03868383297231,38.050964958034456,1.0,Object_Land_Solid_Small,-2.0,,,,,,,,,,,
encoding,value,3,17326121,17332134,17326861.0,17326869.0,9.0,9.0,1657.3,1145.6,1591.0,891.0,Animal_Sea_Pattern_Large,32.03868383297231,38.050964958034456,1.0,Object_Land_Solid_Small,-2.0,,,,,,,,,,,
encoding,value,3,17326121,17332134,17326889.0,17327028.0,140.0,140.0,1662.2,1015.9000000000001,1591.0,1269.0,Object_Land_Solid_Small,32.03868383297231,38.050964958034456,1.0,Object_Land_Solid_Small,-2.0,,,,,,,,,,,
encoding,value,3,17326121,17332134,17327046.0,17330288.0,3243.0,3243.0,1590.9,970.5999999999999,1591.0,1269.0,Object_Land_Solid_Small,32.03868383297231,38.050964958034456,1.0,Object_Land_Solid_Small,-2.0,,,,,,,,,,,
encoding,value,3,17326121,17332134,17330302.0,17330343.0,42.0,42.0,1573.2,1038.7,1591.0,1269.0,Object_Land_Solid_Small,32.03868383297231,38.050964958034456,1.0,Object_Land_Solid_Small,-2.0,,,,,,,,,,,
encoding,value,3,17326121,17332134,17330353.0,17330741.0,389.0,389.0,1580.9,965.3,1591.0,1269.0,Object_Land_Solid_Small,32.03868383297231,38.050964958034456,1.0,Object_Land_Solid_Small,-2.0,,,,,,,,,,,
encoding,value,3,17326121,17332134,17330916.0,17330945.0,30.0,30.0,1566.1,1032.1,1591.0,1269.0,Object_Land_Solid_Small,32.03868383297231,38.050964958034456,1.0,Object_Land_Solid_Small,-2.0,,,,,,,,,,,
encoding,value,3,17326121,17332134,17330955.0,17331880.0,926.0,926.0,1578.1,961.7,1591.0,1269.0,Object_Land_Solid_Small,32.03868383297231,38.050964958034456,1.0,Object_Land_Solid_Small,-2.0,,,,,,,,,,,
encoding,value,3,17326121,17332134,17332028.0,17332059.0,32.0,32.0,1578.3,1051.7,1591.0,1269.0,Object_Land_Solid_Small,32.03868383297231,38.050964958034456,1.0,Object_Land_Solid_Small,-2.0,,,,,,,,,,,
encoding,value,3,17326121,17332134,17332085.0,17332203.0,119.0,49.0,1575.3,977.9000000000001,1591.0,1269.0,Object_Land_Solid_Small,32.03868383297231,38.050964958034456,1.0,Object_Land_Solid_Small,-2.0,,,,,,,,,,,
encoding,attention,3,17332134,17335153,17332395.0,17332435.0,41.0,41.0,1611.6,1055.1,1591.0,1269.0,Object_Land_Solid_Small,38.051093250047415,41.06964079104364,1.0,Object_Land_Solid_Small,-2.0,-2.0,1.0,2.021748667000793,,,,,,,,
encoding,attention,3,17332134,17335153,17332454.0,17332483.0,30.0,30.0,1592.2,1021.9000000000001,1591.0,1269.0,Object_Land_Solid_Small,38.051093250047415,41.06964079104364,1.0,Object_Land_Solid_Small,-2.0,-2.0,1.0,2.021748667000793,,,,,,,,
encoding,attention,3,17332134,17335153,17332490.0,17333556.0,1067.0,1067.0,1632.5,951.2,1591.0,1269.0,Object_Land_Solid_Small,38.051093250047415,41.06964079104364,1.0,Object_Land_Solid_Small,-2.0,-2.0,1.0,2.021748667000793,,,,,,,,
encoding,attention,3,17332134,17335153,17333807.0,17333861.0,55.0,55.0,1740.7,1001.9000000000001,1591.0,1269.0,Object_Land_Solid_Small,38.051093250047415,41.06964079104364,1.0,Object_Land_Solid_Small,-2.0,-2.0,1.0,2.021748667000793,,,,,,,,
encoding,attention,3,17332134,17335153,17333881.0,17333956.0,76.0,76.0,1749.5,883.8,1591.0,1269.0,Object_Land_Solid_Small,38.051093250047415,41.06964079104364,1.0,Object_Land_Solid_Small,-2.0,-2.0,1.0,2.021748667000793,,,,,,,,
encoding,attention,3,17332134,17335153,17333978.0,17334396.0,419.0,419.0,1635.4,945.5999999999999,1591.0,1269.0,Object_Land_Solid_Small,38.051093250047415,41.06964079104364,1.0,Object_Land_Solid_Small,-2.0,-2.0,1.0,2.021748667000793,,,,,,,,
encoding,attention,3,17332134,17335153,17334741.0,17334769.0,29.0,29.0,1575.5,1121.1,1591.0,891.0,Animal_Sea_Pattern_Large,38.051093250047415,41.06964079104364,1.0,Object_Land_Solid_Small,-2.0,-2.0,1.0,2.021748667000793,,,,,,,,
encoding,attention,3,17332134,17335153,17334788.0,17334878.0,91.0,91.0,1589.3,1047.9,1591.0,1269.0,Object_Land_Solid_Small,38.051093250047415,41.06964079104364,1.0,Object_Land_Solid_Small,-2.0,-2.0,1.0,2.021748667000793,,,,,,,,
encoding,fixation,4,17335153,17335908,17335209.0,17335253.0,45.0,45.0,1841.9,987.4000000000001,1591.0,1269.0,Object_Land_Solid_Small,41.06978733302094,41.824674915988,1.0,Animal_Land_Solid_Large,-1.0,,,,,,,,,,,
encoding,fixation,4,17335153,17335908,17335273.0,17335417.0,145.0,145.0,1892.0,898.0,1920.0,1460.0,Object_Sea_Pattern_Small,41.06978733302094,41.824674915988,1.0,Animal_Land_Solid_Large,-1.0,,,,,,,,,,,
encoding,fixation,4,17335153,17335908,17335456.0,17335580.0,125.0,125.0,1605.5,1155.8,1591.0,891.0,Animal_Sea_Pattern_Large,41.06978733302094,41.824674915988,1.0,Animal_Land_Solid_Large,-1.0,,,,,,,,,,,
encoding,fixation,4,17335153,17335908,17335601.0,17336151.0,551.0,307.0,1555.6,1318.6,1591.0,891.0,Animal_Sea_Pattern_Large,41.06978733302094,41.824674915988,1.0,Animal_Land_Solid_Large,-1.0,,,,,,,,,,,
encoding,image,4,17335908,17336920,17336200.0,17336824.0,625.0,625.0,2232.2,1011.2,2249.0,1269.0,Animal_Land_Solid_Large,41.82478374999482,42.83629141596611,1.0,Animal_Land_Solid_Large,-1.0,,,,,,,,,,,
encoding,image,4,17335908,17336920,17336833.0,17337308.0,476.0,87.0,2250.4,932.4000000000001,2249.0,1269.0,Animal_Land_Solid_Large,41.82478374999482,42.83629141596611,1.0,Animal_Land_Solid_Large,-1.0,,,,,,,,,,,
encoding,value,4,17336920,17342933,17337729.0,17337835.0,107.0,107.0,2152.6,1160.0,2249.0,891.0,Object_Land_Pattern_Small,42.83640616596677,48.84934420802165,1.0,Animal_Land_Solid_Large,-1.0,,,,,,,,,,,
encoding,value,4,17336920,17342933,17338261.0,17338291.0,31.0,31.0,2122.8,1487.8,1920.0,700.0,Animal_Sea_Solid_Large,42.83640616596677,48.84934420802165,1.0,Animal_Land_Solid_Large,-1.0,,,,,,,,,,,
encoding,value,4,17336920,17342933,17338493.0,17340706.0,2214.0,2214.0,2198.3,1199.9,2249.0,891.0,Object_Land_Pattern_Small,42.83640616596677,48.84934420802165,1.0,Animal_Land_Solid_Large,-1.0,,,,,,,,,,,
encoding,value,4,17336920,17342933,17340927.0,17341390.0,464.0,464.0,2219.5,1253.5,2249.0,891.0,Object_Land_Pattern_Small,42.83640616596677,48.84934420802165,1.0,Animal_Land_Solid_Large,-1.0,,,,,,,,,,,
encoding,value,4,17336920,17342933,17341527.0,17341549.0,23.0,23.0,2224.8,1258.1,2249.0,891.0,Object_Land_Pattern_Small,42.83640616596677,48.84934420802165,1.0,Animal_Land_Solid_Large,-1.0,,,,,,,,,,,
encoding,attention,4,17342933,17345951,,,,,,,,,none,48.84944508294575,51.86765308293979,1.0,Animal_Land_Solid_Large,-1.0,-1.0,1.0,1.5794632920296865,,,,,,,,
encoding,fixation,5,17345951,17347207,,,,,,,,,none,51.86787358298898,53.12284795800224,1.0,Object_Land_Pattern_Small,8.0,,,,,,,,,,,
encoding,image,5,17347207,17348219,17347431.0,17347599.0,169.0,169.0,2265.1,1302.6,2249.0,891.0,Object_Land_Pattern_Small,53.122950957971625,54.13494545803405,1.0,Object_Land_Pattern_Small,8.0,,,,,,,,,,,
encoding,image,5,17347207,17348219,17347875.0,17348335.0,461.0,344.0,2150.4,1288.2,2249.0,891.0,Object_Land_Pattern_Small,53.122950957971625,54.13494545803405,1.0,Object_Land_Pattern_Small,8.0,,,,,,,,,,,
encoding,value,5,17348219,17354230,17348357.0,17348493.0,137.0,137.0,2215.5,1198.5,2249.0,891.0,Object_Land_Pattern_Small,54.13505016604904,60.14639550005086,1.0,Object_Land_Pattern_Small,8.0,,,,,,,,,,,
encoding,value,5,17348219,17354230,17349425.0,17349763.0,339.0,339.0,1833.8,1407.4,1920.0,700.0,Animal_Sea_Solid_Large,54.13505016604904,60.14639550005086,1.0,Object_Land_Pattern_Small,8.0,,,,,,,,,,,
encoding,value,5,17348219,17354230,17349807.0,17350099.0,293.0,293.0,2232.2,1318.5,2249.0,891.0,Object_Land_Pattern_Small,54.13505016604904,60.14639550005086,1.0,Object_Land_Pattern_Small,8.0,,,,,,,,,,,
encoding,value,5,17348219,17354230,17350111.0,17350320.0,210.0,210.0,2210.2,1241.7,2249.0,891.0,Object_Land_Pattern_Small,54.13505016604904,60.14639550005086,1.0,Object_Land_Pattern_Small,8.0,,,,,,,,,,,
encoding,value,5,17348219,17354230,17350681.0,17350980.0,300.0,300.0,2232.5,1273.3,2249.0,891.0,Object_Land_Pattern_Small,54.13505016604904,60.14639550005086,1.0,Object_Land_Pattern_Small,8.0,,,,,,,,,,,
encoding,value,5,17348219,17354230,17351008.0,17351205.0,198.0,198.0,2108.1,1139.9,2249.0,891.0,Object_Land_Pattern_Small,54.13505016604904,60.14639550005086,1.0,Object_Land_Pattern_Small,8.0,,,,,,,,,,,
encoding,value,5,17348219,17354230,17351236.0,17351454.0,219.0,219.0,2240.1,1243.8,2249.0,891.0,Object_Land_Pattern_Small,54.13505016604904,60.14639550005086,1.0,Object_Land_Pattern_Small,8.0,,,,,,,,,,,
encoding,value,5,17348219,17354230,17351669.0,17351691.0,23.0,23.0,2070.7,1167.0,2249.0,891.0,Object_Land_Pattern_Small,54.13505016604904,60.14639550005086,1.0,Object_Land_Pattern_Small,8.0,,,,,,,,,,,
encoding,value,5,17348219,17354230,17351865.0,17351930.0,66.0,66.0,1859.5,939.3,1920.0,1460.0,Object_Sea_Pattern_Small,54.13505016604904,60.14639550005086,1.0,Object_Land_Pattern_Small,8.0,,,,,,,,,,,
encoding,value,5,17348219,17354230,17351985.0,17352223.0,239.0,239.0,2226.4,1258.5,2249.0,891.0,Object_Land_Pattern_Small,54.13505016604904,60.14639550005086,1.0,Object_Land_Pattern_Small,8.0,,,,,,,,,,,
encoding,value,5,17348219,17354230,17352280.0,17352565.0,286.0,286.0,1981.3,891.8,1920.0,1460.0,Object_Sea_Pattern_Small,54.13505016604904,60.14639550005086,1.0,Object_Land_Pattern_Small,8.0,,,,,,,,,,,
encoding,value,5,17348219,17354230,17352586.0,17352723.0,138.0,138.0,1915.2,905.9000000000001,1920.0,1460.0,Object_Sea_Pattern_Small,54.13505016604904,60.14639550005086,1.0,Object_Land_Pattern_Small,8.0,,,,,,,,,,,
encoding,value,5,17348219,17354230,17352772.0,17353763.0,992.0,992.0,2217.9,1247.6,2249.0,891.0,Object_Land_Pattern_Small,54.13505016604904,60.14639550005086,1.0,Object_Land_Pattern_Small,8.0,,,,,,,,,,,
encoding,value,5,17348219,17354230,17353783.0,17353847.0,65.0,65.0,2113.5,1269.8,2249.0,891.0,Object_Land_Pattern_Small,54.13505016604904,60.14639550005086,1.0,Object_Land_Pattern_Small,8.0,,,,,,,,,,,
encoding,value,5,17348219,17354230,17354058.0,17354557.0,500.0,172.0,2182.0,1233.7,2249.0,891.0,Object_Land_Pattern_Small,54.13505016604904,60.14639550005086,1.0,Object_Land_Pattern_Small,8.0,,,,,,,,,,,
encoding,attention,5,17354230,17357285,17354565.0,17354746.0,182.0,182.0,2254.8,1236.1,2249.0,891.0,Object_Land_Pattern_Small,60.14662158302963,63.20099516597111,1.0,Object_Land_Pattern_Small,8.0,8.0,1.0,1.709352832986042,,,,,,,,
encoding,attention,5,17354230,17357285,17354764.0,17356182.0,1419.0,1419.0,2167.5,1259.9,2249.0,891.0,Object_Land_Pattern_Small,60.14662158302963,63.20099516597111,1.0,Object_Land_Pattern_Small,8.0,8.0,1.0,1.709352832986042,,,,,,,,
encoding,attention,5,17354230,17357285,17356549.0,17356641.0,93.0,93.0,1232.4,1325.2,,,none,60.14662158302963,63.20099516597111,1.0,Object_Land_Pattern_Small,8.0,8.0,1.0,1.709352832986042,,,,,,,,
encoding,attention,5,17354230,17357285,17356690.0,17357139.0,450.0,450.0,1967.1,1288.0,1920.0,700.0,Animal_Sea_Solid_Large,60.14662158302963,63.20099516597111,1.0,Object_Land_Pattern_Small,8.0,8.0,1.0,1.709352832986042,,,,,,,,
encoding,fixation,6,17357285,17358040,17357426.0,17357689.0,264.0,264.0,2153.0,1237.6,2249.0,891.0,Object_Land_Pattern_Small,63.20114675001241,63.956126083037816,1.0,Animal_Sea_Solid_Large,2.0,,,,,,,,,,,
encoding,fixation,6,17357285,17358040,17357996.0,17358234.0,239.0,44.0,1986.6,1362.1,1920.0,700.0,Animal_Sea_Solid_Large,63.20114675001241,63.956126083037816,1.0,Animal_Sea_Solid_Large,2.0,,,,,,,,,,,
encoding,image,6,17358040,17359052,17358259.0,17359218.0,960.0,793.0,1890.6,1503.3,1920.0,700.0,Animal_Sea_Solid_Large,63.956296500051394,64.96798666601535,1.0,Animal_Sea_Solid_Large,2.0,,,,,,,,,,,
encoding,value,6,17359052,17365064,17359239.0,17359554.0,316.0,316.0,1889.9,1433.4,1920.0,700.0,Animal_Sea_Solid_Large,64.96808791602962,70.97939899994526,1.0,Animal_Sea_Solid_Large,2.0,,,,,,,,,,,
encoding,value,6,17359052,17365064,17359843.0,17360029.0,187.0,187.0,1892.1,1461.3,1920.0,700.0,Animal_Sea_Solid_Large,64.96808791602962,70.97939899994526,1.0,Animal_Sea_Solid_Large,2.0,,,,,,,,,,,
encoding,value,6,17359052,17365064,17360397.0,17360967.0,571.0,571.0,1898.9,1402.9,1920.0,700.0,Animal_Sea_Solid_Large,64.96808791602962,70.97939899994526,1.0,Animal_Sea_Solid_Large,2.0,,,,,,,,,,,
encoding,value,6,17359052,17365064,17360992.0,17361051.0,60.0,60.0,1847.9,1392.8,1920.0,700.0,Animal_Sea_Solid_Large,64.96808791602962,70.97939899994526,1.0,Animal_Sea_Solid_Large,2.0,,,,,,,,,,,
encoding,value,6,17359052,17365064,17361281.0,17361679.0,399.0,399.0,1894.8,1434.4,1920.0,700.0,Animal_Sea_Solid_Large,64.96808791602962,70.97939899994526,1.0,Animal_Sea_Solid_Large,2.0,,,,,,,,,,,
encoding,value,6,17359052,17365064,17361861.0,17362373.0,513.0,513.0,1849.9,1438.4,1920.0,700.0,Animal_Sea_Solid_Large,64.96808791602962,70.97939899994526,1.0,Animal_Sea_Solid_Large,2.0,,,,,,,,,,,
encoding,value,6,17359052,17365064,17362407.0,17362950.0,544.0,544.0,1920.0,1299.0,1920.0,700.0,Animal_Sea_Solid_Large,64.96808791602962,70.97939899994526,1.0,Animal_Sea_Solid_Large,2.0,,,,,,,,,,,
encoding,value,6,17359052,17365064,17362963.0,17363367.0,405.0,405.0,1906.4,1230.1,1920.0,700.0,Animal_Sea_Solid_Large,64.96808791602962,70.97939899994526,1.0,Animal_Sea_Solid_Large,2.0,,,,,,,,,,,
encoding,value,6,17359052,17365064,17363388.0,17363585.0,198.0,198.0,1882.5,1272.8,1920.0,700.0,Animal_Sea_Solid_Large,64.96808791602962,70.97939899994526,1.0,Animal_Sea_Solid_Large,2.0,,,,,,,,,,,
encoding,value,6,17359052,17365064,17363620.0,17363819.0,200.0,200.0,1912.1,1494.1,1920.0,700.0,Animal_Sea_Solid_Large,64.96808791602962,70.97939899994526,1.0,Animal_Sea_Solid_Large,2.0,,,,,,,,,,,
encoding,value,6,17359052,17365064,17363831.0,17365334.0,1504.0,1233.0,1906.7,1441.6,1920.0,700.0,Animal_Sea_Solid_Large,64.96808791602962,70.97939899994526,1.0,Animal_Sea_Solid_Large,2.0,,,,,,,,,,,
encoding,attention,6,17365064,17368081,17365774.0,17366830.0,1057.0,1057.0,1863.2,1415.6,1920.0,700.0,Animal_Sea_Solid_Large,70.97954404097982,73.99632054101676,1.0,Animal_Sea_Solid_Large,2.0,2.0,1.0,2.9467844169121236,,,,,,,,
encoding,attention,6,17365064,17368081,17366851.0,17367135.0,285.0,285.0,1908.2,1325.7,1920.0,700.0,Animal_Sea_Solid_Large,70.97954404097982,73.99632054101676,1.0,Animal_Sea_Solid_Large,2.0,2.0,1.0,2.9467844169121236,,,,,,,,
encoding,attention,6,17365064,17368081,17367156.0,17367747.0,592.0,592.0,1929.7,1220.2,1920.0,700.0,Animal_Sea_Solid_Large,70.97954404097982,73.99632054101676,1.0,Animal_Sea_Solid_Large,2.0,2.0,1.0,2.9467844169121236,,,,,,,,
encoding,fixation,7,17813491,17814497,17813707.0,17813830.0,124.0,124.0,1941.0,1175.9,1920.0,700.0,Object_Land_Pattern_Large,13.71226833295077,14.717813999974169,2.0,Object_Land_Pattern_Large,-6.0,,,,,,,,,,,
encoding,fixation,7,17813491,17814497,17814158.0,17814381.0,224.0,224.0,1941.3,1253.3,1920.0,700.0,Object_Land_Pattern_Large,13.71226833295077,14.717813999974169,2.0,Object_Land_Pattern_Large,-6.0,,,,,,,,,,,
encoding,image,7,17814497,17815509,17814570.0,17814739.0,170.0,170.0,1930.3,1273.7,1920.0,700.0,Object_Land_Pattern_Large,14.717957624932753,15.730905500007792,2.0,Object_Land_Pattern_Large,-6.0,,,,,,,,,,,
encoding,image,7,17814497,17815509,17814769.0,17815104.0,336.0,336.0,1915.3,1540.1,1920.0,700.0,Object_Land_Pattern_Large,14.717957624932753,15.730905500007792,2.0,Object_Land_Pattern_Large,-6.0,,,,,,,,,,,
encoding,image,7,17814497,17815509,17815118.0,17815697.0,580.0,391.0,1924.2,1495.7,1920.0,700.0,Object_Land_Pattern_Large,14.717957624932753,15.730905500007792,2.0,Object_Land_Pattern_Large,-6.0,,,,,,,,,,,
encoding,value,7,17815510,17821524,17815710.0,17816131.0,422.0,422.0,1903.6,1441.7,1920.0,700.0,Object_Land_Pattern_Large,15.73101649992168,21.745019000023603,2.0,Object_Land_Pattern_Large,-6.0,,,,,,,,,,,
encoding,value,7,17815510,17821524,17816261.0,17816454.0,194.0,194.0,1895.9,1449.1,1920.0,700.0,Object_Land_Pattern_Large,15.73101649992168,21.745019000023603,2.0,Object_Land_Pattern_Large,-6.0,,,,,,,,,,,
encoding,value,7,17815510,17821524,17816673.0,17817209.0,537.0,537.0,1886.5,1413.8,1920.0,700.0,Object_Land_Pattern_Large,15.73101649992168,21.745019000023603,2.0,Object_Land_Pattern_Large,-6.0,,,,,,,,,,,
encoding,value,7,17815510,17821524,17817228.0,17818777.0,1550.0,1550.0,1908.7,1503.4,1920.0,700.0,Object_Land_Pattern_Large,15.73101649992168,21.745019000023603,2.0,Object_Land_Pattern_Large,-6.0,,,,,,,,,,,
encoding,value,7,17815510,17821524,17818911.0,17819135.0,225.0,225.0,1897.3,1495.7,1920.0,700.0,Object_Land_Pattern_Large,15.73101649992168,21.745019000023603,2.0,Object_Land_Pattern_Large,-6.0,,,,,,,,,,,
encoding,value,7,17815510,17821524,17819328.0,17820124.0,797.0,797.0,1906.8,1507.6,1920.0,700.0,Object_Land_Pattern_Large,15.73101649992168,21.745019000023603,2.0,Object_Land_Pattern_Large,-6.0,,,,,,,,,,,
encoding,value,7,17815510,17821524,17820132.0,17821743.0,1612.0,1392.0,1911.8,1525.0,1920.0,700.0,Object_Land_Pattern_Large,15.73101649992168,21.745019000023603,2.0,Object_Land_Pattern_Large,-6.0,,,,,,,,,,,
encoding,attention,7,17821524,17824542,17821760.0,17821934.0,175.0,175.0,1925.9,1441.6,1920.0,700.0,Object_Land_Pattern_Large,21.745120499981567,24.76352404092904,2.0,Object_Land_Pattern_Large,-6.0,-6.0,1.0,1.1861623330041766,,,,,,,,
encoding,attention,7,17821524,17824542,17821944.0,17822158.0,215.0,215.0,1877.4,1433.9,1920.0,700.0,Object_Land_Pattern_Large,21.745120499981567,24.76352404092904,2.0,Object_Land_Pattern_Large,-6.0,-6.0,1.0,1.1861623330041766,,,,,,,,
encoding,attention,7,17821524,17824542,17822168.0,17822956.0,789.0,789.0,1942.5,1436.5,1920.0,700.0,Object_Land_Pattern_Large,21.745120499981567,24.76352404092904,2.0,Object_Land_Pattern_Large,-6.0,-6.0,1.0,1.1861623330041766,,,,,,,,
encoding,attention,7,17821524,17824542,17823175.0,17823451.0,277.0,277.0,1924.0,1497.8,1920.0,700.0,Object_Land_Pattern_Large,21.745120499981567,24.76352404092904,2.0,Object_Land_Pattern_Large,-6.0,-6.0,1.0,1.1861623330041766,,,,,,,,
encoding,attention,7,17821524,17824542,17823459.0,17824088.0,630.0,630.0,1919.2,1506.4,1920.0,700.0,Object_Land_Pattern_Large,21.745120499981567,24.76352404092904,2.0,Object_Land_Pattern_Large,-6.0,-6.0,1.0,1.1861623330041766,,,,,,,,
encoding,attention,7,17821524,17824542,17824379.0,17824497.0,119.0,119.0,1915.8,1099.5,1920.0,1080.0,fixation,21.745120499981567,24.76352404092904,2.0,Object_Land_Pattern_Large,-6.0,-6.0,1.0,1.1861623330041766,,,,,,,,
encoding,fixation,8,17824543,17825548,17825243.0,17825484.0,242.0,242.0,1859.3,1251.2,1920.0,700.0,Object_Land_Pattern_Large,24.763670332962647,25.76897424994968,2.0,Object_Land_Solid_Large,-7.0,,,,,,,,,,,
encoding,fixation,8,17824543,17825548,17825507.0,17826812.0,1306.0,41.0,1893.5,1148.5,1920.0,700.0,Object_Land_Pattern_Large,24.763670332962647,25.76897424994968,2.0,Object_Land_Solid_Large,-7.0,,,,,,,,,,,
encoding,image,8,17825548,17826558,,,,,,,,,none,25.76907670800574,26.77864487492479,2.0,Object_Land_Solid_Large,-7.0,,,,,,,,,,,
encoding,value,8,17826558,17832569,17826850.0,17827099.0,250.0,250.0,1893.0,805.2,1920.0,1460.0,Object_Land_Solid_Large,26.778782333014533,32.78965874994174,2.0,Object_Land_Solid_Large,-7.0,,,,,,,,,,,
encoding,value,8,17826558,17832569,17827110.0,17827177.0,68.0,68.0,1860.1,836.3,1920.0,1460.0,Object_Land_Solid_Large,26.778782333014533,32.78965874994174,2.0,Object_Land_Solid_Large,-7.0,,,,,,,,,,,
encoding,value,8,17826558,17832569,17827387.0,17827445.0,59.0,59.0,1863.2,913.0,1920.0,1460.0,Object_Land_Solid_Large,26.778782333014533,32.78965874994174,2.0,Object_Land_Solid_Large,-7.0,,,,,,,,,,,
encoding,value,8,17826558,17832569,17827464.0,17827705.0,242.0,242.0,1890.7,818.4000000000001,1920.0,1460.0,Object_Land_Solid_Large,26.778782333014533,32.78965874994174,2.0,Object_Land_Solid_Large,-7.0,,,,,,,,,,,
encoding,value,8,17826558,17832569,17827995.0,17828055.0,61.0,61.0,1863.9,969.9000000000001,1920.0,1460.0,Object_Land_Solid_Large,26.778782333014533,32.78965874994174,2.0,Object_Land_Solid_Large,-7.0,,,,,,,,,,,
encoding,value,8,17826558,17832569,17828072.0,17828515.0,444.0,444.0,1905.1,869.9000000000001,1920.0,1460.0,Object_Land_Solid_Large,26.778782333014533,32.78965874994174,2.0,Object_Land_Solid_Large,-7.0,,,,,,,,,,,
encoding,value,8,17826558,17832569,17828538.0,17828689.0,152.0,152.0,1880.8,723.4000000000001,1920.0,1460.0,Object_Land_Solid_Large,26.778782333014533,32.78965874994174,2.0,Object_Land_Solid_Large,-7.0,,,,,,,,,,,
encoding,value,8,17826558,17832569,17828700.0,17830683.0,1984.0,1984.0,1890.7,767.3,1920.0,1460.0,Object_Land_Solid_Large,26.778782333014533,32.78965874994174,2.0,Object_Land_Solid_Large,-7.0,,,,,,,,,,,
encoding,value,8,17826558,17832569,17830812.0,17830874.0,63.0,63.0,1861.2,856.0,1920.0,1460.0,Object_Land_Solid_Large,26.778782333014533,32.78965874994174,2.0,Object_Land_Solid_Large,-7.0,,,,,,,,,,,
encoding,value,8,17826558,17832569,17830899.0,17833397.0,2499.0,1670.0,1885.1,765.5,1920.0,1460.0,Object_Land_Solid_Large,26.778782333014533,32.78965874994174,2.0,Object_Land_Solid_Large,-7.0,,,,,,,,,,,
encoding,attention,8,17832569,17835586,17833417.0,17833635.0,219.0,219.0,1890.8,840.0,1920.0,1460.0,Object_Land_Solid_Large,32.78979912493378,35.80635899992194,2.0,Object_Land_Solid_Large,-7.0,-7.0,1.0,1.877564207999967,,,,,,,,
encoding,attention,8,17832569,17835586,17833863.0,17833938.0,76.0,76.0,1855.6,941.0999999999999,1920.0,1460.0,Object_Land_Solid_Large,32.78979912493378,35.80635899992194,2.0,Object_Land_Solid_Large,-7.0,-7.0,1.0,1.877564207999967,,,,,,,,
encoding,attention,8,17832569,17835586,17833958.0,17834746.0,789.0,789.0,1905.4,852.4000000000001,1920.0,1460.0,Object_Land_Solid_Large,32.78979912493378,35.80635899992194,2.0,Object_Land_Solid_Large,-7.0,-7.0,1.0,1.877564207999967,,,,,,,,
encoding,attention,8,17832569,17835586,17834957.0,17835024.0,68.0,68.0,1876.7,966.4000000000001,1920.0,1460.0,Object_Land_Solid_Large,32.78979912493378,35.80635899992194,2.0,Object_Land_Solid_Large,-7.0,-7.0,1.0,1.877564207999967,,,,,,,,
encoding,attention,8,17832569,17835586,17835053.0,17835258.0,206.0,206.0,1917.9,902.0,1920.0,1460.0,Object_Land_Solid_Large,32.78979912493378,35.80635899992194,2.0,Object_Land_Solid_Large,-7.0,-7.0,1.0,1.877564207999967,,,,,,,,
encoding,fixation,9,17835586,17836341,17835664.0,17835747.0,84.0,84.0,1908.7,1010.7,1920.0,1460.0,Object_Land_Solid_Large,35.80651525000576,36.561688791029155,2.0,Animal_Land_Pattern_Large,7.0,,,,,,,,,,,
encoding,fixation,9,17835586,17836341,17835767.0,17835895.0,129.0,129.0,1935.1,972.0,1920.0,1460.0,Object_Land_Solid_Large,35.80651525000576,36.561688791029155,2.0,Animal_Land_Pattern_Large,7.0,,,,,,,,,,,
encoding,fixation,9,17835586,17836341,17835914.0,17835940.0,27.0,27.0,1926.8,1127.7,1920.0,1080.0,fixation,35.80651525000576,36.561688791029155,2.0,Animal_Land_Pattern_Large,7.0,,,,,,,,,,,
encoding,fixation,9,17835586,17836341,17836215.0,17836516.0,302.0,126.0,1903.7,1228.6,1920.0,700.0,Object_Land_Pattern_Large,35.80651525000576,36.561688791029155,2.0,Animal_Land_Pattern_Large,7.0,,,,,,,,,,,
encoding,image,9,17836341,17837353,17836544.0,17836787.0,244.0,244.0,1631.7,1334.0,1591.0,891.0,Animal_Land_Pattern_Large,36.561869582976215,37.57315616600681,2.0,Animal_Land_Pattern_Large,7.0,,,,,,,,,,,
encoding,image,9,17836341,17837353,17836797.0,17837544.0,748.0,556.0,1596.3,1340.3,1591.0,891.0,Animal_Land_Pattern_Large,36.561869582976215,37.57315616600681,2.0,Animal_Land_Pattern_Large,7.0,,,,,,,,,,,
encoding,value,9,17837353,17843364,17837566.0,17837814.0,249.0,249.0,1643.2,1216.5,1591.0,891.0,Animal_Land_Pattern_Large,37.57327183301095,43.58428025001194,2.0,Animal_Land_Pattern_Large,7.0,,,,,,,,,,,
encoding,value,9,17837353,17843364,17838508.0,17838636.0,129.0,129.0,1616.5,1297.9,1591.0,891.0,Animal_Land_Pattern_Large,37.57327183301095,43.58428025001194,2.0,Animal_Land_Pattern_Large,7.0,,,,,,,,,,,
encoding,value,9,17837353,17843364,17838659.0,17838988.0,330.0,330.0,1828.3,1312.3,1920.0,700.0,Object_Land_Pattern_Large,37.57327183301095,43.58428025001194,2.0,Animal_Land_Pattern_Large,7.0,,,,,,,,,,,
encoding,value,9,17837353,17843364,17839023.0,17840612.0,1590.0,1590.0,1627.0,1266.6,1591.0,891.0,Animal_Land_Pattern_Large,37.57327183301095,43.58428025001194,2.0,Animal_Land_Pattern_Large,7.0,,,,,,,,,,,
encoding,value,9,17837353,17843364,17840733.0,17843268.0,2536.0,2536.0,1643.0,1272.0,1591.0,891.0,Animal_Land_Pattern_Large,37.57327183301095,43.58428025001194,2.0,Animal_Land_Pattern_Large,7.0,,,,,,,,,,,
encoding,attention,9,17843364,17846381,17843433.0,17843873.0,441.0,441.0,1637.8,1249.6,1591.0,891.0,Animal_Land_Pattern_Large,43.58438945794478,46.60117091599386,2.0,Animal_Land_Pattern_Large,7.0,7.0,1.0,2.5471622499171644,,,,,,,,
encoding,attention,9,17843364,17846381,17844114.0,17844517.0,404.0,404.0,1731.1,1366.0,1591.0,891.0,Animal_Land_Pattern_Large,43.58438945794478,46.60117091599386,2.0,Animal_Land_Pattern_Large,7.0,7.0,1.0,2.5471622499171644,,,,,,,,
encoding,attention,9,17843364,17846381,17844548.0,17844717.0,170.0,170.0,2046.8,1424.9,1920.0,700.0,Object_Land_Pattern_Large,43.58438945794478,46.60117091599386,2.0,Animal_Land_Pattern_Large,7.0,7.0,1.0,2.5471622499171644,,,,,,,,
encoding,attention,9,17843364,17846381,17845154.0,17845188.0,35.0,35.0,1579.7,1356.8,1591.0,891.0,Animal_Land_Pattern_Large,43.58438945794478,46.60117091599386,2.0,Animal_Land_Pattern_Large,7.0,7.0,1.0,2.5471622499171644,,,,,,,,
encoding,fixation,10,17846381,17846886,,,,,,,,,none,46.601369082927704,47.106476124958135,2.0,Animal_Sea_Solid_Small,1.0,,,,,,,,,,,
encoding,image,10,17846887,17847897,17847099.0,17847144.0,46.0,46.0,1823.1,1385.4,1920.0,700.0,Object_Land_Pattern_Large,47.106578166014515,48.116539540933445,2.0,Animal_Sea_Solid_Small,1.0,,,,,,,,,,,
encoding,image,10,17846887,17847897,17847164.0,17847273.0,110.0,110.0,1880.7,1305.7,1920.0,700.0,Object_Land_Pattern_Large,47.106578166014515,48.116539540933445,2.0,Animal_Sea_Solid_Small,1.0,,,,,,,,,,,
encoding,image,10,17846887,17847897,17847300.0,17847675.0,376.0,376.0,2237.1,1308.2,2249.0,891.0,Animal_Sea_Solid_Small,47.106578166014515,48.116539540933445,2.0,Animal_Sea_Solid_Small,1.0,,,,,,,,,,,
encoding,image,10,17846887,17847897,17847707.0,17847734.0,28.0,28.0,1959.4,1369.9,1920.0,700.0,Object_Land_Pattern_Large,47.106578166014515,48.116539540933445,2.0,Animal_Sea_Solid_Small,1.0,,,,,,,,,,,
encoding,value,10,17847897,17853908,17848191.0,17848377.0,187.0,187.0,1936.7,1380.9,1920.0,700.0,Object_Land_Pattern_Large,48.11667341599241,54.12785283301491,2.0,Animal_Sea_Solid_Small,1.0,,,,,,,,,,,
encoding,value,10,17847897,17853908,17848569.0,17849289.0,721.0,721.0,1899.2,1437.7,1920.0,700.0,Object_Land_Pattern_Large,48.11667341599241,54.12785283301491,2.0,Animal_Sea_Solid_Small,1.0,,,,,,,,,,,
encoding,value,10,17847897,17853908,17849316.0,17849491.0,176.0,176.0,1986.9,1190.4,2249.0,891.0,Animal_Sea_Solid_Small,48.11667341599241,54.12785283301491,2.0,Animal_Sea_Solid_Small,1.0,,,,,,,,,,,
encoding,value,10,17847897,17853908,17849513.0,17849856.0,344.0,344.0,1931.5,1019.3,1920.0,1080.0,fixation,48.11667341599241,54.12785283301491,2.0,Animal_Sea_Solid_Small,1.0,,,,,,,,,,,
encoding,value,10,17847897,17853908,17849876.0,17850357.0,482.0,482.0,1946.8,850.7,1920.0,1460.0,Object_Land_Solid_Large,48.11667341599241,54.12785283301491,2.0,Animal_Sea_Solid_Small,1.0,,,,,,,,,,,
encoding,value,10,17847897,17853908,17850422.0,17850821.0,400.0,400.0,2237.3,1235.7,2249.0,891.0,Animal_Sea_Solid_Small,48.11667341599241,54.12785283301491,2.0,Animal_Sea_Solid_Small,1.0,,,,,,,,,,,
encoding,value,10,17847897,17853908,17850863.0,17851042.0,180.0,180.0,1984.9,1277.4,1920.0,700.0,Object_Land_Pattern_Large,48.11667341599241,54.12785283301491,2.0,Animal_Sea_Solid_Small,1.0,,,,,,,,,,,
encoding,value,10,17847897,17853908,17851082.0,17851504.0,423.0,423.0,2249.6,1250.7,2249.0,891.0,Animal_Sea_Solid_Small,48.11667341599241,54.12785283301491,2.0,Animal_Sea_Solid_Small,1.0,,,,,,,,,,,
encoding,value,10,17847897,17853908,17851684.0,17852867.0,1184.0,1184.0,2254.7,1251.7,2249.0,891.0,Animal_Sea_Solid_Small,48.11667341599241,54.12785283301491,2.0,Animal_Sea_Solid_Small,1.0,,,,,,,,,,,
encoding,value,10,17847897,17853908,17852875.0,17853383.0,509.0,509.0,2247.3,1315.3,2249.0,891.0,Animal_Sea_Solid_Small,48.11667341599241,54.12785283301491,2.0,Animal_Sea_Solid_Small,1.0,,,,,,,,,,,
encoding,value,10,17847897,17853908,17853740.0,17854112.0,373.0,168.0,2192.2,1320.5,2249.0,891.0,Animal_Sea_Solid_Small,48.11667341599241,54.12785283301491,2.0,Animal_Sea_Solid_Small,1.0,,,,,,,,,,,
encoding,attention,10,17853908,17856929,17854128.0,17854299.0,172.0,172.0,2274.3,1259.1,2249.0,891.0,Animal_Sea_Solid_Small,54.12798200000543,57.14803458296228,2.0,Animal_Sea_Solid_Small,1.0,1.0,1.0,1.1049071659799663,,,,,,,,
encoding,attention,10,17853908,17856929,17854308.0,17854449.0,142.0,142.0,2222.1,1264.9,2249.0,891.0,Animal_Sea_Solid_Small,54.12798200000543,57.14803458296228,2.0,Animal_Sea_Solid_Small,1.0,1.0,1.0,1.1049071659799663,,,,,,,,
encoding,attention,10,17853908,17856929,17854461.0,17854636.0,176.0,176.0,2288.5,1281.1,2249.0,891.0,Animal_Sea_Solid_Small,54.12798200000543,57.14803458296228,2.0,Animal_Sea_Solid_Small,1.0,1.0,1.0,1.1049071659799663,,,,,,,,
encoding,attention,10,17853908,17856929,17854652.0,17855242.0,591.0,591.0,2218.0,1296.0,2249.0,891.0,Animal_Sea_Solid_Small,54.12798200000543,57.14803458296228,2.0,Animal_Sea_Solid_Small,1.0,1.0,1.0,1.1049071659799663,,,,,,,,
encoding,attention,10,17853908,17856929,17855626.0,17855874.0,249.0,249.0,1796.9,1292.5,1591.0,891.0,Animal_Land_Pattern_Large,54.12798200000543,57.14803458296228,2.0,Animal_Sea_Solid_Small,1.0,1.0,1.0,1.1049071659799663,,,,,,,,
encoding,attention,10,17853908,17856929,17855925.0,17856176.0,252.0,252.0,2287.5,1288.5,2249.0,891.0,Animal_Sea_Solid_Small,54.12798200000543,57.14803458296228,2.0,Animal_Sea_Solid_Small,1.0,1.0,1.0,1.1049071659799663,,,,,,,,
encoding,attention,10,17853908,17856929,17856533.0,17856746.0,214.0,214.0,2296.5,1288.0,2249.0,891.0,Animal_Sea_Solid_Small,54.12798200000543,57.14803458296228,2.0,Animal_Sea_Solid_Small,1.0,1.0,1.0,1.1049071659799663,,,,,,,,
encoding,fixation,11,17856929,17857685,17857358.0,17857584.0,227.0,227.0,2018.5,1413.1,1920.0,700.0,Object_Land_Pattern_Large,57.14818749995902,57.90419212495908,2.0,Object_Sea_Solid_Small,3.0,,,,,,,,,,,
encoding,image,11,17857685,17858695,,,,,,,,,none,57.90429450001102,58.91478274995461,2.0,Object_Sea_Solid_Small,3.0,,,,,,,,,,,
encoding,value,11,17858695,17864707,17858975.0,17859567.0,593.0,593.0,2237.8,1244.4,2249.0,891.0,Animal_Sea_Solid_Small,58.91494570800569,64.92647970793769,2.0,Object_Sea_Solid_Small,3.0,,,,,,,,,,,
encoding,attention,11,17864707,17867724,,,,,,,,,none,64.92662879102863,67.9425671249628,2.0,Object_Sea_Solid_Small,3.0,3.0,1.0,0.6776609999360517,,,,,,,,
encoding,fixation,12,17867724,17868479,17867932.0,17868461.0,530.0,530.0,1955.5,1199.5,1920.0,700.0,Object_Land_Pattern_Large,67.94272479100619,68.69853687495925,2.0,Animal_Sea_Pattern_Small,-6.0,,,,,,,,,,,
encoding,fixation,12,17867724,17868479,17868475.0,17868807.0,333.0,4.0,1920.6,1240.9,1920.0,700.0,Object_Land_Pattern_Large,67.94272479100619,68.69853687495925,2.0,Animal_Sea_Pattern_Small,-6.0,,,,,,,,,,,
encoding,image,12,17868480,17869491,17868832.0,17869136.0,305.0,305.0,2018.0,1385.5,1920.0,700.0,Object_Land_Pattern_Large,68.6986538330093,69.71039654093329,2.0,Animal_Sea_Pattern_Small,-6.0,,,,,,,,,,,
encoding,image,12,17868480,17869491,17869155.0,17869252.0,98.0,98.0,2146.9,1356.9,2249.0,891.0,Animal_Sea_Solid_Small,68.6986538330093,69.71039654093329,2.0,Animal_Sea_Pattern_Small,-6.0,,,,,,,,,,,
encoding,value,12,17869491,17875504,,,,,,,,,none,69.71051908296067,75.72306608292274,2.0,Animal_Sea_Pattern_Small,-6.0,,,,,,,,,,,
encoding,attention,12,17875504,17878522,17875746.0,17875994.0,249.0,249.0,1669.5,954.0,1591.0,1269.0,Animal_Sea_Pattern_Small,75.72317783301696,78.74038854101673,2.0,Animal_Sea_Pattern_Small,-6.0,-6.0,1.0,1.8602318330667913,,,,,,,,
encoding,attention,12,17875504,17878522,17876233.0,17876339.0,107.0,107.0,1674.9,1146.9,1591.0,891.0,Animal_Land_Pattern_Large,75.72317783301696,78.74038854101673,2.0,Animal_Sea_Pattern_Small,-6.0,-6.0,1.0,1.8602318330667913,,,,,,,,
encoding,attention,12,17875504,17878522,17876365.0,17876953.0,589.0,589.0,1671.7,975.0,1591.0,1269.0,Animal_Sea_Pattern_Small,75.72317783301696,78.74038854101673,2.0,Animal_Sea_Pattern_Small,-6.0,-6.0,1.0,1.8602318330667913,,,,,,,,
encoding,attention,12,17875504,17878522,17876962.0,17877610.0,649.0,649.0,1655.8,951.5999999999999,1591.0,1269.0,Animal_Sea_Pattern_Small,75.72317783301696,78.74038854101673,2.0,Animal_Sea_Pattern_Small,-6.0,-6.0,1.0,1.8602318330667913,,,,,,,,
encoding,attention,12,17875504,17878522,17877875.0,17877959.0,85.0,85.0,1790.0,1115.6,1591.0,891.0,Animal_Land_Pattern_Large,75.72317783301696,78.74038854101673,2.0,Animal_Sea_Pattern_Small,-6.0,-6.0,1.0,1.8602318330667913,,,,,,,,
encoding,fixation,13,18276431,18277436,18276684.0,18276881.0,198.0,198.0,1921.8,1200.6,1920.0,700.0,Object_Sea_Solid_Large,9.925041040987708,10.930324290995486,3.0,Object_Sea_Solid_Large,-1.0,,,,,,,,,,,
encoding,fixation,13,18276431,18277436,18276924.0,18277198.0,275.0,275.0,1969.4,1419.3,1920.0,700.0,Object_Sea_Solid_Large,9.925041040987708,10.930324290995486,3.0,Object_Sea_Solid_Large,-1.0,,,,,,,,,,,
encoding,fixation,13,18276431,18277436,18277239.0,18277545.0,307.0,197.0,1949.2,1143.0,1920.0,1080.0,fixation,9.925041040987708,10.930324290995486,3.0,Object_Sea_Solid_Large,-1.0,,,,,,,,,,,
encoding,image,13,18277436,18278448,18277557.0,18277581.0,25.0,25.0,1912.6,1193.2,1920.0,700.0,Object_Sea_Solid_Large,10.930432624998502,11.942178415949456,3.0,Object_Sea_Solid_Large,-1.0,,,,,,,,,,,
encoding,image,13,18277436,18278448,18277614.0,18277784.0,171.0,171.0,1949.2,1467.4,1920.0,700.0,Object_Sea_Solid_Large,10.930432624998502,11.942178415949456,3.0,Object_Sea_Solid_Large,-1.0,,,,,,,,,,,
encoding,image,13,18277436,18278448,18277797.0,18278276.0,480.0,480.0,1935.4,1489.3,1920.0,700.0,Object_Sea_Solid_Large,10.930432624998502,11.942178415949456,3.0,Object_Sea_Solid_Large,-1.0,,,,,,,,,,,
encoding,value,13,18278448,18284462,18278535.0,18278941.0,407.0,407.0,1895.1,1358.7,1920.0,700.0,Object_Sea_Solid_Large,11.942274915985765,17.95608054101467,3.0,Object_Sea_Solid_Large,-1.0,,,,,,,,,,,
encoding,value,13,18278448,18284462,18279238.0,18280306.0,1069.0,1069.0,1934.9,1440.3,1920.0,700.0,Object_Sea_Solid_Large,11.942274915985765,17.95608054101467,3.0,Object_Sea_Solid_Large,-1.0,,,,,,,,,,,
encoding,value,13,18278448,18284462,18280317.0,18281055.0,739.0,739.0,1912.5,1458.0,1920.0,700.0,Object_Sea_Solid_Large,11.942274915985765,17.95608054101467,3.0,Object_Sea_Solid_Large,-1.0,,,,,,,,,,,
encoding,value,13,18278448,18284462,18281062.0,18281716.0,655.0,655.0,1940.3,1475.0,1920.0,700.0,Object_Sea_Solid_Large,11.942274915985765,17.95608054101467,3.0,Object_Sea_Solid_Large,-1.0,,,,,,,,,,,
encoding,value,13,18278448,18284462,18281858.0,18282631.0,774.0,774.0,1898.5,1425.9,1920.0,700.0,Object_Sea_Solid_Large,11.942274915985765,17.95608054101467,3.0,Object_Sea_Solid_Large,-1.0,,,,,,,,,,,
encoding,value,13,18278448,18284462,18282749.0,18282924.0,176.0,176.0,1875.7,1454.4,1920.0,700.0,Object_Sea_Solid_Large,11.942274915985765,17.95608054101467,3.0,Object_Sea_Solid_Large,-1.0,,,,,,,,,,,
encoding,value,13,18278448,18284462,18282932.0,18283160.0,229.0,229.0,1893.6,1495.3,1920.0,700.0,Object_Sea_Solid_Large,11.942274915985765,17.95608054101467,3.0,Object_Sea_Solid_Large,-1.0,,,,,,,,,,,
encoding,value,13,18278448,18284462,18283341.0,18283793.0,453.0,453.0,1897.6,1426.1,1920.0,700.0,Object_Sea_Solid_Large,11.942274915985765,17.95608054101467,3.0,Object_Sea_Solid_Large,-1.0,,,,,,,,,,,
encoding,value,13,18278448,18284462,18283956.0,18284413.0,458.0,458.0,1921.4,1409.2,1920.0,700.0,Object_Sea_Solid_Large,11.942274915985765,17.95608054101467,3.0,Object_Sea_Solid_Large,-1.0,,,,,,,,,,,
encoding,value,13,18278448,18284462,18284424.0,18284449.0,26.0,26.0,1877.6,1389.1,1920.0,700.0,Object_Sea_Solid_Large,11.942274915985765,17.95608054101467,3.0,Object_Sea_Solid_Large,-1.0,,,,,,,,,,,
encoding,attention,13,18284462,18287481,18284647.0,18285229.0,583.0,583.0,1932.1,1413.6,1920.0,700.0,Object_Sea_Solid_Large,17.956187165924348,20.974599416018464,3.0,Object_Sea_Solid_Large,-1.0,-1.0,1.0,1.675876832916401,,,,,,,,
encoding,attention,13,18284462,18287481,18285241.0,18285782.0,542.0,542.0,1870.3,1460.0,1920.0,700.0,Object_Sea_Solid_Large,17.956187165924348,20.974599416018464,3.0,Object_Sea_Solid_Large,-1.0,-1.0,1.0,1.675876832916401,,,,,,,,
encoding,attention,13,18284462,18287481,18286012.0,18286433.0,422.0,422.0,1872.8,1440.3,1920.0,700.0,Object_Sea_Solid_Large,17.956187165924348,20.974599416018464,3.0,Object_Sea_Solid_Large,-1.0,-1.0,1.0,1.675876832916401,,,,,,,,
encoding,fixation,14,18287481,18288737,18287562.0,18287831.0,270.0,270.0,1857.2,1463.4,1920.0,700.0,Object_Sea_Solid_Large,20.974754832917824,22.230807457934137,3.0,Animal_Land_Solid_Small,-9.0,,,,,,,,,,,
encoding,fixation,14,18287481,18288737,18287860.0,18287960.0,101.0,101.0,1927.2,1239.2,1920.0,700.0,Object_Sea_Solid_Large,20.974754832917824,22.230807457934137,3.0,Animal_Land_Solid_Small,-9.0,,,,,,,,,,,
encoding,fixation,14,18287481,18288737,18288372.0,18288714.0,343.0,343.0,1954.6,1299.4,1920.0,700.0,Object_Sea_Solid_Large,20.974754832917824,22.230807457934137,3.0,Animal_Land_Solid_Small,-9.0,,,,,,,,,,,
encoding,fixation,14,18287481,18288737,18288727.0,18289018.0,292.0,10.0,1932.4,1257.5,1920.0,700.0,Object_Sea_Solid_Large,20.974754832917824,22.230807457934137,3.0,Animal_Land_Solid_Small,-9.0,,,,,,,,,,,
encoding,image,14,18288737,18289748,18289039.0,18289389.0,351.0,351.0,1900.4,1141.5,1920.0,1080.0,fixation,22.230907832970843,23.24229500000365,3.0,Animal_Land_Solid_Small,-9.0,,,,,,,,,,,
encoding,image,14,18288737,18289748,18289412.0,18290039.0,628.0,336.0,1904.0,1255.8,1920.0,700.0,Object_Sea_Solid_Large,22.230907832970843,23.24229500000365,3.0,Animal_Land_Solid_Small,-9.0,,,,,,,,,,,
encoding,value,14,18289748,18295761,18290085.0,18290355.0,271.0,271.0,1905.4,809.2,1920.0,1460.0,Animal_Land_Solid_Small,23.242433415958654,29.25453708297573,3.0,Animal_Land_Solid_Small,-9.0,,,,,,,,,,,
encoding,value,14,18289748,18295761,18290366.0,18290511.0,146.0,146.0,1921.6,834.5999999999999,1920.0,1460.0,Animal_Land_Solid_Small,23.242433415958654,29.25453708297573,3.0,Animal_Land_Solid_Small,-9.0,,,,,,,,,,,
encoding,value,14,18289748,18295761,18290737.0,18290779.0,43.0,43.0,2022.8,1008.0999999999999,2249.0,1269.0,Object_Sea_Pattern_Large,23.242433415958654,29.25453708297573,3.0,Animal_Land_Solid_Small,-9.0,,,,,,,,,,,
encoding,value,14,18289748,18295761,18290809.0,18291258.0,450.0,450.0,1922.4,860.0999999999999,1920.0,1460.0,Animal_Land_Solid_Small,23.242433415958654,29.25453708297573,3.0,Animal_Land_Solid_Small,-9.0,,,,,,,,,,,
encoding,value,14,18289748,18295761,18291760.0,18291788.0,29.0,29.0,1986.2,1108.1,2249.0,891.0,Animal_Land_Pattern_Small,23.242433415958654,29.25453708297573,3.0,Animal_Land_Solid_Small,-9.0,,,,,,,,,,,
encoding,value,14,18289748,18295761,18291806.0,18291902.0,97.0,97.0,1912.2,1014.9000000000001,1920.0,1080.0,fixation,23.242433415958654,29.25453708297573,3.0,Animal_Land_Solid_Small,-9.0,,,,,,,,,,,
encoding,value,14,18289748,18295761,18291928.0,18292188.0,261.0,261.0,1897.0,763.3,1920.0,1460.0,Animal_Land_Solid_Small,23.242433415958654,29.25453708297573,3.0,Animal_Land_Solid_Small,-9.0,,,,,,,,,,,
encoding,value,14,18289748,18295761,18292199.0,18293069.0,871.0,871.0,1869.3,813.9000000000001,1920.0,1460.0,Animal_Land_Solid_Small,23.242433415958654,29.25453708297573,3.0,Animal_Land_Solid_Small,-9.0,,,,,,,,,,,
encoding,value,14,18289748,18295761,18293080.0,18294510.0,1431.0,1431.0,1899.6,801.2,1920.0,1460.0,Animal_Land_Solid_Small,23.242433415958654,29.25453708297573,3.0,Animal_Land_Solid_Small,-9.0,,,,,,,,,,,
encoding,value,14,18289748,18295761,18294736.0,18294873.0,138.0,138.0,1997.0,1004.0,2249.0,1269.0,Object_Sea_Pattern_Large,23.242433415958654,29.25453708297573,3.0,Animal_Land_Solid_Small,-9.0,,,,,,,,,,,
encoding,value,14,18289748,18295761,18294963.0,18295026.0,64.0,64.0,1914.7,885.7,1920.0,1460.0,Animal_Land_Solid_Small,23.242433415958654,29.25453708297573,3.0,Animal_Land_Solid_Small,-9.0,,,,,,,,,,,
encoding,value,14,18289748,18295761,18295033.0,18296791.0,1759.0,728.0,1948.8,792.2,1920.0,1460.0,Animal_Land_Solid_Small,23.242433415958654,29.25453708297573,3.0,Animal_Land_Solid_Small,-9.0,,,,,,,,,,,
encoding,attention,14,18295761,18298780,18296987.0,18297067.0,81.0,81.0,2063.4,960.8,2249.0,1269.0,Object_Sea_Pattern_Large,29.254662040970288,32.2736675409833,3.0,Animal_Land_Solid_Small,-9.0,-9.0,1.0,0.6256922499742359,,,,,,,,
encoding,attention,14,18295761,18298780,18297118.0,18297804.0,687.0,687.0,1996.0,724.4000000000001,1920.0,1460.0,Animal_Land_Solid_Small,29.254662040970288,32.2736675409833,3.0,Animal_Land_Solid_Small,-9.0,-9.0,1.0,0.6256922499742359,,,,,,,,
encoding,attention,14,18295761,18298780,18297852.0,18298089.0,238.0,238.0,1952.8,1159.8,1920.0,700.0,Object_Sea_Solid_Large,29.254662040970288,32.2736675409833,3.0,Animal_Land_Solid_Small,-9.0,-9.0,1.0,0.6256922499742359,,,,,,,,
encoding,attention,14,18295761,18298780,18298114.0,18298376.0,263.0,263.0,1897.9,1275.0,1920.0,700.0,Object_Sea_Solid_Large,29.254662040970288,32.2736675409833,3.0,Animal_Land_Solid_Small,-9.0,-9.0,1.0,0.6256922499742359,,,,,,,,
encoding,fixation,15,18298780,18300036,18298827.0,18298995.0,169.0,169.0,2004.6,778.5,1920.0,1460.0,Animal_Land_Solid_Small,32.2738048749743,33.529046791023575,3.0,Animal_Land_Pattern_Small,5.0,,,,,,,,,,,
encoding,image,15,18300036,18301047,18300079.0,18300337.0,259.0,259.0,1970.1,1207.7,1920.0,700.0,Object_Sea_Solid_Large,33.52915395796299,34.54037795797922,3.0,Animal_Land_Pattern_Small,5.0,,,,,,,,,,,
encoding,image,15,18300036,18301047,18300373.0,18300642.0,270.0,270.0,2220.8,1331.3,2249.0,891.0,Animal_Land_Pattern_Small,33.52915395796299,34.54037795797922,3.0,Animal_Land_Pattern_Small,5.0,,,,,,,,,,,
encoding,image,15,18300036,18301047,18300699.0,18300897.0,199.0,199.0,1889.8,1372.6,1920.0,700.0,Object_Sea_Solid_Large,33.52915395796299,34.54037795797922,3.0,Animal_Land_Pattern_Small,5.0,,,,,,,,,,,
encoding,image,15,18300036,18301047,18300910.0,18301425.0,516.0,137.0,1822.3,1413.1,1920.0,700.0,Object_Sea_Solid_Large,33.52915395796299,34.54037795797922,3.0,Animal_Land_Pattern_Small,5.0,,,,,,,,,,,
encoding,value,15,18301047,18307059,18301467.0,18301857.0,391.0,391.0,2226.5,1244.8,2249.0,891.0,Animal_Land_Pattern_Small,34.54048199998215,40.55182829091791,3.0,Animal_Land_Pattern_Small,5.0,,,,,,,,,,,
encoding,value,15,18301047,18307059,18301888.0,18302033.0,146.0,146.0,2223.8,1344.3,2249.0,891.0,Animal_Land_Pattern_Small,34.54048199998215,40.55182829091791,3.0,Animal_Land_Pattern_Small,5.0,,,,,,,,,,,
encoding,value,15,18301047,18307059,18302582.0,18303623.0,1042.0,1042.0,1893.3,1406.4,1920.0,700.0,Object_Sea_Solid_Large,34.54048199998215,40.55182829091791,3.0,Animal_Land_Pattern_Small,5.0,,,,,,,,,,,
encoding,value,15,18301047,18307059,18303633.0,18303738.0,106.0,106.0,1853.1,1414.7,1920.0,700.0,Object_Sea_Solid_Large,34.54048199998215,40.55182829091791,3.0,Animal_Land_Pattern_Small,5.0,,,,,,,,,,,
encoding,value,15,18301047,18307059,18304040.0,18304656.0,617.0,617.0,2210.1,1293.6,2249.0,891.0,Animal_Land_Pattern_Small,34.54048199998215,40.55182829091791,3.0,Animal_Land_Pattern_Small,5.0,,,,,,,,,,,
encoding,value,15,18301047,18307059,18304697.0,18304923.0,227.0,227.0,1929.1,1413.3,1920.0,700.0,Object_Sea_Solid_Large,34.54048199998215,40.55182829091791,3.0,Animal_Land_Pattern_Small,5.0,,,,,,,,,,,
encoding,value,15,18301047,18307059,18304964.0,18305165.0,202.0,202.0,2181.7,1309.2,2249.0,891.0,Animal_Land_Pattern_Small,34.54048199998215,40.55182829091791,3.0,Animal_Land_Pattern_Small,5.0,,,,,,,,,,,
encoding,value,15,18301047,18307059,18305181.0,18307331.0,2151.0,1878.0,2228.3,1269.3,2249.0,891.0,Animal_Land_Pattern_Small,34.54048199998215,40.55182829091791,3.0,Animal_Land_Pattern_Small,5.0,,,,,,,,,,,
encoding,attention,15,18307059,18310076,18307344.0,18307435.0,92.0,92.0,2282.2,1243.6,2249.0,891.0,Animal_Land_Pattern_Small,40.551951957982965,43.56934312498197,3.0,Animal_Land_Pattern_Small,5.0,5.0,1.0,0.6801497499691322,,,,,,,,
encoding,attention,15,18307059,18310076,18307693.0,18307972.0,280.0,280.0,2244.0,1261.8,2249.0,891.0,Animal_Land_Pattern_Small,40.551951957982965,43.56934312498197,3.0,Animal_Land_Pattern_Small,5.0,5.0,1.0,0.6801497499691322,,,,,,,,
encoding,attention,15,18307059,18310076,18308471.0,18308565.0,95.0,95.0,1937.5,1441.7,1920.0,700.0,Object_Sea_Solid_Large,40.551951957982965,43.56934312498197,3.0,Animal_Land_Pattern_Small,5.0,5.0,1.0,0.6801497499691322,,,,,,,,
encoding,attention,15,18307059,18310076,18309255.0,18309364.0,110.0,110.0,1917.8,1624.1,1920.0,700.0,Object_Sea_Solid_Large,40.551951957982965,43.56934312498197,3.0,Animal_Land_Pattern_Small,5.0,5.0,1.0,0.6801497499691322,,,,,,,,
encoding,attention,15,18307059,18310076,18309370.0,18309592.0,223.0,223.0,1909.3,1575.2,1920.0,700.0,Object_Sea_Solid_Large,40.551951957982965,43.56934312498197,3.0,Animal_Land_Pattern_Small,5.0,5.0,1.0,0.6801497499691322,,,,,,,,
encoding,fixation,16,18310077,18311582,18310652.0,18310850.0,199.0,199.0,2141.1,1328.0,2249.0,891.0,Animal_Land_Pattern_Small,43.56948262499645,45.07536887493916,3.0,Animal_Sea_Pattern_Large,8.0,,,,,,,,,,,
encoding,image,16,18311582,18312594,18312195.0,18312222.0,28.0,28.0,1657.0,1529.8,1591.0,891.0,Animal_Sea_Pattern_Large,45.07547241600696,46.087071583024226,3.0,Animal_Sea_Pattern_Large,8.0,,,,,,,,,,,
encoding,image,16,18311582,18312594,18312266.0,18312712.0,447.0,328.0,1605.3,1479.2,1591.0,891.0,Animal_Sea_Pattern_Large,45.07547241600696,46.087071583024226,3.0,Animal_Sea_Pattern_Large,8.0,,,,,,,,,,,
encoding,value,16,18312594,18318606,18312799.0,18312937.0,139.0,139.0,1525.7,1226.0,1591.0,891.0,Animal_Sea_Pattern_Large,46.08721029094886,52.09897225000896,3.0,Animal_Sea_Pattern_Large,8.0,,,,,,,,,,,
encoding,value,16,18312594,18318606,18312946.0,18313168.0,223.0,223.0,1544.0,1244.8,1591.0,891.0,Animal_Sea_Pattern_Large,46.08721029094886,52.09897225000896,3.0,Animal_Sea_Pattern_Large,8.0,,,,,,,,,,,
encoding,value,16,18312594,18318606,18313916.0,18314163.0,248.0,248.0,1640.4,1280.7,1591.0,891.0,Animal_Sea_Pattern_Large,46.08721029094886,52.09897225000896,3.0,Animal_Sea_Pattern_Large,8.0,,,,,,,,,,,
encoding,value,16,18312594,18318606,18314172.0,18314532.0,361.0,361.0,1574.6,1265.3,1591.0,891.0,Animal_Sea_Pattern_Large,46.08721029094886,52.09897225000896,3.0,Animal_Sea_Pattern_Large,8.0,,,,,,,,,,,
encoding,value,16,18312594,18318606,18314663.0,18315184.0,522.0,522.0,1826.9,1403.6,1920.0,700.0,Object_Sea_Solid_Large,46.08721029094886,52.09897225000896,3.0,Animal_Sea_Pattern_Large,8.0,,,,,,,,,,,
encoding,value,16,18312594,18318606,18315197.0,18315435.0,239.0,239.0,1766.9,1374.1,1920.0,700.0,Object_Sea_Solid_Large,46.08721029094886,52.09897225000896,3.0,Animal_Sea_Pattern_Large,8.0,,,,,,,,,,,
encoding,value,16,18312594,18318606,18315454.0,18315803.0,350.0,350.0,1633.2,1359.5,1591.0,891.0,Animal_Sea_Pattern_Large,46.08721029094886,52.09897225000896,3.0,Animal_Sea_Pattern_Large,8.0,,,,,,,,,,,
encoding,value,16,18312594,18318606,18315859.0,18315916.0,58.0,58.0,1714.4,1212.4,1591.0,891.0,Animal_Sea_Pattern_Large,46.08721029094886,52.09897225000896,3.0,Animal_Sea_Pattern_Large,8.0,,,,,,,,,,,
encoding,value,16,18312594,18318606,18316188.0,18316270.0,83.0,83.0,1806.7,1327.0,1920.0,700.0,Object_Sea_Solid_Large,46.08721029094886,52.09897225000896,3.0,Animal_Sea_Pattern_Large,8.0,,,,,,,,,,,
encoding,value,16,18312594,18318606,18316292.0,18316503.0,212.0,212.0,1653.5,1300.6,1591.0,891.0,Animal_Sea_Pattern_Large,46.08721029094886,52.09897225000896,3.0,Animal_Sea_Pattern_Large,8.0,,,,,,,,,,,
encoding,value,16,18312594,18318606,18316510.0,18318208.0,1699.0,1699.0,1624.6,1286.0,1591.0,891.0,Animal_Sea_Pattern_Large,46.08721029094886,52.09897225000896,3.0,Animal_Sea_Pattern_Large,8.0,,,,,,,,,,,
encoding,value,16,18312594,18318606,18318424.0,18318878.0,455.0,182.0,1602.5,1294.2,1591.0,891.0,Animal_Sea_Pattern_Large,46.08721029094886,52.09897225000896,3.0,Animal_Sea_Pattern_Large,8.0,,,,,,,,,,,
encoding,attention,16,18318607,18321623,18318890.0,18319143.0,254.0,254.0,1671.2,1278.8,1591.0,891.0,Animal_Sea_Pattern_Large,52.099110499955714,55.11548491602298,3.0,Animal_Sea_Pattern_Large,8.0,8.0,1.0,1.2954383329488337,,,,,,,,
encoding,attention,16,18318607,18321623,18319155.0,18319582.0,428.0,428.0,1574.0,1263.7,1591.0,891.0,Animal_Sea_Pattern_Large,52.099110499955714,55.11548491602298,3.0,Animal_Sea_Pattern_Large,8.0,8.0,1.0,1.2954383329488337,,,,,,,,
encoding,attention,16,18318607,18321623,18319626.0,18319793.0,168.0,168.0,1876.4,1301.3,1920.0,700.0,Object_Sea_Solid_Large,52.099110499955714,55.11548491602298,3.0,Animal_Sea_Pattern_Large,8.0,8.0,1.0,1.2954383329488337,,,,,,,,
encoding,attention,16,18318607,18321623,18319825.0,18320151.0,327.0,327.0,1577.1,1255.8,1591.0,891.0,Animal_Sea_Pattern_Large,52.099110499955714,55.11548491602298,3.0,Animal_Sea_Pattern_Large,8.0,8.0,1.0,1.2954383329488337,,,,,,,,
encoding,attention,16,18318607,18321623,18320375.0,18320645.0,271.0,271.0,2151.0,1316.3,2249.0,891.0,Animal_Land_Pattern_Small,52.099110499955714,55.11548491602298,3.0,Animal_Sea_Pattern_Large,8.0,8.0,1.0,1.2954383329488337,,,,,,,,
encoding,attention,16,18318607,18321623,18320692.0,18321194.0,503.0,503.0,1620.9,1291.3,1591.0,891.0,Animal_Sea_Pattern_Large,52.099110499955714,55.11548491602298,3.0,Animal_Sea_Pattern_Large,8.0,8.0,1.0,1.2954383329488337,,,,,,,,
encoding,attention,16,18318607,18321623,18321246.0,18321516.0,271.0,271.0,2135.6,1389.0,2249.0,891.0,Animal_Land_Pattern_Small,52.099110499955714,55.11548491602298,3.0,Animal_Sea_Pattern_Large,8.0,8.0,1.0,1.2954383329488337,,,,,,,,
encoding,fixation,17,18321623,18322628,18321797.0,18322074.0,278.0,278.0,1615.0,1323.3,1591.0,891.0,Animal_Sea_Pattern_Large,55.115679332986474,56.12070041592233,3.0,Object_Land_Solid_Small,9.0,,,,,,,,,,,
encoding,fixation,17,18321623,18322628,18322121.0,18322675.0,555.0,507.0,2102.4,1333.2,2249.0,891.0,Animal_Land_Pattern_Small,55.115679332986474,56.12070041592233,3.0,Object_Land_Solid_Small,9.0,,,,,,,,,,,
encoding,image,17,18322628,18323640,18322902.0,18322959.0,58.0,58.0,1733.5,1194.6,1591.0,891.0,Animal_Sea_Pattern_Large,56.12086974992417,57.13220554101281,3.0,Object_Land_Solid_Small,9.0,,,,,,,,,,,
encoding,image,17,18322628,18323640,18322983.0,18323128.0,146.0,146.0,1614.4,1064.5,1591.0,1269.0,Object_Land_Solid_Small,56.12086974992417,57.13220554101281,3.0,Object_Land_Solid_Small,9.0,,,,,,,,,,,
encoding,image,17,18322628,18323640,18323450.0,18323631.0,182.0,182.0,1700.5,1065.9,1591.0,1269.0,Object_Land_Solid_Small,56.12086974992417,57.13220554101281,3.0,Object_Land_Solid_Small,9.0,,,,,,,,,,,
encoding,value,17,18323640,18329651,18323645.0,18324014.0,370.0,370.0,1618.5,1051.6,1591.0,1269.0,Object_Land_Solid_Small,57.132349082967266,63.14347925002221,3.0,Object_Land_Solid_Small,9.0,,,,,,,,,,,
encoding,value,17,18323640,18329651,18324037.0,18324367.0,331.0,331.0,1605.9,958.5999999999999,1591.0,1269.0,Object_Land_Solid_Small,57.132349082967266,63.14347925002221,3.0,Object_Land_Solid_Small,9.0,,,,,,,,,,,
encoding,value,17,18323640,18329651,18324636.0,18325431.0,796.0,796.0,1607.8,969.2,1591.0,1269.0,Object_Land_Solid_Small,57.132349082967266,63.14347925002221,3.0,Object_Land_Solid_Small,9.0,,,,,,,,,,,
encoding,value,17,18323640,18329651,18325849.0,18326607.0,759.0,759.0,1590.8,1045.5,1591.0,1269.0,Object_Land_Solid_Small,57.132349082967266,63.14347925002221,3.0,Object_Land_Solid_Small,9.0,,,,,,,,,,,
encoding,value,17,18323640,18329651,18326910.0,18327218.0,309.0,309.0,1596.9,1002.7,1591.0,1269.0,Object_Land_Solid_Small,57.132349082967266,63.14347925002221,3.0,Object_Land_Solid_Small,9.0,,,,,,,,,,,
encoding,value,17,18323640,18329651,18327510.0,18327832.0,323.0,323.0,1608.8,1047.8,1591.0,1269.0,Object_Land_Solid_Small,57.132349082967266,63.14347925002221,3.0,Object_Land_Solid_Small,9.0,,,,,,,,,,,
encoding,value,17,18323640,18329651,18327843.0,18327982.0,140.0,140.0,1578.2,991.0999999999999,1591.0,1269.0,Object_Land_Solid_Small,57.132349082967266,63.14347925002221,3.0,Object_Land_Solid_Small,9.0,,,,,,,,,,,
encoding,value,17,18323640,18329651,18328464.0,18328615.0,152.0,152.0,1606.1,1003.9000000000001,1591.0,1269.0,Object_Land_Solid_Small,57.132349082967266,63.14347925002221,3.0,Object_Land_Solid_Small,9.0,,,,,,,,,,,
encoding,value,17,18323640,18329651,18328621.0,18329867.0,1247.0,1030.0,1597.4,968.7,1591.0,1269.0,Object_Land_Solid_Small,57.132349082967266,63.14347925002221,3.0,Object_Land_Solid_Small,9.0,,,,,,,,,,,
encoding,attention,17,18329651,18332669,18329876.0,18329987.0,112.0,112.0,1563.8,951.7,1591.0,1269.0,Object_Land_Solid_Small,63.14360258297529,66.16102708294056,3.0,Object_Land_Solid_Small,9.0,9.0,1.0,2.4129421670222655,,,,,,,,
encoding,attention,17,18329651,18332669,18330346.0,18330457.0,112.0,112.0,1637.3,1112.9,1591.0,891.0,Animal_Sea_Pattern_Large,63.14360258297529,66.16102708294056,3.0,Object_Land_Solid_Small,9.0,9.0,1.0,2.4129421670222655,,,,,,,,
encoding,attention,17,18329651,18332669,18330479.0,18330502.0,24.0,24.0,1642.8,1208.7,1591.0,891.0,Animal_Sea_Pattern_Large,63.14360258297529,66.16102708294056,3.0,Object_Land_Solid_Small,9.0,9.0,1.0,2.4129421670222655,,,,,,,,
encoding,attention,17,18329651,18332669,18331410.0,18331510.0,101.0,101.0,1580.5,1085.4,1591.0,891.0,Animal_Sea_Pattern_Large,63.14360258297529,66.16102708294056,3.0,Object_Land_Solid_Small,9.0,9.0,1.0,2.4129421670222655,,,,,,,,
encoding,attention,17,18329651,18332669,18331520.0,18331550.0,31.0,31.0,1629.0,1188.8,1591.0,891.0,Animal_Sea_Pattern_Large,63.14360258297529,66.16102708294056,3.0,Object_Land_Solid_Small,9.0,9.0,1.0,2.4129421670222655,,,,,,,,
encoding,attention,17,18329651,18332669,18331570.0,18331659.0,90.0,90.0,1580.7,1058.6,1591.0,1269.0,Object_Land_Solid_Small,63.14360258297529,66.16102708294056,3.0,Object_Land_Solid_Small,9.0,9.0,1.0,2.4129421670222655,,,,,,,,
encoding,attention,17,18329651,18332669,18331670.0,18332339.0,670.0,670.0,1584.4,954.7,1591.0,1269.0,Object_Land_Solid_Small,63.14360258297529,66.16102708294056,3.0,Object_Land_Solid_Small,9.0,9.0,1.0,2.4129421670222655,,,,,,,,
encoding,fixation,18,18332669,18333925,18333179.0,18333503.0,325.0,325.0,2063.4,1479.8,1920.0,700.0,Object_Sea_Solid_Large,66.1611819579266,67.41670412500389,3.0,Object_Sea_Pattern_Large,-2.0,,,,,,,,,,,
encoding,fixation,18,18332669,18333925,18333521.0,18333691.0,171.0,171.0,2173.7,1362.4,2249.0,891.0,Animal_Land_Pattern_Small,66.1611819579266,67.41670412500389,3.0,Object_Sea_Pattern_Large,-2.0,,,,,,,,,,,
encoding,fixation,18,18332669,18333925,18333736.0,18334254.0,519.0,189.0,1864.7,1143.0,1591.0,891.0,Animal_Sea_Pattern_Large,66.1611819579266,67.41670412500389,3.0,Object_Sea_Pattern_Large,-2.0,,,,,,,,,,,
encoding,image,18,18333925,18334936,18334270.0,18334460.0,191.0,191.0,1914.7,1207.3,1920.0,700.0,Object_Sea_Solid_Large,67.41680237499531,68.42770258302335,3.0,Object_Sea_Pattern_Large,-2.0,,,,,,,,,,,
encoding,image,18,18333925,18334936,18334684.0,18335009.0,326.0,252.0,1967.1,1241.9,1920.0,700.0,Object_Sea_Solid_Large,67.41680237499531,68.42770258302335,3.0,Object_Sea_Pattern_Large,-2.0,,,,,,,,,,,
encoding,value,18,18334936,18340948,18335048.0,18335270.0,223.0,223.0,2209.9,1014.9000000000001,2249.0,1269.0,Object_Sea_Pattern_Large,68.42783104092814,74.4397646249272,3.0,Object_Sea_Pattern_Large,-2.0,,,,,,,,,,,
encoding,value,18,18334936,18340948,18335278.0,18335495.0,218.0,218.0,2226.5,966.7,2249.0,1269.0,Object_Sea_Pattern_Large,68.42783104092814,74.4397646249272,3.0,Object_Sea_Pattern_Large,-2.0,,,,,,,,,,,
encoding,value,18,18334936,18340948,18335857.0,18335881.0,25.0,25.0,2117.2,1146.8,2249.0,891.0,Animal_Land_Pattern_Small,68.42783104092814,74.4397646249272,3.0,Object_Sea_Pattern_Large,-2.0,,,,,,,,,,,
encoding,value,18,18334936,18340948,18335904.0,18336147.0,244.0,244.0,2167.0,1016.4000000000001,2249.0,1269.0,Object_Sea_Pattern_Large,68.42783104092814,74.4397646249272,3.0,Object_Sea_Pattern_Large,-2.0,,,,,,,,,,,
encoding,value,18,18334936,18340948,18336520.0,18336542.0,23.0,23.0,2045.7,1166.5,2249.0,891.0,Animal_Land_Pattern_Small,68.42783104092814,74.4397646249272,3.0,Object_Sea_Pattern_Large,-2.0,,,,,,,,,,,
encoding,value,18,18334936,18340948,18336562.0,18336949.0,388.0,388.0,2084.4,1070.6,2249.0,1269.0,Object_Sea_Pattern_Large,68.42783104092814,74.4397646249272,3.0,Object_Sea_Pattern_Large,-2.0,,,,,,,,,,,
encoding,value,18,18334936,18340948,18336968.0,18337267.0,300.0,300.0,2013.1,990.0,2249.0,1269.0,Object_Sea_Pattern_Large,68.42783104092814,74.4397646249272,3.0,Object_Sea_Pattern_Large,-2.0,,,,,,,,,,,
encoding,value,18,18334936,18340948,18337291.0,18338081.0,791.0,791.0,2194.1,996.5,2249.0,1269.0,Object_Sea_Pattern_Large,68.42783104092814,74.4397646249272,3.0,Object_Sea_Pattern_Large,-2.0,,,,,,,,,,,
encoding,value,18,18334936,18340948,18338121.0,18338568.0,448.0,448.0,1972.6,1313.7,1920.0,700.0,Object_Sea_Solid_Large,68.42783104092814,74.4397646249272,3.0,Object_Sea_Pattern_Large,-2.0,,,,,,,,,,,
encoding,value,18,18334936,18340948,18338608.0,18338924.0,317.0,317.0,2210.0,1071.3,2249.0,1269.0,Object_Sea_Pattern_Large,68.42783104092814,74.4397646249272,3.0,Object_Sea_Pattern_Large,-2.0,,,,,,,,,,,
encoding,value,18,18334936,18340948,18339162.0,18339582.0,421.0,421.0,2178.4,1111.8,2249.0,891.0,Animal_Land_Pattern_Small,68.42783104092814,74.4397646249272,3.0,Object_Sea_Pattern_Large,-2.0,,,,,,,,,,,
encoding,value,18,18334936,18340948,18339999.0,18340370.0,372.0,372.0,1930.7,1205.9,1920.0,700.0,Object_Sea_Solid_Large,68.42783104092814,74.4397646249272,3.0,Object_Sea_Pattern_Large,-2.0,,,,,,,,,,,
encoding,value,18,18334936,18340948,18340409.0,18340620.0,212.0,212.0,2004.9,1396.3,1920.0,700.0,Object_Sea_Solid_Large,68.42783104092814,74.4397646249272,3.0,Object_Sea_Pattern_Large,-2.0,,,,,,,,,,,
encoding,value,18,18334936,18340948,18340632.0,18340924.0,293.0,293.0,1944.7,1401.4,1920.0,700.0,Object_Sea_Solid_Large,68.42783104092814,74.4397646249272,3.0,Object_Sea_Pattern_Large,-2.0,,,,,,,,,,,
encoding,attention,18,18340948,18343960,18340978.0,18341235.0,258.0,258.0,2203.2,1055.9,2249.0,1269.0,Object_Sea_Pattern_Large,74.43993966595735,77.45168908301275,3.0,Object_Sea_Pattern_Large,-2.0,,,,,,,,,,,
encoding,attention,18,18340948,18343960,18341250.0,18341425.0,176.0,176.0,2243.3,996.2,2249.0,1269.0,Object_Sea_Pattern_Large,74.43993966595735,77.45168908301275,3.0,Object_Sea_Pattern_Large,-2.0,,,,,,,,,,,
encoding,attention,18,18340948,18343960,18341549.0,18341584.0,36.0,36.0,2188.2,883.0999999999999,2249.0,1269.0,Object_Sea_Pattern_Large,74.43993966595735,77.45168908301275,3.0,Object_Sea_Pattern_Large,-2.0,,,,,,,,,,,
encoding,attention,18,18340948,18343960,18341592.0,18341632.0,41.0,41.0,2175.8,1067.8,2249.0,1269.0,Object_Sea_Pattern_Large,74.43993966595735,77.45168908301275,3.0,Object_Sea_Pattern_Large,-2.0,,,,,,,,,,,
encoding,attention,18,18340948,18343960,18341820.0,18341848.0,29.0,29.0,2218.5,1107.9,2249.0,891.0,Animal_Land_Pattern_Small,74.43993966595735,77.45168908301275,3.0,Object_Sea_Pattern_Large,-2.0,,,,,,,,,,,
encoding,attention,18,18340948,18343960,18341868.0,18342223.0,356.0,356.0,2255.8,992.8,2249.0,1269.0,Object_Sea_Pattern_Large,74.43993966595735,77.45168908301275,3.0,Object_Sea_Pattern_Large,-2.0,,,,,,,,,,,
encoding,attention,18,18340948,18343960,18342493.0,18342533.0,41.0,41.0,2159.7,1124.8,2249.0,891.0,Animal_Land_Pattern_Small,74.43993966595735,77.45168908301275,3.0,Object_Sea_Pattern_Large,-2.0,,,,,,,,,,,
encoding,attention,18,18340948,18343960,18342552.0,18342844.0,293.0,293.0,2220.7,1011.3,2249.0,1269.0,Object_Sea_Pattern_Large,74.43993966595735,77.45168908301275,3.0,Object_Sea_Pattern_Large,-2.0,,,,,,,,,,,
encoding,attention,18,18340948,18343960,18343052.0,18343076.0,25.0,25.0,2161.1,1138.5,2249.0,891.0,Animal_Land_Pattern_Small,74.43993966595735,77.45168908301275,3.0,Object_Sea_Pattern_Large,-2.0,,,,,,,,,,,
encoding,attention,18,18340948,18343960,18343095.0,18343620.0,526.0,526.0,2236.0,999.0999999999999,2249.0,1269.0,Object_Sea_Pattern_Large,74.43993966595735,77.45168908301275,3.0,Object_Sea_Pattern_Large,-2.0,,,,,,,,,,,
encoding,attention,18,18340948,18343960,18343631.0,18343893.0,263.0,263.0,2211.0,987.4000000000001,2249.0,1269.0,Object_Sea_Pattern_Large,74.43993966595735,77.45168908301275,3.0,Object_Sea_Pattern_Large,-2.0,,,,,,,,,,,
encoding,fixation,19,18806974,18807479,18807188.0,18807375.0,188.0,188.0,1983.8,1126.8,2249.0,891.0,Object_Land_Pattern_Small,5.23303450003732,5.7383929579518735,4.0,Animal_Sea_Solid_Large,-7.0,,,,,,,,,,,
encoding,image,19,18807479,18808493,18807560.0,18807707.0,148.0,148.0,1954.3,1104.4,1920.0,1080.0,fixation,5.738553958013654,6.751984667032957,4.0,Animal_Sea_Solid_Large,-7.0,,,,,,,,,,,
encoding,image,19,18807479,18808493,18807740.0,18808033.0,294.0,294.0,1959.7,1439.5,1920.0,700.0,Animal_Sea_Solid_Large,5.738553958013654,6.751984667032957,4.0,Animal_Sea_Solid_Large,-7.0,,,,,,,,,,,
encoding,image,19,18807479,18808493,18808041.0,18808350.0,310.0,310.0,1947.8,1499.2,1920.0,700.0,Animal_Sea_Solid_Large,5.738553958013654,6.751984667032957,4.0,Animal_Sea_Solid_Large,-7.0,,,,,,,,,,,
encoding,image,19,18807479,18808493,18808376.0,18808691.0,316.0,117.0,1915.0,1290.5,1920.0,700.0,Animal_Sea_Solid_Large,5.738553958013654,6.751984667032957,4.0,Animal_Sea_Solid_Large,-7.0,,,,,,,,,,,
encoding,value,19,18808493,18814506,18808708.0,18808928.0,221.0,221.0,1925.6,1363.2,1920.0,700.0,Animal_Sea_Solid_Large,6.752087875036523,12.765251750010066,4.0,Animal_Sea_Solid_Large,-7.0,,,,,,,,,,,
encoding,value,19,18808493,18814506,18809243.0,18809303.0,61.0,61.0,1866.5,1299.2,1920.0,700.0,Animal_Sea_Solid_Large,6.752087875036523,12.765251750010066,4.0,Animal_Sea_Solid_Large,-7.0,,,,,,,,,,,
encoding,value,19,18808493,18814506,18809638.0,18812640.0,3003.0,3003.0,1914.0,1451.5,1920.0,700.0,Animal_Sea_Solid_Large,6.752087875036523,12.765251750010066,4.0,Animal_Sea_Solid_Large,-7.0,,,,,,,,,,,
encoding,value,19,18808493,18814506,18812859.0,18813193.0,335.0,335.0,1914.1,1456.3,1920.0,700.0,Animal_Sea_Solid_Large,6.752087875036523,12.765251750010066,4.0,Animal_Sea_Solid_Large,-7.0,,,,,,,,,,,
encoding,value,19,18808493,18814506,18813203.0,18814082.0,880.0,880.0,1886.9,1440.3,1920.0,700.0,Animal_Sea_Solid_Large,6.752087875036523,12.765251750010066,4.0,Animal_Sea_Solid_Large,-7.0,,,,,,,,,,,
encoding,value,19,18808493,18814506,18814224.0,18814897.0,674.0,282.0,1906.5,1451.4,1920.0,700.0,Animal_Sea_Solid_Large,6.752087875036523,12.765251750010066,4.0,Animal_Sea_Solid_Large,-7.0,,,,,,,,,,,
encoding,attention,19,18814506,18817524,18814906.0,18815619.0,714.0,714.0,1895.8,1422.3,1920.0,700.0,Animal_Sea_Solid_Large,12.76534995797556,15.783353292034008,4.0,Animal_Sea_Solid_Large,-7.0,-7.0,1.0,2.0075109580066055,,,,,,,,
encoding,attention,19,18814506,18817524,18815661.0,18815777.0,117.0,117.0,1959.4,947.4000000000001,1920.0,1460.0,Object_Sea_Pattern_Small,12.76534995797556,15.783353292034008,4.0,Animal_Sea_Solid_Large,-7.0,-7.0,1.0,2.0075109580066055,,,,,,,,
encoding,attention,19,18814506,18817524,18815894.0,18816013.0,120.0,120.0,1470.2,-1110.0,,,none,12.76534995797556,15.783353292034008,4.0,Animal_Sea_Solid_Large,-7.0,-7.0,1.0,2.0075109580066055,,,,,,,,
encoding,attention,19,18814506,18817524,18816205.0,18817101.0,897.0,897.0,1931.9,1399.2,1920.0,700.0,Animal_Sea_Solid_Large,12.76534995797556,15.783353292034008,4.0,Animal_Sea_Solid_Large,-7.0,-7.0,1.0,2.0075109580066055,,,,,,,,
encoding,fixation,20,18817525,18818780,18818252.0,18818555.0,304.0,304.0,1930.3,1371.6,1920.0,700.0,Animal_Sea_Solid_Large,15.783575666951949,17.03885316697415,4.0,Object_Land_Pattern_Small,-9.0,,,,,,,,,,,
encoding,fixation,20,18817525,18818780,18818569.0,18818947.0,379.0,211.0,1947.4,1291.4,1920.0,700.0,Animal_Sea_Solid_Large,15.783575666951949,17.03885316697415,4.0,Object_Land_Pattern_Small,-9.0,,,,,,,,,,,
encoding,image,20,18818780,18819792,18818973.0,18819584.0,612.0,612.0,2225.1,1332.3,2249.0,891.0,Object_Land_Pattern_Small,17.038964582956396,18.050838832976297,4.0,Object_Land_Pattern_Small,-9.0,,,,,,,,,,,
encoding,image,20,18818780,18819792,18819593.0,18819972.0,380.0,199.0,2195.6,1266.0,2249.0,891.0,Object_Land_Pattern_Small,17.038964582956396,18.050838832976297,4.0,Object_Land_Pattern_Small,-9.0,,,,,,,,,,,
encoding,value,20,18819792,18825805,18819986.0,18820281.0,296.0,296.0,2249.6,1222.3,2249.0,891.0,Object_Land_Pattern_Small,18.05097008298617,24.06308958295267,4.0,Object_Land_Pattern_Small,-9.0,,,,,,,,,,,
encoding,value,20,18819792,18825805,18820601.0,18820895.0,295.0,295.0,2197.8,1334.2,2249.0,891.0,Object_Land_Pattern_Small,18.05097008298617,24.06308958295267,4.0,Object_Land_Pattern_Small,-9.0,,,,,,,,,,,
encoding,value,20,18819792,18825805,18821132.0,18821500.0,369.0,369.0,2026.1,1365.2,1920.0,700.0,Animal_Sea_Solid_Large,18.05097008298617,24.06308958295267,4.0,Object_Land_Pattern_Small,-9.0,,,,,,,,,,,
encoding,value,20,18819792,18825805,18821734.0,18821893.0,160.0,160.0,1954.0,1394.2,1920.0,700.0,Animal_Sea_Solid_Large,18.05097008298617,24.06308958295267,4.0,Object_Land_Pattern_Small,-9.0,,,,,,,,,,,
encoding,value,20,18819792,18825805,18822090.0,18822329.0,240.0,240.0,2175.1,1294.5,2249.0,891.0,Object_Land_Pattern_Small,18.05097008298617,24.06308958295267,4.0,Object_Land_Pattern_Small,-9.0,,,,,,,,,,,
encoding,value,20,18819792,18825805,18822341.0,18825263.0,2923.0,2923.0,2260.8,1223.0,2249.0,891.0,Object_Land_Pattern_Small,18.05097008298617,24.06308958295267,4.0,Object_Land_Pattern_Small,-9.0,,,,,,,,,,,
encoding,attention,20,18825805,18828824,18825992.0,18826301.0,310.0,310.0,2211.4,1221.4,2249.0,891.0,Object_Land_Pattern_Small,24.063284125062637,27.08245958306361,4.0,Object_Land_Pattern_Small,-9.0,-9.0,1.0,0.7887247920734808,,,,,,,,
encoding,attention,20,18825805,18828824,18826449.0,18826851.0,403.0,403.0,2185.0,1220.2,2249.0,891.0,Object_Land_Pattern_Small,24.063284125062637,27.08245958306361,4.0,Object_Land_Pattern_Small,-9.0,-9.0,1.0,0.7887247920734808,,,,,,,,
encoding,attention,20,18825805,18828824,18827331.0,18827655.0,325.0,325.0,2015.2,1319.6,1920.0,700.0,Animal_Sea_Solid_Large,24.063284125062637,27.08245958306361,4.0,Object_Land_Pattern_Small,-9.0,-9.0,1.0,0.7887247920734808,,,,,,,,
encoding,attention,20,18825805,18828824,18827680.0,18828028.0,349.0,349.0,2180.5,1264.6,2249.0,891.0,Object_Land_Pattern_Small,24.063284125062637,27.08245958306361,4.0,Object_Land_Pattern_Small,-9.0,-9.0,1.0,0.7887247920734808,,,,,,,,
encoding,attention,20,18825805,18828824,18828279.0,18828472.0,194.0,194.0,2091.3,1294.2,2249.0,891.0,Object_Land_Pattern_Small,24.063284125062637,27.08245958306361,4.0,Object_Land_Pattern_Small,-9.0,-9.0,1.0,0.7887247920734808,,,,,,,,
encoding,fixation,21,18828824,18830080,18829019.0,18829186.0,168.0,168.0,1934.4,1179.9,1920.0,700.0,Animal_Sea_Solid_Large,27.082606166950427,28.337996750022285,4.0,Animal_Sea_Pattern_Large,3.0,,,,,,,,,,,
encoding,fixation,21,18828824,18830080,18829455.0,18830273.0,819.0,625.0,1955.3,1375.2,1920.0,700.0,Animal_Sea_Solid_Large,27.082606166950427,28.337996750022285,4.0,Animal_Sea_Pattern_Large,3.0,,,,,,,,,,,
encoding,image,21,18830080,18831090,18830305.0,18830628.0,324.0,324.0,1596.9,1319.8,1591.0,891.0,Animal_Sea_Pattern_Large,28.338101375033148,29.348708749981597,4.0,Animal_Sea_Pattern_Large,3.0,,,,,,,,,,,
encoding,image,21,18830080,18831090,18830664.0,18830960.0,297.0,297.0,1888.5,1341.7,1920.0,700.0,Animal_Sea_Solid_Large,28.338101375033148,29.348708749981597,4.0,Animal_Sea_Pattern_Large,3.0,,,,,,,,,,,
encoding,image,21,18830080,18831090,18830991.0,18831660.0,670.0,99.0,1602.6,1204.7,1591.0,891.0,Animal_Sea_Pattern_Large,28.338101375033148,29.348708749981597,4.0,Animal_Sea_Pattern_Large,3.0,,,,,,,,,,,
encoding,value,21,18831090,18837103,18831853.0,18832575.0,723.0,723.0,1595.5,1224.3,1591.0,891.0,Animal_Sea_Pattern_Large,29.348820541985333,35.36066833301447,4.0,Animal_Sea_Pattern_Large,3.0,,,,,,,,,,,
encoding,value,21,18831090,18837103,18832789.0,18833505.0,717.0,717.0,1617.2,1241.5,1591.0,891.0,Animal_Sea_Pattern_Large,29.348820541985333,35.36066833301447,4.0,Animal_Sea_Pattern_Large,3.0,,,,,,,,,,,
encoding,value,21,18831090,18837103,18833533.0,18834213.0,681.0,681.0,1839.8,1345.0,1920.0,700.0,Animal_Sea_Solid_Large,29.348820541985333,35.36066833301447,4.0,Animal_Sea_Pattern_Large,3.0,,,,,,,,,,,
encoding,value,21,18831090,18837103,18834599.0,18834882.0,284.0,284.0,1647.2,1288.7,1591.0,891.0,Animal_Sea_Pattern_Large,29.348820541985333,35.36066833301447,4.0,Animal_Sea_Pattern_Large,3.0,,,,,,,,,,,
encoding,value,21,18831090,18837103,18834895.0,18836267.0,1373.0,1373.0,1594.4,1238.2,1591.0,891.0,Animal_Sea_Pattern_Large,29.348820541985333,35.36066833301447,4.0,Animal_Sea_Pattern_Large,3.0,,,,,,,,,,,
encoding,value,21,18831090,18837103,18836425.0,18837066.0,642.0,642.0,1603.2,1291.5,1591.0,891.0,Animal_Sea_Pattern_Large,29.348820541985333,35.36066833301447,4.0,Animal_Sea_Pattern_Large,3.0,,,,,,,,,,,
encoding,value,21,18831090,18837103,18837078.0,18837498.0,421.0,25.0,1613.7,1218.6,1591.0,891.0,Animal_Sea_Pattern_Large,29.348820541985333,35.36066833301447,4.0,Animal_Sea_Pattern_Large,3.0,,,,,,,,,,,
encoding,attention,21,18837103,18840123,18837706.0,18837954.0,249.0,249.0,1617.8,1284.4,1591.0,891.0,Animal_Sea_Pattern_Large,35.36078312504105,38.38092916703317,4.0,Animal_Sea_Pattern_Large,3.0,3.0,1.0,1.618103750050068,,,,,,,,
encoding,attention,21,18837103,18840123,18838215.0,18838380.0,166.0,166.0,1756.7,1382.0,1920.0,700.0,Animal_Sea_Solid_Large,35.36078312504105,38.38092916703317,4.0,Animal_Sea_Pattern_Large,3.0,3.0,1.0,1.618103750050068,,,,,,,,
encoding,attention,21,18837103,18840123,18838401.0,18838905.0,505.0,505.0,1612.2,1316.2,1591.0,891.0,Animal_Sea_Pattern_Large,35.36078312504105,38.38092916703317,4.0,Animal_Sea_Pattern_Large,3.0,3.0,1.0,1.618103750050068,,,,,,,,
encoding,attention,21,18837103,18840123,18838938.0,18839079.0,142.0,142.0,1967.0,1369.5,1920.0,700.0,Animal_Sea_Solid_Large,35.36078312504105,38.38092916703317,4.0,Animal_Sea_Pattern_Large,3.0,3.0,1.0,1.618103750050068,,,,,,,,
encoding,attention,21,18837103,18840123,18839260.0,18839503.0,244.0,244.0,1869.5,1372.4,1920.0,700.0,Animal_Sea_Solid_Large,35.36078312504105,38.38092916703317,4.0,Animal_Sea_Pattern_Large,3.0,3.0,1.0,1.618103750050068,,,,,,,,
encoding,fixation,22,18840123,18840878,18840693.0,18840900.0,208.0,185.0,1903.9,1386.9,1920.0,700.0,Animal_Sea_Solid_Large,38.38106820802204,39.13617800001521,4.0,Object_Land_Solid_Small,3.0,,,,,,,,,,,
encoding,image,22,18840878,18841890,18841057.0,18841524.0,468.0,468.0,1882.7,1379.6,1920.0,700.0,Animal_Sea_Solid_Large,39.13628062501084,40.14768987498246,4.0,Object_Land_Solid_Small,3.0,,,,,,,,,,,
encoding,image,22,18840878,18841890,18841555.0,18841802.0,248.0,248.0,2074.8,1371.9,1920.0,700.0,Animal_Sea_Solid_Large,39.13628062501084,40.14768987498246,4.0,Object_Land_Solid_Small,3.0,,,,,,,,,,,
encoding,image,22,18840878,18841890,18841847.0,18842118.0,272.0,43.0,1611.3,1256.9,1591.0,891.0,Animal_Sea_Pattern_Large,39.13628062501084,40.14768987498246,4.0,Object_Land_Solid_Small,3.0,,,,,,,,,,,
encoding,value,22,18841890,18847902,18842132.0,18842363.0,232.0,232.0,1591.0,1309.7,1591.0,891.0,Animal_Sea_Pattern_Large,40.14779129205272,46.15970149997156,4.0,Object_Land_Solid_Small,3.0,,,,,,,,,,,
encoding,value,22,18841890,18847902,18842404.0,18842521.0,118.0,118.0,1622.4,864.5999999999999,1591.0,1269.0,Object_Land_Solid_Small,40.14779129205272,46.15970149997156,4.0,Object_Land_Solid_Small,3.0,,,,,,,,,,,
encoding,value,22,18841890,18847902,18842531.0,18842822.0,292.0,292.0,1604.2,902.4000000000001,1591.0,1269.0,Object_Land_Solid_Small,40.14779129205272,46.15970149997156,4.0,Object_Land_Solid_Small,3.0,,,,,,,,,,,
encoding,value,22,18841890,18847902,18843255.0,18843366.0,112.0,112.0,1657.9,1087.1,1591.0,891.0,Animal_Sea_Pattern_Large,40.14779129205272,46.15970149997156,4.0,Object_Land_Solid_Small,3.0,,,,,,,,,,,
encoding,value,22,18841890,18847902,18843839.0,18843927.0,89.0,89.0,1696.8,1114.1,1591.0,891.0,Animal_Sea_Pattern_Large,40.14779129205272,46.15970149997156,4.0,Object_Land_Solid_Small,3.0,,,,,,,,,,,
encoding,value,22,18841890,18847902,18844659.0,18845023.0,365.0,365.0,1622.8,1047.2,1591.0,1269.0,Object_Land_Solid_Small,40.14779129205272,46.15970149997156,4.0,Object_Land_Solid_Small,3.0,,,,,,,,,,,
encoding,value,22,18841890,18847902,18845038.0,18846493.0,1456.0,1456.0,1603.8,944.5999999999999,1591.0,1269.0,Object_Land_Solid_Small,40.14779129205272,46.15970149997156,4.0,Object_Land_Solid_Small,3.0,,,,,,,,,,,
encoding,value,22,18841890,18847902,18846690.0,18846718.0,29.0,29.0,1661.1,1146.8,1591.0,891.0,Animal_Sea_Pattern_Large,40.14779129205272,46.15970149997156,4.0,Object_Land_Solid_Small,3.0,,,,,,,,,,,
encoding,value,22,18841890,18847902,18846747.0,18848312.0,1566.0,1155.0,1594.1,935.0999999999999,1591.0,1269.0,Object_Land_Solid_Small,40.14779129205272,46.15970149997156,4.0,Object_Land_Solid_Small,3.0,,,,,,,,,,,
encoding,attention,22,18847902,18850922,18848535.0,18848607.0,73.0,73.0,1656.6,1092.2,1591.0,891.0,Animal_Sea_Pattern_Large,46.159811625024304,49.17908554198221,4.0,Object_Land_Solid_Small,3.0,3.0,1.0,1.3500431249849498,,,,,,,,
encoding,attention,22,18847902,18850922,18848644.0,18848746.0,103.0,103.0,1627.0,927.0999999999999,1591.0,1269.0,Object_Land_Solid_Small,46.159811625024304,49.17908554198221,4.0,Object_Land_Solid_Small,3.0,3.0,1.0,1.3500431249849498,,,,,,,,
encoding,attention,22,18847902,18850922,18849144.0,18849182.0,39.0,39.0,1684.1,1168.5,1591.0,891.0,Animal_Sea_Pattern_Large,46.159811625024304,49.17908554198221,4.0,Object_Land_Solid_Small,3.0,3.0,1.0,1.3500431249849498,,,,,,,,
encoding,attention,22,18847902,18850922,18849210.0,18849541.0,332.0,332.0,1646.0,974.3,1591.0,1269.0,Object_Land_Solid_Small,46.159811625024304,49.17908554198221,4.0,Object_Land_Solid_Small,3.0,3.0,1.0,1.3500431249849498,,,,,,,,
encoding,attention,22,18847902,18850922,18849549.0,18850061.0,513.0,513.0,1655.8,882.9000000000001,1591.0,1269.0,Object_Land_Solid_Small,46.159811625024304,49.17908554198221,4.0,Object_Land_Solid_Small,3.0,3.0,1.0,1.3500431249849498,,,,,,,,
encoding,attention,22,18847902,18850922,18850103.0,18850279.0,177.0,177.0,1658.0,1176.6,1591.0,891.0,Animal_Sea_Pattern_Large,46.159811625024304,49.17908554198221,4.0,Object_Land_Solid_Small,3.0,3.0,1.0,1.3500431249849498,,,,,,,,
encoding,fixation,23,18850922,18851677,18851614.0,18851884.0,271.0,63.0,2116.9,1240.1,2249.0,891.0,Object_Land_Pattern_Small,49.179229042027146,49.9343570000492,4.0,Object_Sea_Pattern_Small,3.0,,,,,,,,,,,
encoding,image,23,18851677,18852688,18851903.0,18852011.0,109.0,109.0,2005.2,1174.3,2249.0,891.0,Object_Land_Pattern_Small,49.93448241695296,50.94550375000108,4.0,Object_Sea_Pattern_Small,3.0,,,,,,,,,,,
encoding,image,23,18851677,18852688,18852168.0,18852215.0,48.0,48.0,1946.7,997.5999999999999,1920.0,1460.0,Object_Sea_Pattern_Small,49.93448241695296,50.94550375000108,4.0,Object_Sea_Pattern_Small,3.0,,,,,,,,,,,
encoding,image,23,18851677,18852688,18852237.0,18852321.0,85.0,85.0,1937.9,838.9000000000001,1920.0,1460.0,Object_Sea_Pattern_Small,49.93448241695296,50.94550375000108,4.0,Object_Sea_Pattern_Small,3.0,,,,,,,,,,,
encoding,image,23,18851677,18852688,18852626.0,18852887.0,262.0,62.0,1840.7,1352.0,1920.0,700.0,Animal_Sea_Solid_Large,49.93448241695296,50.94550375000108,4.0,Object_Sea_Pattern_Small,3.0,,,,,,,,,,,
encoding,value,23,18852688,18858702,18852912.0,18853049.0,138.0,138.0,1686.4,1265.2,1591.0,891.0,Animal_Sea_Pattern_Large,50.945624249987304,56.9588438749779,4.0,Object_Sea_Pattern_Small,3.0,,,,,,,,,,,
encoding,value,23,18852688,18858702,18853106.0,18853201.0,96.0,96.0,1959.0,679.5999999999999,1920.0,1460.0,Object_Sea_Pattern_Small,50.945624249987304,56.9588438749779,4.0,Object_Sea_Pattern_Small,3.0,,,,,,,,,,,
encoding,value,23,18852688,18858702,18853216.0,18853445.0,230.0,230.0,1939.1,746.2,1920.0,1460.0,Object_Sea_Pattern_Small,50.945624249987304,56.9588438749779,4.0,Object_Sea_Pattern_Small,3.0,,,,,,,,,,,
encoding,value,23,18852688,18858702,18853466.0,18853494.0,29.0,29.0,1970.0,877.3,1920.0,1460.0,Object_Sea_Pattern_Small,50.945624249987304,56.9588438749779,4.0,Object_Sea_Pattern_Small,3.0,,,,,,,,,,,
encoding,value,23,18852688,18858702,18854002.0,18854053.0,52.0,52.0,1960.7,1037.6,1920.0,1080.0,fixation,50.945624249987304,56.9588438749779,4.0,Object_Sea_Pattern_Small,3.0,,,,,,,,,,,
encoding,value,23,18852688,18858702,18854072.0,18854348.0,277.0,277.0,1990.4,928.0,1920.0,1460.0,Object_Sea_Pattern_Small,50.945624249987304,56.9588438749779,4.0,Object_Sea_Pattern_Small,3.0,,,,,,,,,,,
encoding,value,23,18852688,18858702,18854362.0,18854633.0,272.0,272.0,1928.2,829.4000000000001,1920.0,1460.0,Object_Sea_Pattern_Small,50.945624249987304,56.9588438749779,4.0,Object_Sea_Pattern_Small,3.0,,,,,,,,,,,
encoding,value,23,18852688,18858702,18854674.0,18855046.0,373.0,373.0,1748.3,1039.5,1591.0,1269.0,Object_Land_Solid_Small,50.945624249987304,56.9588438749779,4.0,Object_Sea_Pattern_Small,3.0,,,,,,,,,,,
encoding,value,23,18852688,18858702,18855064.0,18855457.0,394.0,394.0,1693.7,1184.4,1591.0,891.0,Animal_Sea_Pattern_Large,50.945624249987304,56.9588438749779,4.0,Object_Sea_Pattern_Small,3.0,,,,,,,,,,,
encoding,value,23,18852688,18858702,18855499.0,18855979.0,481.0,481.0,1909.2,928.3,1920.0,1460.0,Object_Sea_Pattern_Small,50.945624249987304,56.9588438749779,4.0,Object_Sea_Pattern_Small,3.0,,,,,,,,,,,
encoding,value,23,18852688,18858702,18856129.0,18856159.0,31.0,31.0,1915.9,1008.7,1920.0,1460.0,Object_Sea_Pattern_Small,50.945624249987304,56.9588438749779,4.0,Object_Sea_Pattern_Small,3.0,,,,,,,,,,,
encoding,value,23,18852688,18858702,18856185.0,18856885.0,701.0,701.0,1923.5,879.2,1920.0,1460.0,Object_Sea_Pattern_Small,50.945624249987304,56.9588438749779,4.0,Object_Sea_Pattern_Small,3.0,,,,,,,,,,,
encoding,value,23,18852688,18858702,18856907.0,18857289.0,383.0,383.0,1910.3,717.5,1920.0,1460.0,Object_Sea_Pattern_Small,50.945624249987304,56.9588438749779,4.0,Object_Sea_Pattern_Small,3.0,,,,,,,,,,,
encoding,value,23,18852688,18858702,18857299.0,18858931.0,1633.0,1403.0,1920.9,742.4000000000001,1920.0,1460.0,Object_Sea_Pattern_Small,50.945624249987304,56.9588438749779,4.0,Object_Sea_Pattern_Small,3.0,,,,,,,,,,,
encoding,attention,23,18858702,18861724,18858941.0,18859113.0,173.0,173.0,1882.8,690.9000000000001,1920.0,1460.0,Object_Sea_Pattern_Small,56.9589512499515,59.98065829195548,4.0,Object_Sea_Pattern_Small,3.0,3.0,1.0,1.3294806669000536,,,,,,,,
encoding,attention,23,18858702,18861724,18859363.0,18859422.0,60.0,60.0,1871.0,855.8,1920.0,1460.0,Object_Sea_Pattern_Small,56.9589512499515,59.98065829195548,4.0,Object_Sea_Pattern_Small,3.0,3.0,1.0,1.3294806669000536,,,,,,,,
encoding,attention,23,18858702,18861724,18859444.0,18859652.0,209.0,209.0,1869.4,756.5,1920.0,1460.0,Object_Sea_Pattern_Small,56.9589512499515,59.98065829195548,4.0,Object_Sea_Pattern_Small,3.0,3.0,1.0,1.3294806669000536,,,,,,,,
encoding,attention,23,18858702,18861724,18859676.0,18859857.0,182.0,182.0,1967.7,664.5,1920.0,1460.0,Object_Sea_Pattern_Small,56.9589512499515,59.98065829195548,4.0,Object_Sea_Pattern_Small,3.0,3.0,1.0,1.3294806669000536,,,,,,,,
encoding,attention,23,18858702,18861724,18859877.0,18860261.0,385.0,385.0,1909.1,702.0,1920.0,1460.0,Object_Sea_Pattern_Small,56.9589512499515,59.98065829195548,4.0,Object_Sea_Pattern_Small,3.0,3.0,1.0,1.3294806669000536,,,,,,,,
encoding,attention,23,18858702,18861724,18860547.0,18860809.0,263.0,263.0,1881.0,948.3,1920.0,1460.0,Object_Sea_Pattern_Small,56.9589512499515,59.98065829195548,4.0,Object_Sea_Pattern_Small,3.0,3.0,1.0,1.3294806669000536,,,,,,,,
encoding,attention,23,18858702,18861724,18860829.0,18861097.0,269.0,269.0,1934.8,820.9000000000001,1920.0,1460.0,Object_Sea_Pattern_Small,56.9589512499515,59.98065829195548,4.0,Object_Sea_Pattern_Small,3.0,3.0,1.0,1.3294806669000536,,,,,,,,
encoding,attention,23,18858702,18861724,18861131.0,18861341.0,211.0,211.0,1739.6,1037.6,1591.0,1269.0,Object_Land_Solid_Small,56.9589512499515,59.98065829195548,4.0,Object_Sea_Pattern_Small,3.0,3.0,1.0,1.3294806669000536,,,,,,,,
encoding,attention,23,18858702,18861724,18861357.0,18861506.0,150.0,150.0,1663.1,1155.5,1591.0,891.0,Animal_Sea_Pattern_Large,56.9589512499515,59.98065829195548,4.0,Object_Sea_Pattern_Small,3.0,3.0,1.0,1.3294806669000536,,,,,,,,
encoding,fixation,24,18861724,18862729,18861848.0,18862026.0,179.0,179.0,1772.7,1116.3,1591.0,891.0,Animal_Sea_Pattern_Large,59.98081395798363,60.98595766699873,4.0,Animal_Land_Solid_Large,7.0,,,,,,,,,,,
encoding,fixation,24,18861724,18862729,18862272.0,18862875.0,604.0,457.0,1943.3,1246.9,1920.0,700.0,Animal_Sea_Solid_Large,59.98081395798363,60.98595766699873,4.0,Animal_Land_Solid_Large,7.0,,,,,,,,,,,
encoding,image,24,18862729,18863741,18862905.0,18863108.0,204.0,204.0,2219.0,967.0999999999999,2249.0,1269.0,Animal_Land_Solid_Large,60.98605495796073,61.99792900006287,4.0,Animal_Land_Solid_Large,7.0,,,,,,,,,,,
encoding,image,24,18862729,18863741,18863118.0,18863399.0,282.0,282.0,2278.9,979.0999999999999,2249.0,1269.0,Animal_Land_Solid_Large,60.98605495796073,61.99792900006287,4.0,Animal_Land_Solid_Large,7.0,,,,,,,,,,,
encoding,image,24,18862729,18863741,18863721.0,18863934.0,214.0,20.0,2089.4,1000.9000000000001,2249.0,1269.0,Animal_Land_Solid_Large,60.98605495796073,61.99792900006287,4.0,Animal_Land_Solid_Large,7.0,,,,,,,,,,,
encoding,value,24,18863741,18869753,18863957.0,18864360.0,404.0,404.0,2249.3,863.8,2249.0,1269.0,Animal_Land_Solid_Large,61.99804562504869,68.00952145806514,4.0,Animal_Land_Solid_Large,7.0,,,,,,,,,,,
encoding,value,24,18863741,18869753,18864624.0,18864982.0,359.0,359.0,2155.8,1087.1,2249.0,891.0,Object_Land_Pattern_Small,61.99804562504869,68.00952145806514,4.0,Animal_Land_Solid_Large,7.0,,,,,,,,,,,
encoding,value,24,18863741,18869753,18865018.0,18865227.0,210.0,210.0,2027.9,1189.6,2249.0,891.0,Object_Land_Pattern_Small,61.99804562504869,68.00952145806514,4.0,Animal_Land_Solid_Large,7.0,,,,,,,,,,,
encoding,value,24,18863741,18869753,18865254.0,18865519.0,266.0,266.0,1898.8,1344.6,1920.0,700.0,Animal_Sea_Solid_Large,61.99804562504869,68.00952145806514,4.0,Animal_Land_Solid_Large,7.0,,,,,,,,,,,
encoding,value,24,18863741,18869753,18865547.0,18865878.0,332.0,332.0,1839.7,1447.5,1920.0,700.0,Animal_Sea_Solid_Large,61.99804562504869,68.00952145806514,4.0,Animal_Land_Solid_Large,7.0,,,,,,,,,,,
encoding,value,24,18863741,18869753,18866004.0,18866226.0,223.0,223.0,1873.6,1476.2,1920.0,700.0,Animal_Sea_Solid_Large,61.99804562504869,68.00952145806514,4.0,Animal_Land_Solid_Large,7.0,,,,,,,,,,,
encoding,value,24,18863741,18869753,18866375.0,18866962.0,588.0,588.0,1889.0,1440.2,1920.0,700.0,Animal_Sea_Solid_Large,61.99804562504869,68.00952145806514,4.0,Animal_Land_Solid_Large,7.0,,,,,,,,,,,
encoding,value,24,18863741,18869753,18867155.0,18867330.0,176.0,176.0,1967.6,1181.5,1920.0,700.0,Animal_Sea_Solid_Large,61.99804562504869,68.00952145806514,4.0,Animal_Land_Solid_Large,7.0,,,,,,,,,,,
encoding,value,24,18863741,18869753,18867363.0,18868134.0,772.0,772.0,2238.4,898.3,2249.0,1269.0,Animal_Land_Solid_Large,61.99804562504869,68.00952145806514,4.0,Animal_Land_Solid_Large,7.0,,,,,,,,,,,
encoding,value,24,18863741,18869753,18868160.0,18868344.0,185.0,185.0,2146.7,937.7,2249.0,1269.0,Animal_Land_Solid_Large,61.99804562504869,68.00952145806514,4.0,Animal_Land_Solid_Large,7.0,,,,,,,,,,,
encoding,value,24,18863741,18869753,18868649.0,18868660.0,12.0,12.0,2154.6,1043.8,2249.0,1269.0,Animal_Land_Solid_Large,61.99804562504869,68.00952145806514,4.0,Animal_Land_Solid_Large,7.0,,,,,,,,,,,
encoding,value,24,18863741,18869753,18868680.0,18869011.0,332.0,332.0,2180.5,966.3,2249.0,1269.0,Animal_Land_Solid_Large,61.99804562504869,68.00952145806514,4.0,Animal_Land_Solid_Large,7.0,,,,,,,,,,,
encoding,value,24,18863741,18869753,18869049.0,18869332.0,284.0,284.0,1982.6,1116.7,2249.0,891.0,Object_Land_Pattern_Small,61.99804562504869,68.00952145806514,4.0,Animal_Land_Solid_Large,7.0,,,,,,,,,,,
encoding,value,24,18863741,18869753,18869345.0,18870013.0,669.0,408.0,1946.3,1192.5,1920.0,700.0,Animal_Sea_Solid_Large,61.99804562504869,68.00952145806514,4.0,Animal_Land_Solid_Large,7.0,,,,,,,,,,,
encoding,attention,24,18869753,18872769,18870052.0,18870277.0,226.0,226.0,2215.1,946.3,2249.0,1269.0,Animal_Land_Solid_Large,68.00964916695375,71.0255550830625,4.0,Animal_Land_Solid_Large,7.0,,,,,,,,,,,
encoding,attention,24,18869753,18872769,18870576.0,18870767.0,192.0,192.0,2143.5,991.8,2249.0,1269.0,Animal_Land_Solid_Large,68.00964916695375,71.0255550830625,4.0,Animal_Land_Solid_Large,7.0,,,,,,,,,,,
encoding,attention,24,18869753,18872769,18871250.0,18871305.0,56.0,56.0,2065.9,1234.3,2249.0,891.0,Object_Land_Pattern_Small,68.00964916695375,71.0255550830625,4.0,Animal_Land_Solid_Large,7.0,,,,,,,,,,,
encoding,attention,24,18869753,18872769,18871325.0,18871622.0,298.0,298.0,1976.3,1246.2,1920.0,700.0,Animal_Sea_Solid_Large,68.00964916695375,71.0255550830625,4.0,Animal_Land_Solid_Large,7.0,,,,,,,,,,,
encoding,attention,24,18869753,18872769,18871640.0,18871700.0,61.0,61.0,1903.1,1289.2,1920.0,700.0,Animal_Sea_Solid_Large,68.00964916695375,71.0255550830625,4.0,Animal_Land_Solid_Large,7.0,,,,,,,,,,,
encoding,attention,24,18869753,18872769,18871943.0,18872453.0,511.0,511.0,1939.6,1300.4,1920.0,700.0,Animal_Sea_Solid_Large,68.00964916695375,71.0255550830625,4.0,Animal_Land_Solid_Large,7.0,,,,,,,,,,,
encoding,fixation,25,19199352,19200857,19199373.0,19199587.0,215.0,215.0,1885.3,1168.6,1920.0,700.0,Object_Land_Pattern_Large,5.622298582922667,7.127598832943477,5.0,Animal_Sea_Pattern_Small,6.0,,,,,,,,,,,
encoding,fixation,25,19199352,19200857,19199597.0,19199739.0,143.0,143.0,1958.4,1148.4,1920.0,700.0,Object_Land_Pattern_Large,5.622298582922667,7.127598832943477,5.0,Animal_Sea_Pattern_Small,6.0,,,,,,,,,,,
encoding,fixation,25,19199352,19200857,19199776.0,19200606.0,831.0,831.0,1914.7,1428.4,1920.0,700.0,Object_Land_Pattern_Large,5.622298582922667,7.127598832943477,5.0,Animal_Sea_Pattern_Small,6.0,,,,,,,,,,,
encoding,fixation,25,19199352,19200857,19200653.0,19201027.0,375.0,204.0,1914.0,1096.8,1920.0,1080.0,fixation,5.622298582922667,7.127598832943477,5.0,Animal_Sea_Pattern_Small,6.0,,,,,,,,,,,
encoding,image,25,19200857,19201869,19201054.0,19201450.0,397.0,397.0,1662.5,989.0999999999999,1591.0,1269.0,Animal_Sea_Pattern_Small,7.127715416951105,8.140248874900863,5.0,Animal_Sea_Pattern_Small,6.0,,,,,,,,,,,
encoding,image,25,19200857,19201869,19201714.0,19202060.0,347.0,155.0,1651.9,1007.3,1591.0,1269.0,Animal_Sea_Pattern_Small,7.127715416951105,8.140248874900863,5.0,Animal_Sea_Pattern_Small,6.0,,,,,,,,,,,
encoding,value,25,19201869,19207885,19202083.0,19202388.0,306.0,306.0,1621.2,925.5999999999999,1591.0,1269.0,Animal_Sea_Pattern_Small,8.140351999900304,14.155330874957144,5.0,Animal_Sea_Pattern_Small,6.0,,,,,,,,,,,
encoding,value,25,19201869,19207885,19202691.0,19202835.0,145.0,145.0,1638.2,996.8,1591.0,1269.0,Animal_Sea_Pattern_Small,8.140351999900304,14.155330874957144,5.0,Animal_Sea_Pattern_Small,6.0,,,,,,,,,,,
encoding,value,25,19201869,19207885,19202845.0,19204634.0,1790.0,1790.0,1631.6,919.4000000000001,1591.0,1269.0,Animal_Sea_Pattern_Small,8.140351999900304,14.155330874957144,5.0,Animal_Sea_Pattern_Small,6.0,,,,,,,,,,,
encoding,value,25,19201869,19207885,19204885.0,19205294.0,410.0,410.0,1652.2,968.5,1591.0,1269.0,Animal_Sea_Pattern_Small,8.140351999900304,14.155330874957144,5.0,Animal_Sea_Pattern_Small,6.0,,,,,,,,,,,
encoding,value,25,19201869,19207885,19205510.0,19206015.0,506.0,506.0,1666.8,893.7,1591.0,1269.0,Animal_Sea_Pattern_Small,8.140351999900304,14.155330874957144,5.0,Animal_Sea_Pattern_Small,6.0,,,,,,,,,,,
encoding,value,25,19201869,19207885,19206206.0,19206243.0,38.0,38.0,1704.8,1121.4,1591.0,891.0,Animal_Land_Pattern_Large,8.140351999900304,14.155330874957144,5.0,Animal_Sea_Pattern_Small,6.0,,,,,,,,,,,
encoding,value,25,19201869,19207885,19206262.0,19206876.0,615.0,615.0,1622.5,963.9000000000001,1591.0,1269.0,Animal_Sea_Pattern_Small,8.140351999900304,14.155330874957144,5.0,Animal_Sea_Pattern_Small,6.0,,,,,,,,,,,
encoding,value,25,19201869,19207885,19207276.0,19207695.0,420.0,420.0,1639.7,963.4000000000001,1591.0,1269.0,Animal_Sea_Pattern_Small,8.140351999900304,14.155330874957144,5.0,Animal_Sea_Pattern_Small,6.0,,,,,,,,,,,
encoding,value,25,19201869,19207885,19207709.0,19208152.0,444.0,176.0,1625.2,969.0999999999999,1591.0,1269.0,Animal_Sea_Pattern_Small,8.140351999900304,14.155330874957144,5.0,Animal_Sea_Pattern_Small,6.0,,,,,,,,,,,
encoding,attention,25,19207885,19210903,19208161.0,19208602.0,442.0,442.0,1682.9,927.2,1591.0,1269.0,Animal_Sea_Pattern_Small,14.155444749980234,17.17370074999053,5.0,Animal_Sea_Pattern_Small,6.0,6.0,1.0,1.5373722499934956,,,,,,,,
encoding,attention,25,19207885,19210903,19209290.0,19209438.0,149.0,149.0,1641.8,1060.6,1591.0,1269.0,Animal_Sea_Pattern_Small,14.155444749980234,17.17370074999053,5.0,Animal_Sea_Pattern_Small,6.0,6.0,1.0,1.5373722499934956,,,,,,,,
encoding,attention,25,19207885,19210903,19209461.0,19209993.0,533.0,533.0,1671.5,943.0999999999999,1591.0,1269.0,Animal_Sea_Pattern_Small,14.155444749980234,17.17370074999053,5.0,Animal_Sea_Pattern_Small,6.0,6.0,1.0,1.5373722499934956,,,,,,,,
encoding,attention,25,19207885,19210903,19210155.0,19210221.0,67.0,67.0,1693.6,1040.9,1591.0,1269.0,Animal_Sea_Pattern_Small,14.155444749980234,17.17370074999053,5.0,Animal_Sea_Pattern_Small,6.0,6.0,1.0,1.5373722499934956,,,,,,,,
encoding,fixation,26,19210903,19211659,19211166.0,19211415.0,250.0,250.0,1927.6,1139.0,1920.0,1080.0,fixation,17.173851207946427,17.92940570798237,5.0,Object_Sea_Solid_Small,-5.0,,,,,,,,,,,
