subject,phase,event,trial_number,game,option,choice,rt,roi_content,item_index,is_center,is_relevant,fix_start,fix_end,fix_duration_bounded
103,choice,choice,1,1.0,Sea,2.0,14.062734958017243,Animal_Sea_Solid_Large,0,0,1,17445983.0,17446548.0,565.0
103,choice,choice,1,1.0,Sea,2.0,14.062734958017243,Animal_Sea_Pattern_Large,1,0,1,17446749.0,17446770.0,21.0
103,choice,choice,1,1.0,Sea,2.0,14.062734958017243,Animal_Sea_Solid_Large,0,0,1,17447330.0,17447856.0,526.0
103,choice,choice,1,1.0,Sea,2.0,14.062734958017243,Animal_Sea_Pattern_Large,1,0,1,17448888.0,17450341.0,1453.0
103,choice,choice,1,1.0,Sea,2.0,14.062734958017243,Animal_Sea_Solid_Large,0,0,1,17450712.0,17451535.0,823.0
103,choice,choice,1,1.0,Sea,2.0,14.062734958017243,Animal_Sea_Pattern_Large,1,0,1,17451817.0,17452409.0,592.0
103,choice,choice,1,1.0,Sea,2.0,14.062734958017243,Animal_Sea_Solid_Large,0,0,1,17452960.0,17454875.0,1915.0
103,choice,choice,1,1.0,Sea,2.0,14.062734958017243,fixation,-1,1,0,17456001.0,17456199.0,198.0
103,choice,choice,1,1.0,Sea,2.0,14.062734958017243,Object_Land_Solid_Small,2,0,0,17456214.0,17456667.0,453.0
103,choice,choice,1,1.0,Sea,2.0,14.062734958017243,Animal_Sea_Pattern_Large,1,0,1,17456963.0,17457248.0,285.0
103,choice,choice,1,1.0,Sea,2.0,14.062734958017243,Object_Sea_Pattern_Small,3,0,1,17457288.0,17457745.0,457.0
103,choice,choice,1,1.0,Sea,2.0,14.062734958017243,Animal_Sea_Pattern_Large,1,0,1,17457785.0,17458615.0,830.0
103,choice,choice,1,1.0,Sea,2.0,14.062734958017243,Animal_Sea_Solid_Large,0,0,1,17458936.0,17459284.0,348.0
103,choice,choice,1,1.0,Sea,2.0,14.062734958017243,Object_Land_Solid_Small,2,0,0,17459324.0,17459806.0,482.0
103,choice,choice,2,1.0,Large,1.0,24.833274999982677,Animal_Sea_Solid_Large,0,0,1,17462767.0,17463322.0,555.0
103,choice,choice,2,1.0,Large,1.0,24.833274999982677,Animal_Sea_Pattern_Large,1,0,1,17463342.0,17464280.0,938.0
103,choice,choice,2,1.0,Large,1.0,24.833274999982677,Animal_Sea_Solid_Large,0,0,1,17464921.0,17465163.0,242.0
103,choice,choice,2,1.0,Large,1.0,24.833274999982677,Animal_Sea_Pattern_Large,1,0,1,17465370.0,17465584.0,214.0
103,choice,choice,2,1.0,Large,1.0,24.833274999982677,Animal_Sea_Solid_Large,0,0,1,17465598.0,17465981.0,383.0
103,choice,choice,2,1.0,Large,1.0,24.833274999982677,Object_Land_Pattern_Small,4,0,0,17466437.0,17466936.0,499.0
103,choice,choice,2,1.0,Large,1.0,24.833274999982677,Animal_Sea_Solid_Large,0,0,1,17466957.0,17466978.0,21.0
103,choice,choice,2,1.0,Large,1.0,24.833274999982677,Object_Land_Pattern_Small,4,0,0,17467309.0,17467859.0,550.0
103,choice,choice,2,1.0,Large,1.0,24.833274999982677,Animal_Land_Solid_Large,5,0,1,17468157.0,17468376.0,219.0
103,choice,choice,2,1.0,Large,1.0,24.833274999982677,Animal_Sea_Solid_Large,0,0,1,17468818.0,17468954.0,136.0
103,choice,choice,2,1.0,Large,1.0,24.833274999982677,fixation,-1,1,0,17468997.0,17469230.0,233.0
103,choice,choice,2,1.0,Large,1.0,24.833274999982677,Animal_Sea_Solid_Large,0,0,1,17471180.0,17471438.0,258.0
103,choice,choice,2,1.0,Large,1.0,24.833274999982677,Object_Sea_Pattern_Small,3,0,0,17473758.0,17475011.0,1253.0
103,choice,choice,2,1.0,Large,1.0,24.833274999982677,Animal_Sea_Pattern_Large,1,0,1,17476949.0,17477210.0,261.0
103,choice,choice,2,1.0,Large,1.0,24.833274999982677,Animal_Sea_Solid_Large,0,0,1,17477238.0,17477769.0,531.0
103,choice,choice,2,1.0,Large,1.0,24.833274999982677,Animal_Sea_Pattern_Large,1,0,1,17478009.0,17478326.0,317.0
103,choice,choice,2,1.0,Large,1.0,24.833274999982677,Animal_Sea_Solid_Large,0,0,1,17478657.0,17482099.0,3442.0
103,choice,choice,2,1.0,Large,1.0,24.833274999982677,Animal_Sea_Pattern_Large,1,0,1,17483617.0,17485076.0,1459.0
103,choice,choice,2,1.0,Large,1.0,24.833274999982677,Object_Land_Solid_Small,2,0,0,17485318.0,17485640.0,322.0
103,choice,choice,2,1.0,Large,1.0,24.833274999982677,Animal_Sea_Pattern_Large,1,0,1,17485938.0,17486999.0,1061.0
103,choice,choice,2,1.0,Large,1.0,24.833274999982677,Object_Land_Solid_Small,2,0,0,17487031.0,17487196.0,165.0
103,choice,choice,3,1.0,Land,2.0,12.0465518750716,Animal_Sea_Solid_Large,0,0,0,17491276.0,17491532.0,256.0
103,choice,choice,3,1.0,Land,2.0,12.0465518750716,fixation,-1,1,0,17491551.0,17492870.0,1319.0
103,choice,choice,3,1.0,Land,2.0,12.0465518750716,Animal_Sea_Pattern_Large,1,0,0,17493044.0,17493134.0,90.0
103,choice,choice,3,1.0,Land,2.0,12.0465518750716,fixation,-1,1,0,17493335.0,17494587.0,1252.0
103,choice,choice,3,1.0,Land,2.0,12.0465518750716,Object_Land_Pattern_Small,4,0,1,17494807.0,17495359.0,552.0
103,choice,choice,3,1.0,Land,2.0,12.0465518750716,fixation,-1,1,0,17495371.0,17496677.0,1306.0
103,choice,choice,3,1.0,Land,2.0,12.0465518750716,Object_Land_Solid_Small,2,0,1,17497343.0,17497763.0,420.0
103,choice,choice,3,1.0,Land,2.0,12.0465518750716,fixation,-1,1,0,17498191.0,17498230.0,39.0
103,choice,choice,3,1.0,Land,2.0,12.0465518750716,Object_Sea_Pattern_Small,3,0,0,17498246.0,17498681.0,435.0
103,choice,choice,3,1.0,Land,2.0,12.0465518750716,Object_Land_Solid_Small,2,0,1,17498694.0,17500282.0,1588.0
103,choice,choice,3,1.0,Land,2.0,12.0465518750716,Animal_Sea_Pattern_Large,1,0,0,17500676.0,17500700.0,24.0
103,choice,choice,3,1.0,Land,2.0,12.0465518750716,Object_Land_Solid_Small,2,0,1,17500706.0,17502322.0,1616.0
103,choice,choice,4,1.0,Object,1.0,10.608763040974736,Animal_Sea_Solid_Large,0,0,0,17505588.0,17506844.0,1256.0
103,choice,choice,4,1.0,Object,1.0,10.608763040974736,Object_Land_Pattern_Small,4,0,1,17507201.0,17507369.0,168.0
103,choice,choice,4,1.0,Object,1.0,10.608763040974736,Animal_Sea_Solid_Large,0,0,0,17507634.0,17508146.0,512.0
103,choice,choice,4,1.0,Object,1.0,10.608763040974736,Animal_Sea_Pattern_Large,1,0,0,17508203.0,17508818.0,615.0
103,choice,choice,4,1.0,Object,1.0,10.608763040974736,fixation,-1,1,0,17509265.0,17509506.0,241.0
103,choice,choice,4,1.0,Object,1.0,10.608763040974736,Animal_Sea_Pattern_Large,1,0,0,17509545.0,17509936.0,391.0
103,choice,choice,4,1.0,Object,1.0,10.608763040974736,fixation,-1,1,0,17510230.0,17511505.0,1275.0
103,choice,choice,4,1.0,Object,1.0,10.608763040974736,Animal_Sea_Pattern_Large,1,0,0,17511519.0,17512932.0,1413.0
103,choice,choice,4,1.0,Object,1.0,10.608763040974736,Object_Land_Solid_Small,2,0,1,17513559.0,17514620.0,1061.0
103,choice,choice,4,1.0,Object,1.0,10.608763040974736,Animal_Sea_Pattern_Large,1,0,0,17514633.0,17515614.0,981.0
103,choice,choice,5,1.0,Solid,2.0,10.133375832927412,Animal_Sea_Solid_Large,0,0,1,17519802.0,17521692.0,1890.0
103,choice,choice,5,1.0,Solid,2.0,10.133375832927412,Object_Land_Pattern_Small,4,0,0,17522808.0,17524990.0,2182.0
103,choice,choice,5,1.0,Solid,2.0,10.133375832927412,Animal_Sea_Solid_Large,0,0,1,17525843.0,17525865.0,22.0
103,choice,choice,5,1.0,Solid,2.0,10.133375832927412,Object_Land_Pattern_Small,4,0,0,17525888.0,17526060.0,172.0
103,choice,choice,5,1.0,Solid,2.0,10.133375832927412,fixation,-1,1,0,17526074.0,17526342.0,268.0
103,choice,choice,5,1.0,Solid,2.0,10.133375832927412,Animal_Sea_Pattern_Large,1,0,0,17526511.0,17526872.0,361.0
103,choice,choice,5,1.0,Solid,2.0,10.133375832927412,fixation,-1,1,0,17526907.0,17527207.0,300.0
103,choice,choice,5,1.0,Solid,2.0,10.133375832927412,Animal_Sea_Pattern_Large,1,0,0,17527603.0,17528084.0,481.0
103,choice,choice,5,1.0,Solid,2.0,10.133375832927412,Animal_Sea_Solid_Large,0,0,1,17528510.0,17528993.0,483.0
103,choice,choice,5,1.0,Solid,2.0,10.133375832927412,Object_Land_Pattern_Small,4,0,0,17528999.0,17529184.0,185.0
103,choice,choice,6,1.0,Small,1.0,5.040337499929592,Object_Land_Pattern_Small,4,0,1,17532698.0,17532910.0,212.0
103,choice,choice,6,1.0,Small,1.0,5.040337499929592,Animal_Sea_Solid_Large,0,0,0,17533361.0,17534429.0,1068.0
103,choice,choice,6,1.0,Small,1.0,5.040337499929592,Animal_Sea_Pattern_Large,1,0,0,17534703.0,17535142.0,439.0
103,choice,choice,6,1.0,Small,1.0,5.040337499929592,Animal_Sea_Solid_Large,0,0,0,17535183.0,17535404.0,221.0
103,choice,choice,6,1.0,Small,1.0,5.040337499929592,Animal_Sea_Pattern_Large,1,0,0,17535621.0,17535647.0,26.0
103,choice,choice,6,1.0,Small,1.0,5.040337499929592,Animal_Sea_Solid_Large,0,0,0,17535665.0,17536319.0,654.0
103,choice,choice,6,1.0,Small,1.0,5.040337499929592,Animal_Sea_Pattern_Large,1,0,0,17536353.0,17537139.0,786.0
103,choice,choice,7,1.0,Pattern,1.0,8.420043624937534,Animal_Sea_Solid_Large,0,0,0,17541349.0,17541822.0,473.0
103,choice,choice,7,1.0,Pattern,1.0,8.420043624937534,Animal_Sea_Pattern_Large,1,0,1,17541833.0,17542312.0,479.0
103,choice,choice,7,1.0,Pattern,1.0,8.420043624937534,Animal_Sea_Solid_Large,0,0,0,17542702.0,17542929.0,227.0
103,choice,choice,7,1.0,Pattern,1.0,8.420043624937534,Object_Land_Pattern_Small,4,0,1,17542948.0,17544078.0,1130.0
103,choice,choice,7,1.0,Pattern,1.0,8.420043624937534,Animal_Sea_Solid_Large,0,0,0,17544280.0,17544592.0,312.0
103,choice,choice,7,1.0,Pattern,1.0,8.420043624937534,Object_Land_Pattern_Small,4,0,1,17544880.0,17545050.0,170.0
103,choice,choice,7,1.0,Pattern,1.0,8.420043624937534,Animal_Sea_Solid_Large,0,0,0,17545364.0,17545760.0,396.0
103,choice,choice,7,1.0,Pattern,1.0,8.420043624937534,Animal_Sea_Pattern_Large,1,0,1,17545797.0,17546134.0,337.0
103,choice,choice,7,1.0,Pattern,1.0,8.420043624937534,fixation,-1,1,0,17546148.0,17546565.0,417.0
103,choice,choice,7,1.0,Pattern,1.0,8.420043624937534,Animal_Sea_Pattern_Large,1,0,1,17546751.0,17547182.0,431.0
103,choice,choice,7,1.0,Pattern,1.0,8.420043624937534,Animal_Sea_Solid_Large,0,0,0,17547720.0,17549213.0,1493.0
103,choice,choice,8,1.0,Animal,1.0,6.173746875021607,Animal_Sea_Pattern_Large,1,0,1,17552140.0,17554477.0,2337.0
103,choice,choice,8,1.0,Animal,1.0,6.173746875021607,fixation,-1,1,0,17554846.0,17555039.0,193.0
103,choice,choice,8,1.0,Animal,1.0,6.173746875021607,Animal_Land_Solid_Large,5,0,1,17555274.0,17555640.0,366.0
103,choice,choice,8,1.0,Animal,1.0,6.173746875021607,fixation,-1,1,0,17555661.0,17555855.0,194.0
103,choice,choice,8,1.0,Animal,1.0,6.173746875021607,Animal_Sea_Pattern_Large,1,0,1,17555875.0,17556684.0,809.0
103,choice,choice,8,1.0,Animal,1.0,6.173746875021607,Animal_Land_Solid_Large,5,0,1,17557068.0,17557328.0,260.0
103,choice,choice,8,1.0,Animal,1.0,6.173746875021607,fixation,-1,1,0,17557341.0,17557855.0,514.0
103,choice,choice,8,1.0,Animal,1.0,6.173746875021607,Animal_Sea_Pattern_Large,1,0,1,17557891.0,17558191.0,300.0
103,choice,choice,9,2.0,Animal,1.0,15.300518541014752,Object_Land_Pattern_Large,0,0,0,17956152.0,17956417.0,265.0
103,choice,choice,9,2.0,Animal,1.0,15.300518541014752,Animal_Land_Pattern_Large,1,0,1,17956703.0,17956995.0,292.0
103,choice,choice,9,2.0,Animal,1.0,15.300518541014752,Object_Land_Pattern_Large,0,0,0,17957031.0,17959180.0,2149.0
103,choice,choice,9,2.0,Animal,1.0,15.300518541014752,Animal_Land_Pattern_Large,1,0,1,17959516.0,17960221.0,705.0
103,choice,choice,9,2.0,Animal,1.0,15.300518541014752,Object_Land_Pattern_Large,0,0,0,17960581.0,17960924.0,343.0
103,choice,choice,9,2.0,Animal,1.0,15.300518541014752,Animal_Sea_Solid_Small,2,0,1,17960935.0,17961365.0,430.0
103,choice,choice,9,2.0,Animal,1.0,15.300518541014752,Object_Land_Pattern_Large,0,0,0,17962104.0,17962410.0,306.0
103,choice,choice,9,2.0,Animal,1.0,15.300518541014752,Animal_Sea_Solid_Small,2,0,1,17962583.0,17963119.0,536.0
103,choice,choice,9,2.0,Animal,1.0,15.300518541014752,Animal_Land_Pattern_Large,1,0,1,17963167.0,17964002.0,835.0
103,choice,choice,9,2.0,Animal,1.0,15.300518541014752,Animal_Sea_Solid_Small,2,0,1,17964084.0,17964490.0,406.0
103,choice,choice,9,2.0,Animal,1.0,15.300518541014752,fixation,-1,1,0,17964850.0,17965327.0,477.0
103,choice,choice,9,2.0,Animal,1.0,15.300518541014752,Animal_Sea_Pattern_Small,3,0,1,17965345.0,17965497.0,152.0
103,choice,choice,9,2.0,Animal,1.0,15.300518541014752,Object_Land_Solid_Large,4,0,0,17965917.0,17966133.0,216.0
103,choice,choice,9,2.0,Animal,1.0,15.300518541014752,Object_Sea_Solid_Small,5,0,0,17966152.0,17966367.0,215.0
103,choice,choice,9,2.0,Animal,1.0,15.300518541014752,Object_Land_Solid_Large,4,0,0,17966634.0,17967770.0,1136.0
103,choice,choice,9,2.0,Animal,1.0,15.300518541014752,fixation,-1,1,0,17968368.0,17968505.0,137.0
103,choice,choice,9,2.0,Animal,1.0,15.300518541014752,Object_Land_Solid_Large,4,0,0,17968774.0,17969171.0,397.0
103,choice,choice,9,2.0,Animal,1.0,15.300518541014752,Object_Sea_Solid_Small,5,0,0,17969211.0,17969501.0,290.0
103,choice,choice,9,2.0,Animal,1.0,15.300518541014752,fixation,-1,1,0,17969538.0,17969836.0,298.0
103,choice,choice,9,2.0,Animal,1.0,15.300518541014752,Object_Land_Pattern_Large,0,0,0,17969851.0,17970321.0,470.0
103,choice,choice,9,2.0,Animal,1.0,15.300518541014752,Animal_Sea_Pattern_Small,3,0,1,17970358.0,17971321.0,963.0
103,choice,choice,10,2.0,Pattern,2.0,10.054789750021882,Object_Land_Pattern_Large,0,0,1,17975441.0,17975679.0,238.0
103,choice,choice,10,2.0,Pattern,2.0,10.054789750021882,Animal_Sea_Solid_Small,2,0,0,17976022.0,17976291.0,269.0
103,choice,choice,10,2.0,Pattern,2.0,10.054789750021882,Object_Sea_Solid_Small,5,0,0,17976353.0,17976384.0,31.0
103,choice,choice,10,2.0,Pattern,2.0,10.054789750021882,Object_Land_Pattern_Large,0,0,1,17976589.0,17977128.0,539.0
103,choice,choice,10,2.0,Pattern,2.0,10.054789750021882,Animal_Sea_Solid_Small,2,0,0,17977512.0,17978408.0,896.0
103,choice,choice,10,2.0,Pattern,2.0,10.054789750021882,Object_Land_Pattern_Large,0,0,1,17978932.0,17979136.0,204.0
103,choice,choice,10,2.0,Pattern,2.0,10.054789750021882,Animal_Land_Pattern_Large,1,0,1,17979442.0,17979474.0,32.0
103,choice,choice,10,2.0,Pattern,2.0,10.054789750021882,fixation,-1,1,0,17979491.0,17979656.0,165.0
103,choice,choice,10,2.0,Pattern,2.0,10.054789750021882,Animal_Land_Pattern_Large,1,0,1,17979694.0,17979925.0,231.0
103,choice,choice,10,2.0,Pattern,2.0,10.054789750021882,Object_Land_Pattern_Large,0,0,1,17979960.0,17980507.0,547.0
103,choice,choice,10,2.0,Pattern,2.0,10.054789750021882,Animal_Land_Pattern_Large,1,0,1,17980809.0,17982494.0,1685.0
103,choice,choice,10,2.0,Pattern,2.0,10.054789750021882,Object_Land_Pattern_Large,0,0,1,17983250.0,17984483.0,1233.0
103,choice,choice,11,2.0,Sea,1.0,22.120465916930694,Object_Land_Pattern_Large,0,0,0,17987984.0,17989228.0,1244.0
103,choice,choice,11,2.0,Sea,1.0,22.120465916930694,Animal_Land_Pattern_Large,1,0,0,17989832.0,17991163.0,1331.0
103,choice,choice,11,2.0,Sea,1.0,22.120465916930694,Object_Land_Pattern_Large,0,0,0,17991607.0,17991907.0,300.0
103,choice,choice,11,2.0,Sea,1.0,22.120465916930694,Animal_Land_Pattern_Large,1,0,0,17991937.0,17993546.0,1609.0
103,choice,choice,11,2.0,Sea,1.0,22.120465916930694,Animal_Sea_Solid_Small,2,0,1,17994234.0,17994481.0,247.0
103,choice,choice,11,2.0,Sea,1.0,22.120465916930694,Object_Land_Pattern_Large,0,0,0,17994491.0,17994725.0,234.0
103,choice,choice,11,2.0,Sea,1.0,22.120465916930694,Animal_Land_Pattern_Large,1,0,0,17995004.0,17995234.0,230.0
103,choice,choice,11,2.0,Sea,1.0,22.120465916930694,Object_Land_Pattern_Large,0,0,0,17995472.0,17996484.0,1012.0
103,choice,choice,11,2.0,Sea,1.0,22.120465916930694,Animal_Land_Pattern_Large,1,0,0,17996972.0,17997597.0,625.0
103,choice,choice,11,2.0,Sea,1.0,22.120465916930694,fixation,-1,1,0,17997836.0,17998056.0,220.0
103,choice,choice,11,2.0,Sea,1.0,22.120465916930694,Animal_Sea_Pattern_Small,3,0,1,17998065.0,17998187.0,122.0
103,choice,choice,11,2.0,Sea,1.0,22.120465916930694,Object_Land_Solid_Large,4,0,0,17998791.0,17998936.0,145.0
103,choice,choice,11,2.0,Sea,1.0,22.120465916930694,Animal_Sea_Pattern_Small,3,0,1,17998969.0,17999322.0,353.0
103,choice,choice,11,2.0,Sea,1.0,22.120465916930694,Object_Sea_Solid_Small,5,0,1,17999744.0,17999922.0,178.0
103,choice,choice,11,2.0,Sea,1.0,22.120465916930694,Animal_Sea_Pattern_Small,3,0,1,17999980.0,18000849.0,869.0
103,choice,choice,11,2.0,Sea,1.0,22.120465916930694,Animal_Land_Pattern_Large,1,0,0,18000929.0,18001546.0,617.0
103,choice,choice,11,2.0,Sea,1.0,22.120465916930694,Animal_Sea_Solid_Small,2,0,1,18001611.0,18002100.0,489.0
103,choice,choice,11,2.0,Sea,1.0,22.120465916930694,Animal_Land_Pattern_Large,1,0,0,18002402.0,18002461.0,59.0
103,choice,choice,11,2.0,Sea,1.0,22.120465916930694,Object_Land_Pattern_Large,0,0,0,18002771.0,18003875.0,1104.0
103,choice,choice,11,2.0,Sea,1.0,22.120465916930694,Animal_Land_Pattern_Large,1,0,0,18004234.0,18004257.0,23.0
103,choice,choice,11,2.0,Sea,1.0,22.120465916930694,Animal_Sea_Pattern_Small,3,0,1,18004277.0,18005225.0,948.0
103,choice,choice,11,2.0,Sea,1.0,22.120465916930694,Animal_Sea_Solid_Small,2,0,1,18005563.0,18006441.0,878.0
103,choice,choice,11,2.0,Sea,1.0,22.120465916930694,Animal_Land_Pattern_Large,1,0,0,18007487.0,18009178.0,1691.0
103,choice,choice,12,2.0,Small,2.0,10.743996166042052,Object_Land_Pattern_Large,0,0,0,18013285.0,18013627.0,342.0
103,choice,choice,12,2.0,Small,2.0,10.743996166042052,Animal_Sea_Solid_Small,2,0,1,18014274.0,18014668.0,394.0
103,choice,choice,12,2.0,Small,2.0,10.743996166042052,Object_Land_Pattern_Large,0,0,0,18014704.0,18014974.0,270.0
103,choice,choice,12,2.0,Small,2.0,10.743996166042052,Animal_Sea_Solid_Small,2,0,1,18014998.0,18015381.0,383.0
103,choice,choice,12,2.0,Small,2.0,10.743996166042052,Object_Land_Pattern_Large,0,0,0,18015568.0,18015626.0,58.0
103,choice,choice,12,2.0,Small,2.0,10.743996166042052,Animal_Sea_Solid_Small,2,0,1,18015911.0,18016383.0,472.0
103,choice,choice,12,2.0,Small,2.0,10.743996166042052,Object_Land_Pattern_Large,0,0,0,18016398.0,18016602.0,204.0
103,choice,choice,12,2.0,Small,2.0,10.743996166042052,Animal_Sea_Solid_Small,2,0,1,18016797.0,18017098.0,301.0
103,choice,choice,12,2.0,Small,2.0,10.743996166042052,Object_Land_Pattern_Large,0,0,0,18017107.0,18017886.0,779.0
103,choice,choice,12,2.0,Small,2.0,10.743996166042052,Object_Land_Solid_Large,4,0,0,18018472.0,18018500.0,28.0
103,choice,choice,12,2.0,Small,2.0,10.743996166042052,Object_Land_Pattern_Large,0,0,0,18018678.0,18018923.0,245.0
103,choice,choice,12,2.0,Small,2.0,10.743996166042052,Animal_Land_Pattern_Large,1,0,0,18018963.0,18019510.0,547.0
103,choice,choice,12,2.0,Small,2.0,10.743996166042052,Animal_Sea_Pattern_Small,3,0,1,18019533.0,18019654.0,121.0
103,choice,choice,12,2.0,Small,2.0,10.743996166042052,Animal_Land_Pattern_Large,1,0,0,18019998.0,18020643.0,645.0
103,choice,choice,12,2.0,Small,2.0,10.743996166042052,Animal_Sea_Pattern_Small,3,0,1,18020660.0,18020862.0,202.0
103,choice,choice,12,2.0,Small,2.0,10.743996166042052,fixation,-1,1,0,18021375.0,18021776.0,401.0
103,choice,choice,12,2.0,Small,2.0,10.743996166042052,Animal_Sea_Solid_Small,2,0,1,18021815.0,18022238.0,423.0
103,choice,choice,12,2.0,Small,2.0,10.743996166042052,Animal_Sea_Pattern_Small,3,0,1,18022291.0,18023344.0,1053.0
103,choice,choice,13,2.0,Solid,1.0,19.61226841597818,Animal_Land_Pattern_Large,1,0,0,18027545.0,18027583.0,38.0
103,choice,choice,13,2.0,Solid,1.0,19.61226841597818,Object_Land_Pattern_Large,0,0,0,18027600.0,18027719.0,119.0
103,choice,choice,13,2.0,Solid,1.0,19.61226841597818,fixation,-1,1,0,18027739.0,18028131.0,392.0
103,choice,choice,13,2.0,Solid,1.0,19.61226841597818,Animal_Land_Pattern_Large,1,0,0,18028474.0,18028814.0,340.0
103,choice,choice,13,2.0,Solid,1.0,19.61226841597818,Animal_Sea_Pattern_Small,3,0,0,18029114.0,18029167.0,53.0
103,choice,choice,13,2.0,Solid,1.0,19.61226841597818,fixation,-1,1,0,18029184.0,18029629.0,445.0
103,choice,choice,13,2.0,Solid,1.0,19.61226841597818,Animal_Sea_Pattern_Small,3,0,0,18029641.0,18029827.0,186.0
103,choice,choice,13,2.0,Solid,1.0,19.61226841597818,fixation,-1,1,0,18030151.0,18030550.0,399.0
103,choice,choice,13,2.0,Solid,1.0,19.61226841597818,Object_Land_Pattern_Large,0,0,0,18031020.0,18031645.0,625.0
103,choice,choice,13,2.0,Solid,1.0,19.61226841597818,fixation,-1,1,0,18031669.0,18032221.0,552.0
103,choice,choice,13,2.0,Solid,1.0,19.61226841597818,Animal_Sea_Pattern_Small,3,0,0,18032255.0,18032406.0,151.0
103,choice,choice,13,2.0,Solid,1.0,19.61226841597818,fixation,-1,1,0,18032918.0,18033359.0,441.0
103,choice,choice,13,2.0,Solid,1.0,19.61226841597818,Animal_Land_Pattern_Large,1,0,0,18033382.0,18035166.0,1784.0
103,choice,choice,13,2.0,Solid,1.0,19.61226841597818,Animal_Sea_Solid_Small,2,0,1,18036645.0,18036809.0,164.0
103,choice,choice,13,2.0,Solid,1.0,19.61226841597818,Object_Land_Pattern_Large,0,0,0,18037138.0,18037365.0,227.0
103,choice,choice,13,2.0,Solid,1.0,19.61226841597818,Animal_Land_Pattern_Large,1,0,0,18037379.0,18037682.0,303.0
103,choice,choice,13,2.0,Solid,1.0,19.61226841597818,Object_Land_Pattern_Large,0,0,0,18037717.0,18038522.0,805.0
103,choice,choice,13,2.0,Solid,1.0,19.61226841597818,Animal_Sea_Solid_Small,2,0,1,18038901.0,18039331.0,430.0
103,choice,choice,13,2.0,Solid,1.0,19.61226841597818,Object_Land_Pattern_Large,0,0,0,18039670.0,18039712.0,42.0
103,choice,choice,13,2.0,Solid,1.0,19.61226841597818,Animal_Sea_Solid_Small,2,0,1,18040437.0,18040884.0,447.0
103,choice,choice,13,2.0,Solid,1.0,19.61226841597818,Object_Land_Pattern_Large,0,0,0,18040896.0,18044579.0,3683.0
103,choice,choice,13,2.0,Solid,1.0,19.61226841597818,Animal_Sea_Solid_Small,2,0,1,18045382.0,18045876.0,494.0
103,choice,choice,13,2.0,Solid,1.0,19.61226841597818,Object_Sea_Solid_Small,5,0,1,18046278.0,18046321.0,43.0
103,choice,choice,13,2.0,Solid,1.0,19.61226841597818,Animal_Sea_Solid_Small,2,0,1,18046514.0,18046564.0,50.0
103,choice,choice,14,2.0,Land,2.0,5.646499624941498,Object_Land_Pattern_Large,0,0,1,18049915.0,18050890.0,975.0
103,choice,choice,14,2.0,Land,2.0,5.646499624941498,Animal_Land_Pattern_Large,1,0,1,18051485.0,18052474.0,989.0
103,choice,choice,14,2.0,Land,2.0,5.646499624941498,fixation,-1,1,0,18053137.0,18054304.0,1167.0
103,choice,choice,14,2.0,Land,2.0,5.646499624941498,Animal_Land_Pattern_Large,1,0,1,18054331.0,18054861.0,530.0
103,choice,choice,15,2.0,Object,2.0,10.375634209020063,Object_Land_Pattern_Large,0,0,1,18059087.0,18060054.0,967.0
103,choice,choice,15,2.0,Object,2.0,10.375634209020063,fixation,-1,1,0,18060313.0,18060340.0,27.0
103,choice,choice,15,2.0,Object,2.0,10.375634209020063,Object_Land_Pattern_Large,0,0,1,18060358.0,18061035.0,677.0
103,choice,choice,15,2.0,Object,2.0,10.375634209020063,Animal_Sea_Solid_Small,2,0,0,18061059.0,18061461.0,402.0
103,choice,choice,15,2.0,Object,2.0,10.375634209020063,Object_Land_Pattern_Large,0,0,1,18061470.0,18061949.0,479.0
103,choice,choice,15,2.0,Object,2.0,10.375634209020063,Animal_Sea_Solid_Small,2,0,0,18062155.0,18063365.0,1210.0
103,choice,choice,15,2.0,Object,2.0,10.375634209020063,fixation,-1,1,0,18064211.0,18065228.0,1017.0
103,choice,choice,15,2.0,Object,2.0,10.375634209020063,Animal_Land_Pattern_Large,1,0,0,18065316.0,18065451.0,135.0
103,choice,choice,15,2.0,Object,2.0,10.375634209020063,Animal_Sea_Pattern_Small,3,0,0,18065687.0,18065730.0,43.0
103,choice,choice,15,2.0,Object,2.0,10.375634209020063,Animal_Land_Pattern_Large,1,0,0,18065747.0,18065839.0,92.0
103,choice,choice,15,2.0,Object,2.0,10.375634209020063,fixation,-1,1,0,18065853.0,18066224.0,371.0
103,choice,choice,15,2.0,Object,2.0,10.375634209020063,Animal_Land_Pattern_Large,1,0,0,18066234.0,18066654.0,420.0
103,choice,choice,15,2.0,Object,2.0,10.375634209020063,Animal_Sea_Pattern_Small,3,0,0,18066678.0,18067095.0,417.0
103,choice,choice,15,2.0,Object,2.0,10.375634209020063,Animal_Land_Pattern_Large,1,0,0,18067120.0,18067336.0,216.0
103,choice,choice,15,2.0,Object,2.0,10.375634209020063,Object_Land_Pattern_Large,0,0,1,18067370.0,18067581.0,211.0
103,choice,choice,15,2.0,Object,2.0,10.375634209020063,Animal_Sea_Pattern_Small,3,0,0,18067629.0,18067812.0,183.0
103,choice,choice,15,2.0,Object,2.0,10.375634209020063,Animal_Sea_Solid_Small,2,0,0,18067857.0,18068071.0,214.0
103,choice,choice,15,2.0,Object,2.0,10.375634209020063,Object_Land_Pattern_Large,0,0,1,18068108.0,18068239.0,131.0
103,choice,choice,16,2.0,Large,1.0,15.868244708050042,Object_Land_Pattern_Large,0,0,1,18072494.0,18072717.0,223.0
103,choice,choice,16,2.0,Large,1.0,15.868244708050042,Animal_Land_Pattern_Large,1,0,1,18072896.0,18076246.0,3350.0
103,choice,choice,16,2.0,Large,1.0,15.868244708050042,Object_Land_Pattern_Large,0,0,1,18077534.0,18077790.0,256.0
103,choice,choice,16,2.0,Large,1.0,15.868244708050042,Animal_Land_Pattern_Large,1,0,1,18077825.0,18078356.0,531.0
103,choice,choice,16,2.0,Large,1.0,15.868244708050042,Animal_Sea_Pattern_Small,3,0,0,18078386.0,18078560.0,174.0
103,choice,choice,16,2.0,Large,1.0,15.868244708050042,Object_Land_Solid_Large,4,0,1,18078576.0,18079266.0,690.0
103,choice,choice,16,2.0,Large,1.0,15.868244708050042,Animal_Sea_Pattern_Small,3,0,0,18079527.0,18079590.0,63.0
103,choice,choice,16,2.0,Large,1.0,15.868244708050042,Object_Land_Solid_Large,4,0,1,18079607.0,18079911.0,304.0
103,choice,choice,16,2.0,Large,1.0,15.868244708050042,Animal_Sea_Pattern_Small,3,0,0,18080330.0,18081527.0,1197.0
103,choice,choice,16,2.0,Large,1.0,15.868244708050042,fixation,-1,1,0,18081594.0,18081673.0,79.0
103,choice,choice,16,2.0,Large,1.0,15.868244708050042,Animal_Sea_Pattern_Small,3,0,0,18081978.0,18083878.0,1900.0
103,choice,choice,16,2.0,Large,1.0,15.868244708050042,Object_Land_Pattern_Large,0,0,1,18084723.0,18085151.0,428.0
103,choice,choice,16,2.0,Large,1.0,15.868244708050042,Object_Sea_Solid_Small,5,0,0,18085189.0,18085824.0,635.0
103,choice,choice,16,2.0,Large,1.0,15.868244708050042,Animal_Sea_Solid_Small,2,0,0,18085864.0,18086430.0,566.0
103,choice,choice,16,2.0,Large,1.0,15.868244708050042,Object_Land_Pattern_Large,0,0,1,18086476.0,18086805.0,329.0
103,choice,choice,16,2.0,Large,1.0,15.868244708050042,Animal_Land_Pattern_Large,1,0,1,18086975.0,18087062.0,87.0
103,choice,choice,16,2.0,Large,1.0,15.868244708050042,Object_Land_Pattern_Large,0,0,1,18087259.0,18088103.0,844.0
103,choice,choice,17,3.0,Animal,1.0,8.834407874965109,Object_Sea_Solid_Large,0,0,0,18435204.0,18435791.0,587.0
103,choice,choice,17,3.0,Animal,1.0,8.834407874965109,Animal_Sea_Pattern_Large,1,0,1,18436129.0,18438099.0,1970.0
103,choice,choice,17,3.0,Animal,1.0,8.834407874965109,Animal_Land_Pattern_Small,2,0,1,18438763.0,18439651.0,888.0
103,choice,choice,17,3.0,Animal,1.0,8.834407874965109,Object_Sea_Solid_Large,0,0,0,18439931.0,18440142.0,211.0
103,choice,choice,17,3.0,Animal,1.0,8.834407874965109,Animal_Land_Solid_Small,3,0,1,18440385.0,18440452.0,67.0
103,choice,choice,17,3.0,Animal,1.0,8.834407874965109,Object_Sea_Solid_Large,0,0,0,18440475.0,18440934.0,459.0
103,choice,choice,17,3.0,Animal,1.0,8.834407874965109,Animal_Sea_Pattern_Large,1,0,1,18441468.0,18442592.0,1124.0
103,choice,choice,18,3.0,Sea,1.0,29.658429875038564,Animal_Sea_Pattern_Large,1,0,1,18446152.0,18446525.0,373.0
103,choice,choice,18,3.0,Sea,1.0,29.658429875038564,fixation,-1,1,0,18447532.0,18447824.0,292.0
103,choice,choice,18,3.0,Sea,1.0,29.658429875038564,Animal_Sea_Pattern_Large,1,0,1,18447858.0,18448021.0,163.0
103,choice,choice,18,3.0,Sea,1.0,29.658429875038564,Object_Sea_Solid_Large,0,0,1,18448047.0,18448699.0,652.0
103,choice,choice,18,3.0,Sea,1.0,29.658429875038564,fixation,-1,1,0,18449145.0,18449178.0,33.0
103,choice,choice,18,3.0,Sea,1.0,29.658429875038564,Animal_Sea_Pattern_Large,1,0,1,18449195.0,18449222.0,27.0
103,choice,choice,18,3.0,Sea,1.0,29.658429875038564,Object_Sea_Solid_Large,0,0,1,18449772.0,18450129.0,357.0
103,choice,choice,18,3.0,Sea,1.0,29.658429875038564,Animal_Land_Pattern_Small,2,0,0,18450830.0,18451344.0,514.0
103,choice,choice,18,3.0,Sea,1.0,29.658429875038564,Object_Sea_Solid_Large,0,0,1,18451364.0,18452044.0,680.0
103,choice,choice,18,3.0,Sea,1.0,29.658429875038564,Animal_Land_Pattern_Small,2,0,0,18452092.0,18452543.0,451.0
103,choice,choice,18,3.0,Sea,1.0,29.658429875038564,Object_Sea_Solid_Large,0,0,1,18452855.0,18453140.0,285.0
103,choice,choice,18,3.0,Sea,1.0,29.658429875038564,Animal_Sea_Pattern_Large,1,0,1,18453177.0,18453563.0,386.0
103,choice,choice,18,3.0,Sea,1.0,29.658429875038564,Object_Sea_Solid_Large,0,0,1,18453598.0,18455129.0,1531.0
103,choice,choice,18,3.0,Sea,1.0,29.658429875038564,Animal_Land_Pattern_Small,2,0,0,18456449.0,18457224.0,775.0
103,choice,choice,18,3.0,Sea,1.0,29.658429875038564,Object_Sea_Solid_Large,0,0,1,18458190.0,18458467.0,277.0
103,choice,choice,18,3.0,Sea,1.0,29.658429875038564,Animal_Sea_Pattern_Large,1,0,1,18458498.0,18458927.0,429.0
103,choice,choice,18,3.0,Sea,1.0,29.658429875038564,Object_Sea_Solid_Large,0,0,1,18459643.0,18460109.0,466.0
103,choice,choice,18,3.0,Sea,1.0,29.658429875038564,Animal_Land_Pattern_Small,2,0,0,18460580.0,18461908.0,1328.0
103,choice,choice,18,3.0,Sea,1.0,29.658429875038564,Object_Sea_Solid_Large,0,0,1,18464088.0,18464430.0,342.0
103,choice,choice,18,3.0,Sea,1.0,29.658429875038564,Animal_Sea_Pattern_Large,1,0,1,18464486.0,18464629.0,143.0
103,choice,choice,18,3.0,Sea,1.0,29.658429875038564,Object_Sea_Solid_Large,0,0,1,18465723.0,18467472.0,1749.0
103,choice,choice,18,3.0,Sea,1.0,29.658429875038564,Animal_Land_Pattern_Small,2,0,0,18468452.0,18469147.0,695.0
103,choice,choice,18,3.0,Sea,1.0,29.658429875038564,Object_Sea_Solid_Large,0,0,1,18469367.0,18470258.0,891.0
103,choice,choice,18,3.0,Sea,1.0,29.658429875038564,Animal_Land_Pattern_Small,2,0,0,18470691.0,18471937.0,1246.0
103,choice,choice,18,3.0,Sea,1.0,29.658429875038564,fixation,-1,1,0,18472551.0,18472909.0,358.0
103,choice,choice,18,3.0,Sea,1.0,29.658429875038564,Animal_Sea_Pattern_Large,1,0,1,18473081.0,18473569.0,488.0
103,choice,choice,18,3.0,Sea,1.0,29.658429875038564,Object_Land_Solid_Small,4,0,0,18473595.0,18474401.0,806.0
103,choice,choice,19,3.0,Small,2.0,10.497171583003365,Object_Sea_Solid_Large,0,0,0,18479763.0,18480717.0,954.0
103,choice,choice,19,3.0,Small,2.0,10.497171583003365,Animal_Land_Pattern_Small,2,0,1,18481292.0,18481612.0,320.0
103,choice,choice,19,3.0,Small,2.0,10.497171583003365,Object_Sea_Solid_Large,0,0,0,18481636.0,18482323.0,687.0
103,choice,choice,19,3.0,Small,2.0,10.497171583003365,Animal_Sea_Pattern_Large,1,0,0,18483236.0,18483705.0,469.0
103,choice,choice,19,3.0,Small,2.0,10.497171583003365,Object_Sea_Solid_Large,0,0,0,18484086.0,18484637.0,551.0
103,choice,choice,19,3.0,Small,2.0,10.497171583003365,Animal_Sea_Pattern_Large,1,0,0,18484652.0,18484983.0,331.0
103,choice,choice,19,3.0,Small,2.0,10.497171583003365,Object_Sea_Solid_Large,0,0,0,18485294.0,18485619.0,325.0
103,choice,choice,19,3.0,Small,2.0,10.497171583003365,Animal_Sea_Pattern_Large,1,0,0,18485647.0,18485753.0,106.0
103,choice,choice,19,3.0,Small,2.0,10.497171583003365,Animal_Land_Pattern_Small,2,0,1,18486337.0,18486518.0,181.0
103,choice,choice,19,3.0,Small,2.0,10.497171583003365,Animal_Land_Solid_Small,3,0,1,18487018.0,18487212.0,194.0
103,choice,choice,19,3.0,Small,2.0,10.497171583003365,Object_Sea_Solid_Large,0,0,0,18487704.0,18488485.0,781.0
103,choice,choice,19,3.0,Small,2.0,10.497171583003365,Animal_Land_Solid_Small,3,0,1,18488519.0,18488740.0,221.0
103,choice,choice,19,3.0,Small,2.0,10.497171583003365,Animal_Sea_Pattern_Large,1,0,0,18489126.0,18489637.0,511.0
103,choice,choice,20,3.0,Pattern,1.0,9.244526749942452,Object_Land_Solid_Small,4,0,0,18493907.0,18494078.0,171.0
103,choice,choice,20,3.0,Pattern,1.0,9.244526749942452,Animal_Sea_Pattern_Large,1,0,1,18494098.0,18496338.0,2240.0
103,choice,choice,20,3.0,Pattern,1.0,9.244526749942452,Animal_Land_Solid_Small,3,0,0,18497494.0,18497771.0,277.0
103,choice,choice,20,3.0,Pattern,1.0,9.244526749942452,Object_Land_Solid_Small,4,0,0,18497781.0,18497966.0,185.0
103,choice,choice,20,3.0,Pattern,1.0,9.244526749942452,Animal_Sea_Pattern_Large,1,0,1,18498183.0,18499566.0,1383.0
103,choice,choice,20,3.0,Pattern,1.0,9.244526749942452,Object_Sea_Solid_Large,0,0,0,18499976.0,18500609.0,633.0
103,choice,choice,20,3.0,Pattern,1.0,9.244526749942452,Animal_Sea_Pattern_Large,1,0,1,18500722.0,18500748.0,26.0
103,choice,choice,20,3.0,Pattern,1.0,9.244526749942452,Animal_Land_Pattern_Small,2,0,1,18501140.0,18501558.0,418.0
103,choice,choice,20,3.0,Pattern,1.0,9.244526749942452,Object_Sea_Solid_Large,0,0,0,18502020.0,18502428.0,408.0
103,choice,choice,21,3.0,Solid,2.0,2.633825666969642,Animal_Sea_Pattern_Large,1,0,0,18505732.0,18507420.0,1688.0
103,choice,choice,22,3.0,Object,1.0,4.2468404999235645,Object_Sea_Solid_Large,0,0,1,18511899.0,18512182.0,283.0
103,choice,choice,22,3.0,Object,1.0,4.2468404999235645,fixation,-1,1,0,18512657.0,18513101.0,444.0
103,choice,choice,22,3.0,Object,1.0,4.2468404999235645,Object_Sea_Solid_Large,0,0,1,18513306.0,18514277.0,971.0
103,choice,choice,22,3.0,Object,1.0,4.2468404999235645,Animal_Land_Pattern_Small,2,0,0,18514883.0,18515442.0,559.0
103,choice,choice,23,3.0,Land,1.0,14.673821666045114,fixation,-1,1,0,18518728.0,18518766.0,38.0
103,choice,choice,23,3.0,Land,1.0,14.673821666045114,Object_Sea_Solid_Large,0,0,0,18518990.0,18519067.0,77.0
103,choice,choice,23,3.0,Land,1.0,14.673821666045114,Animal_Sea_Pattern_Large,1,0,0,18519080.0,18520207.0,1127.0
103,choice,choice,23,3.0,Land,1.0,14.673821666045114,Object_Sea_Solid_Large,0,0,0,18520797.0,18520825.0,28.0
103,choice,choice,23,3.0,Land,1.0,14.673821666045114,fixation,-1,1,0,18520990.0,18521039.0,49.0
103,choice,choice,23,3.0,Land,1.0,14.673821666045114,Object_Sea_Solid_Large,0,0,0,18521056.0,18522209.0,1153.0
103,choice,choice,23,3.0,Land,1.0,14.673821666045114,Animal_Sea_Pattern_Large,1,0,0,18522737.0,18523576.0,839.0
103,choice,choice,23,3.0,Land,1.0,14.673821666045114,Animal_Land_Pattern_Small,2,0,1,18524315.0,18524775.0,460.0
103,choice,choice,23,3.0,Land,1.0,14.673821666045114,Object_Sea_Pattern_Large,5,0,0,18525049.0,18525087.0,38.0
103,choice,choice,23,3.0,Land,1.0,14.673821666045114,Animal_Land_Pattern_Small,2,0,1,18525095.0,18526772.0,1677.0
103,choice,choice,23,3.0,Land,1.0,14.673821666045114,Object_Sea_Solid_Large,0,0,0,18527567.0,18529850.0,2283.0
103,choice,choice,23,3.0,Land,1.0,14.673821666045114,Animal_Land_Solid_Small,3,0,1,18531062.0,18531095.0,33.0
103,choice,choice,23,3.0,Land,1.0,14.673821666045114,fixation,-1,1,0,18531254.0,18531299.0,45.0
103,choice,choice,23,3.0,Land,1.0,14.673821666045114,Object_Sea_Solid_Large,0,0,0,18531316.0,18531780.0,464.0
103,choice,choice,23,3.0,Land,1.0,14.673821666045114,Animal_Land_Pattern_Small,2,0,1,18532048.0,18532677.0,629.0
103,choice,choice,23,3.0,Land,1.0,14.673821666045114,Object_Sea_Solid_Large,0,0,0,18532687.0,18533162.0,475.0
103,choice,choice,24,3.0,Large,1.0,21.41356308304239,Animal_Sea_Pattern_Large,1,0,1,18537237.0,18538455.0,1218.0
103,choice,choice,24,3.0,Large,1.0,21.41356308304239,Object_Sea_Solid_Large,0,0,1,18539238.0,18543313.0,4075.0
103,choice,choice,24,3.0,Large,1.0,21.41356308304239,Animal_Land_Pattern_Small,2,0,0,18546160.0,18546318.0,158.0
103,choice,choice,24,3.0,Large,1.0,21.41356308304239,Object_Sea_Solid_Large,0,0,1,18546605.0,18546808.0,203.0
103,choice,choice,24,3.0,Large,1.0,21.41356308304239,Animal_Land_Pattern_Small,2,0,0,18546830.0,18547132.0,302.0
103,choice,choice,24,3.0,Large,1.0,21.41356308304239,Object_Sea_Solid_Large,0,0,1,18547541.0,18547940.0,399.0
103,choice,choice,24,3.0,Large,1.0,21.41356308304239,Animal_Sea_Pattern_Large,1,0,1,18547980.0,18548083.0,103.0
103,choice,choice,24,3.0,Large,1.0,21.41356308304239,fixation,-1,1,0,18548413.0,18548471.0,58.0
103,choice,choice,24,3.0,Large,1.0,21.41356308304239,Animal_Sea_Pattern_Large,1,0,1,18548489.0,18548991.0,502.0
103,choice,choice,24,3.0,Large,1.0,21.41356308304239,Object_Sea_Solid_Large,0,0,1,18549040.0,18550032.0,992.0
103,choice,choice,24,3.0,Large,1.0,21.41356308304239,Animal_Land_Pattern_Small,2,0,0,18550300.0,18550697.0,397.0
103,choice,choice,24,3.0,Large,1.0,21.41356308304239,Object_Sea_Solid_Large,0,0,1,18550745.0,18550946.0,201.0
103,choice,choice,24,3.0,Large,1.0,21.41356308304239,fixation,-1,1,0,18551599.0,18551656.0,57.0
103,choice,choice,24,3.0,Large,1.0,21.41356308304239,Object_Sea_Solid_Large,0,0,1,18551675.0,18552777.0,1102.0
103,choice,choice,24,3.0,Large,1.0,21.41356308304239,Animal_Land_Pattern_Small,2,0,0,18553873.0,18554343.0,470.0
103,choice,choice,24,3.0,Large,1.0,21.41356308304239,Object_Sea_Solid_Large,0,0,1,18554372.0,18554404.0,32.0
103,choice,choice,24,3.0,Large,1.0,21.41356308304239,Animal_Land_Pattern_Small,2,0,0,18554725.0,18555435.0,710.0
103,choice,choice,24,3.0,Large,1.0,21.41356308304239,Animal_Land_Solid_Small,3,0,0,18555813.0,18555920.0,107.0
103,choice,choice,24,3.0,Large,1.0,21.41356308304239,fixation,-1,1,0,18556242.0,18556573.0,331.0
103,choice,choice,24,3.0,Large,1.0,21.41356308304239,Animal_Sea_Pattern_Large,1,0,1,18556932.0,18557017.0,85.0
103,choice,choice,24,3.0,Large,1.0,21.41356308304239,fixation,-1,1,0,18557035.0,18557323.0,288.0
103,choice,choice,24,3.0,Large,1.0,21.41356308304239,Object_Sea_Solid_Large,0,0,1,18557335.0,18558131.0,796.0
103,choice,choice,25,4.0,Pattern,1.0,15.61622433399316,Animal_Sea_Pattern_Large,0,0,1,18950920.0,18951019.0,99.0
103,choice,choice,25,4.0,Pattern,1.0,15.61622433399316,Animal_Sea_Solid_Large,1,0,0,18951732.0,18952206.0,474.0
103,choice,choice,25,4.0,Pattern,1.0,15.61622433399316,Object_Sea_Pattern_Small,2,0,1,18954827.0,18955228.0,401.0
103,choice,choice,25,4.0,Pattern,1.0,15.61622433399316,Animal_Sea_Pattern_Large,0,0,1,18955304.0,18956024.0,720.0
103,choice,choice,25,4.0,Pattern,1.0,15.61622433399316,Animal_Land_Solid_Large,3,0,0,18956049.0,18956255.0,206.0
103,choice,choice,25,4.0,Pattern,1.0,15.61622433399316,Object_Land_Pattern_Small,4,0,1,18957103.0,18957454.0,351.0
103,choice,choice,25,4.0,Pattern,1.0,15.61622433399316,Animal_Sea_Solid_Large,1,0,0,18958098.0,18959288.0,1190.0
103,choice,choice,25,4.0,Pattern,1.0,15.61622433399316,Object_Land_Pattern_Small,4,0,1,18959567.0,18960180.0,613.0
103,choice,choice,25,4.0,Pattern,1.0,15.61622433399316,Animal_Sea_Solid_Large,1,0,0,18960824.0,18961789.0,965.0
103,choice,choice,25,4.0,Pattern,1.0,15.61622433399316,Animal_Sea_Pattern_Large,0,0,1,18962303.0,18962722.0,419.0
103,choice,choice,25,4.0,Pattern,1.0,15.61622433399316,fixation,-1,1,0,18962923.0,18963139.0,216.0
103,choice,choice,25,4.0,Pattern,1.0,15.61622433399316,Animal_Land_Solid_Large,3,0,0,18963268.0,18963317.0,49.0
103,choice,choice,25,4.0,Pattern,1.0,15.61622433399316,Object_Land_Pattern_Small,4,0,1,18963519.0,18964132.0,613.0
103,choice,choice,25,4.0,Pattern,1.0,15.61622433399316,Animal_Sea_Solid_Large,1,0,0,18964519.0,18965498.0,979.0
103,choice,choice,25,4.0,Pattern,1.0,15.61622433399316,Object_Land_Solid_Small,5,0,0,18965955.0,18966227.0,272.0
103,choice,choice,26,4.0,Land,2.0,14.085815540980548,Animal_Sea_Solid_Large,1,0,0,18969318.0,18970678.0,1360.0
103,choice,choice,26,4.0,Land,2.0,14.085815540980548,Animal_Sea_Pattern_Large,0,0,0,18971798.0,18972380.0,582.0
103,choice,choice,26,4.0,Land,2.0,14.085815540980548,fixation,-1,1,0,18973048.0,18973360.0,312.0
103,choice,choice,26,4.0,Land,2.0,14.085815540980548,Animal_Sea_Pattern_Large,0,0,0,18973702.0,18973993.0,291.0
103,choice,choice,26,4.0,Land,2.0,14.085815540980548,fixation,-1,1,0,18974013.0,18974377.0,364.0
103,choice,choice,26,4.0,Land,2.0,14.085815540980548,Object_Sea_Pattern_Small,2,0,0,18974394.0,18974541.0,147.0
103,choice,choice,26,4.0,Land,2.0,14.085815540980548,fixation,-1,1,0,18975318.0,18975655.0,337.0
103,choice,choice,26,4.0,Land,2.0,14.085815540980548,Animal_Sea_Solid_Large,1,0,0,18975679.0,18976050.0,371.0
103,choice,choice,26,4.0,Land,2.0,14.085815540980548,Object_Land_Solid_Small,5,0,1,18976446.0,18977169.0,723.0
103,choice,choice,26,4.0,Land,2.0,14.085815540980548,Object_Sea_Pattern_Small,2,0,0,18977546.0,18977587.0,41.0
103,choice,choice,26,4.0,Land,2.0,14.085815540980548,fixation,-1,1,0,18977605.0,18977778.0,173.0
103,choice,choice,26,4.0,Land,2.0,14.085815540980548,Object_Land_Solid_Small,5,0,1,18977792.0,18978266.0,474.0
103,choice,choice,26,4.0,Land,2.0,14.085815540980548,Object_Sea_Pattern_Small,2,0,0,18978483.0,18978532.0,49.0
103,choice,choice,26,4.0,Land,2.0,14.085815540980548,Object_Land_Solid_Small,5,0,1,18978550.0,18979921.0,1371.0
103,choice,choice,26,4.0,Land,2.0,14.085815540980548,fixation,-1,1,0,18979933.0,18980001.0,68.0
103,choice,choice,26,4.0,Land,2.0,14.085815540980548,Object_Land_Solid_Small,5,0,1,18981561.0,18981606.0,45.0
103,choice,choice,26,4.0,Land,2.0,14.085815540980548,Object_Sea_Pattern_Small,2,0,0,18982093.0,18982213.0,120.0
103,choice,choice,26,4.0,Land,2.0,14.085815540980548,Animal_Sea_Pattern_Large,0,0,0,18983100.0,18983140.0,40.0
103,choice,choice,27,4.0,Large,1.0,11.486993000027724,Animal_Sea_Solid_Large,1,0,1,18987262.0,18987703.0,441.0
103,choice,choice,27,4.0,Large,1.0,11.486993000027724,Animal_Sea_Pattern_Large,0,0,1,18988060.0,18988988.0,928.0
103,choice,choice,27,4.0,Large,1.0,11.486993000027724,Animal_Sea_Solid_Large,1,0,1,18989236.0,18989573.0,337.0
103,choice,choice,27,4.0,Large,1.0,11.486993000027724,Animal_Sea_Pattern_Large,0,0,1,18989762.0,18990270.0,508.0
103,choice,choice,27,4.0,Large,1.0,11.486993000027724,Animal_Sea_Solid_Large,1,0,1,18990297.0,18991087.0,790.0
103,choice,choice,27,4.0,Large,1.0,11.486993000027724,Object_Land_Pattern_Small,4,0,0,18991631.0,18991793.0,162.0
103,choice,choice,27,4.0,Large,1.0,11.486993000027724,fixation,-1,1,0,18992184.0,18992457.0,273.0
103,choice,choice,27,4.0,Large,1.0,11.486993000027724,Animal_Sea_Pattern_Large,0,0,1,18993206.0,18993427.0,221.0
103,choice,choice,27,4.0,Large,1.0,11.486993000027724,Animal_Sea_Solid_Large,1,0,1,18993448.0,18994753.0,1305.0
103,choice,choice,27,4.0,Large,1.0,11.486993000027724,Animal_Sea_Pattern_Large,0,0,1,18995360.0,18995585.0,225.0
103,choice,choice,27,4.0,Large,1.0,11.486993000027724,Animal_Sea_Solid_Large,1,0,1,18995623.0,18995773.0,150.0
103,choice,choice,27,4.0,Large,1.0,11.486993000027724,Object_Land_Pattern_Small,4,0,0,18996027.0,18997257.0,1230.0
103,choice,choice,28,4.0,Solid,2.0,14.811134500079788,Animal_Sea_Solid_Large,1,0,1,19001726.0,19002917.0,1191.0
103,choice,choice,28,4.0,Solid,2.0,14.811134500079788,Animal_Sea_Pattern_Large,0,0,0,19003171.0,19003843.0,672.0
103,choice,choice,28,4.0,Solid,2.0,14.811134500079788,Animal_Sea_Solid_Large,1,0,1,19004428.0,19005730.0,1302.0
103,choice,choice,28,4.0,Solid,2.0,14.811134500079788,fixation,-1,1,0,19006448.0,19006576.0,128.0
103,choice,choice,28,4.0,Solid,2.0,14.811134500079788,Object_Land_Pattern_Small,4,0,0,19006857.0,19006880.0,23.0
103,choice,choice,28,4.0,Solid,2.0,14.811134500079788,fixation,-1,1,0,19006897.0,19007299.0,402.0
103,choice,choice,28,4.0,Solid,2.0,14.811134500079788,Animal_Sea_Pattern_Large,0,0,0,19007735.0,19008365.0,630.0
103,choice,choice,28,4.0,Solid,2.0,14.811134500079788,fixation,-1,1,0,19008394.0,19008761.0,367.0
103,choice,choice,28,4.0,Solid,2.0,14.811134500079788,Animal_Sea_Solid_Large,1,0,1,19009224.0,19009261.0,37.0
103,choice,choice,28,4.0,Solid,2.0,14.811134500079788,Animal_Sea_Pattern_Large,0,0,0,19009302.0,19009498.0,196.0
103,choice,choice,28,4.0,Solid,2.0,14.811134500079788,Animal_Sea_Solid_Large,1,0,1,19009537.0,19010286.0,749.0
103,choice,choice,28,4.0,Solid,2.0,14.811134500079788,Object_Land_Pattern_Small,4,0,0,19010683.0,19011198.0,515.0
103,choice,choice,28,4.0,Solid,2.0,14.811134500079788,Animal_Sea_Solid_Large,1,0,1,19011210.0,19012338.0,1128.0
103,choice,choice,28,4.0,Solid,2.0,14.811134500079788,Object_Land_Pattern_Small,4,0,0,19012761.0,19014910.0,2149.0
103,choice,choice,29,4.0,Animal,1.0,24.573432959034108,Animal_Sea_Pattern_Large,0,0,1,19019511.0,19019669.0,158.0
103,choice,choice,29,4.0,Animal,1.0,24.573432959034108,Animal_Sea_Solid_Large,1,0,1,19020020.0,19020411.0,391.0
103,choice,choice,29,4.0,Animal,1.0,24.573432959034108,Animal_Sea_Pattern_Large,0,0,1,19020796.0,19022036.0,1240.0
103,choice,choice,29,4.0,Animal,1.0,24.573432959034108,Animal_Sea_Solid_Large,1,0,1,19022061.0,19022458.0,397.0
103,choice,choice,29,4.0,Animal,1.0,24.573432959034108,Object_Land_Pattern_Small,4,0,0,19022839.0,19023570.0,731.0
103,choice,choice,29,4.0,Animal,1.0,24.573432959034108,Animal_Sea_Pattern_Large,0,0,1,19024312.0,19024505.0,193.0
103,choice,choice,29,4.0,Animal,1.0,24.573432959034108,fixation,-1,1,0,19024804.0,19025010.0,206.0
103,choice,choice,29,4.0,Animal,1.0,24.573432959034108,Animal_Land_Solid_Large,3,0,1,19025028.0,19025361.0,333.0
103,choice,choice,29,4.0,Animal,1.0,24.573432959034108,Object_Sea_Pattern_Small,2,0,0,19025381.0,19025683.0,302.0
103,choice,choice,29,4.0,Animal,1.0,24.573432959034108,Animal_Sea_Pattern_Large,0,0,1,19025912.0,19026397.0,485.0
103,choice,choice,29,4.0,Animal,1.0,24.573432959034108,fixation,-1,1,0,19026422.0,19026593.0,171.0
103,choice,choice,29,4.0,Animal,1.0,24.573432959034108,Object_Land_Pattern_Small,4,0,0,19026616.0,19027363.0,747.0
103,choice,choice,29,4.0,Animal,1.0,24.573432959034108,Animal_Sea_Solid_Large,1,0,1,19028053.0,19028913.0,860.0
103,choice,choice,29,4.0,Animal,1.0,24.573432959034108,Object_Land_Pattern_Small,4,0,0,19028936.0,19029213.0,277.0
103,choice,choice,29,4.0,Animal,1.0,24.573432959034108,Animal_Sea_Pattern_Large,0,0,1,19029667.0,19029871.0,204.0
103,choice,choice,29,4.0,Animal,1.0,24.573432959034108,Animal_Sea_Solid_Large,1,0,1,19029893.0,19030493.0,600.0
103,choice,choice,29,4.0,Animal,1.0,24.573432959034108,Animal_Sea_Pattern_Large,0,0,1,19032946.0,19033170.0,224.0
103,choice,choice,29,4.0,Animal,1.0,24.573432959034108,Animal_Sea_Solid_Large,1,0,1,19033181.0,19033401.0,220.0
103,choice,choice,29,4.0,Animal,1.0,24.573432959034108,Animal_Sea_Pattern_Large,0,0,1,19033412.0,19034626.0,1214.0
103,choice,choice,29,4.0,Animal,1.0,24.573432959034108,Animal_Sea_Solid_Large,1,0,1,19035668.0,19036232.0,564.0
103,choice,choice,29,4.0,Animal,1.0,24.573432959034108,Animal_Sea_Pattern_Large,0,0,1,19036259.0,19036425.0,166.0
103,choice,choice,29,4.0,Animal,1.0,24.573432959034108,Object_Land_Pattern_Small,4,0,0,19039863.0,19040150.0,287.0
103,choice,choice,29,4.0,Animal,1.0,24.573432959034108,Animal_Sea_Solid_Large,1,0,1,19040187.0,19040667.0,480.0
103,choice,choice,29,4.0,Animal,1.0,24.573432959034108,Object_Land_Pattern_Small,4,0,0,19040688.0,19041225.0,537.0
103,choice,choice,29,4.0,Animal,1.0,24.573432959034108,Animal_Sea_Solid_Large,1,0,1,19042043.0,19043080.0,1037.0
103,choice,choice,30,4.0,Sea,2.0,7.447224667062983,Object_Land_Pattern_Small,4,0,0,19046757.0,19046831.0,74.0
103,choice,choice,30,4.0,Sea,2.0,7.447224667062983,Animal_Sea_Solid_Large,1,0,1,19046890.0,19047183.0,293.0
103,choice,choice,30,4.0,Sea,2.0,7.447224667062983,Animal_Sea_Pattern_Large,0,0,1,19047437.0,19049936.0,2499.0
103,choice,choice,30,4.0,Sea,2.0,7.447224667062983,fixation,-1,1,0,19051194.0,19052157.0,963.0
103,choice,choice,30,4.0,Sea,2.0,7.447224667062983,Animal_Sea_Pattern_Large,0,0,1,19052617.0,19053229.0,612.0
103,choice,choice,31,4.0,Small,2.0,6.951357625075616,Animal_Sea_Pattern_Large,0,0,0,19057544.0,19057963.0,419.0
103,choice,choice,31,4.0,Small,2.0,6.951357625075616,fixation,-1,1,0,19058403.0,19058575.0,172.0
103,choice,choice,31,4.0,Small,2.0,6.951357625075616,Animal_Sea_Solid_Large,1,0,0,19058940.0,19058964.0,24.0
103,choice,choice,31,4.0,Small,2.0,6.951357625075616,fixation,-1,1,0,19058983.0,19059467.0,484.0
103,choice,choice,31,4.0,Small,2.0,6.951357625075616,Object_Land_Solid_Small,5,0,1,19059488.0,19060085.0,597.0
103,choice,choice,31,4.0,Small,2.0,6.951357625075616,Animal_Sea_Pattern_Large,0,0,0,19060445.0,19060832.0,387.0
103,choice,choice,31,4.0,Small,2.0,6.951357625075616,Object_Land_Pattern_Small,4,0,1,19060864.0,19061638.0,774.0
103,choice,choice,32,4.0,Object,1.0,18.69697479205206,Object_Land_Pattern_Small,4,0,1,19067402.0,19068084.0,682.0
103,choice,choice,32,4.0,Object,1.0,18.69697479205206,Animal_Sea_Solid_Large,1,0,0,19069029.0,19069320.0,291.0
103,choice,choice,32,4.0,Object,1.0,18.69697479205206,Animal_Land_Solid_Large,3,0,0,19069344.0,19070264.0,920.0
103,choice,choice,32,4.0,Object,1.0,18.69697479205206,Object_Land_Pattern_Small,4,0,1,19070583.0,19071054.0,471.0
103,choice,choice,32,4.0,Object,1.0,18.69697479205206,Animal_Sea_Solid_Large,1,0,0,19071997.0,19072071.0,74.0
103,choice,choice,32,4.0,Object,1.0,18.69697479205206,fixation,-1,1,0,19072109.0,19072375.0,266.0
103,choice,choice,32,4.0,Object,1.0,18.69697479205206,Animal_Sea_Pattern_Large,0,0,0,19072409.0,19072500.0,91.0
103,choice,choice,32,4.0,Object,1.0,18.69697479205206,Object_Land_Pattern_Small,4,0,1,19072544.0,19073290.0,746.0
103,choice,choice,32,4.0,Object,1.0,18.69697479205206,Animal_Sea_Solid_Large,1,0,0,19073356.0,19073619.0,263.0
103,choice,choice,32,4.0,Object,1.0,18.69697479205206,fixation,-1,1,0,19073662.0,19074289.0,627.0
103,choice,choice,32,4.0,Object,1.0,18.69697479205206,Object_Land_Pattern_Small,4,0,1,19074979.0,19075058.0,79.0
103,choice,choice,32,4.0,Object,1.0,18.69697479205206,Animal_Sea_Pattern_Large,0,0,0,19075088.0,19075926.0,838.0
103,choice,choice,32,4.0,Object,1.0,18.69697479205206,fixation,-1,1,0,19075981.0,19076548.0,567.0
103,choice,choice,32,4.0,Object,1.0,18.69697479205206,Object_Land_Solid_Small,5,0,1,19076948.0,19077237.0,289.0
103,choice,choice,32,4.0,Object,1.0,18.69697479205206,Animal_Sea_Pattern_Large,0,0,0,19077258.0,19077529.0,271.0
103,choice,choice,32,4.0,Object,1.0,18.69697479205206,Animal_Sea_Solid_Large,1,0,0,19077727.0,19077754.0,27.0
103,choice,choice,32,4.0,Object,1.0,18.69697479205206,Animal_Sea_Pattern_Large,0,0,0,19077772.0,19078878.0,1106.0
103,choice,choice,32,4.0,Object,1.0,18.69697479205206,Animal_Sea_Solid_Large,1,0,0,19080089.0,19080116.0,27.0
103,choice,choice,32,4.0,Object,1.0,18.69697479205206,Animal_Sea_Pattern_Large,0,0,0,19080133.0,19081927.0,1794.0
103,choice,choice,32,4.0,Object,1.0,18.69697479205206,Animal_Sea_Solid_Large,1,0,0,19082348.0,19082379.0,31.0
103,choice,choice,32,4.0,Object,1.0,18.69697479205206,Animal_Sea_Pattern_Large,0,0,0,19082405.0,19082705.0,300.0
103,choice,choice,32,4.0,Object,1.0,18.69697479205206,Animal_Sea_Solid_Large,1,0,0,19083650.0,19083699.0,49.0
103,choice,choice,32,4.0,Object,1.0,18.69697479205206,fixation,-1,1,0,19083754.0,19084410.0,656.0
103,choice,choice,32,4.0,Object,1.0,18.69697479205206,Animal_Sea_Solid_Large,1,0,0,19084676.0,19084756.0,80.0
103,choice,choice,32,4.0,Object,1.0,18.69697479205206,fixation,-1,1,0,19084786.0,19084932.0,146.0
103,choice,choice,32,4.0,Object,1.0,18.69697479205206,Object_Land_Solid_Small,5,0,1,19084976.0,19085178.0,202.0
103,choice,choice,33,5.0,Solid,1.0,37.46965962497052,Animal_Land_Pattern_Large,0,0,0,19344937.0,19345111.0,174.0
103,choice,choice,33,5.0,Solid,1.0,37.46965962497052,Object_Land_Pattern_Large,1,0,0,19345846.0,19346483.0,637.0
103,choice,choice,33,5.0,Solid,1.0,37.46965962497052,Animal_Sea_Solid_Small,2,0,1,19349697.0,19349943.0,246.0
103,choice,choice,33,5.0,Solid,1.0,37.46965962497052,Object_Sea_Solid_Small,3,0,1,19349968.0,19350341.0,373.0
103,choice,choice,33,5.0,Solid,1.0,37.46965962497052,Animal_Sea_Pattern_Small,4,0,0,19350687.0,19350972.0,285.0
103,choice,choice,33,5.0,Solid,1.0,37.46965962497052,Animal_Land_Pattern_Large,0,0,0,19351303.0,19351599.0,296.0
103,choice,choice,33,5.0,Solid,1.0,37.46965962497052,fixation,-1,1,0,19351625.0,19351752.0,127.0
103,choice,choice,33,5.0,Solid,1.0,37.46965962497052,Object_Sea_Solid_Small,3,0,1,19351809.0,19351995.0,186.0
103,choice,choice,33,5.0,Solid,1.0,37.46965962497052,fixation,-1,1,0,19352279.0,19352822.0,543.0
103,choice,choice,33,5.0,Solid,1.0,37.46965962497052,Animal_Sea_Pattern_Small,4,0,0,19352840.0,19353125.0,285.0
103,choice,choice,33,5.0,Solid,1.0,37.46965962497052,fixation,-1,1,0,19353481.0,19353712.0,231.0
103,choice,choice,33,5.0,Solid,1.0,37.46965962497052,Object_Sea_Solid_Small,3,0,1,19353731.0,19354032.0,301.0
103,choice,choice,33,5.0,Solid,1.0,37.46965962497052,fixation,-1,1,0,19354052.0,19354914.0,862.0
103,choice,choice,33,5.0,Solid,1.0,37.46965962497052,Animal_Sea_Solid_Small,2,0,1,19355205.0,19355231.0,26.0
103,choice,choice,33,5.0,Solid,1.0,37.46965962497052,Object_Sea_Solid_Small,3,0,1,19355430.0,19355487.0,57.0
103,choice,choice,33,5.0,Solid,1.0,37.46965962497052,fixation,-1,1,0,19355506.0,19355627.0,121.0
103,choice,choice,33,5.0,Solid,1.0,37.46965962497052,Object_Sea_Solid_Small,3,0,1,19355858.0,19356300.0,442.0
103,choice,choice,33,5.0,Solid,1.0,37.46965962497052,Animal_Sea_Solid_Small,2,0,1,19356321.0,19356728.0,407.0
103,choice,choice,33,5.0,Solid,1.0,37.46965962497052,Object_Land_Pattern_Large,1,0,0,19357328.0,19357748.0,420.0
103,choice,choice,33,5.0,Solid,1.0,37.46965962497052,Animal_Land_Pattern_Large,0,0,0,19357787.0,19357957.0,170.0
103,choice,choice,33,5.0,Solid,1.0,37.46965962497052,Animal_Sea_Solid_Small,2,0,1,19358331.0,19359112.0,781.0
103,choice,choice,33,5.0,Solid,1.0,37.46965962497052,Animal_Land_Pattern_Large,0,0,0,19359592.0,19360832.0,1240.0
103,choice,choice,33,5.0,Solid,1.0,37.46965962497052,Object_Land_Pattern_Large,1,0,0,19361473.0,19361656.0,183.0
103,choice,choice,33,5.0,Solid,1.0,37.46965962497052,Animal_Land_Pattern_Large,0,0,0,19362014.0,19362366.0,352.0
103,choice,choice,33,5.0,Solid,1.0,37.46965962497052,Object_Sea_Solid_Small,3,0,1,19362758.0,19362807.0,49.0
103,choice,choice,33,5.0,Solid,1.0,37.46965962497052,Object_Land_Pattern_Large,1,0,0,19362824.0,19363131.0,307.0
103,choice,choice,33,5.0,Solid,1.0,37.46965962497052,Animal_Land_Pattern_Large,0,0,0,19363165.0,19363445.0,280.0
103,choice,choice,33,5.0,Solid,1.0,37.46965962497052,Animal_Sea_Solid_Small,2,0,1,19363626.0,19364314.0,688.0
103,choice,choice,33,5.0,Solid,1.0,37.46965962497052,Object_Land_Pattern_Large,1,0,0,19364799.0,19365168.0,369.0
103,choice,choice,33,5.0,Solid,1.0,37.46965962497052,Animal_Sea_Solid_Small,2,0,1,19365561.0,19366270.0,709.0
103,choice,choice,33,5.0,Solid,1.0,37.46965962497052,Object_Sea_Solid_Small,3,0,1,19366646.0,19366825.0,179.0
103,choice,choice,33,5.0,Solid,1.0,37.46965962497052,Animal_Sea_Solid_Small,2,0,1,19366984.0,19368176.0,1192.0
103,choice,choice,33,5.0,Solid,1.0,37.46965962497052,Object_Land_Pattern_Large,1,0,0,19368472.0,19368517.0,45.0
103,choice,choice,33,5.0,Solid,1.0,37.46965962497052,Animal_Sea_Solid_Small,2,0,1,19368724.0,19369146.0,422.0
103,choice,choice,33,5.0,Solid,1.0,37.46965962497052,Object_Land_Pattern_Large,1,0,0,19369160.0,19369592.0,432.0
103,choice,choice,33,5.0,Solid,1.0,37.46965962497052,Animal_Sea_Solid_Small,2,0,1,19370166.0,19370930.0,764.0
103,choice,choice,33,5.0,Solid,1.0,37.46965962497052,Object_Land_Pattern_Large,1,0,0,19371349.0,19372894.0,1545.0
103,choice,choice,33,5.0,Solid,1.0,37.46965962497052,Animal_Sea_Solid_Small,2,0,1,19373668.0,19374109.0,441.0
103,choice,choice,33,5.0,Solid,1.0,37.46965962497052,Object_Sea_Solid_Small,3,0,1,19374627.0,19374962.0,335.0
103,choice,choice,33,5.0,Solid,1.0,37.46965962497052,Animal_Sea_Solid_Small,2,0,1,19375338.0,19375858.0,520.0
103,choice,choice,33,5.0,Solid,1.0,37.46965962497052,Object_Land_Solid_Large,5,0,1,19377180.0,19377549.0,369.0
103,choice,choice,33,5.0,Solid,1.0,37.46965962497052,Animal_Sea_Pattern_Small,4,0,0,19377588.0,19377884.0,296.0
103,choice,choice,33,5.0,Solid,1.0,37.46965962497052,fixation,-1,1,0,19378244.0,19378558.0,314.0
103,choice,choice,33,5.0,Solid,1.0,37.46965962497052,Animal_Sea_Solid_Small,2,0,1,19378734.0,19379063.0,329.0
103,choice,choice,33,5.0,Solid,1.0,37.46965962497052,fixation,-1,1,0,19379243.0,19379474.0,231.0
103,choice,choice,33,5.0,Solid,1.0,37.46965962497052,Object_Land_Pattern_Large,1,0,0,19379507.0,19379706.0,199.0
103,choice,choice,33,5.0,Solid,1.0,37.46965962497052,Animal_Sea_Solid_Small,2,0,1,19379904.0,19381212.0,1308.0
103,choice,choice,33,5.0,Solid,1.0,37.46965962497052,fixation,-1,1,0,19381737.0,19382217.0,480.0
103,choice,choice,34,5.0,Small,2.0,16.790348042035475,Animal_Sea_Solid_Small,2,0,1,19385479.0,19385818.0,339.0
103,choice,choice,34,5.0,Small,2.0,16.790348042035475,Object_Land_Pattern_Large,1,0,0,19387377.0,19387577.0,200.0
103,choice,choice,34,5.0,Small,2.0,16.790348042035475,Animal_Sea_Solid_Small,2,0,1,19387786.0,19389974.0,2188.0
103,choice,choice,34,5.0,Small,2.0,16.790348042035475,Animal_Land_Pattern_Large,0,0,0,19391357.0,19393449.0,2092.0
103,choice,choice,34,5.0,Small,2.0,16.790348042035475,Object_Land_Pattern_Large,1,0,0,19395037.0,19395778.0,741.0
103,choice,choice,34,5.0,Small,2.0,16.790348042035475,fixation,-1,1,0,19396385.0,19396641.0,256.0
103,choice,choice,34,5.0,Small,2.0,16.790348042035475,Object_Land_Solid_Large,5,0,0,19396660.0,19396823.0,163.0
103,choice,choice,34,5.0,Small,2.0,16.790348042035475,fixation,-1,1,0,19397082.0,19397291.0,209.0
103,choice,choice,34,5.0,Small,2.0,16.790348042035475,Animal_Sea_Solid_Small,2,0,1,19397328.0,19397811.0,483.0
103,choice,choice,34,5.0,Small,2.0,16.790348042035475,Animal_Sea_Pattern_Small,4,0,1,19397870.0,19398138.0,268.0
103,choice,choice,34,5.0,Small,2.0,16.790348042035475,fixation,-1,1,0,19398361.0,19398651.0,290.0
103,choice,choice,34,5.0,Small,2.0,16.790348042035475,Animal_Sea_Solid_Small,2,0,1,19398957.0,19399842.0,885.0
103,choice,choice,34,5.0,Small,2.0,16.790348042035475,Animal_Sea_Pattern_Small,4,0,1,19400135.0,19400427.0,292.0
103,choice,choice,35,5.0,Pattern,2.0,18.815463667036965,Animal_Land_Pattern_Large,0,0,1,19404934.0,19405738.0,804.0
103,choice,choice,35,5.0,Pattern,2.0,18.815463667036965,Object_Land_Pattern_Large,1,0,1,19406342.0,19406525.0,183.0
103,choice,choice,35,5.0,Pattern,2.0,18.815463667036965,fixation,-1,1,0,19406543.0,19406965.0,422.0
103,choice,choice,35,5.0,Pattern,2.0,18.815463667036965,Animal_Land_Pattern_Large,0,0,1,19407273.0,19407311.0,38.0
103,choice,choice,35,5.0,Pattern,2.0,18.815463667036965,Object_Land_Pattern_Large,1,0,1,19407760.0,19411218.0,3458.0
103,choice,choice,35,5.0,Pattern,2.0,18.815463667036965,Animal_Sea_Solid_Small,2,0,0,19412322.0,19413083.0,761.0
103,choice,choice,35,5.0,Pattern,2.0,18.815463667036965,Object_Sea_Solid_Small,3,0,0,19413196.0,19413256.0,60.0
103,choice,choice,35,5.0,Pattern,2.0,18.815463667036965,Animal_Sea_Solid_Small,2,0,0,19413458.0,19414713.0,1255.0
103,choice,choice,35,5.0,Pattern,2.0,18.815463667036965,Object_Land_Pattern_Large,1,0,1,19415657.0,19416551.0,894.0
103,choice,choice,35,5.0,Pattern,2.0,18.815463667036965,Animal_Land_Pattern_Large,0,0,1,19416786.0,19417686.0,900.0
103,choice,choice,35,5.0,Pattern,2.0,18.815463667036965,Object_Land_Pattern_Large,1,0,1,19418206.0,19418922.0,716.0
103,choice,choice,35,5.0,Pattern,2.0,18.815463667036965,Animal_Land_Pattern_Large,0,0,1,19419288.0,19420333.0,1045.0
103,choice,choice,35,5.0,Pattern,2.0,18.815463667036965,Object_Land_Pattern_Large,1,0,1,19420604.0,19421153.0,549.0
103,choice,choice,35,5.0,Pattern,2.0,18.815463667036965,Animal_Land_Pattern_Large,0,0,1,19421348.0,19422741.0,1393.0
103,choice,choice,36,5.0,Animal,2.0,25.198714207974263,Animal_Land_Pattern_Large,0,0,1,19425838.0,19426751.0,913.0
103,choice,choice,36,5.0,Animal,2.0,25.198714207974263,Animal_Sea_Solid_Small,2,0,1,19427606.0,19428137.0,531.0
103,choice,choice,36,5.0,Animal,2.0,25.198714207974263,Object_Land_Pattern_Large,1,0,0,19428331.0,19428424.0,93.0
103,choice,choice,36,5.0,Animal,2.0,25.198714207974263,Animal_Land_Pattern_Large,0,0,1,19428465.0,19428793.0,328.0
103,choice,choice,36,5.0,Animal,2.0,25.198714207974263,Object_Land_Pattern_Large,1,0,0,19434935.0,19435524.0,589.0
103,choice,choice,36,5.0,Animal,2.0,25.198714207974263,Animal_Sea_Solid_Small,2,0,1,19435955.0,19436821.0,866.0
103,choice,choice,36,5.0,Animal,2.0,25.198714207974263,Object_Sea_Solid_Small,3,0,0,19436881.0,19437138.0,257.0
103,choice,choice,36,5.0,Animal,2.0,25.198714207974263,fixation,-1,1,0,19437151.0,19437682.0,531.0
103,choice,choice,36,5.0,Animal,2.0,25.198714207974263,Animal_Land_Pattern_Large,0,0,1,19437897.0,19438035.0,138.0
103,choice,choice,36,5.0,Animal,2.0,25.198714207974263,Object_Land_Pattern_Large,1,0,0,19438460.0,19439151.0,691.0
103,choice,choice,36,5.0,Animal,2.0,25.198714207974263,Animal_Land_Pattern_Large,0,0,1,19439351.0,19439556.0,205.0
103,choice,choice,36,5.0,Animal,2.0,25.198714207974263,Animal_Sea_Solid_Small,2,0,1,19439591.0,19439967.0,376.0
103,choice,choice,36,5.0,Animal,2.0,25.198714207974263,Object_Land_Pattern_Large,1,0,0,19440001.0,19441534.0,1533.0
103,choice,choice,36,5.0,Animal,2.0,25.198714207974263,Animal_Land_Pattern_Large,0,0,1,19441925.0,19442050.0,125.0
103,choice,choice,36,5.0,Animal,2.0,25.198714207974263,Object_Land_Pattern_Large,1,0,0,19442400.0,19442828.0,428.0
103,choice,choice,36,5.0,Animal,2.0,25.198714207974263,Animal_Land_Pattern_Large,0,0,1,19442865.0,19447385.0,4520.0
103,choice,choice,36,5.0,Animal,2.0,25.198714207974263,Object_Land_Pattern_Large,1,0,0,19448271.0,19449676.0,1405.0
103,choice,choice,36,5.0,Animal,2.0,25.198714207974263,Animal_Land_Pattern_Large,0,0,1,19449699.0,19450185.0,486.0
103,choice,choice,37,5.0,Large,2.0,16.49158237501979,Object_Land_Pattern_Large,1,0,1,19453877.0,19457877.0,4000.0
103,choice,choice,37,5.0,Large,2.0,16.49158237501979,fixation,-1,1,0,19459337.0,19460290.0,953.0
103,choice,choice,37,5.0,Large,2.0,16.49158237501979,Object_Land_Pattern_Large,1,0,1,19461641.0,19462035.0,394.0
103,choice,choice,37,5.0,Large,2.0,16.49158237501979,Object_Sea_Solid_Small,3,0,0,19462082.0,19462451.0,369.0
103,choice,choice,37,5.0,Large,2.0,16.49158237501979,Animal_Sea_Solid_Small,2,0,0,19462805.0,19463462.0,657.0
103,choice,choice,37,5.0,Large,2.0,16.49158237501979,Object_Sea_Solid_Small,3,0,0,19463514.0,19463836.0,322.0
103,choice,choice,37,5.0,Large,2.0,16.49158237501979,Animal_Land_Pattern_Large,0,0,1,19463894.0,19464371.0,477.0
103,choice,choice,37,5.0,Large,2.0,16.49158237501979,Object_Sea_Solid_Small,3,0,0,19464687.0,19464718.0,31.0
103,choice,choice,37,5.0,Large,2.0,16.49158237501979,Animal_Sea_Solid_Small,2,0,0,19464938.0,19464979.0,41.0
103,choice,choice,37,5.0,Large,2.0,16.49158237501979,Animal_Land_Pattern_Large,0,0,1,19465024.0,19465324.0,300.0
103,choice,choice,37,5.0,Large,2.0,16.49158237501979,Animal_Sea_Solid_Small,2,0,0,19465641.0,19466186.0,545.0
103,choice,choice,37,5.0,Large,2.0,16.49158237501979,Animal_Land_Pattern_Large,0,0,1,19466244.0,19467435.0,1191.0
103,choice,choice,37,5.0,Large,2.0,16.49158237501979,Object_Land_Pattern_Large,1,0,1,19468360.0,19469266.0,906.0
103,choice,choice,38,5.0,Sea,2.0,8.83203249995131,Animal_Land_Pattern_Large,0,0,0,19473607.0,19474646.0,1039.0
103,choice,choice,38,5.0,Sea,2.0,8.83203249995131,Object_Land_Pattern_Large,1,0,0,19475302.0,19476085.0,783.0
103,choice,choice,38,5.0,Sea,2.0,8.83203249995131,Animal_Sea_Solid_Small,2,0,1,19476117.0,19476415.0,298.0
103,choice,choice,38,5.0,Sea,2.0,8.83203249995131,Object_Land_Pattern_Large,1,0,0,19476865.0,19476942.0,77.0
103,choice,choice,38,5.0,Sea,2.0,8.83203249995131,Animal_Land_Pattern_Large,0,0,0,19476982.0,19478733.0,1751.0
103,choice,choice,38,5.0,Sea,2.0,8.83203249995131,Object_Land_Pattern_Large,1,0,0,19480873.0,19480894.0,21.0
103,choice,choice,38,5.0,Sea,2.0,8.83203249995131,Animal_Land_Pattern_Large,0,0,0,19480913.0,19481286.0,373.0
103,choice,choice,38,5.0,Sea,2.0,8.83203249995131,Animal_Sea_Solid_Small,2,0,1,19481321.0,19481970.0,649.0
103,choice,choice,41,6.0,Pattern,2.0,67.30460041598417,Object_Sea_Solid_Large,0,0,0,19773521.0,19774107.0,586.0
103,choice,choice,41,6.0,Pattern,2.0,67.30460041598417,Animal_Land_Pattern_Small,1,0,1,19774984.0,19775236.0,252.0
103,choice,choice,41,6.0,Pattern,2.0,67.30460041598417,fixation,-1,1,0,19775250.0,19775421.0,171.0
103,choice,choice,41,6.0,Pattern,2.0,67.30460041598417,Animal_Land_Pattern_Small,1,0,1,19776208.0,19776335.0,127.0
103,choice,choice,41,6.0,Pattern,2.0,67.30460041598417,Object_Sea_Pattern_Large,2,0,1,19776775.0,19776961.0,186.0
103,choice,choice,41,6.0,Pattern,2.0,67.30460041598417,Object_Land_Solid_Small,3,0,0,19777006.0,19777174.0,168.0
103,choice,choice,41,6.0,Pattern,2.0,67.30460041598417,Animal_Sea_Pattern_Large,4,0,1,19777202.0,19777248.0,46.0
103,choice,choice,41,6.0,Pattern,2.0,67.30460041598417,Object_Sea_Solid_Large,0,0,0,19779252.0,19779335.0,83.0
103,choice,choice,41,6.0,Pattern,2.0,67.30460041598417,Animal_Sea_Pattern_Large,4,0,1,19779530.0,19779880.0,350.0
103,choice,choice,41,6.0,Pattern,2.0,67.30460041598417,Object_Land_Solid_Small,3,0,0,19779910.0,19780489.0,579.0
103,choice,choice,41,6.0,Pattern,2.0,67.30460041598417,Object_Sea_Solid_Large,0,0,0,19781268.0,19781600.0,332.0
103,choice,choice,41,6.0,Pattern,2.0,67.30460041598417,Animal_Sea_Pattern_Large,4,0,1,19781943.0,19783709.0,1766.0
103,choice,choice,41,6.0,Pattern,2.0,67.30460041598417,Object_Sea_Solid_Large,0,0,0,19784082.0,19785141.0,1059.0
103,choice,choice,41,6.0,Pattern,2.0,67.30460041598417,fixation,-1,1,0,19786873.0,19786925.0,52.0
103,choice,choice,41,6.0,Pattern,2.0,67.30460041598417,Object_Sea_Solid_Large,0,0,0,19786943.0,19787019.0,76.0
103,choice,choice,41,6.0,Pattern,2.0,67.30460041598417,Animal_Sea_Pattern_Large,4,0,1,19787034.0,19787621.0,587.0
103,choice,choice,41,6.0,Pattern,2.0,67.30460041598417,fixation,-1,1,0,19787643.0,19788196.0,553.0
103,choice,choice,41,6.0,Pattern,2.0,67.30460041598417,Object_Sea_Pattern_Large,2,0,1,19788801.0,19788866.0,65.0
103,choice,choice,41,6.0,Pattern,2.0,67.30460041598417,Animal_Land_Pattern_Small,1,0,1,19789062.0,19790250.0,1188.0
103,choice,choice,41,6.0,Pattern,2.0,67.30460041598417,Object_Sea_Pattern_Large,2,0,1,19790588.0,19791903.0,1315.0
103,choice,choice,41,6.0,Pattern,2.0,67.30460041598417,Animal_Land_Pattern_Small,1,0,1,19792260.0,19793925.0,1665.0
103,choice,choice,41,6.0,Pattern,2.0,67.30460041598417,Object_Sea_Solid_Large,0,0,0,19794299.0,19795943.0,1644.0
103,choice,choice,41,6.0,Pattern,2.0,67.30460041598417,Animal_Land_Pattern_Small,1,0,1,19796291.0,19796740.0,449.0
103,choice,choice,41,6.0,Pattern,2.0,67.30460041598417,Object_Sea_Pattern_Large,2,0,1,19797266.0,19797328.0,62.0
103,choice,choice,41,6.0,Pattern,2.0,67.30460041598417,fixation,-1,1,0,19797352.0,19797554.0,202.0
103,choice,choice,41,6.0,Pattern,2.0,67.30460041598417,Animal_Sea_Pattern_Large,4,0,1,19797591.0,19797894.0,303.0
103,choice,choice,41,6.0,Pattern,2.0,67.30460041598417,fixation,-1,1,0,19798235.0,19798310.0,75.0
103,choice,choice,41,6.0,Pattern,2.0,67.30460041598417,Animal_Sea_Pattern_Large,4,0,1,19798328.0,19798583.0,255.0
103,choice,choice,41,6.0,Pattern,2.0,67.30460041598417,fixation,-1,1,0,19798601.0,19799293.0,692.0
103,choice,choice,41,6.0,Pattern,2.0,67.30460041598417,Object_Sea_Solid_Large,0,0,0,19799741.0,19800297.0,556.0
103,choice,choice,41,6.0,Pattern,2.0,67.30460041598417,fixation,-1,1,0,19800659.0,19800708.0,49.0
103,choice,choice,41,6.0,Pattern,2.0,67.30460041598417,Animal_Sea_Pattern_Large,4,0,1,19800725.0,19801055.0,330.0
103,choice,choice,41,6.0,Pattern,2.0,67.30460041598417,Object_Sea_Solid_Large,0,0,0,19801387.0,19801662.0,275.0
103,choice,choice,41,6.0,Pattern,2.0,67.30460041598417,Animal_Sea_Pattern_Large,4,0,1,19801704.0,19802795.0,1091.0
103,choice,choice,41,6.0,Pattern,2.0,67.30460041598417,Object_Sea_Solid_Large,0,0,0,19803241.0,19803948.0,707.0
103,choice,choice,41,6.0,Pattern,2.0,67.30460041598417,fixation,-1,1,0,19804260.0,19804604.0,344.0
103,choice,choice,41,6.0,Pattern,2.0,67.30460041598417,Object_Sea_Solid_Large,0,0,0,19804935.0,19805158.0,223.0
103,choice,choice,41,6.0,Pattern,2.0,67.30460041598417,Animal_Sea_Pattern_Large,4,0,1,19805925.0,19806061.0,136.0
103,choice,choice,41,6.0,Pattern,2.0,67.30460041598417,fixation,-1,1,0,19806276.0,19806419.0,143.0
103,choice,choice,41,6.0,Pattern,2.0,67.30460041598417,Object_Sea_Solid_Large,0,0,0,19806438.0,19807005.0,567.0
103,choice,choice,41,6.0,Pattern,2.0,67.30460041598417,Animal_Sea_Pattern_Large,4,0,1,19807057.0,19808788.0,1731.0
103,choice,choice,41,6.0,Pattern,2.0,67.30460041598417,Object_Sea_Solid_Large,0,0,0,19809704.0,19811672.0,1968.0
103,choice,choice,41,6.0,Pattern,2.0,67.30460041598417,Animal_Land_Pattern_Small,1,0,1,19812727.0,19813077.0,350.0
103,choice,choice,41,6.0,Pattern,2.0,67.30460041598417,Object_Sea_Solid_Large,0,0,0,19815674.0,19815911.0,237.0
103,choice,choice,41,6.0,Pattern,2.0,67.30460041598417,Animal_Land_Pattern_Small,1,0,1,19817991.0,19818183.0,192.0
103,choice,choice,41,6.0,Pattern,2.0,67.30460041598417,Object_Sea_Solid_Large,0,0,0,19818227.0,19818388.0,161.0
103,choice,choice,41,6.0,Pattern,2.0,67.30460041598417,Animal_Land_Pattern_Small,1,0,1,19819356.0,19819935.0,579.0
103,choice,choice,41,6.0,Pattern,2.0,67.30460041598417,Object_Sea_Solid_Large,0,0,0,19819943.0,19819979.0,36.0
103,choice,choice,41,6.0,Pattern,2.0,67.30460041598417,Animal_Land_Pattern_Small,1,0,1,19820231.0,19821045.0,814.0
103,choice,choice,41,6.0,Pattern,2.0,67.30460041598417,Object_Sea_Solid_Large,0,0,0,19821054.0,19821301.0,247.0
103,choice,choice,41,6.0,Pattern,2.0,67.30460041598417,Animal_Land_Pattern_Small,1,0,1,19821318.0,19821459.0,141.0
103,choice,choice,41,6.0,Pattern,2.0,67.30460041598417,Object_Sea_Pattern_Large,2,0,1,19822347.0,19822832.0,485.0
103,choice,choice,41,6.0,Pattern,2.0,67.30460041598417,Animal_Sea_Pattern_Large,4,0,1,19823179.0,19823457.0,278.0
103,choice,choice,41,6.0,Pattern,2.0,67.30460041598417,Object_Sea_Solid_Large,0,0,0,19823837.0,19824564.0,727.0
103,choice,choice,41,6.0,Pattern,2.0,67.30460041598417,Animal_Land_Pattern_Small,1,0,1,19824575.0,19825260.0,685.0
103,choice,choice,41,6.0,Pattern,2.0,67.30460041598417,Object_Sea_Solid_Large,0,0,0,19825286.0,19826176.0,890.0
103,choice,choice,41,6.0,Pattern,2.0,67.30460041598417,Animal_Sea_Pattern_Large,4,0,1,19826726.0,19826878.0,152.0
103,choice,choice,41,6.0,Pattern,2.0,67.30460041598417,Animal_Land_Pattern_Small,1,0,1,19827152.0,19827471.0,319.0
103,choice,choice,41,6.0,Pattern,2.0,67.30460041598417,Animal_Land_Solid_Small,5,0,0,19827531.0,19827690.0,159.0
103,choice,choice,41,6.0,Pattern,2.0,67.30460041598417,Object_Sea_Pattern_Large,2,0,1,19828027.0,19828126.0,99.0
103,choice,choice,41,6.0,Pattern,2.0,67.30460041598417,Object_Sea_Solid_Large,0,0,0,19828173.0,19828583.0,410.0
103,choice,choice,41,6.0,Pattern,2.0,67.30460041598417,Animal_Land_Pattern_Small,1,0,1,19829085.0,19829304.0,219.0
103,choice,choice,41,6.0,Pattern,2.0,67.30460041598417,fixation,-1,1,0,19829336.0,19829483.0,147.0
103,choice,choice,41,6.0,Pattern,2.0,67.30460041598417,Animal_Land_Solid_Small,5,0,0,19829816.0,19830431.0,615.0
103,choice,choice,41,6.0,Pattern,2.0,67.30460041598417,Object_Sea_Pattern_Large,2,0,1,19831160.0,19831550.0,390.0
103,choice,choice,41,6.0,Pattern,2.0,67.30460041598417,Object_Land_Solid_Small,3,0,0,19831571.0,19831971.0,400.0
103,choice,choice,41,6.0,Pattern,2.0,67.30460041598417,Object_Sea_Solid_Large,0,0,0,19832005.0,19833826.0,1821.0
103,choice,choice,41,6.0,Pattern,2.0,67.30460041598417,Animal_Land_Pattern_Small,1,0,1,19834414.0,19835730.0,1316.0
103,choice,choice,41,6.0,Pattern,2.0,67.30460041598417,Object_Sea_Pattern_Large,2,0,1,19837351.0,19838597.0,1246.0
103,choice,choice,41,6.0,Pattern,2.0,67.30460041598417,Animal_Sea_Pattern_Large,4,0,1,19839019.0,19840063.0,1044.0
103,choice,choice,42,6.0,Large,2.0,17.598854375071824,Object_Sea_Solid_Large,0,0,1,19844203.0,19844813.0,610.0
103,choice,choice,42,6.0,Large,2.0,17.598854375071824,Object_Sea_Pattern_Large,2,0,1,19845260.0,19845555.0,295.0
103,choice,choice,42,6.0,Large,2.0,17.598854375071824,fixation,-1,1,0,19845594.0,19845723.0,129.0
103,choice,choice,42,6.0,Large,2.0,17.598854375071824,Object_Sea_Solid_Large,0,0,1,19846149.0,19846522.0,373.0
103,choice,choice,42,6.0,Large,2.0,17.598854375071824,Animal_Sea_Pattern_Large,4,0,1,19848134.0,19848935.0,801.0
103,choice,choice,42,6.0,Large,2.0,17.598854375071824,Object_Land_Solid_Small,3,0,0,19849810.0,19849852.0,42.0
103,choice,choice,42,6.0,Large,2.0,17.598854375071824,Object_Sea_Solid_Large,0,0,1,19849869.0,19849919.0,50.0
103,choice,choice,42,6.0,Large,2.0,17.598854375071824,fixation,-1,1,0,19849938.0,19850082.0,144.0
103,choice,choice,42,6.0,Large,2.0,17.598854375071824,Object_Sea_Solid_Large,0,0,1,19850100.0,19850143.0,43.0
103,choice,choice,42,6.0,Large,2.0,17.598854375071824,fixation,-1,1,0,19850161.0,19851202.0,1041.0
103,choice,choice,42,6.0,Large,2.0,17.598854375071824,Animal_Land_Pattern_Small,1,0,0,19852102.0,19852226.0,124.0
103,choice,choice,42,6.0,Large,2.0,17.598854375071824,Object_Sea_Pattern_Large,2,0,1,19852245.0,19853007.0,762.0
103,choice,choice,42,6.0,Large,2.0,17.598854375071824,Animal_Land_Pattern_Small,1,0,0,19853021.0,19853428.0,407.0
103,choice,choice,42,6.0,Large,2.0,17.598854375071824,Animal_Sea_Pattern_Large,4,0,1,19853457.0,19855124.0,1667.0
103,choice,choice,42,6.0,Large,2.0,17.598854375071824,Animal_Land_Pattern_Small,1,0,0,19856176.0,19856498.0,322.0
103,choice,choice,42,6.0,Large,2.0,17.598854375071824,Object_Sea_Solid_Large,0,0,1,19856760.0,19857275.0,515.0
103,choice,choice,42,6.0,Large,2.0,17.598854375071824,Animal_Sea_Pattern_Large,4,0,1,19857344.0,19857523.0,179.0
103,choice,choice,42,6.0,Large,2.0,17.598854375071824,Object_Sea_Solid_Large,0,0,1,19857818.0,19858207.0,389.0
103,choice,choice,42,6.0,Large,2.0,17.598854375071824,Animal_Sea_Pattern_Large,4,0,1,19858550.0,19858889.0,339.0
103,choice,choice,42,6.0,Large,2.0,17.598854375071824,Object_Sea_Solid_Large,0,0,1,19858905.0,19860726.0,1821.0
103,choice,choice,42,6.0,Large,2.0,17.598854375071824,Object_Land_Solid_Small,3,0,0,19861105.0,19861384.0,279.0
103,choice,choice,43,6.0,Small,1.0,17.13334058399778,fixation,-1,1,0,19864858.0,19865109.0,251.0
103,choice,choice,43,6.0,Small,1.0,17.13334058399778,Object_Sea_Solid_Large,0,0,0,19865457.0,19865852.0,395.0
103,choice,choice,43,6.0,Small,1.0,17.13334058399778,Animal_Sea_Pattern_Large,4,0,0,19865875.0,19866127.0,252.0
103,choice,choice,43,6.0,Small,1.0,17.13334058399778,Animal_Land_Pattern_Small,1,0,1,19866167.0,19866421.0,254.0
103,choice,choice,43,6.0,Small,1.0,17.13334058399778,Object_Sea_Solid_Large,0,0,0,19866453.0,19866630.0,177.0
103,choice,choice,43,6.0,Small,1.0,17.13334058399778,Object_Land_Solid_Small,3,0,1,19866673.0,19866830.0,157.0
103,choice,choice,43,6.0,Small,1.0,17.13334058399778,Animal_Sea_Pattern_Large,4,0,0,19867423.0,19867768.0,345.0
103,choice,choice,43,6.0,Small,1.0,17.13334058399778,Object_Sea_Solid_Large,0,0,0,19868013.0,19869026.0,1013.0
103,choice,choice,43,6.0,Small,1.0,17.13334058399778,Animal_Land_Pattern_Small,1,0,1,19869460.0,19869667.0,207.0
103,choice,choice,43,6.0,Small,1.0,17.13334058399778,Object_Sea_Solid_Large,0,0,0,19869840.0,19869875.0,35.0
103,choice,choice,43,6.0,Small,1.0,17.13334058399778,Animal_Land_Pattern_Small,1,0,1,19869894.0,19870396.0,502.0
103,choice,choice,43,6.0,Small,1.0,17.13334058399778,Object_Sea_Solid_Large,0,0,0,19870567.0,19870859.0,292.0
103,choice,choice,43,6.0,Small,1.0,17.13334058399778,Animal_Land_Pattern_Small,1,0,1,19871328.0,19873061.0,1733.0
103,choice,choice,43,6.0,Small,1.0,17.13334058399778,Object_Sea_Solid_Large,0,0,0,19873473.0,19873801.0,328.0
103,choice,choice,43,6.0,Small,1.0,17.13334058399778,Animal_Land_Pattern_Small,1,0,1,19874237.0,19874642.0,405.0
103,choice,choice,43,6.0,Small,1.0,17.13334058399778,Object_Sea_Solid_Large,0,0,0,19874991.0,19875149.0,158.0
103,choice,choice,43,6.0,Small,1.0,17.13334058399778,Animal_Land_Pattern_Small,1,0,1,19875190.0,19878030.0,2840.0
103,choice,choice,43,6.0,Small,1.0,17.13334058399778,Object_Sea_Solid_Large,0,0,0,19878644.0,19879189.0,545.0
103,choice,choice,43,6.0,Small,1.0,17.13334058399778,Animal_Land_Pattern_Small,1,0,1,19879220.0,19879335.0,115.0
103,choice,choice,43,6.0,Small,1.0,17.13334058399778,Object_Sea_Solid_Large,0,0,0,19879693.0,19879880.0,187.0
103,choice,choice,43,6.0,Small,1.0,17.13334058399778,Animal_Sea_Pattern_Large,4,0,0,19879915.0,19880728.0,813.0
103,choice,choice,44,6.0,Land,1.0,28.71283787500579,Object_Sea_Solid_Large,0,0,0,19884391.0,19885230.0,839.0
103,choice,choice,44,6.0,Land,1.0,28.71283787500579,fixation,-1,1,0,19886121.0,19886219.0,98.0
103,choice,choice,44,6.0,Land,1.0,28.71283787500579,Object_Sea_Solid_Large,0,0,0,19886823.0,19887063.0,240.0
103,choice,choice,44,6.0,Land,1.0,28.71283787500579,Animal_Sea_Pattern_Large,4,0,0,19887697.0,19888062.0,365.0
103,choice,choice,44,6.0,Land,1.0,28.71283787500579,Object_Sea_Solid_Large,0,0,0,19888082.0,19888258.0,176.0
103,choice,choice,44,6.0,Land,1.0,28.71283787500579,Object_Sea_Pattern_Large,2,0,0,19888392.0,19888455.0,63.0
103,choice,choice,44,6.0,Land,1.0,28.71283787500579,Animal_Land_Pattern_Small,1,0,1,19888643.0,19889418.0,775.0
103,choice,choice,44,6.0,Land,1.0,28.71283787500579,Object_Sea_Solid_Large,0,0,0,19889794.0,19890378.0,584.0
103,choice,choice,44,6.0,Land,1.0,28.71283787500579,Animal_Sea_Pattern_Large,4,0,0,19890416.0,19891474.0,1058.0
103,choice,choice,44,6.0,Land,1.0,28.71283787500579,Animal_Land_Pattern_Small,1,0,1,19891886.0,19892231.0,345.0
103,choice,choice,44,6.0,Land,1.0,28.71283787500579,Object_Sea_Pattern_Large,2,0,0,19892495.0,19893083.0,588.0
103,choice,choice,44,6.0,Land,1.0,28.71283787500579,Animal_Sea_Pattern_Large,4,0,0,19893159.0,19893248.0,89.0
103,choice,choice,44,6.0,Land,1.0,28.71283787500579,Object_Sea_Solid_Large,0,0,0,19893633.0,19893934.0,301.0
103,choice,choice,44,6.0,Land,1.0,28.71283787500579,Animal_Land_Pattern_Small,1,0,1,19893955.0,19894793.0,838.0
103,choice,choice,44,6.0,Land,1.0,28.71283787500579,fixation,-1,1,0,19895130.0,19895553.0,423.0
103,choice,choice,44,6.0,Land,1.0,28.71283787500579,Animal_Land_Pattern_Small,1,0,1,19895961.0,19896396.0,435.0
103,choice,choice,44,6.0,Land,1.0,28.71283787500579,Object_Sea_Solid_Large,0,0,0,19896802.0,19897449.0,647.0
103,choice,choice,44,6.0,Land,1.0,28.71283787500579,Animal_Land_Pattern_Small,1,0,1,19897770.0,19898052.0,282.0
103,choice,choice,44,6.0,Land,1.0,28.71283787500579,Object_Sea_Solid_Large,0,0,0,19898107.0,19898937.0,830.0
103,choice,choice,44,6.0,Land,1.0,28.71283787500579,Animal_Land_Pattern_Small,1,0,1,19899186.0,19899926.0,740.0
103,choice,choice,44,6.0,Land,1.0,28.71283787500579,Object_Sea_Solid_Large,0,0,0,19900012.0,19900275.0,263.0
103,choice,choice,44,6.0,Land,1.0,28.71283787500579,Animal_Land_Pattern_Small,1,0,1,19900874.0,19901170.0,296.0
103,choice,choice,44,6.0,Land,1.0,28.71283787500579,Object_Sea_Solid_Large,0,0,0,19901534.0,19902463.0,929.0
103,choice,choice,44,6.0,Land,1.0,28.71283787500579,Animal_Sea_Pattern_Large,4,0,0,19902979.0,19903465.0,486.0
103,choice,choice,44,6.0,Land,1.0,28.71283787500579,Object_Sea_Solid_Large,0,0,0,19903733.0,19903890.0,157.0
103,choice,choice,44,6.0,Land,1.0,28.71283787500579,Animal_Land_Pattern_Small,1,0,1,19904308.0,19905160.0,852.0
103,choice,choice,44,6.0,Land,1.0,28.71283787500579,Object_Sea_Solid_Large,0,0,0,19905574.0,19906598.0,1024.0
103,choice,choice,44,6.0,Land,1.0,28.71283787500579,Animal_Sea_Pattern_Large,4,0,0,19906954.0,19907765.0,811.0
103,choice,choice,44,6.0,Land,1.0,28.71283787500579,Animal_Land_Pattern_Small,1,0,1,19908591.0,19908819.0,228.0
103,choice,choice,44,6.0,Land,1.0,28.71283787500579,Object_Sea_Solid_Large,0,0,0,19908998.0,19909032.0,34.0
103,choice,choice,44,6.0,Land,1.0,28.71283787500579,Animal_Land_Pattern_Small,1,0,1,19909050.0,19909464.0,414.0
103,choice,choice,44,6.0,Land,1.0,28.71283787500579,Object_Sea_Solid_Large,0,0,0,19909482.0,19910244.0,762.0
103,choice,choice,44,6.0,Land,1.0,28.71283787500579,Animal_Sea_Pattern_Large,4,0,0,19910900.0,19911507.0,607.0
103,choice,choice,44,6.0,Land,1.0,28.71283787500579,Object_Sea_Solid_Large,0,0,0,19911740.0,19912219.0,479.0
103,choice,choice,44,6.0,Land,1.0,28.71283787500579,Animal_Sea_Pattern_Large,4,0,0,19912662.0,19912881.0,219.0
103,choice,choice,45,6.0,Animal,2.0,17.063075124984607,Object_Sea_Solid_Large,0,0,0,19916473.0,19916677.0,204.0
103,choice,choice,45,6.0,Animal,2.0,17.063075124984607,Animal_Sea_Pattern_Large,4,0,1,19917328.0,19917391.0,63.0
103,choice,choice,45,6.0,Animal,2.0,17.063075124984607,Object_Sea_Solid_Large,0,0,0,19917430.0,19917693.0,263.0
103,choice,choice,45,6.0,Animal,2.0,17.063075124984607,Animal_Sea_Pattern_Large,4,0,1,19918180.0,19919193.0,1013.0
103,choice,choice,45,6.0,Animal,2.0,17.063075124984607,Object_Sea_Solid_Large,0,0,0,19919296.0,19919602.0,306.0
103,choice,choice,45,6.0,Animal,2.0,17.063075124984607,Animal_Sea_Pattern_Large,4,0,1,19920389.0,19920462.0,73.0
103,choice,choice,45,6.0,Animal,2.0,17.063075124984607,Animal_Land_Pattern_Small,1,0,1,19920503.0,19920822.0,319.0
103,choice,choice,45,6.0,Animal,2.0,17.063075124984607,Object_Sea_Pattern_Large,2,0,0,19920860.0,19921193.0,333.0
103,choice,choice,45,6.0,Animal,2.0,17.063075124984607,Animal_Land_Pattern_Small,1,0,1,19921228.0,19921424.0,196.0
103,choice,choice,45,6.0,Animal,2.0,17.063075124984607,Animal_Sea_Pattern_Large,4,0,1,19921464.0,19921609.0,145.0
103,choice,choice,45,6.0,Animal,2.0,17.063075124984607,Animal_Land_Pattern_Small,1,0,1,19921991.0,19922038.0,47.0
103,choice,choice,45,6.0,Animal,2.0,17.063075124984607,Object_Sea_Solid_Large,0,0,0,19922056.0,19922535.0,479.0
103,choice,choice,45,6.0,Animal,2.0,17.063075124984607,Animal_Land_Pattern_Small,1,0,1,19922687.0,19922707.0,20.0
103,choice,choice,45,6.0,Animal,2.0,17.063075124984607,Object_Sea_Solid_Large,0,0,0,19922725.0,19924347.0,1622.0
103,choice,choice,45,6.0,Animal,2.0,17.063075124984607,Animal_Sea_Pattern_Large,4,0,1,19926235.0,19926457.0,222.0
103,choice,choice,45,6.0,Animal,2.0,17.063075124984607,Object_Sea_Solid_Large,0,0,0,19926672.0,19927011.0,339.0
103,choice,choice,45,6.0,Animal,2.0,17.063075124984607,Animal_Sea_Pattern_Large,4,0,1,19927021.0,19927288.0,267.0
103,choice,choice,45,6.0,Animal,2.0,17.063075124984607,fixation,-1,1,0,19927720.0,19927995.0,275.0
103,choice,choice,45,6.0,Animal,2.0,17.063075124984607,Object_Sea_Pattern_Large,2,0,0,19928010.0,19928282.0,272.0
103,choice,choice,45,6.0,Animal,2.0,17.063075124984607,Animal_Land_Solid_Small,5,0,1,19928297.0,19928479.0,182.0
103,choice,choice,45,6.0,Animal,2.0,17.063075124984607,fixation,-1,1,0,19928899.0,19929189.0,290.0
103,choice,choice,45,6.0,Animal,2.0,17.063075124984607,Object_Sea_Pattern_Large,2,0,0,19929233.0,19929491.0,258.0
103,choice,choice,45,6.0,Animal,2.0,17.063075124984607,Animal_Land_Solid_Small,5,0,1,19929527.0,19929729.0,202.0
103,choice,choice,45,6.0,Animal,2.0,17.063075124984607,Animal_Sea_Pattern_Large,4,0,1,19929780.0,19930513.0,733.0
103,choice,choice,45,6.0,Animal,2.0,17.063075124984607,Animal_Land_Pattern_Small,1,0,1,19931094.0,19933120.0,2026.0
103,choice,choice,47,6.0,Solid,2.0,9.849985375069082,Animal_Sea_Pattern_Large,4,0,0,19955374.0,19955599.0,225.0
103,choice,choice,47,6.0,Solid,2.0,9.849985375069082,Object_Land_Solid_Small,3,0,1,19956171.0,19956369.0,198.0
103,choice,choice,47,6.0,Solid,2.0,9.849985375069082,Object_Sea_Solid_Large,0,0,1,19956404.0,19956550.0,146.0
103,choice,choice,47,6.0,Solid,2.0,9.849985375069082,Animal_Sea_Pattern_Large,4,0,0,19956884.0,19957179.0,295.0
103,choice,choice,47,6.0,Solid,2.0,9.849985375069082,Animal_Land_Pattern_Small,1,0,0,19957467.0,19957485.0,18.0
103,choice,choice,47,6.0,Solid,2.0,9.849985375069082,Object_Sea_Solid_Large,0,0,1,19957503.0,19957619.0,116.0
103,choice,choice,47,6.0,Solid,2.0,9.849985375069082,Animal_Land_Pattern_Small,1,0,0,19957837.0,19958512.0,675.0
103,choice,choice,47,6.0,Solid,2.0,9.849985375069082,Object_Sea_Solid_Large,0,0,1,19959396.0,19961770.0,2374.0
103,choice,choice,47,6.0,Solid,2.0,9.849985375069082,Animal_Sea_Pattern_Large,4,0,0,19962983.0,19963415.0,432.0
103,choice,choice,47,6.0,Solid,2.0,9.849985375069082,Object_Land_Solid_Small,3,0,1,19963845.0,19963886.0,41.0
103,choice,choice,47,6.0,Solid,2.0,9.849985375069082,Animal_Sea_Pattern_Large,4,0,0,19963905.0,19964420.0,515.0
103,choice,choice,48,6.0,Sea,2.0,13.821856584050693,Animal_Land_Pattern_Small,1,0,0,19968243.0,19968843.0,600.0
103,choice,choice,48,6.0,Sea,2.0,13.821856584050693,Object_Sea_Solid_Large,0,0,1,19968855.0,19969632.0,777.0
103,choice,choice,48,6.0,Sea,2.0,13.821856584050693,Animal_Sea_Pattern_Large,4,0,1,19970220.0,19971120.0,900.0
103,choice,choice,48,6.0,Sea,2.0,13.821856584050693,Object_Sea_Solid_Large,0,0,1,19971559.0,19972281.0,722.0
103,choice,choice,48,6.0,Sea,2.0,13.821856584050693,Animal_Sea_Pattern_Large,4,0,1,19972528.0,19972863.0,335.0
103,choice,choice,48,6.0,Sea,2.0,13.821856584050693,Animal_Land_Pattern_Small,1,0,0,19972902.0,19973834.0,932.0
103,choice,choice,48,6.0,Sea,2.0,13.821856584050693,Object_Sea_Solid_Large,0,0,1,19974008.0,19974369.0,361.0
103,choice,choice,48,6.0,Sea,2.0,13.821856584050693,Animal_Sea_Pattern_Large,4,0,1,19974722.0,19976724.0,2002.0
103,choice,choice,48,6.0,Sea,2.0,13.821856584050693,Animal_Land_Pattern_Small,1,0,0,19978362.0,19978976.0,614.0
103,choice,choice,48,6.0,Sea,2.0,13.821856584050693,Object_Sea_Solid_Large,0,0,1,19978991.0,19980297.0,1306.0
103,choice,choice,48,6.0,Sea,2.0,13.821856584050693,fixation,-1,1,0,19981015.0,19981716.0,701.0
103,choice,choice,49,7.0,Animal,2.0,4.5658652919810265,Animal_Land_Pattern_Large,0,0,1,20267037.0,20267294.0,257.0
103,choice,choice,49,7.0,Animal,2.0,4.5658652919810265,Animal_Sea_Solid_Large,1,0,1,20267318.0,20267778.0,460.0
103,choice,choice,49,7.0,Animal,2.0,4.5658652919810265,Animal_Land_Pattern_Large,0,0,1,20268707.0,20270851.0,2144.0
103,choice,choice,50,7.0,Land,2.0,7.117545707966201,Animal_Sea_Solid_Large,1,0,0,20274060.0,20274251.0,191.0
103,choice,choice,50,7.0,Land,2.0,7.117545707966201,Animal_Land_Pattern_Large,0,0,1,20274678.0,20274740.0,62.0
103,choice,choice,50,7.0,Land,2.0,7.117545707966201,Object_Sea_Solid_Small,2,0,0,20275225.0,20275382.0,157.0
103,choice,choice,50,7.0,Land,2.0,7.117545707966201,Object_Land_Pattern_Small,3,0,1,20275426.0,20276247.0,821.0
103,choice,choice,50,7.0,Land,2.0,7.117545707966201,Animal_Sea_Solid_Large,1,0,0,20276588.0,20276883.0,295.0
103,choice,choice,50,7.0,Land,2.0,7.117545707966201,Object_Land_Pattern_Small,3,0,1,20276907.0,20277990.0,1083.0
103,choice,choice,50,7.0,Land,2.0,7.117545707966201,Animal_Sea_Solid_Large,1,0,0,20278705.0,20279338.0,633.0
103,choice,choice,50,7.0,Land,2.0,7.117545707966201,fixation,-1,1,0,20279351.0,20279741.0,390.0
103,choice,choice,50,7.0,Land,2.0,7.117545707966201,Object_Land_Solid_Large,4,0,1,20279930.0,20280053.0,123.0
103,choice,choice,50,7.0,Land,2.0,7.117545707966201,fixation,-1,1,0,20280250.0,20280443.0,193.0
103,choice,choice,50,7.0,Land,2.0,7.117545707966201,Animal_Land_Pattern_Large,0,0,1,20280701.0,20281036.0,335.0
103,choice,choice,51,7.0,Solid,1.0,10.529879999929108,Animal_Sea_Solid_Large,1,0,1,20284799.0,20285220.0,421.0
103,choice,choice,51,7.0,Solid,1.0,10.529879999929108,fixation,-1,1,0,20285762.0,20286181.0,419.0
103,choice,choice,51,7.0,Solid,1.0,10.529879999929108,Animal_Land_Pattern_Large,0,0,0,20286212.0,20286361.0,149.0
103,choice,choice,51,7.0,Solid,1.0,10.529879999929108,Animal_Sea_Solid_Large,1,0,1,20286559.0,20288794.0,2235.0
103,choice,choice,51,7.0,Solid,1.0,10.529879999929108,Object_Land_Pattern_Small,3,0,0,20289466.0,20289654.0,188.0
103,choice,choice,51,7.0,Solid,1.0,10.529879999929108,Animal_Sea_Solid_Large,1,0,1,20290220.0,20290645.0,425.0
103,choice,choice,51,7.0,Solid,1.0,10.529879999929108,Object_Land_Pattern_Small,3,0,0,20290682.0,20291157.0,475.0
103,choice,choice,51,7.0,Solid,1.0,10.529879999929108,Object_Land_Solid_Large,4,0,1,20291237.0,20291260.0,23.0
103,choice,choice,51,7.0,Solid,1.0,10.529879999929108,Object_Land_Pattern_Small,3,0,0,20291435.0,20291958.0,523.0
103,choice,choice,51,7.0,Solid,1.0,10.529879999929108,Object_Sea_Solid_Small,2,0,1,20292605.0,20292735.0,130.0
103,choice,choice,51,7.0,Solid,1.0,10.529879999929108,Animal_Sea_Solid_Large,1,0,1,20292780.0,20292980.0,200.0
103,choice,choice,51,7.0,Solid,1.0,10.529879999929108,Object_Land_Solid_Large,4,0,1,20293132.0,20293156.0,24.0
103,choice,choice,51,7.0,Solid,1.0,10.529879999929108,Animal_Sea_Solid_Large,1,0,1,20293328.0,20293711.0,383.0
103,choice,choice,51,7.0,Solid,1.0,10.529879999929108,Object_Land_Pattern_Small,3,0,0,20293752.0,20294195.0,443.0
103,choice,choice,51,7.0,Solid,1.0,10.529879999929108,Animal_Sea_Pattern_Small,5,0,0,20294246.0,20294551.0,305.0
103,choice,choice,52,7.0,Large,2.0,10.513634916977026,Animal_Sea_Solid_Large,1,0,1,20298145.0,20299693.0,1548.0
103,choice,choice,52,7.0,Large,2.0,10.513634916977026,Animal_Land_Pattern_Large,0,0,1,20301014.0,20304387.0,3373.0
103,choice,choice,52,7.0,Large,2.0,10.513634916977026,Animal_Sea_Solid_Large,1,0,1,20305746.0,20306406.0,660.0
103,choice,choice,52,7.0,Large,2.0,10.513634916977026,Animal_Land_Pattern_Large,0,0,1,20306777.0,20307617.0,840.0
103,choice,choice,53,7.0,Sea,1.0,8.95531187497545,Animal_Sea_Solid_Large,1,0,1,20311870.0,20312159.0,289.0
103,choice,choice,53,7.0,Sea,1.0,8.95531187497545,Object_Land_Pattern_Small,3,0,0,20312437.0,20312557.0,120.0
103,choice,choice,53,7.0,Sea,1.0,8.95531187497545,Object_Sea_Solid_Small,2,0,1,20312582.0,20312795.0,213.0
103,choice,choice,53,7.0,Sea,1.0,8.95531187497545,Object_Land_Pattern_Small,3,0,0,20313194.0,20313243.0,49.0
103,choice,choice,53,7.0,Sea,1.0,8.95531187497545,Animal_Sea_Solid_Large,1,0,1,20313291.0,20313452.0,161.0
103,choice,choice,53,7.0,Sea,1.0,8.95531187497545,Animal_Land_Pattern_Large,0,0,0,20313733.0,20313940.0,207.0
103,choice,choice,53,7.0,Sea,1.0,8.95531187497545,Animal_Sea_Solid_Large,1,0,1,20314323.0,20314785.0,462.0
103,choice,choice,53,7.0,Sea,1.0,8.95531187497545,Animal_Land_Pattern_Large,0,0,0,20314841.0,20315795.0,954.0
103,choice,choice,53,7.0,Sea,1.0,8.95531187497545,Object_Land_Solid_Large,4,0,0,20316526.0,20316613.0,87.0
103,choice,choice,53,7.0,Sea,1.0,8.95531187497545,fixation,-1,1,0,20316630.0,20316697.0,67.0
103,choice,choice,53,7.0,Sea,1.0,8.95531187497545,Object_Land_Pattern_Small,3,0,0,20316729.0,20316940.0,211.0
103,choice,choice,53,7.0,Sea,1.0,8.95531187497545,Animal_Land_Pattern_Large,0,0,0,20316980.0,20317742.0,762.0
103,choice,choice,53,7.0,Sea,1.0,8.95531187497545,Object_Land_Pattern_Small,3,0,0,20317995.0,20318525.0,530.0
103,choice,choice,53,7.0,Sea,1.0,8.95531187497545,Animal_Sea_Solid_Large,1,0,1,20318651.0,20318690.0,39.0
103,choice,choice,53,7.0,Sea,1.0,8.95531187497545,fixation,-1,1,0,20318869.0,20319159.0,290.0
103,choice,choice,53,7.0,Sea,1.0,8.95531187497545,Object_Land_Pattern_Small,3,0,0,20319176.0,20319373.0,197.0
103,choice,choice,53,7.0,Sea,1.0,8.95531187497545,Animal_Sea_Solid_Large,1,0,1,20319402.0,20320264.0,862.0
103,choice,choice,54,7.0,Pattern,2.0,3.628575499984436,Animal_Land_Pattern_Large,0,0,1,20323390.0,20324307.0,917.0
103,choice,choice,54,7.0,Pattern,2.0,3.628575499984436,Animal_Sea_Solid_Large,1,0,0,20324773.0,20326853.0,2080.0
103,choice,choice,55,7.0,Object,2.0,17.422590582980774,Animal_Sea_Solid_Large,1,0,0,20329629.0,20329860.0,231.0
103,choice,choice,55,7.0,Object,2.0,17.422590582980774,Animal_Land_Pattern_Large,0,0,0,20329874.0,20330085.0,211.0
103,choice,choice,55,7.0,Object,2.0,17.422590582980774,Animal_Sea_Solid_Large,1,0,0,20330282.0,20330776.0,494.0
103,choice,choice,55,7.0,Object,2.0,17.422590582980774,Object_Land_Pattern_Small,3,0,1,20330965.0,20331222.0,257.0
103,choice,choice,55,7.0,Object,2.0,17.422590582980774,Animal_Sea_Solid_Large,1,0,0,20331551.0,20332373.0,822.0
103,choice,choice,55,7.0,Object,2.0,17.422590582980774,Object_Land_Pattern_Small,3,0,1,20332649.0,20335325.0,2676.0
103,choice,choice,55,7.0,Object,2.0,17.422590582980774,Object_Sea_Solid_Small,2,0,1,20336895.0,20336930.0,35.0
103,choice,choice,55,7.0,Object,2.0,17.422590582980774,Object_Land_Pattern_Small,3,0,1,20337137.0,20337954.0,817.0
103,choice,choice,55,7.0,Object,2.0,17.422590582980774,Animal_Sea_Solid_Large,1,0,0,20338207.0,20338730.0,523.0
103,choice,choice,55,7.0,Object,2.0,17.422590582980774,Object_Land_Pattern_Small,3,0,1,20338742.0,20339261.0,519.0
103,choice,choice,55,7.0,Object,2.0,17.422590582980774,Animal_Sea_Solid_Large,1,0,0,20339318.0,20339691.0,373.0
103,choice,choice,55,7.0,Object,2.0,17.422590582980774,Object_Land_Pattern_Small,3,0,1,20339697.0,20340788.0,1091.0
103,choice,choice,55,7.0,Object,2.0,17.422590582980774,Animal_Sea_Solid_Large,1,0,0,20341558.0,20342109.0,551.0
103,choice,choice,55,7.0,Object,2.0,17.422590582980774,Object_Land_Pattern_Small,3,0,1,20343097.0,20344168.0,1071.0
103,choice,choice,55,7.0,Object,2.0,17.422590582980774,Object_Sea_Solid_Small,2,0,1,20345072.0,20345120.0,48.0
103,choice,choice,55,7.0,Object,2.0,17.422590582980774,Object_Land_Pattern_Small,3,0,1,20345138.0,20345456.0,318.0
103,choice,choice,55,7.0,Object,2.0,17.422590582980774,Object_Sea_Solid_Small,2,0,1,20345480.0,20345764.0,284.0
103,choice,choice,55,7.0,Object,2.0,17.422590582980774,Object_Land_Pattern_Small,3,0,1,20345788.0,20346129.0,341.0
103,choice,choice,55,7.0,Object,2.0,17.422590582980774,Animal_Sea_Solid_Large,1,0,0,20346162.0,20346735.0,573.0
103,choice,choice,55,7.0,Object,2.0,17.422590582980774,Object_Land_Pattern_Small,3,0,1,20346753.0,20347001.0,248.0
103,choice,choice,56,7.0,Small,2.0,6.19561662490014,fixation,-1,1,0,20350685.0,20351268.0,583.0
103,choice,choice,56,7.0,Small,2.0,6.19561662490014,Animal_Land_Pattern_Large,0,0,0,20351825.0,20352691.0,866.0
103,choice,choice,56,7.0,Small,2.0,6.19561662490014,Animal_Sea_Pattern_Small,5,0,1,20352871.0,20352917.0,46.0
103,choice,choice,56,7.0,Small,2.0,6.19561662490014,Animal_Land_Pattern_Large,0,0,0,20352934.0,20353103.0,169.0
103,choice,choice,56,7.0,Small,2.0,6.19561662490014,fixation,-1,1,0,20353127.0,20353335.0,208.0
103,choice,choice,56,7.0,Small,2.0,6.19561662490014,Object_Land_Pattern_Small,3,0,1,20353587.0,20353867.0,280.0
103,choice,choice,56,7.0,Small,2.0,6.19561662490014,Animal_Land_Pattern_Large,0,0,0,20353902.0,20354328.0,426.0
103,choice,choice,56,7.0,Small,2.0,6.19561662490014,Object_Sea_Solid_Small,2,0,1,20354677.0,20354723.0,46.0
103,choice,choice,56,7.0,Small,2.0,6.19561662490014,Object_Land_Pattern_Small,3,0,1,20354741.0,20354956.0,215.0
103,choice,choice,56,7.0,Small,2.0,6.19561662490014,Animal_Land_Pattern_Large,0,0,0,20354994.0,20355251.0,257.0
103,choice,choice,56,7.0,Small,2.0,6.19561662490014,fixation,-1,1,0,20355259.0,20355827.0,568.0
