phase,event,onset,offset,trial_number,game,image,outcome,choice,correct,rt,letter,match,response,option,true_value,true_position,recalled_position,
encoding,fixation,7.916741790948436,9.427466082968749,1,1,Object_Sea_Pattern_Small,-8,,,,,,,,,,,
encoding,image,9.427631041035056,10.44484074995853,1,1,Object_Sea_Pattern_Small,-8,,,,,,,,,,,
encoding,value,10.44496049999725,16.45943204103969,1,1,Object_Sea_Pattern_Small,-8,,,,,,,,,,,
encoding,attention,16.459557499969378,19.477470290963538,1,1,Object_Sea_Pattern_Small,-8,-8,1,2.449351750081405,,,,,,,,
encoding,fixation,19.477648625033908,19.982635083026253,2,1,Animal_Sea_Pattern_Large,5,,,,,,,,,,,
encoding,image,19.98275529104285,20.992174666025676,2,1,Animal_Sea_Pattern_Large,5,,,,,,,,,,,
encoding,value,20.99230808299035,27.003644624957815,2,1,Animal_Sea_Pattern_Large,5,,,,,,,,,,,
encoding,attention,27.003766166046262,30.02201758301817,2,1,Animal_Sea_Pattern_Large,5,+5,1,0.9395730829564855,,,,,,,,
encoding,fixation,30.022171541000716,31.027514875051565,3,1,Object_Land_Solid_Small,-2,,,,,,,,,,,
encoding,image,31.027727582957596,32.03854241594672,3,1,Object_Land_Solid_Small,-2,,,,,,,,,,,
encoding,value,32.03868383297231,38.050964958034456,3,1,Object_Land_Solid_Small,-2,,,,,,,,,,,
encoding,attention,38.051093250047415,41.06964079104364,3,1,Object_Land_Solid_Small,-2,-2,1,2.021748667000793,,,,,,,,
encoding,fixation,41.06978733302094,41.824674915988,4,1,Animal_Land_Solid_Large,-1,,,,,,,,,,,
encoding,image,41.82478374999482,42.836291415966116,4,1,Animal_Land_Solid_Large,-1,,,,,,,,,,,
encoding,value,42.836406165966764,48.84934420802165,4,1,Animal_Land_Solid_Large,-1,,,,,,,,,,,
encoding,attention,48.84944508294575,51.867653082939796,4,1,Animal_Land_Solid_Large,-1,-1,1,1.5794632920296863,,,,,,,,
encoding,fixation,51.86787358298898,53.12284795800224,5,1,Object_Land_Pattern_Small,8,,,,,,,,,,,
encoding,image,53.122950957971625,54.13494545803405,5,1,Object_Land_Pattern_Small,8,,,,,,,,,,,
encoding,value,54.13505016604904,60.14639550005086,5,1,Object_Land_Pattern_Small,8,,,,,,,,,,,
encoding,attention,60.14662158302963,63.20099516597111,5,1,Object_Land_Pattern_Small,8,+8,1,1.709352832986042,,,,,,,,
encoding,fixation,63.20114675001241,63.956126083037816,6,1,Animal_Sea_Solid_Large,2,,,,,,,,,,,
encoding,image,63.956296500051394,64.96798666601535,6,1,Animal_Sea_Solid_Large,2,,,,,,,,,,,
encoding,value,64.96808791602962,70.97939899994526,6,1,Animal_Sea_Solid_Large,2,,,,,,,,,,,
encoding,attention,70.97954404097982,73.99632054101676,6,1,Animal_Sea_Solid_Large,2,+2,1,2.9467844169121236,,,,,,,,
n-back,,,,1,1,,,,0,None,N,True,None,,,,,
n-back,,,,2,1,,,,1,None,B,False,None,,,,,
n-back,,,,3,1,,,,1,None,B,False,None,,,,,
n-back,,,,4,1,,,,1,0.663495208020322,B,True,1,,,,,
n-back,,,,5,1,,,,1,None,N,False,None,,,,,
n-back,,,,6,1,,,,1,None,X,False,None,,,,,
n-back,,,,7,1,,,,1,0.6828208339866251,N,True,1,,,,,
n-back,,,,8,1,,,,1,None,V,False,None,,,,,
n-back,,,,9,1,,,,1,None,X,False,None,,,,,
n-back,,,,10,1,,,,1,None,Z,False,None,,,,,
n-back,,,,11,1,,,,1,0.510612832964398,X,True,1,,,,,
n-back,,,,12,1,,,,1,None,B,False,None,,,,,
n-back,,,,13,1,,,,1,None,V,False,None,,,,,
n-back,,,,14,1,,,,1,None,N,False,None,,,,,
n-back,,,,15,1,,,,1,0.473939000046812,V,True,1,,,,,
n-back,,,,16,1,,,,1,None,V,False,None,,,,,
n-back,,,,17,1,,,,0,None,V,True,None,,,,,
n-back,,,,18,1,,,,1,None,B,False,None,,,,,
n-back,,,,19,1,,,,1,None,B,False,None,,,,,
n-back,,,,20,1,,,,1,0.5771029579918832,B,True,1,,,,,
n-back,,,,21,1,,,,1,None,X,False,None,,,,,
n-back,,,,22,1,,,,1,None,N,False,None,,,,,
n-back,,,,23,1,,,,1,None,B,False,None,,,,,
n-back,,,,24,1,,,,1,0.6178799999179319,N,True,1,,,,,
n-back,,,,25,1,,,,1,None,N,False,None,,,,,
n-back,,,,26,1,,,,1,None,C,False,None,,,,,
n-back,,,,27,1,,,,1,0.521788917016238,N,True,1,,,,,
n-back,,,,28,1,,,,1,None,V,False,None,,,,,
n-back,,,,29,1,,,,0,None,N,True,None,,,,,
n-back,,,,30,1,,,,1,None,Z,False,None,,,,,
choice,fixation,150.01882604102138,150.52455045795068,1,1,,,,,,,,,Sea,,,,
choice,option,150.53332183300517,151.6502080829814,1,1,,,,,,,,,Sea,,,,
choice,choice,151.65034412499517,166.72423024999443,1,1,,,2,1,14.062734958017245,,,,Sea,,,,
choice,fixation,166.72435433301143,167.22954508301336,2,1,,,,,,,,,Large,,,,
choice,option,167.23870262503624,168.26885229104664,2,1,,,,,,,,,Large,,,,
choice,choice,168.26896645803936,194.11298516602255,2,1,,,1,1,24.833274999982677,,,,Large,,,,
choice,fixation,194.11310970794875,195.61859399999958,3,1,,,,,,,,,Land,,,,
choice,option,195.62736737495288,196.65376183297485,3,1,,,,,,,,,Land,,,,
choice,choice,196.65387379098684,209.71166391600855,3,1,,,2,0,12.0465518750716,,,,Land,,,,
choice,fixation,209.71178370795678,210.2182617080398,4,1,,,,,,,,,Object,,,,
choice,option,210.22810191602912,211.25519354094286,4,1,,,,,,,,,Object,,,,
choice,choice,211.25532212504186,222.87476433301345,4,1,,,1,0,10.608763040974736,,,,Object,,,,
choice,fixation,222.87490120797884,224.13015695801005,5,1,,,,,,,,,Solid,,,,
choice,option,224.13938091602176,225.16794666601345,5,1,,,,,,,,,Solid,,,,
choice,choice,225.16804270795546,236.31203895795625,5,1,,,2,1,10.133375832927413,,,,Solid,,,,
choice,fixation,236.31220316595864,237.06859091599472,6,1,,,,,,,,,Small,,,,
choice,option,237.07758862501942,238.10445079102647,6,1,,,,,,,,,Small,,,,
choice,choice,238.1045567500405,244.15434408304282,6,1,,,1,0,5.040337499929592,,,,Small,,,,
choice,fixation,244.15448124997783,245.66001204098575,7,1,,,,,,,,,Pattern,,,,
choice,option,245.66933441604488,246.69647900003474,7,1,,,,,,,,,Pattern,,,,
choice,choice,246.6965870000422,256.1267154159723,7,1,,,1,1,8.420043624937534,,,,Pattern,,,,
choice,fixation,256.1269899579929,256.8850885829888,8,1,,,,,,,,,Animal,,,,
choice,option,256.89433966600336,257.9206285829423,8,1,,,,,,,,,Animal,,,,
choice,choice,257.9207394999685,265.1039579579374,8,1,,,1,1,6.173746875021607,,,,Animal,,,,
memory,free_recall,328.73818824999034,349.8418279159814,0,1,,,,,,,,,,,,,
memory,value_recall,391.5680830409983,395.0345767909894,1,1,Animal_Sea_Pattern_Large,,,,3.4616178749129176,,,,,5,,,
memory,value_recall,396.0806123750517,400.2684860830195,2,1,Animal_Sea_Solid_Large,,,,4.1845122911036015,,,,,2,,,
memory,value_recall,401.56837016600184,411.19281362497713,3,1,Object_Land_Solid_Small,,,,9.620565291959792,,,,,-2,,,
memory,value_recall,412.9888217500411,416.0848480829736,4,1,Object_Land_Pattern_Small,,,,3.091593167046085,,,,,8,,,
memory,value_recall,417.38122641597874,424.37883262499236,5,1,Animal_Land_Solid_Large,,,,6.993585499934852,,,,,-1,,,
memory,value_recall,426.4250349160284,429.7153205409413,6,1,Object_Sea_Pattern_Small,,,,3.28619791707024,,,,,-8,,,
memory,spatial_recall,450.40265420801006,455.670493624988,6,1,Object_Land_Pattern_Small,,,1,5.264669792028144,,,,,,"[329, 189]","[329, 189]",
memory,spatial_recall,457.2344459160231,459.62365695799235,6,1,Object_Land_Solid_Small,,,1,2.38526312506292,,,,,,"[-329, -190]","[-329, -190]",
memory,spatial_recall,460.9363085000077,462.656919208006,6,1,Animal_Land_Solid_Large,,,1,1.71662095899228,,,,,,"[329, -190]","[329, -190]",
memory,spatial_recall,464.468238750007,466.3556150830118,6,1,Object_Sea_Pattern_Small,,,1,1.8835292500443757,,,,,,"[0, -380]","[0, -380]",
memory,spatial_recall,467.4210807910422,469.8571875409689,6,1,Animal_Sea_Solid_Large,,,1,2.43217858299613,,,,,,"[0, 380]","[0, 380]",
memory,spatial_recall,471.41932304098736,473.06965558300726,6,1,Animal_Sea_Pattern_Large,,,1,1.6463554579531774,,,,,,"[-329, 190]","[-329, 190]",
encoding,fixation,13.71226833295077,14.717813999974169,7,2,Object_Land_Pattern_Large,-6,,,,,,,,,,,
encoding,image,14.717957624932751,15.730905500007793,7,2,Object_Land_Pattern_Large,-6,,,,,,,,,,,
encoding,value,15.73101649992168,21.745019000023603,7,2,Object_Land_Pattern_Large,-6,,,,,,,,,,,
encoding,attention,21.745120499981567,24.763524040929042,7,2,Object_Land_Pattern_Large,-6,-6,1,1.1861623330041766,,,,,,,,
encoding,fixation,24.763670332962647,25.76897424994968,8,2,Object_Land_Solid_Large,-7,,,,,,,,,,,
encoding,image,25.76907670800574,26.778644874924794,8,2,Object_Land_Solid_Large,-7,,,,,,,,,,,
encoding,value,26.778782333014533,32.78965874994174,8,2,Object_Land_Solid_Large,-7,,,,,,,,,,,
encoding,attention,32.78979912493378,35.80635899992194,8,2,Object_Land_Solid_Large,-7,-7,1,1.877564207999967,,,,,,,,
encoding,fixation,35.80651525000576,36.561688791029155,9,2,Animal_Land_Pattern_Large,7,,,,,,,,,,,
encoding,image,36.561869582976215,37.57315616600681,9,2,Animal_Land_Pattern_Large,7,,,,,,,,,,,
encoding,value,37.57327183301095,43.58428025001194,9,2,Animal_Land_Pattern_Large,7,,,,,,,,,,,
encoding,attention,43.58438945794478,46.60117091599386,9,2,Animal_Land_Pattern_Large,7,+7,1,2.5471622499171644,,,,,,,,
encoding,fixation,46.601369082927704,47.106476124958135,10,2,Animal_Sea_Solid_Small,1,,,,,,,,,,,
encoding,image,47.106578166014515,48.116539540933445,10,2,Animal_Sea_Solid_Small,1,,,,,,,,,,,
encoding,value,48.11667341599241,54.12785283301491,10,2,Animal_Sea_Solid_Small,1,,,,,,,,,,,
encoding,attention,54.12798200000543,57.14803458296228,10,2,Animal_Sea_Solid_Small,1,+1,1,1.1049071659799665,,,,,,,,
encoding,fixation,57.14818749995902,57.90419212495908,11,2,Object_Sea_Solid_Small,3,,,,,,,,,,,
encoding,image,57.90429450001102,58.91478274995461,11,2,Object_Sea_Solid_Small,3,,,,,,,,,,,
encoding,value,58.91494570800569,64.92647970793769,11,2,Object_Sea_Solid_Small,3,,,,,,,,,,,
encoding,attention,64.92662879102863,67.9425671249628,11,2,Object_Sea_Solid_Small,3,+3,1,0.6776609999360517,,,,,,,,
encoding,fixation,67.94272479100619,68.69853687495925,12,2,Animal_Sea_Pattern_Small,-6,,,,,,,,,,,
encoding,image,68.6986538330093,69.71039654093329,12,2,Animal_Sea_Pattern_Small,-6,,,,,,,,,,,
encoding,value,69.71051908296067,75.72306608292274,12,2,Animal_Sea_Pattern_Small,-6,,,,,,,,,,,
encoding,attention,75.72317783301696,78.74038854101673,12,2,Animal_Sea_Pattern_Small,-6,-6,1,1.8602318330667913,,,,,,,,
n-back,,,,31,2,,,,0,None,V,True,None,,,,,
n-back,,,,32,2,,,,0,None,X,True,None,,,,,
n-back,,,,33,2,,,,1,None,C,False,None,,,,,
n-back,,,,34,2,,,,1,None,V,False,None,,,,,
n-back,,,,35,2,,,,1,None,V,False,None,,,,,
n-back,,,,36,2,,,,0,0.5182410420384258,C,False,1,,,,,
n-back,,,,37,2,,,,0,None,V,True,None,,,,,
n-back,,,,38,2,,,,1,None,V,False,None,,,,,
n-back,,,,39,2,,,,1,None,Z,False,None,,,,,
n-back,,,,40,2,,,,1,None,B,False,None,,,,,
n-back,,,,41,2,,,,1,None,N,False,None,,,,,
n-back,,,,42,2,,,,1,None,N,False,None,,,,,
n-back,,,,43,2,,,,1,None,C,False,None,,,,,
n-back,,,,44,2,,,,1,0.7012289999984205,N,True,1,,,,,
n-back,,,,45,2,,,,0,None,C,True,None,,,,,
n-back,,,,46,2,,,,0,None,N,True,None,,,,,
n-back,,,,47,2,,,,1,0.7562569580040872,C,True,1,,,,,
n-back,,,,48,2,,,,1,None,X,False,None,,,,,
n-back,,,,49,2,,,,1,None,Z,False,None,,,,,
n-back,,,,50,2,,,,1,None,Z,False,None,,,,,
n-back,,,,51,2,,,,1,None,N,False,None,,,,,
n-back,,,,52,2,,,,1,0.462288917042315,Z,True,1,,,,,
n-back,,,,53,2,,,,1,None,V,False,None,,,,,
n-back,,,,54,2,,,,1,None,V,False,None,,,,,
n-back,,,,55,2,,,,1,None,N,False,None,,,,,
n-back,,,,56,2,,,,1,None,N,False,None,,,,,
n-back,,,,57,2,,,,1,None,V,False,None,,,,,
n-back,,,,58,2,,,,1,None,B,False,None,,,,,
n-back,,,,59,2,,,,1,0.39909008296672255,V,True,1,,,,,
n-back,,,,60,2,,,,0,None,B,True,None,,,,,
choice,fixation,153.68610937497579,155.19374274997972,9,2,,,,,,,,,Animal,,,,
choice,option,155.20303283294197,156.23081554099917,9,2,,,,,,,,,Animal,,,,
choice,choice,156.2309392079478,172.54434579098597,9,2,,,1,1,15.300518541014753,,,,Animal,,,,
choice,fixation,172.54448112496175,174.04946791601833,10,2,,,,,,,,,Pattern,,,,
choice,option,174.05872591596562,175.08513324998785,10,2,,,,,,,,,Pattern,,,,
choice,choice,175.0852479999885,186.15034995798487,10,2,,,2,1,10.054789750021882,,,,Pattern,,,,
choice,fixation,186.1504804160213,186.65602150000632,11,2,,,,,,,,,Sea,,,,
choice,option,186.6646253329236,187.69036620797124,11,2,,,,,,,,,Sea,,,,
choice,choice,187.69048833299894,210.8225856659701,11,2,,,1,0,22.120465916930698,,,,Sea,,,,
choice,fixation,210.8227048330009,212.32785933301784,12,2,,,,,,,,,Small,,,,
choice,option,212.3367945830105,213.36302845797036,12,2,,,,,,,,,Small,,,,
choice,choice,213.36313216597773,225.11796950001735,12,2,,,2,1,10.743996166042052,,,,Small,,,,
choice,fixation,225.11808733292855,226.1230670409277,13,2,,,,,,,,,Solid,,,,
choice,option,226.13277145801112,227.15899316594005,13,2,,,,,,,,,Solid,,,,
choice,choice,227.15910745796282,247.78114041592926,13,2,,,1,0,19.61226841597818,,,,Solid,,,,
choice,fixation,247.78126070799772,248.7856840409804,14,2,,,,,,,,,Land,,,,
choice,option,248.79414358292706,249.82087620801758,14,2,,,,,,,,,Land,,,,
choice,choice,249.82099775003735,256.47709687496535,14,2,,,2,1,5.646499624941498,,,,Land,,,,
choice,fixation,256.4772247079527,257.9821392080048,15,2,,,,,,,,,Object,,,,
choice,option,257.99174216599204,259.01785766601097,15,2,,,,,,,,,Object,,,,
choice,choice,259.01796445797663,270.40464095794596,15,2,,,2,1,10.375634209020063,,,,Object,,,,
choice,fixation,270.4048625830328,271.4102419579867,16,2,,,,,,,,,Large,,,,
choice,option,271.41912445798516,272.4454198749736,16,2,,,,,,,,,Large,,,,
choice,choice,272.44553725002334,289.32473300001584,16,2,,,1,0,15.868244708050042,,,,Large,,,,
memory,free_recall,320.30370674992446,359.05719287495594,6,2,,,,,,,,,,,,,
memory,value_recall,369.51947483292315,374.1838537500007,7,2,Animal_Sea_Pattern_Small,,,,4.659985915990546,,,,,-6,,,
memory,value_recall,375.2302992909681,380.36150966596324,8,2,Object_Land_Solid_Large,,,,5.127814291976392,,,,,-7,,,
memory,value_recall,381.6583400409436,389.70208908303175,9,2,Object_Land_Pattern_Large,,,,8.039734499994665,,,,,-6,,,
memory,value_recall,391.2488289580215,401.39355583302677,10,2,Animal_Land_Pattern_Large,,,,10.140432041021995,,,,,7,,,
memory,value_recall,403.4399572080001,413.3340985829709,11,2,Animal_Sea_Solid_Small,,,,9.8900615000166,,,,,1,,,
memory,value_recall,414.63146337494254,418.1353811250301,12,2,Object_Sea_Solid_Small,,,,3.499813833972439,,,,,3,,,
memory,spatial_recall,422.40595437493175,426.09763154096436,12,2,Animal_Sea_Pattern_Small,,,1,3.6885920419590548,,,,,,"[-329, -190]","[-329, -190]",
memory,spatial_recall,427.41266754094977,428.8793088749517,12,2,Animal_Sea_Solid_Small,,,1,1.4626537499716505,,,,,,"[329, 189]","[329, 189]",
memory,spatial_recall,429.9439521250315,431.72743858292233,12,2,Object_Land_Pattern_Large,,,1,1.7808832499431446,,,,,,"[0, 380]","[0, 380]",
memory,spatial_recall,433.0336657909211,434.3473593329545,12,2,Animal_Land_Pattern_Large,,,1,1.3094701248919591,,,,,,"[-329, 190]","[-329, 190]",
memory,spatial_recall,436.41152241593227,437.91138304094784,12,2,Object_Sea_Solid_Small,,,1,1.4958074999740347,,,,,,"[329, -190]","[329, -190]",
memory,spatial_recall,439.9647674160078,441.9157551659737,12,2,Object_Land_Solid_Large,,,1,1.9469408750301227,,,,,,"[0, -380]","[0, -380]",
encoding,fixation,9.925041040987708,10.930324290995486,13,3,Object_Sea_Solid_Large,-1,,,,,,,,,,,
encoding,image,10.930432624998502,11.942178415949456,13,3,Object_Sea_Solid_Large,-1,,,,,,,,,,,
encoding,value,11.942274915985763,17.95608054101467,13,3,Object_Sea_Solid_Large,-1,,,,,,,,,,,
encoding,attention,17.956187165924348,20.974599416018464,13,3,Object_Sea_Solid_Large,-1,-1,1,1.6758768329164013,,,,,,,,
encoding,fixation,20.974754832917824,22.230807457934134,14,3,Animal_Land_Solid_Small,-9,,,,,,,,,,,
encoding,image,22.230907832970843,23.24229500000365,14,3,Animal_Land_Solid_Small,-9,,,,,,,,,,,
encoding,value,23.242433415958658,29.25453708297573,14,3,Animal_Land_Solid_Small,-9,,,,,,,,,,,
encoding,attention,29.254662040970288,32.2736675409833,14,3,Animal_Land_Solid_Small,-9,-9,1,0.6256922499742359,,,,,,,,
encoding,fixation,32.2738048749743,33.529046791023575,15,3,Animal_Land_Pattern_Small,5,,,,,,,,,,,
encoding,image,33.52915395796299,34.54037795797922,15,3,Animal_Land_Pattern_Small,5,,,,,,,,,,,
encoding,value,34.54048199998215,40.55182829091791,15,3,Animal_Land_Pattern_Small,5,,,,,,,,,,,
encoding,attention,40.551951957982965,43.56934312498197,15,3,Animal_Land_Pattern_Small,5,+5,1,0.6801497499691322,,,,,,,,
encoding,fixation,43.56948262499645,45.07536887493916,16,3,Animal_Sea_Pattern_Large,8,,,,,,,,,,,
encoding,image,45.07547241600696,46.087071583024226,16,3,Animal_Sea_Pattern_Large,8,,,,,,,,,,,
encoding,value,46.08721029094886,52.098972250008956,16,3,Animal_Sea_Pattern_Large,8,,,,,,,,,,,
encoding,attention,52.099110499955714,55.11548491602298,16,3,Animal_Sea_Pattern_Large,8,+8,1,1.2954383329488337,,,,,,,,
encoding,fixation,55.115679332986474,56.12070041592233,17,3,Object_Land_Solid_Small,9,,,,,,,,,,,
encoding,image,56.12086974992417,57.13220554101281,17,3,Object_Land_Solid_Small,9,,,,,,,,,,,
encoding,value,57.132349082967266,63.14347925002221,17,3,Object_Land_Solid_Small,9,,,,,,,,,,,
encoding,attention,63.14360258297529,66.16102708294056,17,3,Object_Land_Solid_Small,9,+9,1,2.4129421670222655,,,,,,,,
encoding,fixation,66.1611819579266,67.41670412500389,18,3,Object_Sea_Pattern_Large,-2,,,,,,,,,,,
encoding,image,67.41680237499531,68.42770258302335,18,3,Object_Sea_Pattern_Large,-2,,,,,,,,,,,
encoding,value,68.42783104092814,74.4397646249272,18,3,Object_Sea_Pattern_Large,-2,,,,,,,,,,,
encoding,attention,74.43993966595735,77.45168908301275,18,3,Object_Sea_Pattern_Large,-2,None,None,None,,,,,,,,
n-back,,,,61,3,,,,1,None,Z,False,None,,,,,
n-back,,,,62,3,,,,1,None,X,False,None,,,,,
n-back,,,,63,3,,,,1,0.49900041706860065,Z,True,1,,,,,
n-back,,,,64,3,,,,1,None,N,False,None,,,,,
n-back,,,,65,3,,,,1,None,B,False,None,,,,,
n-back,,,,66,3,,,,0,None,N,True,None,,,,,
n-back,,,,67,3,,,,1,None,V,False,None,,,,,
n-back,,,,68,3,,,,1,None,C,False,None,,,,,
n-back,,,,69,3,,,,1,0.3191972909262404,V,True,1,,,,,
n-back,,,,70,3,,,,0,None,C,True,None,,,,,
n-back,,,,71,3,,,,0,None,V,True,None,,,,,
n-back,,,,72,3,,,,1,None,Z,False,None,,,,,
n-back,,,,73,3,,,,0,0.6489346660673618,C,False,1,,,,,
n-back,,,,74,3,,,,1,None,B,False,None,,,,,
n-back,,,,75,3,,,,1,None,N,False,None,,,,,
n-back,,,,76,3,,,,1,0.5300975419813767,B,True,1,,,,,
n-back,,,,77,3,,,,1,None,V,False,None,,,,,
n-back,,,,78,3,,,,1,None,C,False,None,,,,,
n-back,,,,79,3,,,,1,None,Z,False,None,,,,,
n-back,,,,80,3,,,,1,None,N,False,None,,,,,
n-back,,,,81,3,,,,1,0.533919292036444,Z,True,1,,,,,
n-back,,,,82,3,,,,1,None,X,False,None,,,,,
n-back,,,,83,3,,,,0,None,Z,True,None,,,,,
n-back,,,,84,3,,,,1,None,B,False,None,,,,,
n-back,,,,85,3,,,,1,None,V,False,None,,,,,
n-back,,,,86,3,,,,1,None,N,False,None,,,,,
n-back,,,,87,3,,,,1,None,B,False,None,,,,,
n-back,,,,88,3,,,,1,0.447861791937612,N,True,1,,,,,
n-back,,,,89,3,,,,1,None,V,False,None,,,,,
n-back,,,,90,3,,,,0,None,N,True,None,,,,,
choice,fixation,165.99185537500307,166.9985093330033,17,3,,,,,,,,,Animal,,,,
choice,option,167.0076700829668,168.0365246660076,17,3,,,,,,,,,Animal,,,,
choice,choice,168.0366426659748,177.8821969999699,17,3,,,1,1,8.834407874965109,,,,Animal,,,,
choice,fixation,177.8823230409762,178.38820916600525,18,3,,,,,,,,,Sea,,,,
choice,option,178.3977484999923,179.42419933294877,18,3,,,,,,,,,Sea,,,,
choice,choice,179.42434783291537,210.09464999998454,18,3,,,1,1,29.658429875038564,,,,Sea,,,,
choice,fixation,210.09478620800655,211.59982187498827,19,3,,,,,,,,,Small,,,,
choice,option,211.60984062496573,212.63801183295436,19,3,,,,,,,,,Small,,,,
choice,choice,212.6381119999569,224.14567987492774,19,3,,,2,0,10.497171583003365,,,,Small,,,,
choice,fixation,224.14579704101197,225.65188675001264,20,3,,,,,,,,,Pattern,,,,
choice,option,225.66082437499426,226.6869097079616,20,3,,,,,,,,,Pattern,,,,
choice,choice,226.68704237497877,236.94156466599088,20,3,,,1,1,9.244526749942452,,,,Pattern,,,,
choice,fixation,236.94167766592,237.9466373330215,21,3,,,,,,,,,Solid,,,,
choice,option,237.9561301249778,238.98195499996655,21,3,,,,,,,,,Solid,,,,
choice,choice,238.98205270792823,242.6253487499198,21,3,,,2,1,2.633825666969642,,,,Solid,,,,
choice,fixation,242.6254788750084,244.13135862501804,22,3,,,,,,,,,Object,,,,
choice,option,244.1405895409407,245.16886783298105,22,3,,,,,,,,,Object,,,,
choice,choice,245.16901337495074,250.4256192080211,22,3,,,1,1,4.2468404999235645,,,,Object,,,,
choice,fixation,250.4257517909864,250.93097262491938,23,3,,,,,,,,,Land,,,,
choice,option,250.93977362499572,251.96692316595,23,3,,,,,,,,,Land,,,,
choice,choice,251.96710420795716,267.6544792079367,23,3,,,1,1,14.673821666045114,,,,Land,,,,
choice,fixation,267.65465304092504,269.159510041005,24,3,,,,,,,,,Large,,,,
choice,option,269.1694466660265,270.19548708293587,24,3,,,,,,,,,Large,,,,
choice,choice,270.1956151659833,292.6197566660121,24,3,,,1,1,21.41356308304239,,,,Large,,,,
memory,free_recall,303.6288219159469,326.28750691597816,12,3,,,,,,,,,,,,,
memory,value_recall,333.2037526660133,338.78418224991765,13,3,Animal_Land_Pattern_Small,,,,5.576411791960709,,,,,5,,,
memory,value_recall,340.07955274998676,342.71637599996757,14,3,Object_Land_Solid_Small,,,,2.630043833050877,,,,,9,,,
memory,value_recall,344.0130317909643,349.3168796659447,15,3,Object_Sea_Pattern_Large,,,,5.299429207923822,,,,,-2,,,
memory,value_recall,350.36306449992117,352.4449763329467,16,3,Object_Sea_Solid_Large,,,,2.0786270410753787,,,,,-1,,,
memory,value_recall,353.4902806249447,355.45093795796856,17,3,Animal_Land_Solid_Small,,,,1.957441041013226,,,,,-9,,,
memory,value_recall,357.4966909579234,360.1889310409315,18,3,Animal_Sea_Pattern_Large,,,,2.688094291021116,,,,,8,,,
memory,spatial_recall,364.24989350000396,369.7018536250107,18,3,Object_Land_Solid_Small,,,1,5.447959417011589,,,,,,"[-329, -190]","[-329, -190]",
memory,spatial_recall,371.75805637496524,375.75974808295723,18,3,Animal_Sea_Pattern_Large,,,1,3.997783667058684,,,,,,"[-329, 190]","[-329, 190]",
memory,spatial_recall,377.0696948330151,378.42388533300254,18,3,Object_Sea_Pattern_Large,,,1,1.3503137090010568,,,,,,"[329, -190]","[329, -190]",
memory,spatial_recall,380.49107824999373,382.9398417909397,18,3,Animal_Land_Pattern_Small,,,1,2.4440631669713184,,,,,,"[329, 189]","[329, 189]",
memory,spatial_recall,384.75345224991906,386.60342804098036,18,3,Animal_Land_Solid_Small,,,1,1.8459939579479396,,,,,,"[0, -380]","[0, -380]",
memory,spatial_recall,387.92479658301454,389.3088447910268,18,3,Object_Sea_Solid_Large,,,1,1.3800677499966696,,,,,,"[0, 380]","[0, 380]",
encoding,fixation,5.23303450003732,5.7383929579518735,19,4,Animal_Sea_Solid_Large,-7,,,,,,,,,,,
encoding,image,5.738553958013654,6.751984667032957,19,4,Animal_Sea_Solid_Large,-7,,,,,,,,,,,
encoding,value,6.752087875036523,12.765251750010066,19,4,Animal_Sea_Solid_Large,-7,,,,,,,,,,,
encoding,attention,12.765349957975559,15.783353292034008,19,4,Animal_Sea_Solid_Large,-7,-7,1,2.0075109580066055,,,,,,,,
encoding,fixation,15.783575666951947,17.03885316697415,20,4,Object_Land_Pattern_Small,-9,,,,,,,,,,,
encoding,image,17.038964582956396,18.050838832976297,20,4,Object_Land_Pattern_Small,-9,,,,,,,,,,,
encoding,value,18.05097008298617,24.06308958295267,20,4,Object_Land_Pattern_Small,-9,,,,,,,,,,,
encoding,attention,24.063284125062637,27.08245958306361,20,4,Object_Land_Pattern_Small,-9,-9,1,0.7887247920734808,,,,,,,,
encoding,fixation,27.082606166950427,28.337996750022285,21,4,Animal_Sea_Pattern_Large,3,,,,,,,,,,,
encoding,image,28.338101375033148,29.348708749981597,21,4,Animal_Sea_Pattern_Large,3,,,,,,,,,,,
encoding,value,29.348820541985333,35.36066833301447,21,4,Animal_Sea_Pattern_Large,3,,,,,,,,,,,
encoding,attention,35.36078312504105,38.38092916703317,21,4,Animal_Sea_Pattern_Large,3,+3,1,1.618103750050068,,,,,,,,
encoding,fixation,38.38106820802204,39.13617800001521,22,4,Object_Land_Solid_Small,3,,,,,,,,,,,
encoding,image,39.13628062501084,40.14768987498246,22,4,Object_Land_Solid_Small,3,,,,,,,,,,,
encoding,value,40.147791292052716,46.15970149997156,22,4,Object_Land_Solid_Small,3,,,,,,,,,,,
encoding,attention,46.159811625024304,49.179085541982204,22,4,Object_Land_Solid_Small,3,+3,1,1.3500431249849498,,,,,,,,
encoding,fixation,49.179229042027146,49.934357000049204,23,4,Object_Sea_Pattern_Small,3,,,,,,,,,,,
encoding,image,49.93448241695296,50.94550375000108,23,4,Object_Sea_Pattern_Small,3,,,,,,,,,,,
encoding,value,50.945624249987304,56.9588438749779,23,4,Object_Sea_Pattern_Small,3,,,,,,,,,,,
encoding,attention,56.9589512499515,59.98065829195548,23,4,Object_Sea_Pattern_Small,3,+3,1,1.3294806669000536,,,,,,,,
encoding,fixation,59.98081395798363,60.98595766699873,24,4,Animal_Land_Solid_Large,7,,,,,,,,,,,
encoding,image,60.98605495796073,61.99792900006287,24,4,Animal_Land_Solid_Large,7,,,,,,,,,,,
encoding,value,61.99804562504869,68.00952145806514,24,4,Animal_Land_Solid_Large,7,,,,,,,,,,,
encoding,attention,68.00964916695375,71.0255550830625,24,4,Animal_Land_Solid_Large,7,None,None,None,,,,,,,,
n-back,,,,91,4,,,,1,None,X,False,None,,,,,
n-back,,,,92,4,,,,0,None,N,True,None,,,,,
n-back,,,,93,4,,,,1,0.5946612500119954,X,True,1,,,,,
n-back,,,,94,4,,,,1,None,Z,False,None,,,,,
n-back,,,,95,4,,,,1,0.725223541026935,X,True,1,,,,,
n-back,,,,96,4,,,,1,None,X,False,None,,,,,
n-back,,,,97,4,,,,1,1.1755077079869807,X,True,1,,,,,
n-back,,,,98,4,,,,1,None,C,False,None,,,,,
n-back,,,,99,4,,,,1,None,B,False,None,,,,,
n-back,,,,100,4,,,,1,None,N,False,None,,,,,
n-back,,,,101,4,,,,1,0.8734064169693738,B,True,1,,,,,
n-back,,,,102,4,,,,1,None,Z,False,None,,,,,
n-back,,,,103,4,,,,1,0.4207694580545649,B,True,1,,,,,
n-back,,,,104,4,,,,0,None,Z,True,None,,,,,
n-back,,,,105,4,,,,1,None,V,False,None,,,,,
n-back,,,,106,4,,,,1,None,V,False,None,,,,,
n-back,,,,107,4,,,,1,None,N,False,None,,,,,
n-back,,,,108,4,,,,1,None,X,False,None,,,,,
n-back,,,,109,4,,,,1,0.4340701660839841,N,True,1,,,,,
n-back,,,,110,4,,,,1,None,B,False,None,,,,,
n-back,,,,111,4,,,,1,None,C,False,None,,,,,
n-back,,,,112,4,,,,1,None,V,False,None,,,,,
n-back,,,,113,4,,,,1,None,X,False,None,,,,,
n-back,,,,114,4,,,,1,None,B,False,None,,,,,
n-back,,,,115,4,,,,1,None,B,False,None,,,,,
n-back,,,,116,4,,,,1,None,C,False,None,,,,,
n-back,,,,117,4,,,,1,0.3071740421000868,B,True,1,,,,,
n-back,,,,118,4,,,,1,None,Z,False,None,,,,,
n-back,,,,119,4,,,,1,None,V,False,None,,,,,
n-back,,,,120,4,,,,1,0.8135611669858918,Z,True,1,,,,,
choice,fixation,146.33272425003815,147.8359674999956,25,4,,,,,,,,,Pattern,,,,
choice,option,147.84528441703878,148.87543204205576,25,4,,,,,,,,,Pattern,,,,
choice,choice,148.8755792080192,165.5058620000491,25,4,,,1,0,15.61622433399316,,,,Pattern,,,,
choice,fixation,165.5060235420242,166.26380020799115,26,4,,,,,,,,,Land,,,,
choice,option,166.27290895802435,167.300534332986,26,4,,,,,,,,,Land,,,,
choice,choice,167.30063354200684,182.3984198330436,26,4,,,2,0,14.085815540980548,,,,Land,,,,
choice,fixation,182.39854920795187,183.90367020806298,27,4,,,,,,,,,Large,,,,
choice,option,183.91291170800105,184.9418430000078,27,4,,,,,,,,,Large,,,,
choice,choice,184.94194695795886,197.43970562506001,27,4,,,1,1,11.486993000027724,,,,Large,,,,
choice,fixation,197.43983945797663,198.44524554198142,28,4,,,,,,,,,Solid,,,,
choice,option,198.45536995795555,199.48176087497268,28,4,,,,,,,,,Solid,,,,
choice,choice,199.48186025000177,215.30473087495193,28,4,,,2,0,14.811134500079788,,,,Solid,,,,
choice,fixation,215.30485933297314,216.30989383300766,29,4,,,,,,,,,Animal,,,,
choice,option,216.31921629200224,217.34614625002723,29,4,,,,,,,,,Animal,,,,
choice,choice,217.34628458297811,242.93072470801417,29,4,,,1,1,24.573432959034108,,,,Animal,,,,
choice,fixation,242.9308374579996,243.43613566702697,30,4,,,,,,,,,Sea,,,,
choice,option,243.44494620803744,244.47180741699412,30,4,,,,,,,,,Sea,,,,
choice,choice,244.47192116698716,252.92898462503217,30,4,,,2,1,7.447224667062983,,,,Sea,,,,
choice,fixation,252.92911908298265,254.18435474997386,31,4,,,,,,,,,Small,,,,
choice,option,254.19329270801973,255.21976579201873,31,4,,,,,,,,,Small,,,,
choice,choice,255.21987475000788,263.1819460419938,31,4,,,2,1,6.951357625075616,,,,Small,,,,
choice,fixation,263.1820750000188,263.6873527079588,32,4,,,,,,,,,Object,,,,
choice,option,263.6967824170133,264.7235600419808,32,4,,,,,,,,,Object,,,,
choice,choice,264.72367095795926,284.43279412505217,32,4,,,1,0,18.69697479205206,,,,Object,,,,
memory,free_recall,295.840778416954,314.02686791704036,18,4,,,,,,,,,,,,,
memory,value_recall,324.3988421249669,329.22636820795015,19,4,Animal_Land_Solid_Large,,,,4.823243749910034,,,,,7,,,
memory,value_recall,330.5254005830502,332.34016625001095,20,4,Animal_Sea_Pattern_Large,,,,1.8105863750679418,,,,,3,,,
memory,value_recall,333.38465520797763,335.18477287504356,21,4,Object_Sea_Pattern_Small,,,,1.7941501250024885,,,,,3,,,
memory,value_recall,336.73034529201686,338.8764969999902,22,4,Animal_Sea_Solid_Large,,,,2.1417531659826636,,,,,-7,,,
memory,value_recall,339.9225071669789,343.30455016705673,23,4,Object_Land_Pattern_Small,,,,3.3788442499935627,,,,,-9,,,
memory,value_recall,344.5998137500137,346.2084822499892,24,4,Object_Land_Solid_Small,,,,1.6043790410039946,,,,,3,,,
memory,spatial_recall,349.88252312503755,352.07765350001864,24,4,Animal_Sea_Solid_Large,,,1,2.1910559170646593,,,,,,"[0, 380]","[0, 380]",
memory,spatial_recall,353.3947239170084,355.5469538329635,24,4,Object_Land_Solid_Small,,,1,2.148259708075784,,,,,,"[-329, -190]","[-329, -190]",
memory,spatial_recall,356.61003149999306,358.139531666995,24,4,Object_Sea_Pattern_Small,,,1,1.5254714579787105,,,,,,"[0, -380]","[0, -380]",
memory,spatial_recall,360.1924080000026,363.614291624981,24,4,Animal_Sea_Pattern_Large,,,1,3.417807082994841,,,,,,"[-329, 190]","[-329, 190]",
memory,spatial_recall,365.6827780420426,367.3477465000469,24,4,Animal_Land_Solid_Large,,,1,1.6607117500388995,,,,,,"[329, -190]","[329, -190]",
memory,spatial_recall,368.40070825000294,369.69660887506325,24,4,Object_Land_Pattern_Small,,,1,1.2923968749819323,,,,,,"[329, 189]","[329, 189]",
encoding,fixation,5.622298582922667,7.127598832943477,25,5,Animal_Sea_Pattern_Small,6,,,,,,,,,,,
encoding,image,7.127715416951105,8.140248874900863,25,5,Animal_Sea_Pattern_Small,6,,,,,,,,,,,
encoding,value,8.140351999900304,14.155330874957144,25,5,Animal_Sea_Pattern_Small,6,,,,,,,,,,,
encoding,attention,14.155444749980234,17.17370074999053,25,5,Animal_Sea_Pattern_Small,6,+6,1,1.5373722499934956,,,,,,,,
encoding,fixation,17.173851207946427,17.92940570798237,26,5,Object_Sea_Solid_Small,-5,,,,,,,,,,,
encoding,image,17.929507666965947,18.93964145798236,26,5,Object_Sea_Solid_Small,-5,,,,,,,,,,,
encoding,value,18.93974941689521,24.95464433298912,26,5,Object_Sea_Solid_Small,-5,,,,,,,,,,,
encoding,attention,24.95474524993915,27.971308082924224,26,5,Object_Sea_Solid_Small,-5,-5,1,2.1604262919863686,,,,,,,,
encoding,fixation,27.971531624905765,28.976538124959916,27,5,Animal_Land_Pattern_Large,-4,,,,,,,,,,,
encoding,image,28.976642666966654,29.988337749964558,27,5,Animal_Land_Pattern_Large,-4,,,,,,,,,,,
encoding,value,29.988457041908987,36.0044566669967,27,5,Animal_Land_Pattern_Large,-4,,,,,,,,,,,
encoding,attention,36.00456991698593,39.022783499909565,27,5,Animal_Land_Pattern_Large,-4,-4,1,1.1382208749419078,,,,,,,,
encoding,fixation,39.022974374936894,40.02811812493019,28,5,Object_Land_Pattern_Large,-1,,,,,,,,,,,
encoding,image,40.02822999993805,41.03988366690464,28,5,Object_Land_Pattern_Large,-1,,,,,,,,,,,
encoding,value,41.04000641696621,47.05429795791861,28,5,Object_Land_Pattern_Large,-1,,,,,,,,,,,
encoding,attention,47.05440366698895,50.07428170798812,28,5,Object_Land_Pattern_Large,-1,-1,1,1.42387716693338,,,,,,,,
encoding,fixation,50.07443412498105,51.57955683290493,29,5,Animal_Sea_Solid_Small,-5,,,,,,,,,,,
encoding,image,51.579698041896336,52.591244749957696,29,5,Animal_Sea_Solid_Small,-5,,,,,,,,,,,
encoding,value,52.59138245799113,58.604445667006075,29,5,Animal_Sea_Solid_Small,-5,,,,,,,,,,,
encoding,attention,58.60457437497098,61.616564791998826,29,5,Animal_Sea_Solid_Small,-5,None,None,None,,,,,,,,
encoding,fixation,61.61670424998738,62.37182687490713,30,5,Object_Land_Solid_Large,7,,,,,,,,,,,
encoding,image,62.37193749996368,63.383191625005566,30,5,Object_Land_Solid_Large,7,,,,,,,,,,,
encoding,value,63.38329379190691,69.39453129190952,30,5,Object_Land_Solid_Large,7,,,,,,,,,,,
encoding,attention,69.39464612491429,72.4108368329471,30,5,Object_Land_Solid_Large,7,+7,1,1.2552177499746904,,,,,,,,
n-back,,,,121,5,,,,1,None,B,False,None,,,,,
n-back,,,,122,5,,,,1,None,Z,False,None,,,,,
n-back,,,,123,5,,,,1,0.3998406669124961,B,True,1,,,,,
n-back,,,,124,5,,,,1,None,B,False,None,,,,,
n-back,,,,125,5,,,,1,0.8102878340287134,B,True,1,,,,,
n-back,,,,126,5,,,,1,None,Z,False,None,,,,,
n-back,,,,127,5,,,,1,0.5806922919582576,B,True,1,,,,,
n-back,,,,128,5,,,,1,1.3474132909905165,Z,True,1,,,,,
n-back,,,,129,5,,,,1,None,N,False,None,,,,,
n-back,,,,130,5,,,,1,0.4378047080244869,Z,True,1,,,,,
n-back,,,,131,5,,,,1,1.118647333001718,N,True,1,,,,,
n-back,,,,132,5,,,,1,None,X,False,None,,,,,
n-back,,,,133,5,,,,1,0.6497669590171427,N,True,1,,,,,
n-back,,,,134,5,,,,1,None,C,False,None,,,,,
n-back,,,,135,5,,,,1,None,V,False,None,,,,,
n-back,,,,136,5,,,,1,None,B,False,None,,,,,
n-back,,,,137,5,,,,1,None,B,False,None,,,,,
n-back,,,,138,5,,,,0,0.6551615830976516,V,False,1,,,,,
n-back,,,,139,5,,,,1,None,C,False,None,,,,,
n-back,,,,140,5,,,,0,0.5743461250094697,B,False,1,,,,,
n-back,,,,141,5,,,,1,None,V,False,None,,,,,
n-back,,,,142,5,,,,1,None,C,False,None,,,,,
n-back,,,,143,5,,,,0,None,V,True,None,,,,,
n-back,,,,144,5,,,,1,None,V,False,None,,,,,
n-back,,,,145,5,,,,1,None,B,False,None,,,,,
n-back,,,,146,5,,,,1,0.5363892921013758,V,True,1,,,,,
n-back,,,,147,5,,,,1,None,Z,False,None,,,,,
n-back,,,,148,5,,,,0,None,V,True,None,,,,,
n-back,,,,149,5,,,,1,None,C,False,None,,,,,
n-back,,,,150,5,,,,1,None,B,False,None,,,,,
choice,fixation,148.56702624994796,150.0702883329941,33,5,,,,,,,,,Solid,,,,
choice,option,150.07993775000796,151.10695616691373,33,5,,,,,,,,,Solid,,,,
choice,choice,151.107126582996,189.5885068749776,33,5,,,1,0,37.46965962497052,,,,Solid,,,,
choice,fixation,189.58865783293732,190.0938192079775,34,5,,,,,,,,,Small,,,,
choice,option,190.10247754200827,191.12989979190752,34,5,,,,,,,,,Small,,,,
choice,choice,191.13002616690937,208.9318027079571,34,5,,,2,1,16.790348042035475,,,,Small,,,,
choice,fixation,208.93192654196173,209.4375660419464,35,5,,,,,,,,,Pattern,,,,
choice,option,209.44655783299822,210.47231254191138,35,5,,,,,,,,,Pattern,,,,
choice,choice,210.47249083290808,230.29909333295655,35,5,,,2,0,18.815463667036965,,,,Pattern,,,,
choice,fixation,230.29922049993183,230.80514979199506,36,5,,,,,,,,,Animal,,,,
choice,option,230.8151269579539,231.842079874943,36,5,,,,,,,,,Animal,,,,
choice,choice,231.8421928329626,258.05452604196034,36,5,,,2,1,25.198714207974263,,,,Animal,,,,
choice,fixation,258.0546352500096,258.55985808291007,37,5,,,,,,,,,Large,,,,
choice,option,258.56868358294014,259.59553791699,37,5,,,,,,,,,Large,,,,
choice,choice,259.5956390829524,277.10146395792253,37,5,,,2,0,16.49158237501979,,,,Large,,,,
choice,fixation,277.10163324989844,278.3570367079228,38,5,,,,,,,,,Sea,,,,
choice,option,278.3656767499633,279.3916876249714,38,5,,,,,,,,,Sea,,,,
choice,choice,279.39183604193386,289.23797258292325,38,5,,,2,1,8.83203249995131,,,,Sea,,,,
choice,fixation,289.23809687490575,289.993376166909,39,5,,,,,,,,,Object,,,,
choice,option,290.0029001669027,291.0292620830005,39,5,,,,,,,,,Object,,,,
choice,choice,291.02941358298995,296.4375229999423,39,5,,,2,0,4.395553083042614,,,,Object,,,,
choice,fixation,296.4376497499179,297.442855375004,40,5,,,,,,,,,Land,,,,
choice,option,297.45166974992026,298.4780665829312,40,5,,,,,,,,,Land,,,,
choice,choice,298.47819316689856,308.35752187494654,40,5,,,2,0,8.869144375086762,,,,Land,,,,
memory,free_recall,324.9097652079072,338.268668374978,24,5,,,,,,,,,,,,,
memory,value_recall,346.6757034579059,359.17480558296666,25,5,Animal_Land_Pattern_Large,,,,12.495370083022863,,,,,-4,,,
memory,value_recall,361.224346541916,363.6198639170034,26,5,Object_Land_Solid_Large,,,,2.391001292038709,,,,,7,,,
memory,value_recall,365.6658408329822,369.10549229197204,27,5,Object_Sea_Solid_Small,,,,3.4351847920333967,,,,,-5,,,
memory,value_recall,370.9049552079523,374.6280922499718,28,5,Object_Land_Pattern_Large,,,,3.718903958098963,,,,,-1,,,
memory,value_recall,376.6738851669943,379.15275645791553,29,5,Animal_Sea_Pattern_Small,,,,2.4746130000567064,,,,,6,,,
memory,value_recall,380.2005525829736,383.88666541699786,30,5,Animal_Sea_Solid_Small,,,,3.6828695830190554,,,,,-5,,,
memory,spatial_recall,387.5792671669042,396.4085469999118,30,5,Object_Sea_Solid_Small,,,1,8.825030875043012,,,,,,"[329, -190]","[329, -190]",
memory,spatial_recall,397.46836295793764,398.5849702080013,30,5,Object_Land_Solid_Large,,,1,1.1142313330201432,,,,,,"[0, -380]","[0, -380]",
memory,spatial_recall,400.1353259999305,400.9086786248954,30,5,Animal_Sea_Pattern_Small,,,1,0.7692686669761315,,,,,,"[-329, -190]","[-329, -190]",
memory,spatial_recall,402.718787916936,404.787186749978,30,5,Animal_Sea_Solid_Small,,,1,2.064334167051129,,,,,,"[329, 189]","[329, 189]",
memory,spatial_recall,405.8602966249455,407.0352177079767,30,5,Object_Land_Pattern_Large,,,1,1.1708856660407037,,,,,,"[0, 380]","[0, 380]",
memory,spatial_recall,408.0782102079829,410.00822983297985,30,5,Animal_Land_Pattern_Large,,,1,1.9269895839970559,,,,,,"[-329, 190]","[-329, 190]",
encoding,fixation,6.328689792077057,7.333828000002541,31,6,Animal_Land_Pattern_Small,-3,,,,,,,,,,,
encoding,image,7.3339265420800075,8.347286666976288,31,6,Animal_Land_Pattern_Small,-3,,,,,,,,,,,
encoding,value,8.347427458036691,14.36178854200989,31,6,Animal_Land_Pattern_Small,-3,,,,,,,,,,,
encoding,attention,14.361896416987292,17.3802349580219,31,6,Animal_Land_Pattern_Small,-3,-3,1,1.3539247079752386,,,,,,,,
encoding,fixation,17.3804269580869,18.885459042037837,32,6,Object_Land_Solid_Small,-1,,,,,,,,,,,
encoding,image,18.885572333005257,19.896547708078288,32,6,Object_Land_Solid_Small,-1,,,,,,,,,,,
encoding,value,19.896677042008378,25.90887600008864,32,6,Object_Land_Solid_Small,-1,,,,,,,,,,,
encoding,attention,25.909035542048514,28.926957875024527,32,6,Object_Land_Solid_Small,-1,-1,1,0.6293115830048919,,,,,,,,
encoding,fixation,28.927101416978985,29.93209770799149,33,6,Object_Sea_Pattern_Large,4,,,,,,,,,,,
encoding,image,29.932207167032175,30.94661287497729,33,6,Object_Sea_Pattern_Large,4,,,,,,,,,,,
encoding,value,30.946767917019315,36.95875574997626,33,6,Object_Sea_Pattern_Large,4,,,,,,,,,,,
encoding,attention,36.95889529201668,39.9771443749778,33,6,Object_Sea_Pattern_Large,4,+4,1,2.373591084033251,,,,,,,,
encoding,fixation,39.97737666708417,40.98236324999016,34,6,Animal_Sea_Pattern_Large,-4,,,,,,,,,,,
encoding,image,40.982470666989684,41.99290687497705,34,6,Animal_Sea_Pattern_Large,-4,,,,,,,,,,,
encoding,value,41.99301425006706,48.00376704207156,34,6,Animal_Sea_Pattern_Large,-4,,,,,,,,,,,
encoding,attention,48.00388933299109,51.021167542086914,34,6,Animal_Sea_Pattern_Large,-4,-4,1,1.389054917031899,,,,,,,,
encoding,fixation,51.02134445798583,51.52657737501431,35,6,Object_Sea_Solid_Large,-2,,,,,,,,,,,
encoding,image,51.52667991700582,52.538408374995925,35,6,Object_Sea_Solid_Large,-2,,,,,,,,,,,
encoding,value,52.538531042053364,58.55126191698946,35,6,Object_Sea_Solid_Large,-2,,,,,,,,,,,
encoding,attention,58.55137316707987,61.56401941704098,35,6,Object_Sea_Solid_Large,-2,None,None,None,,,,,,,,
encoding,fixation,61.56414387503173,62.569556707981974,36,6,Animal_Land_Solid_Small,5,,,,,,,,,,,
encoding,image,62.56967287498992,63.58059345802758,36,6,Animal_Land_Solid_Small,5,,,,,,,,,,,
encoding,value,63.58070404198952,69.59221604198683,36,6,Animal_Land_Solid_Small,5,,,,,,,,,,,
encoding,attention,69.5923378750449,72.60958387504797,36,6,Animal_Land_Solid_Small,5,+5,1,1.177416207967326,,,,,,,,
n-back,,,,151,6,,,,0,0.5266531669767573,B,False,1,,,,,
n-back,,,,152,6,,,,1,None,X,False,None,,,,,
n-back,,,,153,6,,,,1,0.5406874580075964,B,True,1,,,,,
n-back,,,,154,6,,,,1,1.0577380420872942,X,True,1,,,,,
n-back,,,,155,6,,,,1,None,X,False,None,,,,,
n-back,,,,156,6,,,,1,None,V,False,None,,,,,
n-back,,,,157,6,,,,1,0.6300403329078108,X,True,1,,,,,
n-back,,,,158,6,,,,1,None,Z,False,None,,,,,
n-back,,,,159,6,,,,1,None,B,False,None,,,,,
n-back,,,,160,6,,,,1,None,X,False,None,,,,,
n-back,,,,161,6,,,,1,None,C,False,None,,,,,
n-back,,,,162,6,,,,1,None,V,False,None,,,,,
n-back,,,,163,6,,,,1,None,B,False,None,,,,,
n-back,,,,164,6,,,,1,None,C,False,None,,,,,
n-back,,,,165,6,,,,1,None,X,False,None,,,,,
n-back,,,,166,6,,,,1,None,B,False,None,,,,,
n-back,,,,167,6,,,,1,0.2903880000812933,X,True,1,,,,,
n-back,,,,168,6,,,,1,None,C,False,None,,,,,
n-back,,,,169,6,,,,1,None,C,False,None,,,,,
n-back,,,,170,6,,,,1,None,Z,False,None,,,,,
n-back,,,,171,6,,,,1,0.44042633392382413,C,True,1,,,,,
n-back,,,,172,6,,,,1,0.693112708046101,Z,True,1,,,,,
n-back,,,,173,6,,,,1,1.0269736250629649,C,True,1,,,,,
n-back,,,,174,6,,,,1,None,B,False,None,,,,,
n-back,,,,175,6,,,,1,0.682943542022258,C,True,1,,,,,
n-back,,,,176,6,,,,1,0.7974540829891339,B,True,1,,,,,
n-back,,,,177,6,,,,1,None,V,False,None,,,,,
n-back,,,,178,6,,,,1,0.9854848330141976,B,True,1,,,,,
n-back,,,,179,6,,,,1,None,N,False,None,,,,,
n-back,,,,180,6,,,,1,None,C,False,None,,,,,
choice,fixation,139.5684657500824,140.57192758307792,41,6,,,,,,,,,Pattern,,,,
choice,option,140.58107512502465,141.60732616705354,41,6,,,,,,,,,Pattern,,,,
choice,choice,141.607441250002,209.92442195804324,41,6,,,2,1,67.30460041598417,,,,Pattern,,,,
choice,fixation,209.92457162507344,211.43045045807958,42,6,,,,,,,,,Large,,,,
choice,option,211.43928104208317,212.4651958750328,42,6,,,,,,,,,Large,,,,
choice,choice,212.46529775008094,231.0756255830638,42,6,,,2,1,17.598854375071824,,,,Large,,,,
choice,fixation,231.07577120803762,231.83110175002366,43,6,,,,,,,,,Small,,,,
choice,option,231.84061195806134,232.866889833007,43,6,,,,,,,,,Small,,,,
choice,choice,232.8669947499875,251.01243408303708,43,6,,,1,1,17.13334058399778,,,,Small,,,,
choice,fixation,251.012559875031,251.76757441705558,44,6,,,,,,,,,Land,,,,
choice,option,251.77613987505902,252.80130345805082,44,6,,,,,,,,,Land,,,,
choice,choice,252.80140712508,282.52565962506924,44,6,,,1,1,28.71283787500579,,,,Land,,,,
choice,fixation,282.52578408306,284.03075412497856,45,6,,,,,,,,,Animal,,,,
choice,option,284.04011345806066,285.0658086669864,45,6,,,,,,,,,Animal,,,,
choice,choice,285.0659153329907,303.1401812500553,45,6,,,2,1,17.063075124984607,,,,Animal,,,,
choice,fixation,303.1403067080537,304.64532650006004,46,6,,,,,,,,,Object,,,,
choice,option,304.65459975006524,305.6814246249851,46,6,,,,,,,,,Object,,,,
choice,choice,305.6815968750743,321.80470774997957,46,6,,,1,1,15.112265125033446,,,,Object,,,,
choice,fixation,321.80484716698993,322.31476541701704,47,6,,,,,,,,,Solid,,,,
choice,option,322.3245259580435,323.35059262497816,47,6,,,,,,,,,Solid,,,,
choice,choice,323.3506927919807,334.21268925000913,47,6,,,2,0,9.849985375069082,,,,Solid,,,,
choice,fixation,334.21281741699204,335.4677377080079,48,6,,,,,,,,,Sea,,,,
choice,option,335.47593891702127,336.5028728750767,48,6,,,,,,,,,Sea,,,,
choice,choice,336.5029832080472,351.3357058330439,48,6,,,2,1,13.821856584050693,,,,Sea,,,,
memory,free_recall,366.58068120805547,393.58249154197983,30,6,,,,,,,,,,,,,
memory,value_recall,401.50767070800066,406.86029895802494,31,6,Animal_Land_Solid_Small,,,,5.348586832988076,,,,,5,,,
memory,value_recall,408.90636829205323,414.3900611670688,32,6,Object_Land_Solid_Small,,,,5.479286749963649,,,,,-1,,,
memory,value_recall,416.43773512507323,418.5296414580662,33,6,Animal_Sea_Pattern_Large,,,,2.087144250050187,,,,,-4,,,
memory,value_recall,419.8250467500184,422.46334366698284,34,6,Object_Sea_Solid_Large,,,,2.6339596669422463,,,,,-2,,,
memory,value_recall,423.7594991250662,426.06862454197835,35,6,Object_Sea_Pattern_Large,,,,2.304419166990556,,,,,4,,,
memory,value_recall,427.8645765420515,432.2225002920022,36,6,Animal_Land_Pattern_Small,,,,4.353795083006844,,,,,-3,,,
memory,spatial_recall,435.9035295830108,439.5028024580097,36,6,Animal_Sea_Pattern_Large,,,1,3.5951952079776675,,,,,,"[-329, 190]","[-329, 190]",
memory,spatial_recall,441.0696522500366,444.1855287500657,36,6,Object_Sea_Solid_Large,,,1,3.1115915830014274,,,,,,"[0, 380]","[0, 380]",
memory,spatial_recall,445.9970827080542,447.51739825005643,36,6,Animal_Land_Pattern_Small,,,1,1.5162198330508545,,,,,,"[329, 189]","[329, 189]",
memory,spatial_recall,449.58647837501485,451.41787958308123,36,6,Object_Land_Solid_Small,,,1,1.8270453329896554,,,,,,"[-329, -190]","[-329, -190]",
memory,spatial_recall,452.98342516703997,454.0010181249818,36,6,Object_Sea_Pattern_Large,,,1,1.0134179999586195,,,,,,"[329, -190]","[329, -190]",
memory,spatial_recall,455.8160802919883,456.6326078750426,36,6,Animal_Land_Solid_Small,,,1,0.812596375006251,,,,,,"[0, -380]","[0, -380]",
encoding,fixation,8.05577524995897,8.814002042054199,37,7,Animal_Sea_Pattern_Small,2,,,,,,,,,,,
encoding,image,8.814129958045669,9.825679332949221,37,7,Animal_Sea_Pattern_Small,2,,,,,,,,,,,
encoding,value,9.825788125046529,15.839190750033595,37,7,Animal_Sea_Pattern_Small,2,,,,,,,,,,,
encoding,attention,15.839299082988873,18.85743654204998,37,7,Animal_Sea_Pattern_Small,2,+2,1,1.8129090840229765,,,,,,,,
encoding,fixation,18.857649042038247,19.364912666962482,38,7,Object_Land_Solid_Large,2,,,,,,,,,,,
encoding,image,19.36501974996645,20.37548108305782,38,7,Object_Land_Solid_Large,2,,,,,,,,,,,
encoding,value,20.375596708036028,26.386340750032105,38,7,Object_Land_Solid_Large,2,,,,,,,,,,,
encoding,attention,26.386445167008787,29.40343116701115,38,7,Object_Land_Solid_Large,2,+2,1,0.5858288329327479,,,,,,,,
encoding,fixation,29.403585624997504,30.158899792004377,39,7,Animal_Land_Pattern_Large,-4,,,,,,,,,,,
encoding,image,30.159079000004567,31.170328250038438,39,7,Animal_Land_Pattern_Large,-4,,,,,,,,,,,
encoding,value,31.170434374944307,37.18244429200422,39,7,Animal_Land_Pattern_Large,-4,,,,,,,,,,,
encoding,attention,37.18261604197323,40.20349612494465,39,7,Animal_Land_Pattern_Large,-4,-4,1,1.027257708949037,,,,,,,,
encoding,fixation,40.20366479200311,40.95910537499003,40,7,Animal_Sea_Solid_Large,1,,,,,,,,,,,
encoding,image,40.959222957957536,41.97098670795094,40,7,Animal_Sea_Solid_Large,1,,,,,,,,,,,
encoding,value,41.971093124942854,47.98283870797604,40,7,Animal_Sea_Solid_Large,1,,,,,,,,,,,
encoding,attention,47.98297137499321,51.000681999954395,40,7,Animal_Sea_Solid_Large,1,+1,1,0.7230433330405504,,,,,,,,
encoding,fixation,51.000845332979225,51.506166207953356,41,7,Object_Land_Pattern_Small,1,,,,,,,,,,,
encoding,image,51.50626375002321,52.517914750031196,41,7,Object_Land_Pattern_Small,1,,,,,,,,,,,
encoding,value,52.518022208008915,58.529695917037316,41,7,Object_Land_Pattern_Small,1,,,,,,,,,,,
encoding,attention,58.529824541998096,61.54745216702577,41,7,Object_Land_Pattern_Small,1,+1,1,1.1709847500314936,,,,,,,,
encoding,fixation,61.54763483302668,63.05310949997511,42,7,Object_Sea_Solid_Small,-5,,,,,,,,,,,
encoding,image,63.053236249950714,64.06490600004327,42,7,Object_Sea_Solid_Small,-5,,,,,,,,,,,
encoding,value,64.06502345798071,70.07558229204733,42,7,Object_Sea_Solid_Small,-5,,,,,,,,,,,
encoding,attention,70.07570304197725,73.09145866695326,42,7,Object_Sea_Solid_Small,-5,-5,1,2.879259582958184,,,,,,,,
n-back,,,,181,7,,,,1,None,X,False,None,,,,,
n-back,,,,182,7,,,,1,None,C,False,None,,,,,
n-back,,,,183,7,,,,1,0.6426940000383183,X,True,1,,,,,
n-back,,,,184,7,,,,1,0.7189628750784323,C,True,1,,,,,
n-back,,,,185,7,,,,1,None,V,False,None,,,,,
n-back,,,,186,7,,,,1,None,V,False,None,,,,,
n-back,,,,187,7,,,,1,None,Z,False,None,,,,,
n-back,,,,188,7,,,,1,0.38173670799005777,V,True,1,,,,,
n-back,,,,189,7,,,,1,0.6599502079188824,Z,True,1,,,,,
n-back,,,,190,7,,,,1,None,Z,False,None,,,,,
n-back,,,,191,7,,,,1,None,N,False,None,,,,,
n-back,,,,192,7,,,,1,None,X,False,None,,,,,
n-back,,,,193,7,,,,1,None,V,False,None,,,,,
n-back,,,,194,7,,,,1,None,C,False,None,,,,,
n-back,,,,195,7,,,,1,None,B,False,None,,,,,
n-back,,,,196,7,,,,1,None,B,False,None,,,,,
n-back,,,,197,7,,,,1,None,Z,False,None,,,,,
n-back,,,,198,7,,,,1,None,C,False,None,,,,,
n-back,,,,199,7,,,,1,None,X,False,None,,,,,
n-back,,,,200,7,,,,1,None,N,False,None,,,,,
n-back,,,,201,7,,,,1,None,Z,False,None,,,,,
n-back,,,,202,7,,,,1,0.48525591695215553,N,True,1,,,,,
n-back,,,,203,7,,,,1,1.0868469999404624,Z,True,1,,,,,
n-back,,,,204,7,,,,1,0.9849038749234751,N,True,1,,,,,
n-back,,,,205,7,,,,1,None,V,False,None,,,,,
n-back,,,,206,7,,,,1,0.6500872920732945,N,True,1,,,,,
n-back,,,,207,7,,,,1,1.0543328749481589,V,True,1,,,,,
n-back,,,,208,7,,,,1,None,B,False,None,,,,,
n-back,,,,209,7,,,,1,None,B,False,None,,,,,
n-back,,,,210,7,,,,1,0.435748792020604,B,True,1,,,,,
choice,fixation,140.37946454202756,141.63269774999935,49,7,,,,,,,,,Animal,,,,
choice,option,141.64152520801872,142.66749575000722,49,7,,,,,,,,,Animal,,,,
choice,choice,142.66761308303103,148.2440581669798,49,7,,,2,1,4.5658652919810265,,,,Animal,,,,
choice,fixation,148.24417895800434,149.24925287498627,50,7,,,,,,,,,Land,,,,
choice,option,149.25823487504385,150.28454041702207,50,7,,,,,,,,,Land,,,,
choice,choice,150.28464874997735,158.41941175004467,50,7,,,2,1,7.117545707966201,,,,Land,,,,
choice,fixation,158.41961320803966,159.4253430829849,51,7,,,,,,,,,Solid,,,,
choice,option,159.43559041700792,160.46384550002404,51,7,,,,,,,,,Solid,,,,
choice,choice,160.46395795803983,172.00559399998747,51,7,,,1,0,10.529879999929108,,,,Solid,,,,
choice,fixation,172.00571816705633,172.76525625004433,52,7,,,,,,,,,Large,,,,
choice,option,172.77381612500176,173.8001887500286,52,7,,,,,,,,,Large,,,,
choice,choice,173.80029116699006,185.32472454197705,52,7,,,2,1,10.513634916977026,,,,Large,,,,
choice,fixation,185.32484716700856,186.57985204202123,53,7,,,,,,,,,Sea,,,,
choice,option,186.58812483295333,187.61417791701388,53,7,,,,,,,,,Sea,,,,
choice,choice,187.61429654201493,197.58038104197476,53,7,,,1,0,8.95531187497545,,,,Sea,,,,
choice,fixation,197.58051604195498,198.585901958053,54,7,,,,,,,,,Pattern,,,,
choice,option,198.59499445802066,199.62135887495242,54,7,,,,,,,,,Pattern,,,,
choice,choice,199.62147741694935,204.26459966704715,54,7,,,2,1,3.6285754999844357,,,,Pattern,,,,
choice,fixation,204.26471916702576,204.76970566704404,55,7,,,,,,,,,Object,,,,
choice,option,204.77913999999873,205.80519937502686,55,7,,,,,,,,,Object,,,,
choice,choice,205.80529466702137,224.23981037503108,55,7,,,2,1,17.422590582980774,,,,Object,,,,
choice,fixation,224.23993050004356,225.2456183329923,56,7,,,,,,,,,Small,,,,
choice,option,225.2546139579499,226.28040870802943,56,7,,,,,,,,,Small,,,,
choice,choice,226.28051800001413,233.4858157079434,56,7,,,2,1,6.19561662490014,,,,Small,,,,
memory,free_recall,244.54239741701167,266.6240058330586,36,7,,,,,,,,,,,,,
memory,value_recall,271.483132375055,274.03864358295687,37,7,Object_Land_Pattern_Small,,,,2.551261624903418,,,,,1,,,
memory,value_recall,275.5843516669702,277.31794083304703,38,7,Animal_Land_Pattern_Large,,,,1.7294784160330892,,,,,-4,,,
memory,value_recall,279.36419583298266,283.1840361249633,39,7,Object_Sea_Solid_Small,,,,3.8157604170264676,,,,,-5,,,
memory,value_recall,284.9796533329645,287.84855633298866,40,7,Animal_Sea_Pattern_Small,,,,2.8647766249487177,,,,,2,,,
memory,value_recall,289.6477131249849,292.1904069579905,41,7,Object_Land_Solid_Large,,,,2.5385760000208393,,,,,2,,,
memory,value_recall,293.73556854203343,295.7629831250524,42,7,Animal_Sea_Solid_Large,,,,2.0233208750141785,,,,,1,,,
memory,spatial_recall,298.34637287503574,300.6354350829497,42,7,Object_Land_Solid_Large,,,1,2.2843579170294106,,,,,,"[0, -380]","[0, -380]",
memory,spatial_recall,302.2047804170288,303.7012127919588,42,7,Animal_Sea_Solid_Large,,,1,1.4915810420643538,,,,,,"[0, 380]","[0, 380]",
memory,spatial_recall,304.7632181249792,306.33565899997484,42,7,Animal_Sea_Pattern_Small,,,1,1.570036792079918,,,,,,"[-329, -190]","[-329, -190]",
memory,spatial_recall,307.65174654196016,309.6476657500025,42,7,Object_Land_Pattern_Small,,,1,1.9919067919254303,,,,,,"[329, 189]","[329, 189]",
memory,spatial_recall,311.70144016703125,316.23123312497046,42,7,Object_Sea_Solid_Small,,,1,4.525849292054772,,,,,,"[329, -190]","[329, -190]",
memory,spatial_recall,318.0383253330365,319.6780669579748,42,7,Animal_Land_Pattern_Large,,,1,1.6354060409357771,,,,,,"[-329, 190]","[-329, 190]",
