subject,phase,event,trial_number,game,option,choice,rt,roi_content,item_index,is_relevant,fix_start,fix_end,fix_duration_bounded
104,choice,choice,5,1.0,Object,1.0,2.618371875025332,Animal_Land_Solid_Large,0,0,10027763.0,10027894.0,131.0
104,choice,choice,9,2.0,Animal,2.0,11.362428708001971,Object_Sea_Pattern_Small,0,0,10462010.0,10462123.0,113.0
104,choice,choice,9,2.0,Animal,2.0,11.362428708001971,Animal_Land_Pattern_Small,1,1,10462316.0,10463498.0,1182.0
104,choice,choice,9,2.0,Animal,2.0,11.362428708001971,Object_Land_Pattern_Large,2,0,10465976.0,10466325.0,349.0
104,choice,choice,10,2.0,Land,1.0,3.351680124993436,Object_Land_Pattern_Large,2,1,10472617.0,10472808.0,191.0
104,choice,choice,10,2.0,Land,1.0,3.351680124993436,Animal_Land_Pattern_Small,1,1,10474655.0,10475057.0,402.0
104,choice,choice,12,2.0,Solid,2.0,7.782831375021488,Animal_Land_Pattern_Small,1,0,10483499.0,10484589.0,1090.0
104,choice,choice,12,2.0,Solid,2.0,7.782831375021488,Animal_Land_Solid_Large,3,1,10484604.0,10484744.0,140.0
104,choice,choice,12,2.0,Solid,2.0,7.782831375021488,Animal_Land_Pattern_Small,1,0,10484761.0,10484964.0,203.0
104,choice,choice,12,2.0,Solid,2.0,7.782831375021488,Object_Land_Pattern_Large,2,0,10485256.0,10485377.0,121.0
104,choice,choice,12,2.0,Solid,2.0,7.782831375021488,Animal_Land_Pattern_Small,1,0,10485386.0,10486179.0,793.0
104,choice,choice,12,2.0,Solid,2.0,7.782831375021488,Object_Sea_Pattern_Small,0,0,10486201.0,10486355.0,154.0
104,choice,choice,12,2.0,Solid,2.0,7.782831375021488,Animal_Land_Pattern_Small,1,0,10486586.0,10488452.0,1866.0
104,choice,choice,12,2.0,Solid,2.0,7.782831375021488,Object_Land_Pattern_Large,2,0,10488931.0,10489053.0,122.0
104,choice,choice,12,2.0,Solid,2.0,7.782831375021488,Animal_Land_Pattern_Small,1,0,10489075.0,10490251.0,1176.0
104,choice,choice,13,2.0,Small,1.0,4.0416492079384625,Animal_Land_Pattern_Small,1,1,10494414.0,10497493.0,3079.0
104,choice,choice,14,2.0,Object,1.0,1.187969999969937,Animal_Land_Pattern_Small,1,0,10501181.0,10501612.0,431.0
104,choice,choice,15,2.0,Large,1.0,1.6605947919888422,Animal_Land_Pattern_Small,1,0,10505434.0,10506202.0,768.0
104,choice,choice,15,2.0,Large,1.0,1.6605947919888422,Animal_Land_Solid_Large,3,1,10506244.0,10506336.0,92.0
104,choice,choice,16,2.0,Pattern,1.0,3.759918999974616,Animal_Land_Pattern_Small,1,1,10510774.0,10513228.0,2454.0
104,choice,choice,17,3.0,Object,1.0,3.7604143749922514,Object_Land_Solid_Small,0,1,10874197.0,10874355.0,158.0
104,choice,choice,20,3.0,Sea,2.0,4.086700291954912,Animal_Land_Solid_Small,1,0,10888632.0,10888758.0,126.0
104,choice,choice,20,3.0,Sea,2.0,4.086700291954912,Animal_Sea_Solid_Large,2,1,10890961.0,10891119.0,158.0
104,choice,choice,21,3.0,Large,2.0,5.473612417001277,Object_Land_Pattern_Small,3,0,10896778.0,10896902.0,124.0
104,choice,choice,21,3.0,Large,2.0,5.473612417001277,Animal_Land_Solid_Small,1,0,10897541.0,10897710.0,169.0
104,choice,choice,21,3.0,Large,2.0,5.473612417001277,Animal_Sea_Pattern_Large,4,1,10898563.0,10898716.0,153.0
104,choice,choice,21,3.0,Large,2.0,5.473612417001277,Object_Land_Pattern_Small,3,0,10898728.0,10898932.0,204.0
104,choice,choice,21,3.0,Large,2.0,5.473612417001277,Object_Land_Solid_Small,0,0,10899631.0,10899884.0,253.0
104,choice,choice,22,3.0,Solid,1.0,1.2939922499936074,Object_Land_Solid_Small,0,1,10903372.0,10903609.0,237.0
104,choice,choice,25,4.0,Small,1.0,1.3051365420687944,Object_Sea_Pattern_Small,0,1,11233574.0,11233725.0,151.0
104,choice,choice,28,4.0,Land,1.0,4.811406249995343,Object_Sea_Pattern_Small,0,0,11245500.0,11245621.0,121.0
104,choice,choice,28,4.0,Land,1.0,4.811406249995343,Animal_Land_Pattern_Large,1,1,11246401.0,11246573.0,172.0
104,choice,choice,28,4.0,Land,1.0,4.811406249995343,Animal_Sea_Pattern_Small,2,0,11246918.0,11247314.0,396.0
104,choice,choice,33,5.0,Pattern,1.0,1.0543427090160549,Object_Sea_Pattern_Small,0,1,11597191.0,11597214.0,23.0
104,choice,choice,34,5.0,Animal,1.0,9.378299625008369,Animal_Land_Solid_Large,1,1,11601705.0,11601948.0,243.0
104,choice,choice,34,5.0,Animal,1.0,9.378299625008369,Animal_Land_Pattern_Small,2,1,11604694.0,11605244.0,550.0
104,choice,choice,35,5.0,Large,2.0,0.7599747499916703,Object_Land_Pattern_Large,3,1,11612276.0,11612357.0,81.0
104,choice,choice,37,5.0,Small,2.0,1.0646406250307336,Object_Sea_Pattern_Small,0,1,11620603.0,11620737.0,134.0
104,choice,choice,37,5.0,Small,2.0,1.0646406250307336,Animal_Sea_Solid_Small,4,1,11620774.0,11620964.0,190.0
104,choice,choice,38,5.0,Land,2.0,3.4867622080491856,Object_Land_Pattern_Large,3,1,11623973.0,11624128.0,155.0
104,choice,choice,38,5.0,Land,2.0,3.4867622080491856,Animal_Land_Solid_Large,1,1,11625257.0,11625366.0,109.0
104,choice,choice,39,5.0,Solid,1.0,2.8579910829430446,Object_Sea_Pattern_Small,0,0,11633212.0,11633338.0,126.0
104,choice,choice,41,6.0,Solid,2.0,2.7241994170472026,Animal_Sea_Pattern_Large,0,0,11977041.0,11977157.0,116.0
104,choice,choice,41,6.0,Solid,2.0,2.7241994170472026,Animal_Land_Solid_Small,1,1,11978934.0,11979010.0,76.0
104,choice,choice,42,6.0,Small,1.0,6.599914000020362,Animal_Land_Solid_Small,1,1,11984419.0,11984711.0,292.0
104,choice,choice,42,6.0,Small,1.0,6.599914000020362,Object_Land_Pattern_Small,2,1,11986245.0,11986450.0,205.0
104,choice,choice,42,6.0,Small,1.0,6.599914000020362,Animal_Sea_Pattern_Large,0,0,11987567.0,11987742.0,175.0
104,choice,choice,43,6.0,Object,1.0,3.878611791995354,Object_Sea_Pattern_Large,3,1,11994172.0,11994728.0,556.0
104,choice,choice,43,6.0,Object,1.0,3.878611791995354,Object_Land_Solid_Small,4,1,11995038.0,11995240.0,202.0
104,choice,choice,43,6.0,Object,1.0,3.878611791995354,Animal_Land_Solid_Small,1,0,11996325.0,11996472.0,147.0
104,choice,choice,44,6.0,Sea,1.0,4.069019917049445,Animal_Land_Solid_Small,1,0,12001191.0,12001436.0,245.0
104,choice,choice,48,6.0,Land,2.0,11.465849000029266,Animal_Sea_Solid_Large,5,0,12021786.0,12021883.0,97.0
104,choice,choice,48,6.0,Land,2.0,11.465849000029266,Object_Land_Pattern_Small,2,1,12025337.0,12025475.0,138.0
104,choice,choice,48,6.0,Land,2.0,11.465849000029266,Animal_Sea_Solid_Large,5,0,12027857.0,12028031.0,174.0
104,choice,choice,48,6.0,Land,2.0,11.465849000029266,Object_Land_Solid_Small,4,1,12028604.0,12028983.0,379.0
104,choice,choice,48,6.0,Land,2.0,11.465849000029266,Animal_Sea_Solid_Large,5,0,12030155.0,12030484.0,329.0
104,choice,choice,49,7.0,Object,1.0,9.729151666979304,Animal_Land_Solid_Small,0,0,12419914.0,12420899.0,985.0
104,choice,choice,49,7.0,Object,1.0,9.729151666979304,Animal_Sea_Solid_Small,1,0,12423966.0,12424100.0,134.0
104,choice,choice,50,7.0,Small,1.0,2.8362104169791564,Animal_Land_Solid_Small,0,1,12429425.0,12429615.0,190.0
104,choice,choice,50,7.0,Small,1.0,2.8362104169791564,Object_Land_Pattern_Small,2,1,12431523.0,12431794.0,271.0
104,choice,choice,51,7.0,Large,1.0,1.511956917005591,Object_Sea_Solid_Large,3,1,12435029.0,12435511.0,482.0
104,choice,choice,52,7.0,Sea,1.0,11.2331016670214,Animal_Sea_Solid_Small,1,1,12439928.0,12440230.0,302.0
104,choice,choice,52,7.0,Sea,1.0,11.2331016670214,Animal_Land_Solid_Small,0,0,12442674.0,12443598.0,924.0
104,choice,choice,52,7.0,Sea,1.0,11.2331016670214,Animal_Sea_Solid_Small,1,1,12444079.0,12444229.0,150.0
104,choice,choice,52,7.0,Sea,1.0,11.2331016670214,Animal_Land_Solid_Small,0,0,12444434.0,12445027.0,593.0
104,choice,choice,52,7.0,Sea,1.0,11.2331016670214,Object_Land_Pattern_Small,2,0,12447126.0,12447269.0,143.0
104,choice,choice,52,7.0,Sea,1.0,11.2331016670214,Object_Sea_Solid_Large,3,1,12449165.0,12449379.0,214.0
104,choice,choice,53,7.0,Solid,1.0,6.256807332974859,Animal_Land_Solid_Small,0,1,12454278.0,12454407.0,129.0
104,choice,choice,53,7.0,Solid,1.0,6.256807332974859,Animal_Sea_Solid_Small,1,1,12454880.0,12455634.0,754.0
104,choice,choice,53,7.0,Solid,1.0,6.256807332974859,Animal_Land_Solid_Small,0,1,12457488.0,12457822.0,334.0
104,choice,choice,53,7.0,Solid,1.0,6.256807332974859,Object_Sea_Solid_Large,3,1,12459021.0,12459235.0,214.0
104,choice,choice,54,7.0,Animal,1.0,6.391611875034869,Object_Sea_Solid_Large,3,0,12462645.0,12462758.0,113.0
104,choice,choice,54,7.0,Animal,1.0,6.391611875034869,Animal_Sea_Solid_Small,1,1,12463336.0,12463531.0,195.0
104,choice,choice,54,7.0,Animal,1.0,6.391611875034869,Object_Land_Pattern_Small,2,0,12467708.0,12467845.0,137.0
104,choice,choice,55,7.0,Pattern,1.0,5.509306167019531,Animal_Land_Solid_Small,0,0,12472980.0,12473103.0,123.0
104,choice,choice,55,7.0,Pattern,1.0,5.509306167019531,Object_Land_Pattern_Large,4,1,12475722.0,12475911.0,189.0
104,choice,choice,56,7.0,Land,1.0,9.435082374955527,Object_Land_Pattern_Small,2,1,12481539.0,12481661.0,122.0
104,choice,choice,56,7.0,Land,1.0,9.435082374955527,Animal_Land_Solid_Small,0,1,12482147.0,12482256.0,109.0
104,choice,choice,56,7.0,Land,1.0,9.435082374955527,Object_Land_Pattern_Small,2,1,12482730.0,12482861.0,131.0
104,choice,choice,56,7.0,Land,1.0,9.435082374955527,Animal_Land_Solid_Small,0,1,12484845.0,12485421.0,576.0
104,choice,choice,56,7.0,Land,1.0,9.435082374955527,Animal_Sea_Solid_Small,1,0,12486581.0,12487913.0,1332.0
104,choice,choice,56,7.0,Land,1.0,9.435082374955527,Object_Sea_Solid_Large,3,0,12488194.0,12488441.0,247.0
