phase,event,onset,offset,trial_number,game,image,outcome,choice,correct,rt,letter,match,response,option,true_value,true_position,recalled_position,
encoding,fixation,14.024266374995932,14.542840749956667,1,1,Animal_Land_Solid_Large,2,,,,,,,,,,,
encoding,image,14.54295120795723,15.565867458004504,1,1,Animal_Land_Solid_Large,2,,,,,,,,,,,
encoding,value,15.566002540988848,21.582329832948744,1,1,Animal_Land_Solid_Large,2,,,,,,,,,,,
encoding,attention,21.582443375024013,24.600202874979004,1,1,Animal_Land_Solid_Large,2,+2,1,1.157935333903879,,,,,,,,
encoding,fixation,24.60038695798721,25.105716499965638,2,1,Object_Sea_Solid_Small,7,,,,,,,,,,,
encoding,image,25.105884540942498,26.116870249970816,2,1,Object_Sea_Solid_Small,7,,,,,,,,,,,
encoding,value,26.116990457987413,32.12763787491713,2,1,Object_Sea_Solid_Small,7,,,,,,,,,,,
encoding,attention,32.12774945795536,35.14473616599571,2,1,Object_Sea_Solid_Small,7,+7,1,0.7491505409125239,,,,,,,,
encoding,fixation,35.14488866599277,36.15030070801731,3,1,Animal_Sea_Pattern_Small,-9,,,,,,,,,,,
encoding,image,36.15044612495694,37.161742290947586,3,1,Animal_Sea_Pattern_Small,-9,,,,,,,,,,,
encoding,value,37.16185554093681,43.17478779098019,3,1,Animal_Sea_Pattern_Small,-9,,,,,,,,,,,
encoding,attention,43.17492220795248,46.1925349580124,3,1,Animal_Sea_Pattern_Small,-9,-9,1,0.893123707966879,,,,,,,,
encoding,fixation,46.19270479097031,46.951006624964066,4,1,Object_Land_Solid_Large,-2,,,,,,,,,,,
encoding,image,46.951114833005704,47.96085999999195,4,1,Object_Land_Solid_Large,-2,,,,,,,,,,,
encoding,value,47.9609794159187,53.97157412499655,4,1,Object_Land_Solid_Large,-2,,,,,,,,,,,
encoding,attention,53.97168987500481,56.98717666591983,4,1,Object_Land_Solid_Large,-2,+4,0,0.7326288340846077,,,,,,,,
encoding,fixation,56.98732758301776,57.74279254092835,5,1,Object_Sea_Pattern_Small,-4,,,,,,,,,,,
encoding,image,57.74289824999869,58.753400875022635,5,1,Object_Sea_Pattern_Small,-4,,,,,,,,,,,
encoding,value,58.75350795791019,64.76417341595516,5,1,Object_Sea_Pattern_Small,-4,,,,,,,,,,,
encoding,attention,64.76429870794527,67.81602595793083,5,1,Object_Sea_Pattern_Small,-4,-4,1,0.893858625087887,,,,,,,,
encoding,fixation,67.81617387500592,68.57125641591847,6,1,Animal_Land_Pattern_Large,1,,,,,,,,,,,
encoding,image,68.57137399993371,69.58182379091159,6,1,Animal_Land_Pattern_Large,1,,,,,,,,,,,
encoding,value,69.58196933299769,75.59329087496735,6,1,Animal_Land_Pattern_Large,1,,,,,,,,,,,
encoding,attention,75.59341616590973,78.61012650001794,6,1,Animal_Land_Pattern_Large,1,+1,1,0.7704892500769347,,,,,,,,
n-back,,,,1,1,,,,1,None,B,False,None,,,,,
n-back,,,,2,1,,,,1,None,N,False,None,,,,,
n-back,,,,3,1,,,,1,None,C,False,None,,,,,
n-back,,,,4,1,,,,1,None,V,False,None,,,,,
n-back,,,,5,1,,,,1,0.7209036659915,C,True,1,,,,,
n-back,,,,6,1,,,,1,None,B,False,None,,,,,
n-back,,,,7,1,,,,1,None,N,False,None,,,,,
n-back,,,,8,1,,,,1,0.8477112079272047,B,True,1,,,,,
n-back,,,,9,1,,,,1,None,C,False,None,,,,,
n-back,,,,10,1,,,,1,None,X,False,None,,,,,
n-back,,,,11,1,,,,1,0.36270116607192904,C,True,1,,,,,
n-back,,,,12,1,,,,1,None,B,False,None,,,,,
n-back,,,,13,1,,,,1,None,N,False,None,,,,,
n-back,,,,14,1,,,,1,None,Z,False,None,,,,,
n-back,,,,15,1,,,,1,None,Z,False,None,,,,,
n-back,,,,16,1,,,,1,None,V,False,None,,,,,
n-back,,,,17,1,,,,1,1.053375665913336,Z,True,1,,,,,
n-back,,,,18,1,,,,1,None,Z,False,None,,,,,
n-back,,,,19,1,,,,0,0.8340417080326006,V,False,1,,,,,
n-back,,,,20,1,,,,1,None,V,False,None,,,,,
n-back,,,,21,1,,,,1,1.2033175000688061,V,True,1,,,,,
n-back,,,,22,1,,,,0,None,V,True,None,,,,,
n-back,,,,23,1,,,,1,0.43322362506296486,V,True,1,,,,,
n-back,,,,24,1,,,,0,None,V,True,None,,,,,
n-back,,,,25,1,,,,1,None,Z,False,None,,,,,
n-back,,,,26,1,,,,1,0.5154382920591161,V,True,1,,,,,
n-back,,,,27,1,,,,1,None,C,False,None,,,,,
n-back,,,,28,1,,,,0,None,V,True,None,,,,,
n-back,,,,29,1,,,,1,None,N,False,None,,,,,
n-back,,,,30,1,,,,1,None,N,False,None,,,,,
choice,fixation,167.687514332938,168.19417324999813,1,1,,,,,,,,,Land,,,,
choice,option,168.2036909579765,169.45292220800184,1,1,,,,,,,,,Land,,,,
choice,choice,169.45304287492763,173.14057254092768,1,1,,,2,0,2.6777360419509932,,,,Land,,,,
choice,fixation,173.1407007909147,173.89570566592738,2,1,,,,,,,,,Large,,,,
choice,option,173.9045914579183,174.93193445797078,2,1,,,,,,,,,Large,,,,
choice,choice,174.932041166001,177.07642708299682,2,1,,,1,1,1.1347983329324052,,,,Large,,,,
choice,fixation,177.07657141599339,178.33385870791972,3,1,,,,,,,,,Pattern,,,,
choice,option,178.3433468330186,179.37066470796708,3,1,,,,,,,,,Pattern,,,,
choice,choice,179.37077129096724,182.1176970829256,3,1,,,2,1,1.7368539579911157,,,,Pattern,,,,
choice,fixation,182.117815415957,183.37277466594242,4,1,,,,,,,,,Sea,,,,
choice,option,183.3814430409111,184.40893974993378,4,1,,,,,,,,,Sea,,,,
choice,choice,184.40905945794657,186.34817620797548,4,1,,,1,0,0.9296067919349298,,,,Sea,,,,
choice,fixation,186.34829270793125,187.85327008296736,5,1,,,,,,,,,Object,,,,
choice,option,187.86294279096182,188.88959325000178,5,1,,,,,,,,,Object,,,,
choice,choice,188.8897168749245,192.51784412492998,5,1,,,1,1,2.618371875025332,,,,Object,,,,
choice,fixation,192.51798866596073,193.2733417910058,6,1,,,,,,,,,Solid,,,,
choice,option,193.28256095794495,194.3093792910222,6,1,,,,,,,,,Solid,,,,
choice,choice,194.3095440409379,197.60440937499516,6,1,,,1,1,2.285553125082515,,,,Solid,,,,
choice,fixation,197.60453229094855,199.10968829097692,7,1,,,,,,,,,Small,,,,
choice,option,199.1185312080197,200.1450788329821,7,1,,,,,,,,,Small,,,,
choice,choice,200.1452197500039,201.93250074994285,7,1,,,1,0,0.7779633329482749,,,,Small,,,,
choice,fixation,201.93263579101767,203.43763433292042,8,1,,,,,,,,,Animal,,,,
choice,option,203.44730179093312,204.47464704094455,8,1,,,,,,,,,Animal,,,,
choice,choice,204.4747869579587,206.73335754091386,8,1,,,2,1,1.2480977090308443,,,,Animal,,,,
memory,free_recall,254.17562954092864,278.3526254579192,0,1,,,,,,,,,,,,,
memory,value_recall,320.8999379579909,327.2565062500071,1,1,Animal_Land_Pattern_Large,,,,6.353296958957799,,,,,1,,,
memory,value_recall,329.30175745801535,332.4672252499731,2,1,Object_Land_Solid_Large,,,,3.161066332948394,,,,,-2,,,
memory,value_recall,333.5124812909635,335.7148334579542,3,1,Animal_Sea_Pattern_Small,,,,2.199138917028904,,,,,-9,,,
memory,value_recall,337.26198224991094,342.3674359580036,4,1,Object_Sea_Pattern_Small,,,,5.101417416939512,,,,,-4,,,
memory,value_recall,343.66289620799944,344.88839024992194,5,1,Animal_Land_Solid_Large,,,,1.2213939579669386,,,,,2,,,
memory,value_recall,346.1791707079392,347.5266446250025,6,1,Object_Sea_Solid_Small,,,,1.3431107080541551,,,,,7,,,
memory,spatial_recall,370.9872510409914,379.77196216594893,6,1,Object_Sea_Pattern_Small,,,1,8.78058479190804,,,,,,"[-329, -190]","[-329, -190]",
memory,spatial_recall,381.5882750409655,385.0691073749913,6,1,Animal_Land_Solid_Large,,,1,3.4763383340323344,,,,,,"[-329, 190]","[-329, 190]",
memory,spatial_recall,387.12720649992116,390.8670487080235,6,1,Animal_Sea_Pattern_Small,,,1,3.7352624170016497,,,,,,"[329, -190]","[329, -190]",
memory,spatial_recall,392.67349720792845,399.9406621250091,6,1,Animal_Land_Pattern_Large,,,1,7.263122499920428,,,,,,"[0, -380]","[0, -380]",
memory,spatial_recall,401.75147874990944,405.1864982909756,6,1,Object_Land_Solid_Large,,,1,3.431097041000612,,,,,,"[329, 189]","[329, 189]",
memory,spatial_recall,406.2390029579401,410.26997199992184,6,1,Object_Sea_Solid_Small,,,1,4.026834374992177,,,,,,"[0, 380]","[0, 380]",
encoding,fixation,10.173669624957256,11.429551165900193,7,2,Object_Land_Pattern_Large,7,,,,,,,,,,,
encoding,image,11.429687249939889,12.442082291003317,7,2,Object_Land_Pattern_Large,7,,,,,,,,,,,
encoding,value,12.442192832939327,18.455692040966824,7,2,Object_Land_Pattern_Large,7,,,,,,,,,,,
encoding,attention,18.455807874910533,21.474770791013725,7,2,Object_Land_Pattern_Large,7,+7,1,0.5593787910183892,,,,,,,,
encoding,fixation,21.47492162499111,22.23005587491207,8,2,Object_Sea_Solid_Large,6,,,,,,,,,,,
encoding,image,22.230177833000198,23.241919916006736,8,2,Object_Sea_Solid_Large,6,,,,,,,,,,,
encoding,value,23.242023707949556,29.254866041010246,8,2,Object_Sea_Solid_Large,6,,,,,,,,,,,
encoding,attention,29.25498508301098,32.27278637490235,8,2,Object_Sea_Solid_Large,6,+6,1,1.1383413340663537,,,,,,,,
encoding,fixation,32.273024082998745,33.77826724993065,9,2,Object_Sea_Pattern_Small,-9,,,,,,,,,,,
encoding,image,33.778385040932335,34.78903791599441,9,2,Object_Sea_Pattern_Small,-9,,,,,,,,,,,
encoding,value,34.78914749994874,40.80380808294285,9,2,Object_Sea_Pattern_Small,-9,,,,,,,,,,,
encoding,attention,40.803920915932395,43.82076304091606,9,2,Object_Sea_Pattern_Small,-9,-9,1,0.6524131250334904,,,,,,,,
encoding,fixation,43.820915457908995,45.07635995792225,10,2,Animal_Sea_Solid_Small,2,,,,,,,,,,,
encoding,image,45.07647787500173,46.08748824999202,10,2,Animal_Sea_Solid_Small,2,,,,,,,,,,,
encoding,value,46.08762199990451,52.09944745793473,10,2,Animal_Sea_Solid_Small,2,,,,,,,,,,,
encoding,attention,52.09959712496493,55.11645591596607,10,2,Animal_Sea_Solid_Small,2,+2,1,0.7565511659486219,,,,,,,,
encoding,fixation,55.11662120791152,56.121907499968074,11,2,Animal_Land_Solid_Large,-9,,,,,,,,,,,
encoding,image,56.122005540993996,57.133461624966,11,2,Animal_Land_Solid_Large,-9,,,,,,,,,,,
encoding,value,57.133571165963076,63.145972625003196,11,2,Animal_Land_Solid_Large,-9,,,,,,,,,,,
encoding,attention,63.1460982079152,66.16318420798052,11,2,Animal_Land_Solid_Large,-9,-9,1,0.6874839579686522,,,,,,,,
encoding,fixation,66.16338437492959,66.91890154092107,12,2,Animal_Land_Pattern_Small,9,,,,,,,,,,,
encoding,image,66.91900316590909,67.92986133298837,12,2,Animal_Land_Pattern_Small,9,,,,,,,,,,,
encoding,value,67.92998379096389,73.9413937079953,12,2,Animal_Land_Pattern_Small,9,,,,,,,,,,,
encoding,attention,73.94150620792061,76.95817608293146,12,2,Animal_Land_Pattern_Small,9,+9,1,0.7560299170436338,,,,,,,,
n-back,,,,31,2,,,,1,None,B,False,None,,,,,
n-back,,,,32,2,,,,0,None,X,True,None,,,,,
n-back,,,,33,2,,,,1,0.39491837506648153,B,True,1,,,,,
n-back,,,,34,2,,,,1,None,B,False,None,,,,,
n-back,,,,35,2,,,,0,0.5316562919178978,X,False,1,,,,,
n-back,,,,36,2,,,,0,None,B,True,None,,,,,
n-back,,,,37,2,,,,1,None,C,False,None,,,,,
n-back,,,,38,2,,,,1,None,Z,False,None,,,,,
n-back,,,,39,2,,,,1,0.5676513329381123,C,True,1,,,,,
n-back,,,,40,2,,,,1,0.8849453749135137,Z,True,1,,,,,
n-back,,,,41,2,,,,1,None,Z,False,None,,,,,
n-back,,,,42,2,,,,1,None,X,False,None,,,,,
n-back,,,,43,2,,,,1,0.6162079999921843,Z,True,1,,,,,
n-back,,,,44,2,,,,1,None,C,False,None,,,,,
n-back,,,,45,2,,,,1,None,N,False,None,,,,,
n-back,,,,46,2,,,,1,None,N,False,None,,,,,
n-back,,,,47,2,,,,1,0.5004747919738293,N,True,1,,,,,
n-back,,,,48,2,,,,1,None,V,False,None,,,,,
n-back,,,,49,2,,,,1,None,V,False,None,,,,,
n-back,,,,50,2,,,,1,None,B,False,None,,,,,
n-back,,,,51,2,,,,1,0.8761077499948442,V,True,1,,,,,
n-back,,,,52,2,,,,1,None,C,False,None,,,,,
n-back,,,,53,2,,,,1,None,X,False,None,,,,,
n-back,,,,54,2,,,,1,None,Z,False,None,,,,,
n-back,,,,55,2,,,,1,None,Z,False,None,,,,,
n-back,,,,56,2,,,,0,1.1178046250715852,N,False,1,,,,,
n-back,,,,57,2,,,,0,None,Z,True,None,,,,,
n-back,,,,58,2,,,,0,None,N,True,None,,,,,
n-back,,,,59,2,,,,1,None,X,False,None,,,,,
n-back,,,,60,2,,,,1,None,C,False,None,,,,,
choice,fixation,160.95374674990308,161.70705929095857,9,2,,,,,,,,,Animal,,,,
choice,option,161.71617316594347,162.74216024996713,9,2,,,,,,,,,Animal,,,,
choice,choice,162.7423449580092,175.1154095409438,9,2,,,2,0,11.362428708001971,,,,Animal,,,,
choice,fixation,175.11555041593965,175.6205814999994,10,2,,,,,,,,,Land,,,,
choice,option,175.62952208297793,176.65673358296044,10,2,,,,,,,,,Land,,,,
choice,choice,176.65685212495737,181.01806720800232,10,2,,,1,1,3.351680124993436,,,,Land,,,,
choice,fixation,181.01818854094017,182.27327908296138,11,2,,,,,,,,,Sea,,,,
choice,option,182.28196549997665,183.30931987497024,11,2,,,,,,,,,Sea,,,,
choice,choice,183.3094424159499,185.16339504090138,11,2,,,1,0,0.8441960000200197,,,,Sea,,,,
choice,fixation,185.16354083293118,186.42106379091274,12,2,,,,,,,,,Solid,,,,
choice,option,186.43046387494542,187.45667024992872,12,2,,,,,,,,,Solid,,,,
choice,choice,187.45676954090595,196.24967516597826,12,2,,,2,1,7.7828313750214875,,,,Solid,,,,
choice,fixation,196.24979774991516,197.50475570792332,13,2,,,,,,,,,Small,,,,
choice,option,197.51329329097643,198.53950091591105,13,2,,,,,,,,,Small,,,,
choice,choice,198.53962199995294,203.59074574999977,13,2,,,1,1,4.0416492079384625,,,,Small,,,,
choice,fixation,203.59088054101449,204.0958144159522,14,2,,,,,,,,,Object,,,,
choice,option,204.10521891596727,205.13162520795595,14,2,,,,,,,,,Object,,,,
choice,choice,205.13175091601443,207.33010095800273,14,2,,,1,1,1.187969999969937,,,,Object,,,,
choice,fixation,207.33023862494156,208.3368260000134,15,2,,,,,,,,,Large,,,,
choice,option,208.34577979100868,209.37255599990021,15,2,,,,,,,,,Large,,,,
choice,choice,209.37267800001428,212.04277079098392,15,2,,,1,1,1.6605947919888422,,,,Large,,,,
choice,fixation,212.04288837499917,213.5478552909335,16,2,,,,,,,,,Pattern,,,,
choice,option,213.55707170790993,214.58307354093995,16,2,,,,,,,,,Pattern,,,,
choice,choice,214.5832069159951,219.3535280409269,16,2,,,1,1,3.759918999974616,,,,Pattern,,,,
memory,free_recall,248.29137799993623,271.61157495796215,6,2,,,,,,,,,,,,,
memory,value_recall,296.5642601659056,300.637402458,7,2,Object_Sea_Solid_Large,,,,4.069070833036676,,,,,6,,,
memory,value_recall,302.6849536659429,305.26810449990444,8,2,Animal_Land_Pattern_Small,,,,2.5790614580037072,,,,,9,,,
memory,value_recall,306.81429587490857,312.3177925409982,9,2,Animal_Sea_Solid_Small,,,,5.499461999977939,,,,,2,,,
memory,value_recall,314.3631709580077,316.9726497499505,10,2,Object_Sea_Pattern_Small,,,,2.602992209023796,,,,,-9,,,
memory,value_recall,318.520791582996,319.6839556659106,11,2,Object_Land_Pattern_Large,,,,1.1589113749796525,,,,,7,,,
memory,value_recall,321.7293833749136,327.38921983295586,12,2,Animal_Land_Solid_Large,,,,5.652698084013537,,,,,-9,,,
memory,spatial_recall,337.8505419999128,342.143598790979,12,2,Animal_Sea_Solid_Small,,,1,4.289037249982357,,,,,,"[0, -380]","[0, -380]",
memory,spatial_recall,344.2094632079825,346.72327966592275,12,2,Object_Sea_Solid_Large,,,1,2.509792249999009,,,,,,"[329, -190]","[329, -190]",
memory,spatial_recall,348.78254762501456,350.4863435829757,12,2,Animal_Land_Solid_Large,,,1,1.6998851669486612,,,,,,"[-329, 190]","[-329, 190]",
memory,spatial_recall,352.2917389579816,353.3732261249097,12,2,Object_Sea_Pattern_Small,,,1,1.0774974169908091,,,,,,"[-329, -190]","[-329, -190]",
memory,spatial_recall,355.43001824989915,356.47260566591285,12,2,Animal_Land_Pattern_Small,,,1,1.035820292076096,,,,,,"[0, 380]","[0, 380]",
memory,spatial_recall,358.5314236659324,360.269760999945,12,2,Object_Land_Pattern_Large,,,1,1.7331831669434905,,,,,,"[329, 189]","[329, 189]",
encoding,fixation,8.47322099993471,9.228971082950011,13,3,Animal_Land_Solid_Small,-2,,,,,,,,,,,
encoding,image,9.229175957967527,10.241137249977328,13,3,Animal_Land_Solid_Small,-2,,,,,,,,,,,
encoding,value,10.241249374928884,16.254054374992847,13,3,Animal_Land_Solid_Small,-2,,,,,,,,,,,
encoding,attention,16.254193540895358,19.27230729092844,13,3,Animal_Land_Solid_Small,-2,-2,1,0.6043627080507576,,,,,,,,
encoding,fixation,19.27247633296065,20.027775874943472,14,3,Object_Land_Pattern_Small,-7,,,,,,,,,,,
encoding,image,20.027872999897227,21.040170624968596,14,3,Object_Land_Pattern_Small,-7,,,,,,,,,,,
encoding,value,21.040283957961947,27.052420207997784,14,3,Object_Land_Pattern_Small,-7,,,,,,,,,,,
encoding,attention,27.05253120791167,30.070117999915965,14,3,Object_Land_Pattern_Small,-7,-7,1,0.760220457916148,,,,,,,,
encoding,fixation,30.07026974996552,30.575491291005164,15,3,Object_Land_Solid_Small,7,,,,,,,,,,,
encoding,image,30.575600332929753,31.586743291001767,15,3,Object_Land_Solid_Small,7,,,,,,,,,,,
encoding,value,31.586869290913455,37.59822624991648,15,3,Object_Land_Solid_Small,7,,,,,,,,,,,
encoding,attention,37.59834695793688,40.61570774996653,15,3,Object_Land_Solid_Small,7,+7,1,0.7466162079945207,,,,,,,,
encoding,fixation,40.61587570793927,41.37129033298697,16,3,Animal_Sea_Solid_Large,-4,,,,,,,,,,,
encoding,image,41.37139424995985,42.382681499933824,16,3,Animal_Sea_Solid_Large,-4,,,,,,,,,,,
encoding,value,42.38288420799654,48.394290874945,16,3,Animal_Sea_Solid_Large,-4,,,,,,,,,,,
encoding,attention,48.39446179091465,51.411226540920325,16,3,Animal_Sea_Solid_Large,-4,-4,1,0.593381250044331,,,,,,,,
encoding,fixation,51.41138270800002,52.66670274990611,17,3,Object_Sea_Pattern_Large,1,,,,,,,,,,,
encoding,image,52.666810915921815,53.67815079097636,17,3,Object_Sea_Pattern_Large,1,,,,,,,,,,,
encoding,value,53.67826808290556,59.6901250409428,17,3,Object_Sea_Pattern_Large,1,,,,,,,,,,,
encoding,attention,59.690270499908365,62.707068290910684,17,3,Object_Sea_Pattern_Large,1,+1,1,0.6416815409902483,,,,,,,,
encoding,fixation,62.707225999911316,63.4625155829126,18,3,Animal_Sea_Pattern_Large,1,,,,,,,,,,,
encoding,image,63.46264145791065,64.47281970793847,18,3,Animal_Sea_Pattern_Large,1,,,,,,,,,,,
encoding,value,64.47292433294933,70.48311570798978,18,3,Animal_Sea_Pattern_Large,1,,,,,,,,,,,
encoding,attention,70.48325933294836,73.50034604093526,18,3,Animal_Sea_Pattern_Large,1,+1,1,0.630783166969195,,,,,,,,
n-back,,,,61,3,,,,1,None,X,False,None,,,,,
n-back,,,,62,3,,,,1,None,B,False,None,,,,,
n-back,,,,63,3,,,,1,0.5305337919853628,X,True,1,,,,,
n-back,,,,64,3,,,,1,None,X,False,None,,,,,
n-back,,,,65,3,,,,0,None,X,True,None,,,,,
n-back,,,,66,3,,,,1,None,C,False,None,,,,,
n-back,,,,67,3,,,,1,None,V,False,None,,,,,
n-back,,,,68,3,,,,1,0.5163145830156282,C,True,1,,,,,
n-back,,,,69,3,,,,1,None,C,False,None,,,,,
n-back,,,,70,3,,,,0,None,C,True,None,,,,,
n-back,,,,71,3,,,,1,None,X,False,None,,,,,
n-back,,,,72,3,,,,1,0.4121421250747517,C,True,1,,,,,
n-back,,,,73,3,,,,0,None,X,True,None,,,,,
n-back,,,,74,3,,,,1,None,X,False,None,,,,,
n-back,,,,75,3,,,,1,None,Z,False,None,,,,,
n-back,,,,76,3,,,,1,None,B,False,None,,,,,
n-back,,,,77,3,,,,1,None,X,False,None,,,,,
n-back,,,,78,3,,,,1,None,X,False,None,,,,,
n-back,,,,79,3,,,,1,None,C,False,None,,,,,
n-back,,,,80,3,,,,1,None,N,False,None,,,,,
n-back,,,,81,3,,,,1,None,Z,False,None,,,,,
n-back,,,,82,3,,,,1,None,V,False,None,,,,,
n-back,,,,83,3,,,,1,None,B,False,None,,,,,
n-back,,,,84,3,,,,1,0.8903769579483196,V,True,1,,,,,
n-back,,,,85,3,,,,0,None,B,True,None,,,,,
n-back,,,,86,3,,,,1,0.4358321250183508,V,True,1,,,,,
n-back,,,,87,3,,,,0,None,B,True,None,,,,,
n-back,,,,88,3,,,,1,None,B,False,None,,,,,
n-back,,,,89,3,,,,1,None,N,False,None,,,,,
n-back,,,,90,3,,,,1,None,C,False,None,,,,,
choice,fixation,154.25096541596577,155.75460824999027,17,3,,,,,,,,,Object,,,,
choice,option,155.76393095799722,156.7924727499485,17,3,,,,,,,,,Object,,,,
choice,choice,156.79258437489625,161.56300129089504,17,3,,,1,1,3.7604143749922514,,,,Object,,,,
choice,fixation,161.56312437495217,162.06805775000248,18,3,,,,,,,,,Pattern,,,,
choice,option,162.0776679579867,163.1059392079478,18,3,,,,,,,,,Pattern,,,,
choice,choice,163.10606004099827,164.97426883294247,18,3,,,2,1,0.8562672919360921,,,,Pattern,,,,
choice,fixation,164.97451162489597,166.2298534999136,19,3,,,,,,,,,Small,,,,
choice,option,166.23900787497405,167.26598387490958,19,3,,,,,,,,,Small,,,,
choice,choice,167.26609004091006,169.73154674994294,19,3,,,1,0,1.4556608750717714,,,,Small,,,,
choice,fixation,169.7316816659877,170.23669466597494,20,3,,,,,,,,,Sea,,,,
choice,option,170.245611332939,171.27527520793956,20,3,,,,,,,,,Sea,,,,
choice,choice,171.27538849995472,176.37187045789324,20,3,,,2,1,4.086700291954912,,,,Sea,,,,
choice,fixation,176.37201579089742,177.87700074992608,21,3,,,,,,,,,Large,,,,
choice,option,177.886057332973,178.91330349992495,21,3,,,,,,,,,Large,,,,
choice,choice,178.91342054097913,185.39653008291498,21,3,,,2,1,5.473612417001277,,,,Large,,,,
choice,fixation,185.39666637498885,186.15188783290796,22,3,,,,,,,,,Solid,,,,
choice,option,186.16153791593388,187.18858512490988,22,3,,,,,,,,,Solid,,,,
choice,choice,187.18869991600513,189.49221745796967,22,3,,,1,1,1.2939922499936074,,,,Solid,,,,
choice,fixation,189.49234649993014,189.99740066600498,23,3,,,,,,,,,Land,,,,
choice,option,190.00567237497307,191.03278083296027,23,3,,,,,,,,,Land,,,,
choice,choice,191.03288820793387,196.85924312495627,23,3,,,1,0,4.816386708058417,,,,Land,,,,
choice,fixation,196.85936287499499,197.61440974997822,24,3,,,,,,,,,Animal,,,,
choice,option,197.62383516598493,198.65118258295115,24,3,,,,,,,,,Animal,,,,
choice,choice,198.6513439998962,202.17812320799567,24,3,,,2,1,2.5170710829552263,,,,Animal,,,,
memory,free_recall,225.4454850408947,247.23797254089732,12,3,,,,,,,,,,,,,
memory,value_recall,269.77209874999244,275.4776961659081,13,3,Animal_Sea_Pattern_Large,,,,5.701531625003554,,,,,1,,,
memory,value_recall,277.5249393329723,280.18087849998847,14,3,Animal_Sea_Solid_Large,,,,2.651891165995039,,,,,-4,,,
memory,value_recall,281.7263204999035,283.8150233749766,15,3,Animal_Land_Solid_Small,,,,2.084917875006795,,,,,-2,,,
memory,value_recall,285.86054566595703,287.3101933329599,16,3,Object_Land_Solid_Small,,,,1.4455669580493122,,,,,7,,,
memory,value_recall,289.3556211659452,291.14317979093175,17,3,Object_Sea_Pattern_Large,,,,1.7834538749884814,,,,,1,,,
memory,value_recall,292.9391053329455,295.4465674998937,18,3,Object_Land_Pattern_Small,,,,2.503364208037965,,,,,-7,,,
memory,spatial_recall,303.84308533289004,306.4766682079062,18,3,Object_Sea_Pattern_Large,,,1,2.629552291939035,,,,,,"[0, -380]","[0, -380]",
memory,spatial_recall,307.7861945409095,309.11378899996635,18,3,Object_Land_Solid_Small,,,1,1.3234290409600362,,,,,,"[329, -190]","[329, -190]",
memory,spatial_recall,310.4196260829922,312.0607157079503,18,3,Animal_Sea_Pattern_Large,,,1,1.6368971250485629,,,,,,"[0, 380]","[0, 380]",
memory,spatial_recall,313.10757416591514,314.3801349999849,18,3,Object_Land_Pattern_Small,,,1,1.2701978750992566,,,,,,"[-329, 190]","[-329, 190]",
memory,spatial_recall,315.690490665962,316.6477304159198,18,3,Animal_Sea_Solid_Large,,,1,0.9528404589509591,,,,,,"[329, 189]","[329, 189]",
memory,spatial_recall,317.9502246249467,319.260141207953,18,3,Animal_Land_Solid_Small,,,1,1.3059779590694234,,,,,,"[-329, -190]","[-329, -190]",
encoding,fixation,5.156898292014375,6.162402834044769,19,4,Animal_Sea_Pattern_Small,-3,,,,,,,,,,,
encoding,image,6.162511375034228,7.176132709020749,19,4,Animal_Sea_Pattern_Small,-3,,,,,,,,,,,
encoding,value,7.176255875034258,13.1895672500832,19,4,Animal_Sea_Pattern_Small,-3,,,,,,,,,,,
encoding,attention,13.1897747090552,16.207614209037274,19,4,Animal_Sea_Pattern_Small,-3,-3,1,0.7407436670036986,,,,,,,,
encoding,fixation,16.207770792068914,16.963550584041514,20,4,Object_Sea_Pattern_Small,9,,,,,,,,,,,
encoding,image,16.96368125011213,17.976149667054415,20,4,Object_Sea_Pattern_Small,9,,,,,,,,,,,
encoding,value,17.97634887509048,23.988445709110238,20,4,Object_Sea_Pattern_Small,9,,,,,,,,,,,
encoding,attention,23.988570667104796,27.00502200005576,20,4,Object_Sea_Pattern_Small,9,+9,1,0.719206582987681,,,,,,,,
encoding,fixation,27.005216084071435,28.510756292031147,21,4,Object_Sea_Solid_Small,-3,,,,,,,,,,,
encoding,image,28.510887667071074,29.52130595908966,21,4,Object_Sea_Solid_Small,-3,,,,,,,,,,,
encoding,value,29.521421917015687,35.53197045903653,21,4,Object_Sea_Solid_Small,-3,,,,,,,,,,,
encoding,attention,35.53207295900211,38.551373750087805,21,4,Object_Sea_Solid_Small,-3,-3,1,0.7747470419853926,,,,,,,,
encoding,fixation,38.5515277920058,40.05683154205326,22,4,Object_Land_Solid_Large,-4,,,,,,,,,,,
encoding,image,40.05696912505664,41.06726200005505,22,4,Object_Land_Solid_Large,-4,,,,,,,,,,,
encoding,value,41.06741804210469,47.07779691705946,22,4,Object_Land_Solid_Large,-4,,,,,,,,,,,
encoding,attention,47.07791150000412,50.094830459100194,22,4,Object_Land_Solid_Large,-4,-4,1,0.8528842501109466,,,,,,,,
encoding,fixation,50.09503841702826,51.350176834035665,23,4,Animal_Land_Solid_Large,8,,,,,,,,,,,
encoding,image,51.35027891700156,52.36218612501398,23,4,Animal_Land_Solid_Large,8,,,,,,,,,,,
encoding,value,52.362292334088124,58.376950334059075,23,4,Animal_Land_Solid_Large,8,,,,,,,,,,,
encoding,attention,58.37705525010824,61.398264834075235,23,4,Animal_Land_Solid_Large,8,+8,1,1.3581123750191182,,,,,,,,
encoding,fixation,61.39843429205939,62.40472429210786,24,4,Animal_Land_Pattern_Large,-2,,,,,,,,,,,
encoding,image,62.40483458410017,63.41607312508859,24,4,Animal_Land_Pattern_Large,-2,,,,,,,,,,,
encoding,value,63.41618883400224,69.42814595904201,24,4,Animal_Land_Pattern_Large,-2,,,,,,,,,,,
encoding,attention,69.42826050007716,72.44535545899998,24,4,Animal_Land_Pattern_Large,-2,-2,1,0.5743939579697326,,,,,,,,
n-back,,,,91,4,,,,0,None,V,True,None,,,,,
n-back,,,,92,4,,,,1,None,X,False,None,,,,,
n-back,,,,93,4,,,,1,None,N,False,None,,,,,
n-back,,,,94,4,,,,1,0.9140350420493633,X,True,1,,,,,
n-back,,,,95,4,,,,1,None,V,False,None,,,,,
n-back,,,,96,4,,,,1,None,V,False,None,,,,,
n-back,,,,97,4,,,,1,None,N,False,None,,,,,
n-back,,,,98,4,,,,1,0.785746582900174,V,True,1,,,,,
n-back,,,,99,4,,,,1,0.969662000075914,N,True,1,,,,,
n-back,,,,100,4,,,,1,None,X,False,None,,,,,
n-back,,,,101,4,,,,1,None,X,False,None,,,,,
n-back,,,,102,4,,,,1,None,V,False,None,,,,,
n-back,,,,103,4,,,,1,0.7786081669619307,X,True,1,,,,,
n-back,,,,104,4,,,,1,None,N,False,None,,,,,
n-back,,,,105,4,,,,0,0.8287180829793215,V,False,1,,,,,
n-back,,,,106,4,,,,1,None,V,False,None,,,,,
n-back,,,,107,4,,,,1,None,Z,False,None,,,,,
n-back,,,,108,4,,,,1,None,C,False,None,,,,,
n-back,,,,109,4,,,,0,0.7974595830310136,X,False,1,,,,,
n-back,,,,110,4,,,,0,None,C,True,None,,,,,
n-back,,,,111,4,,,,1,None,B,False,None,,,,,
n-back,,,,112,4,,,,0,1.0089330829214305,X,False,1,,,,,
n-back,,,,113,4,,,,1,None,Z,False,None,,,,,
n-back,,,,114,4,,,,0,0.5942299580201507,B,False,1,,,,,
n-back,,,,115,4,,,,1,None,X,False,None,,,,,
n-back,,,,116,4,,,,1,0.4062307090498507,B,True,1,,,,,
n-back,,,,117,4,,,,0,None,X,True,None,,,,,
n-back,,,,118,4,,,,1,1.0535424589179456,B,True,1,,,,,
n-back,,,,119,4,,,,1,None,Z,False,None,,,,,
n-back,,,,120,4,,,,1,0.6862545409239829,B,True,1,,,,,
choice,fixation,143.05406891705934,144.06066300009843,25,4,,,,,,,,,Small,,,,
choice,option,144.06939262500964,145.09597762511112,25,4,,,,,,,,,Small,,,,
choice,choice,145.09607887500897,147.41089062509127,25,4,,,1,1,1.3051365420687944,,,,Small,,,,
choice,fixation,147.41102066705935,148.66590150003321,26,4,,,,,,,,,Large,,,,
choice,option,148.67421020905022,149.7027392500313,26,4,,,,,,,,,Large,,,,
choice,choice,149.70286970899906,151.2358820840018,26,4,,,1,1,0.5213593749795109,,,,Large,,,,
choice,fixation,151.23601850005798,151.99094695900567,27,4,,,,,,,,,Animal,,,,
choice,option,152.00035308406223,153.0277226670878,27,4,,,,,,,,,Animal,,,,
choice,choice,153.02784108405467,154.46783237508498,27,4,,,1,1,0.43083745799958706,,,,Animal,,,,
choice,fixation,154.46797233400866,155.9729686670471,28,4,,,,,,,,,Land,,,,
choice,option,155.9817180420505,157.0079885420855,28,4,,,,,,,,,Land,,,,
choice,choice,157.00809987506364,162.8291431250982,28,4,,,1,1,4.811406249995343,,,,Land,,,,
choice,fixation,162.82927370909601,164.08406516700052,29,4,,,,,,,,,Solid,,,,
choice,option,164.0936227090424,165.11979954200797,29,4,,,,,,,,,Solid,,,,
choice,choice,165.11992183409166,166.53185395908076,29,4,,,1,1,0.4008932909928262,,,,Solid,,,,
choice,fixation,166.53199287503958,167.78692345903255,30,4,,,,,,,,,Sea,,,,
choice,option,167.79522787500173,168.82181200000923,30,4,,,,,,,,,Sea,,,,
choice,choice,168.8219505000161,170.5397187920753,30,4,,,2,0,0.7083544170018286,,,,Sea,,,,
choice,fixation,170.53983991709538,171.0439747920027,31,4,,,,,,,,,Pattern,,,,
choice,option,171.05313329200726,172.0793958751019,31,4,,,,,,,,,Pattern,,,,
choice,choice,172.0795121670235,173.9318081670208,31,4,,,1,1,0.8427637499989942,,,,Pattern,,,,
choice,fixation,173.93192945909686,174.43680600007065,32,4,,,,,,,,,Object,,,,
choice,option,174.44619866705034,175.47280508407857,32,4,,,,,,,,,Object,,,,
choice,choice,175.4729038340738,177.36279766703956,32,4,,,1,1,0.8805609999690205,,,,Object,,,,
memory,free_recall,200.00514483405277,214.013463334064,18,4,,,,,,,,,,,,,
memory,value_recall,226.7491275840439,231.03062516706996,19,4,Animal_Sea_Pattern_Small,,,,4.277578374953009,,,,,-3,,,
memory,value_recall,232.82672316709068,235.63677520910278,20,4,Object_Sea_Solid_Small,,,,2.8059216249966994,,,,,-3,,,
memory,value_recall,236.9330217500683,238.7971127500059,21,4,Animal_Land_Solid_Large,,,,1.8600594999734312,,,,,8,,,
memory,value_recall,239.84331691707484,240.6944664590992,22,4,Object_Sea_Pattern_Small,,,,0.8484900000039488,,,,,9,,,
memory,value_recall,241.98603366711177,243.84590350009967,23,4,Animal_Land_Pattern_Large,,,,1.8558481669751927,,,,,-2,,,
memory,value_recall,244.89223550003953,246.7090049170656,24,4,Object_Land_Solid_Large,,,,1.814117084024474,,,,,-4,,,
memory,spatial_recall,254.62050179205835,256.8613549590809,24,4,Animal_Land_Solid_Large,,,1,2.236095834057778,,,,,,"[-329, 190]","[-329, 190]",
memory,spatial_recall,257.918941375101,259.51500141702127,24,4,Object_Sea_Pattern_Small,,,1,1.5903900840785354,,,,,,"[-329, -190]","[-329, -190]",
memory,spatial_recall,261.57681520900223,262.86636991705745,24,4,Object_Sea_Solid_Small,,,1,1.285797500051558,,,,,,"[0, 380]","[0, 380]",
memory,spatial_recall,264.4291639170842,266.1333162500523,24,4,Animal_Land_Pattern_Large,,,1,1.7001475000288337,,,,,,"[0, -380]","[0, -380]",
memory,spatial_recall,267.192125959089,269.37618508411106,24,4,Object_Land_Solid_Large,,,1,2.1816414169734344,,,,,,"[329, 189]","[329, 189]",
memory,spatial_recall,270.93210866709705,272.0314700000454,24,4,Animal_Sea_Pattern_Small,,,1,1.0953178749186918,,,,,,"[329, -190]","[329, -190]",
encoding,fixation,4.335629624896683,5.8426884999498725,25,5,Animal_Sea_Solid_Small,-7,,,,,,,,,,,
encoding,image,5.842845791950822,6.855541416909546,25,5,Animal_Sea_Solid_Small,-7,,,,,,,,,,,
encoding,value,6.8556526669999585,12.86945812497288,25,5,Animal_Sea_Solid_Small,-7,,,,,,,,,,,
encoding,attention,12.86959204194136,15.886900416924618,25,5,Animal_Sea_Solid_Small,-7,-7,1,1.1821040830109268,,,,,,,,
encoding,fixation,15.887058457941748,16.89388762495946,26,5,Animal_Land_Solid_Large,-3,,,,,,,,,,,
encoding,image,16.893996457918547,17.9055754999863,26,5,Animal_Land_Solid_Large,-3,,,,,,,,,,,
encoding,value,17.905701707932167,23.919271166902035,26,5,Animal_Land_Solid_Large,-3,,,,,,,,,,,
encoding,attention,23.91942399996333,26.936773082939908,26,5,Animal_Land_Solid_Large,-3,-3,1,0.5877852919511497,,,,,,,,
encoding,fixation,26.93691899999976,27.943207249976695,27,5,Object_Land_Pattern_Large,-8,,,,,,,,,,,
encoding,image,27.943310000002384,28.95559887494892,27,5,Object_Land_Pattern_Large,-8,,,,,,,,,,,
encoding,value,28.955721707898192,34.9677144580055,27,5,Object_Land_Pattern_Large,-8,,,,,,,,,,,
encoding,attention,34.96783945790958,37.986174916964956,27,5,Object_Land_Pattern_Large,-8,-8,1,0.602671124972403,,,,,,,,
encoding,fixation,37.98633079195861,38.4930354579119,28,5,Animal_Land_Pattern_Small,8,,,,,,,,,,,
encoding,image,38.493154541938566,39.50425024994183,28,5,Animal_Land_Pattern_Small,8,,,,,,,,,,,
encoding,value,39.50435962493066,45.51551354199182,28,5,Animal_Land_Pattern_Small,8,,,,,,,,,,,
encoding,attention,45.515723374905065,48.5322495829314,28,5,Animal_Land_Pattern_Small,8,+8,1,0.5520953750237823,,,,,,,,
encoding,fixation,48.53240599995479,50.03775041690096,29,5,Object_Sea_Pattern_Small,-7,,,,,,,,,,,
encoding,image,50.03786624991335,51.04881120799109,29,5,Object_Sea_Pattern_Small,-7,,,,,,,,,,,
encoding,value,51.048935249913484,57.060213499935344,29,5,Object_Sea_Pattern_Small,-7,,,,,,,,,,,
encoding,attention,57.060320457909256,60.077051499974914,29,5,Object_Sea_Pattern_Small,-7,-7,1,0.7601219159550965,,,,,,,,
encoding,fixation,60.07722716697026,61.08230358292349,30,5,Object_Sea_Solid_Large,8,,,,,,,,,,,
encoding,image,61.08242299989797,62.09369883290492,30,5,Object_Sea_Solid_Large,8,,,,,,,,,,,
encoding,value,62.09383904200513,68.10508720797952,30,5,Object_Sea_Solid_Large,8,,,,,,,,,,,
encoding,attention,68.10521058295853,71.12418583291583,30,5,Object_Sea_Solid_Large,8,+8,1,0.6968892919830978,,,,,,,,
n-back,,,,121,5,,,,0,None,B,True,None,,,,,
n-back,,,,122,5,,,,1,None,V,False,None,,,,,
n-back,,,,123,5,,,,1,0.35616204189136624,B,True,1,,,,,
n-back,,,,124,5,,,,1,None,B,False,None,,,,,
n-back,,,,125,5,,,,1,None,Z,False,None,,,,,
n-back,,,,126,5,,,,1,0.8693254590034485,B,True,1,,,,,
n-back,,,,127,5,,,,1,None,C,False,None,,,,,
n-back,,,,128,5,,,,1,None,N,False,None,,,,,
n-back,,,,129,5,,,,1,None,V,False,None,,,,,
n-back,,,,130,5,,,,1,None,C,False,None,,,,,
n-back,,,,131,5,,,,1,None,Z,False,None,,,,,
n-back,,,,132,5,,,,1,None,N,False,None,,,,,
n-back,,,,133,5,,,,1,0.9218102499144152,Z,True,1,,,,,
n-back,,,,134,5,,,,1,1.032767166965641,N,True,1,,,,,
n-back,,,,135,5,,,,1,None,X,False,None,,,,,
n-back,,,,136,5,,,,0,None,N,True,None,,,,,
n-back,,,,137,5,,,,0,0.547020334051922,V,False,1,,,,,
n-back,,,,138,5,,,,0,0.7879131659865379,X,False,1,,,,,
n-back,,,,139,5,,,,1,1.2269412920577452,V,True,1,,,,,
n-back,,,,140,5,,,,1,None,N,False,None,,,,,
n-back,,,,141,5,,,,0,None,V,True,None,,,,,
n-back,,,,142,5,,,,1,None,X,False,None,,,,,
n-back,,,,143,5,,,,1,0.5221020410535857,V,True,1,,,,,
n-back,,,,144,5,,,,1,None,B,False,None,,,,,
n-back,,,,145,5,,,,1,None,N,False,None,,,,,
n-back,,,,146,5,,,,1,None,Z,False,None,,,,,
n-back,,,,147,5,,,,1,None,C,False,None,,,,,
n-back,,,,148,5,,,,0,0.708243666915223,N,False,1,,,,,
n-back,,,,149,5,,,,1,None,X,False,None,,,,,
n-back,,,,150,5,,,,0,None,N,True,None,,,,,
choice,fixation,147.87345904193353,148.8769967079861,33,5,,,,,,,,,Pattern,,,,
choice,option,148.88654983299784,149.91455654194579,33,5,,,,,,,,,Pattern,,,,
choice,choice,149.91467308299616,151.9790496249916,33,5,,,1,0,1.0543427090160549,,,,Pattern,,,,
choice,fixation,151.97918112494517,152.48422562493943,34,5,,,,,,,,,Animal,,,,
choice,option,152.4935572919203,153.52084454195574,34,5,,,,,,,,,Animal,,,,
choice,choice,153.52097333292477,163.90982316690497,34,5,,,1,0,9.378299625008367,,,,Animal,,,,
choice,fixation,163.90996641700622,164.4150768329855,35,5,,,,,,,,,Large,,,,
choice,option,164.4239563329611,165.45057133294176,35,5,,,,,,,,,Large,,,,
choice,choice,165.4507099170005,167.2199420830002,35,5,,,2,1,0.7599747499916703,,,,Large,,,,
choice,fixation,167.2200706669828,167.7270614169538,36,5,,,,,,,,,Sea,,,,
choice,option,167.73558404191863,168.76200987491757,36,5,,,,,,,,,Sea,,,,
choice,choice,168.76211912499275,171.2368541249307,36,5,,,1,0,1.4652923750691116,,,,Sea,,,,
choice,fixation,171.23698179190978,172.7425596669782,37,5,,,,,,,,,Small,,,,
choice,option,172.75105145794805,173.77797487494536,37,5,,,,,,,,,Small,,,,
choice,choice,173.7780876669567,175.8522907498991,37,5,,,2,1,1.0646406250307336,,,,Small,,,,
choice,fixation,175.85241399996448,176.6072237920016,38,5,,,,,,,,,Land,,,,
choice,option,176.61546733300202,177.64338945795316,38,5,,,,,,,,,Land,,,,
choice,choice,177.6435027079424,182.13974429189693,38,5,,,2,1,3.4867622080491856,,,,Land,,,,
choice,fixation,182.13985874992795,183.39460591692477,39,5,,,,,,,,,Solid,,,,
choice,option,183.40407695795875,184.4314135418972,39,5,,,,,,,,,Solid,,,,
choice,choice,184.43153949989937,188.29939712490886,39,5,,,1,0,2.8579910829430446,,,,Solid,,,,
choice,fixation,188.29953008296434,189.30447437497787,40,5,,,,,,,,,Object,,,,
choice,option,189.3134944170015,190.33992954192217,40,5,,,,,,,,,Object,,,,
choice,choice,190.34004866692703,192.58743120799772,40,5,,,2,1,1.2372581659583375,,,,Object,,,,
memory,free_recall,208.773914707941,223.11736233299598,24,5,,,,,,,,,,,,,
memory,value_recall,237.63851604191586,239.8910777498968,25,5,Object_Land_Pattern_Large,,,,2.2485699580283836,,,,,-8,,,
memory,value_recall,241.93650645797607,244.36595379200298,26,5,Animal_Land_Pattern_Small,,,,2.4234940410824493,,,,,8,,,
memory,value_recall,246.16080970794428,247.8569471249357,27,5,Object_Sea_Solid_Large,,,,1.6918099159374833,,,,,8,,,
memory,value_recall,248.89288583293092,252.62272416695487,28,5,Object_Sea_Pattern_Small,,,,3.7273852500366047,,,,,-7,,,
memory,value_recall,254.16752074996475,256.5738431669306,29,5,Animal_Sea_Solid_Small,,,,2.4019189999671653,,,,,-7,,,
memory,value_recall,258.61973062495235,260.1036663328996,30,5,Animal_Land_Solid_Large,,,,1.4800681669730693,,,,,-3,,,
memory,spatial_recall,268.3195079579018,269.9622667079093,30,5,Object_Sea_Pattern_Small,,,1,1.6387104579480365,,,,,,"[-329, -190]","[-329, -190]",
memory,spatial_recall,272.02284337498713,272.8784782500006,30,5,Animal_Land_Pattern_Small,,,1,0.85165433306247,,,,,,"[0, 380]","[0, 380]",
memory,spatial_recall,274.43134112493135,275.2951608749572,30,5,Object_Land_Pattern_Large,,,1,0.8597527079982683,,,,,,"[329, 189]","[329, 189]",
memory,spatial_recall,277.09817949996796,278.5934143749764,30,5,Animal_Land_Solid_Large,,,1,1.490720042027533,,,,,,"[-329, 190]","[-329, 190]",
memory,spatial_recall,280.39908741693944,281.3999081249349,30,5,Animal_Sea_Solid_Small,,,1,0.9968588340561837,,,,,,"[0, -380]","[0, -380]",
memory,spatial_recall,283.213576167007,284.29553145798855,30,5,Object_Sea_Solid_Large,,,1,1.0778289169538766,,,,,,"[329, -190]","[329, -190]",
encoding,fixation,3.478745208005421,4.733882667031139,31,6,Object_Land_Pattern_Small,3,,,,,,,,,,,
encoding,image,4.734010832966305,5.7463062920141965,31,6,Object_Land_Pattern_Small,3,,,,,,,,,,,
encoding,value,5.746440500020981,11.75997129199095,31,6,Object_Land_Pattern_Small,3,,,,,,,,,,,
encoding,attention,11.760161624988541,14.777996707940474,31,6,Object_Land_Pattern_Small,3,+3,1,0.5458284160122275,,,,,,,,
encoding,fixation,14.778156624990515,16.033492582966574,32,6,Animal_Sea_Pattern_Large,6,,,,,,,,,,,
encoding,image,16.033592542051338,17.0437380829826,32,6,Animal_Sea_Pattern_Large,6,,,,,,,,,,,
encoding,value,17.04384704201948,23.055257207946852,32,6,Animal_Sea_Pattern_Large,6,,,,,,,,,,,
encoding,attention,23.055382249993272,26.07252749998588,32,6,Animal_Sea_Pattern_Large,6,+6,1,0.5160159589722753,,,,,,,,
encoding,fixation,26.072680125012994,27.077950792037882,33,6,Animal_Sea_Solid_Large,1,,,,,,,,,,,
encoding,image,27.078066542046145,28.088931374950334,33,6,Animal_Sea_Solid_Large,1,,,,,,,,,,,
encoding,value,28.089050792041235,34.1013677919982,33,6,Animal_Sea_Solid_Large,1,,,,,,,,,,,
encoding,attention,34.10148354200646,37.1177488330286,33,6,Animal_Sea_Solid_Large,1,+1,1,0.5270457910373807,,,,,,,,
encoding,fixation,37.11790249997284,37.62337195803411,34,6,Object_Land_Solid_Small,3,,,,,,,,,,,
encoding,image,37.62348041695077,38.63480220804922,34,6,Object_Land_Solid_Small,3,,,,,,,,,,,
encoding,value,38.63501962495502,44.646461791940965,34,6,Object_Land_Solid_Small,3,,,,,,,,,,,
encoding,attention,44.646668417030014,47.66398349998053,34,6,Object_Land_Solid_Small,3,+3,1,0.782287499983795,,,,,,,,
encoding,fixation,47.66412929201033,48.419401542050764,35,6,Object_Sea_Pattern_Large,-8,,,,,,,,,,,
encoding,image,48.419527500052936,49.430779417045414,35,6,Object_Sea_Pattern_Large,-8,,,,,,,,,,,
encoding,value,49.43091695802286,55.44293200003449,35,6,Object_Sea_Pattern_Large,-8,,,,,,,,,,,
encoding,attention,55.443138125003316,58.46029112499673,35,6,Object_Sea_Pattern_Large,-8,-8,1,0.784798666019924,,,,,,,,
encoding,fixation,58.460445625009015,59.71601495798677,36,6,Animal_Land_Solid_Small,-8,,,,,,,,,,,
encoding,image,59.716118333046325,60.726632667006925,36,6,Animal_Land_Solid_Small,-8,,,,,,,,,,,
encoding,value,60.726762166945264,66.73845950001851,36,6,Animal_Land_Solid_Small,-8,,,,,,,,,,,
encoding,attention,66.73866262496449,69.75562579196412,36,6,Animal_Land_Solid_Small,-8,-8,1,0.6007076660171151,,,,,,,,
n-back,,,,151,6,,,,0,None,C,True,None,,,,,
n-back,,,,152,6,,,,1,None,N,False,None,,,,,
n-back,,,,153,6,,,,1,None,V,False,None,,,,,
n-back,,,,154,6,,,,1,None,C,False,None,,,,,
n-back,,,,155,6,,,,1,None,X,False,None,,,,,
n-back,,,,156,6,,,,1,0.6085608339635655,C,True,1,,,,,
n-back,,,,157,6,,,,0,None,X,True,None,,,,,
n-back,,,,158,6,,,,1,1.3665230420883745,C,True,1,,,,,
n-back,,,,159,6,,,,1,1.0345849159639329,X,True,1,,,,,
n-back,,,,160,6,,,,1,None,X,False,None,,,,,
n-back,,,,161,6,,,,0,0.5511902499711141,C,False,1,,,,,
n-back,,,,162,6,,,,1,None,N,False,None,,,,,
n-back,,,,163,6,,,,1,0.6659988750470802,C,True,1,,,,,
n-back,,,,164,6,,,,1,None,C,False,None,,,,,
n-back,,,,165,6,,,,1,None,V,False,None,,,,,
n-back,,,,166,6,,,,1,0.3591705000726506,C,True,1,,,,,
n-back,,,,167,6,,,,1,None,X,False,None,,,,,
n-back,,,,168,6,,,,1,None,N,False,None,,,,,
n-back,,,,169,6,,,,1,0.7130152919562533,X,True,1,,,,,
n-back,,,,170,6,,,,1,None,Z,False,None,,,,,
n-back,,,,171,6,,,,1,None,C,False,None,,,,,
n-back,,,,172,6,,,,1,None,V,False,None,,,,,
n-back,,,,173,6,,,,1,None,B,False,None,,,,,
n-back,,,,174,6,,,,0,1.1578242079121992,Z,False,1,,,,,
n-back,,,,175,6,,,,1,None,Z,False,None,,,,,
n-back,,,,176,6,,,,1,0.6263657920062542,Z,True,1,,,,,
n-back,,,,177,6,,,,0,None,Z,True,None,,,,,
n-back,,,,178,6,,,,1,None,C,False,None,,,,,
n-back,,,,179,6,,,,1,None,V,False,None,,,,,
n-back,,,,180,6,,,,1,None,V,False,None,,,,,
choice,fixation,148.1933612920111,148.6974762500031,41,6,,,,,,,,,Solid,,,,
choice,option,148.70657545793802,149.73418516700622,41,6,,,,,,,,,Solid,,,,
choice,choice,149.73429775005206,153.46829645801336,41,6,,,2,1,2.7241994170472026,,,,Solid,,,,
choice,fixation,153.4684293329483,154.9734061670024,42,6,,,,,,,,,Small,,,,
choice,option,154.98243416694459,156.00874129193835,42,6,,,,,,,,,Small,,,,
choice,choice,156.00885754195042,163.61944154195953,42,6,,,1,0,6.599914000020362,,,,Small,,,,
choice,fixation,163.61959212494548,165.12481199996546,43,6,,,,,,,,,Object,,,,
choice,option,165.13434450002387,166.16182841698173,43,6,,,,,,,,,Object,,,,
choice,choice,166.1619444170501,171.050309458049,43,6,,,1,0,3.878611791995354,,,,Object,,,,
choice,fixation,171.05044429202098,172.3056647919584,44,6,,,,,,,,,Sea,,,,
choice,option,172.31438424997032,173.34053212497383,44,6,,,,,,,,,Sea,,,,
choice,choice,173.3406616250286,178.42029266699683,44,6,,,1,0,4.069019917049445,,,,Sea,,,,
choice,fixation,178.4204145829426,179.1753923749784,45,6,,,,,,,,,Animal,,,,
choice,option,179.1849952499615,180.21124116703868,45,6,,,,,,,,,Animal,,,,
choice,choice,180.21135304204654,182.94854716700502,45,6,,,1,0,1.7273448330815881,,,,Animal,,,,
choice,fixation,182.9486862079939,184.2034521669848,46,6,,,,,,,,,Large,,,,
choice,option,184.2120090420358,185.23839116701856,46,6,,,,,,,,,Large,,,,
choice,choice,185.23856045794673,188.17257479194086,46,6,,,1,0,1.9245369579875842,,,,Large,,,,
choice,fixation,188.1726951249875,188.6776275000302,47,6,,,,,,,,,Pattern,,,,
choice,option,188.6870320419548,189.71360670798458,47,6,,,,,,,,,Pattern,,,,
choice,choice,189.71375245798845,191.33134204195812,47,6,,,1,1,0.6081641250057146,,,,Pattern,,,,
choice,fixation,191.33146937494166,192.08650066703558,48,6,,,,,,,,,Land,,,,
choice,option,192.09523066703696,193.12060395802837,48,6,,,,,,,,,Land,,,,
choice,choice,193.120732667041,205.59756162494887,48,6,,,2,1,11.465849000029266,,,,Land,,,,
memory,free_recall,230.1649940829957,243.24134895799216,30,6,,,,,,,,,,,,,
memory,value_recall,260.3591776669491,263.47809258301277,31,6,Animal_Sea_Pattern_Large,,,,3.1147337920265272,,,,,6,,,
memory,value_recall,265.5247156670084,268.60556270799134,32,6,Object_Land_Solid_Small,,,,3.076573709025979,,,,,3,,,
memory,value_recall,270.4011748749763,272.49423295794986,33,6,Animal_Sea_Solid_Large,,,,2.086058499990031,,,,,1,,,
memory,value_recall,274.0396993330214,278.0408932080027,34,6,Animal_Land_Solid_Small,,,,3.997104833018966,,,,,-8,,,
memory,value_recall,279.3371239169501,281.44061166699976,35,6,Object_Land_Pattern_Small,,,,2.0992331670131534,,,,,3,,,
memory,value_recall,283.4885151250055,285.15885566698853,36,6,Object_Sea_Pattern_Large,,,,1.6662587079918012,,,,,-8,,,
memory,spatial_recall,292.64370383298956,295.07606849994045,36,6,Object_Land_Solid_Small,,,1,2.42851891706232,,,,,,"[329, -190]","[329, -190]",
memory,spatial_recall,296.885763166938,301.81144562503323,36,6,Object_Land_Pattern_Small,,,1,4.919462000019848,,,,,,"[-329, 190]","[-329, 190]",
memory,spatial_recall,303.1147027920233,304.48331866704393,36,6,Animal_Sea_Pattern_Large,,,1,1.3644986250437796,,,,,,"[0, 380]","[0, 380]",
memory,spatial_recall,305.79199645796325,306.9445323749678,36,6,Animal_Sea_Solid_Large,,,1,1.1485807079588994,,,,,,"[329, 189]","[329, 189]",
memory,spatial_recall,308.49181858298834,310.1990053750342,36,6,Object_Sea_Pattern_Large,,,1,1.703079583006911,,,,,,"[0, -380]","[0, -380]",
memory,spatial_recall,312.01260350004304,314.048696791986,36,6,Animal_Land_Solid_Small,,,1,2.0321214590221643,,,,,,"[-329, -190]","[-329, -190]",
encoding,fixation,8.147584708058275,8.653395250090398,37,7,Animal_Land_Solid_Small,9,,,,,,,,,,,
encoding,image,8.653519375016913,9.66511458309833,37,7,Animal_Land_Solid_Small,9,,,,,,,,,,,
encoding,value,9.66523554106243,15.678402541088872,37,7,Animal_Land_Solid_Small,9,,,,,,,,,,,
encoding,attention,15.678533041034825,18.696398416068405,37,7,Animal_Land_Solid_Small,9,+9,1,1.2179836250143126,,,,,,,,
encoding,fixation,18.696562166092917,20.202122000046074,38,7,Object_Sea_Solid_Large,9,,,,,,,,,,,
encoding,image,20.20226591604296,21.215569958090782,38,7,Object_Sea_Solid_Large,9,,,,,,,,,,,
encoding,value,21.21569358301349,27.227447458077222,38,7,Object_Sea_Solid_Large,9,,,,,,,,,,,
encoding,attention,27.227570125018246,30.245700875064358,38,7,Object_Sea_Solid_Large,9,+9,1,0.6051120419288054,,,,,,,,
encoding,fixation,30.24587041605264,31.75097504106816,39,7,Animal_Sea_Pattern_Large,9,,,,,,,,,,,
encoding,image,31.751095416024327,32.761683333083056,39,7,Animal_Sea_Pattern_Large,9,,,,,,,,,,,
encoding,value,32.76180841610767,38.77268383302726,39,7,Animal_Sea_Pattern_Large,9,,,,,,,,,,,
encoding,attention,38.77289062505588,41.78927562502213,39,7,Animal_Sea_Pattern_Large,9,+9,1,0.5152681249892339,,,,,,,,
encoding,fixation,41.78942750010174,42.79522200010251,40,7,Animal_Sea_Solid_Small,-9,,,,,,,,,,,
encoding,image,42.79535820800811,43.80578158306889,40,7,Animal_Sea_Solid_Small,-9,,,,,,,,,,,
encoding,value,43.805903208092786,49.8167353750905,40,7,Animal_Sea_Solid_Small,-9,,,,,,,,,,,
encoding,attention,49.81687466602307,52.834619333036244,40,7,Animal_Sea_Solid_Small,-9,-9,1,1.0244681249605492,,,,,,,,
encoding,fixation,52.834785083075985,53.840015750029124,41,7,Object_Land_Pattern_Large,-2,,,,,,,,,,,
encoding,image,53.84013283310924,54.85265508305747,41,7,Object_Land_Pattern_Large,-2,,,,,,,,,,,
encoding,value,54.85278900002595,60.86497033305932,41,7,Object_Land_Pattern_Large,-2,,,,,,,,,,,
encoding,attention,60.86509295809083,63.882832708070055,41,7,Object_Land_Pattern_Large,-2,-2,1,0.7269378750352189,,,,,,,,
encoding,fixation,63.88298516604118,64.63827787502669,42,7,Object_Land_Pattern_Small,-4,,,,,,,,,,,
encoding,image,64.63843854109291,65.64974533300847,42,7,Object_Land_Pattern_Small,-4,,,,,,,,,,,
encoding,value,65.64985270809848,71.66464704100508,42,7,Object_Land_Pattern_Small,-4,,,,,,,,,,,
encoding,attention,71.66476837510709,74.68198600003961,42,7,Object_Land_Pattern_Small,-4,+4,0,0.9375051250681281,,,,,,,,
n-back,,,,181,7,,,,0,None,B,True,None,,,,,
n-back,,,,182,7,,,,1,None,X,False,None,,,,,
n-back,,,,183,7,,,,1,None,X,False,None,,,,,
n-back,,,,184,7,,,,1,None,N,False,None,,,,,
n-back,,,,185,7,,,,1,None,B,False,None,,,,,
n-back,,,,186,7,,,,1,None,B,False,None,,,,,
n-back,,,,187,7,,,,1,0.4049958330579102,B,True,1,,,,,
n-back,,,,188,7,,,,1,0.853687540977262,B,True,1,,,,,
n-back,,,,189,7,,,,1,0.9631024999544024,B,True,1,,,,,
n-back,,,,190,7,,,,1,None,C,False,None,,,,,
n-back,,,,191,7,,,,1,None,X,False,None,,,,,
n-back,,,,192,7,,,,1,None,V,False,None,,,,,
n-back,,,,193,7,,,,1,None,V,False,None,,,,,
n-back,,,,194,7,,,,1,0.5677990830736235,V,True,1,,,,,
n-back,,,,195,7,,,,1,0.46852570795454085,V,True,1,,,,,
n-back,,,,196,7,,,,1,None,Z,False,None,,,,,
n-back,,,,197,7,,,,1,None,B,False,None,,,,,
n-back,,,,198,7,,,,1,None,X,False,None,,,,,
n-back,,,,199,7,,,,1,None,N,False,None,,,,,
n-back,,,,200,7,,,,1,None,C,False,None,,,,,
n-back,,,,201,7,,,,1,0.6569327499018982,N,True,1,,,,,
n-back,,,,202,7,,,,1,None,V,False,None,,,,,
n-back,,,,203,7,,,,1,None,Z,False,None,,,,,
n-back,,,,204,7,,,,0,1.037260791985318,N,False,1,,,,,
n-back,,,,205,7,,,,1,None,B,False,None,,,,,
n-back,,,,206,7,,,,0,None,N,True,None,,,,,
n-back,,,,207,7,,,,1,0.5224020830355585,B,True,1,,,,,
n-back,,,,208,7,,,,1,None,C,False,None,,,,,
n-back,,,,209,7,,,,0,1.052889792015776,N,False,1,,,,,
n-back,,,,210,7,,,,0,None,C,True,None,,,,,
choice,fixation,162.87447054102086,163.38040912500583,49,7,,,,,,,,,Object,,,,
choice,option,163.38957237510476,164.41600583307445,49,7,,,,,,,,,Object,,,,
choice,choice,164.416220458108,175.15570737503003,49,7,,,1,1,9.729151666979305,,,,Object,,,,
choice,fixation,175.15590916608926,176.66096412506886,50,7,,,,,,,,,Small,,,,
choice,option,176.66998533310834,177.6985028750496,50,7,,,,,,,,,Small,,,,
choice,choice,177.69864816602785,181.54525720805395,50,7,,,1,0,2.8362104169791564,,,,Small,,,,
choice,fixation,181.54546354105696,182.30044833302964,51,7,,,,,,,,,Large,,,,
choice,option,182.3091156660812,183.33583250001539,51,7,,,,,,,,,Large,,,,
choice,choice,183.33594291610643,185.8575179160107,51,7,,,1,1,1.511956917005591,,,,Large,,,,
choice,fixation,185.8576465410879,186.3646745000733,52,7,,,,,,,,,Sea,,,,
choice,option,186.3730483331019,187.3994143330492,52,7,,,,,,,,,Sea,,,,
choice,choice,187.39953695808072,199.6433522910811,52,7,,,1,1,11.233101667021401,,,,Sea,,,,
choice,fixation,199.64355350006372,200.89878704107832,53,7,,,,,,,,,Solid,,,,
choice,option,200.90866520802956,201.93546629103366,53,7,,,,,,,,,Solid,,,,
choice,choice,201.93557408300694,209.20238962501753,53,7,,,1,1,6.256807332974859,,,,Solid,,,,
choice,fixation,209.20251516602002,209.70752537506633,54,7,,,,,,,,,Animal,,,,
choice,option,209.71672829100862,210.7432825830765,54,7,,,,,,,,,Animal,,,,
choice,choice,210.7434303330956,218.14528495806735,54,7,,,1,1,6.391611875034869,,,,Animal,,,,
choice,fixation,218.1454030830646,219.6505616250215,55,7,,,,,,,,,Pattern,,,,
choice,option,219.65991137502715,220.68582333310042,55,7,,,,,,,,,Pattern,,,,
choice,choice,220.6859093750827,227.2046994160628,55,7,,,1,1,5.509306167019531,,,,Pattern,,,,
choice,fixation,227.20482500002254,227.7098632500274,56,7,,,,,,,,,Land,,,,
choice,option,227.71853625006042,228.7480174161028,56,7,,,,,,,,,Land,,,,
choice,choice,228.74813079100568,239.19377629109658,56,7,,,1,1,9.435082374955527,,,,Land,,,,
memory,free_recall,251.97248754103202,262.9247887500096,36,7,,,,,,,,,,,,,
memory,value_recall,274.6753347910708,277.3087720000185,37,7,Object_Land_Pattern_Large,,,,2.629284791997634,,,,,-2,,,
memory,value_recall,278.8558707080083,280.38951604103204,38,7,Object_Sea_Solid_Large,,,,1.5295174999628216,,,,,9,,,
memory,value_recall,281.6859611250693,282.8961482080631,39,7,Animal_Sea_Pattern_Large,,,,1.2059835420222953,,,,,9,,,
memory,value_recall,284.0113207080867,285.71526954101864,40,7,Object_Land_Pattern_Small,,,,1.7007337500108406,,,,,-4,,,
memory,value_recall,287.2608147501014,289.27745008305646,41,7,Animal_Sea_Solid_Small,,,,2.0126192920142785,,,,,-9,,,
memory,value_recall,290.5733157910872,291.86323908308987,42,7,Animal_Land_Solid_Small,,,,1.2857291249092668,,,,,9,,,
memory,spatial_recall,297.7735269580735,299.29861812503077,42,7,Object_Land_Pattern_Large,,,1,1.5187906250357628,,,,,,"[329, 189]","[329, 189]",
memory,spatial_recall,300.8546007910045,302.97090591606684,42,7,Animal_Sea_Pattern_Large,,,1,2.112392666982487,,,,,,"[0, 380]","[0, 380]",
memory,spatial_recall,304.5359335410176,306.11722679110244,42,7,Object_Sea_Solid_Large,,,1,1.577241166960448,,,,,,"[329, -190]","[329, -190]",
memory,spatial_recall,308.17374020803254,309.58815245807637,42,7,Animal_Land_Solid_Small,,,1,1.4104769999394193,,,,,,"[-329, -190]","[-329, -190]",
memory,spatial_recall,311.3998304581037,312.800176165998,42,7,Animal_Sea_Solid_Small,,,1,1.395786833949387,,,,,,"[0, -380]","[0, -380]",
memory,spatial_recall,314.85822129109874,316.91854016610887,42,7,Object_Land_Pattern_Small,,,1,2.0543652499327436,,,,,,"[-329, 190]","[-329, 190]",
