phase,event,trial_number,eyetracker_onset,eyetracker_offset,fix_start,fix_end,fix_duration_full,fix_duration_bounded,fix_x,fix_y,roi_x,roi_y,roi_content,onset,offset,game,image,outcome,choice,correct,rt,letter,match,response,option,true_value,true_position,recalled_position,Unnamed: 18
encoding,fixation,1,9851732,9852250,9851776.0,9851940.0,165.0,165.0,2141.0,851.7,2249.0,1269.0,Animal_Sea_Pattern_Small,14.024266374995932,14.542840749956667,1.0,Animal_Land_Solid_Large,2.0,,,,,,,,,,,
encoding,fixation,1,9851732,9852250,9851970.0,9852095.0,126.0,126.0,1929.1,1025.9,1920.0,1080.0,fixation,14.024266374995932,14.542840749956667,1.0,Animal_Land_Solid_Large,2.0,,,,,,,,,,,
encoding,fixation,1,9851732,9852250,9852109.0,9852440.0,332.0,141.0,1921.3,1083.8,1920.0,1080.0,fixation,14.024266374995932,14.542840749956667,1.0,Animal_Land_Solid_Large,2.0,,,,,,,,,,,
encoding,image,1,9852250,9853274,9852476.0,9852647.0,172.0,172.0,1632.2,1259.0,1591.0,891.0,Animal_Land_Solid_Large,14.54295120795723,15.565867458004504,1.0,Animal_Land_Solid_Large,2.0,,,,,,,,,,,
encoding,image,1,9852250,9853274,9852682.0,9853049.0,368.0,368.0,1914.1,1099.9,1920.0,1080.0,fixation,14.54295120795723,15.565867458004504,1.0,Animal_Land_Solid_Large,2.0,,,,,,,,,,,
encoding,image,1,9852250,9853274,9853082.0,9855876.0,2795.0,192.0,1610.2,1180.0,1591.0,891.0,Animal_Land_Solid_Large,14.54295120795723,15.565867458004504,1.0,Animal_Land_Solid_Large,2.0,,,,,,,,,,,
encoding,value,1,9853274,9859290,9855885.0,9856757.0,873.0,873.0,1610.9,1179.9,1591.0,891.0,Animal_Land_Solid_Large,15.566002540988848,21.582329832948744,1.0,Animal_Land_Solid_Large,2.0,,,,,,,,,,,
encoding,value,1,9853274,9859290,9856927.0,9857386.0,460.0,460.0,1613.1,1164.7,1591.0,891.0,Animal_Land_Solid_Large,15.566002540988848,21.582329832948744,1.0,Animal_Land_Solid_Large,2.0,,,,,,,,,,,
encoding,value,1,9853274,9859290,9857404.0,9857759.0,356.0,356.0,1614.6,1232.9,1591.0,891.0,Animal_Land_Solid_Large,15.566002540988848,21.582329832948744,1.0,Animal_Land_Solid_Large,2.0,,,,,,,,,,,
encoding,value,1,9853274,9859290,9857775.0,9858654.0,880.0,880.0,1616.2,1168.3,1591.0,891.0,Animal_Land_Solid_Large,15.566002540988848,21.582329832948744,1.0,Animal_Land_Solid_Large,2.0,,,,,,,,,,,
encoding,value,1,9853274,9859290,9858688.0,9859028.0,341.0,341.0,1900.6,1092.6,1920.0,1080.0,fixation,15.566002540988848,21.582329832948744,1.0,Animal_Land_Solid_Large,2.0,,,,,,,,,,,
encoding,value,1,9853274,9859290,9859210.0,9859375.0,166.0,80.0,1624.1,1153.4,1591.0,891.0,Animal_Land_Solid_Large,15.566002540988848,21.582329832948744,1.0,Animal_Land_Solid_Large,2.0,,,,,,,,,,,
encoding,attention,1,9859290,9862308,9859409.0,9859496.0,88.0,88.0,1906.9,1055.8,1920.0,1080.0,fixation,21.582443375024013,24.600202874979004,1.0,Animal_Land_Solid_Large,2.0,2.0,1.0,1.157935333903879,,,,,,,,
encoding,attention,1,9859290,9862308,9859541.0,9859718.0,178.0,178.0,1617.3,1167.9,1591.0,891.0,Animal_Land_Solid_Large,21.582443375024013,24.600202874979004,1.0,Animal_Land_Solid_Large,2.0,2.0,1.0,1.157935333903879,,,,,,,,
encoding,attention,1,9859290,9862308,9859727.0,9860288.0,562.0,562.0,1646.9,1166.1,1591.0,891.0,Animal_Land_Solid_Large,21.582443375024013,24.600202874979004,1.0,Animal_Land_Solid_Large,2.0,2.0,1.0,1.157935333903879,,,,,,,,
encoding,attention,1,9859290,9862308,9860306.0,9861197.0,892.0,892.0,1568.9,1172.0,1591.0,891.0,Animal_Land_Solid_Large,21.582443375024013,24.600202874979004,1.0,Animal_Land_Solid_Large,2.0,2.0,1.0,1.157935333903879,,,,,,,,
encoding,attention,1,9859290,9862308,9861213.0,9861318.0,106.0,106.0,1677.8,1156.5,1591.0,891.0,Animal_Land_Solid_Large,21.582443375024013,24.600202874979004,1.0,Animal_Land_Solid_Large,2.0,2.0,1.0,1.157935333903879,,,,,,,,
encoding,fixation,2,9862308,9862814,9862514.0,9863112.0,599.0,300.0,1921.0,1080.0,1920.0,1080.0,fixation,24.60038695798721,25.10571649996564,1.0,Object_Sea_Solid_Small,7.0,,,,,,,,,,,
encoding,image,2,9862814,9863825,9863151.0,9863253.0,103.0,103.0,1931.1,1353.0,1920.0,700.0,Object_Sea_Solid_Small,25.105884540942498,26.116870249970816,1.0,Object_Sea_Solid_Small,7.0,,,,,,,,,,,
encoding,image,2,9862814,9863825,9863272.0,9863604.0,333.0,333.0,1923.4,1429.7,1920.0,700.0,Object_Sea_Solid_Small,25.105884540942498,26.116870249970816,1.0,Object_Sea_Solid_Small,7.0,,,,,,,,,,,
encoding,image,2,9862814,9863825,9863612.0,9863998.0,387.0,213.0,1941.4,1409.8,1920.0,700.0,Object_Sea_Solid_Small,25.105884540942498,26.116870249970816,1.0,Object_Sea_Solid_Small,7.0,,,,,,,,,,,
encoding,value,2,9863825,9869836,9864011.0,9864577.0,567.0,567.0,1930.0,1360.5,1920.0,700.0,Object_Sea_Solid_Small,26.116990457987413,32.12763787491713,1.0,Object_Sea_Solid_Small,7.0,,,,,,,,,,,
encoding,value,2,9863825,9869836,9864756.0,9867196.0,2441.0,2441.0,1922.2,1340.7,1920.0,700.0,Object_Sea_Solid_Small,26.116990457987413,32.12763787491713,1.0,Object_Sea_Solid_Small,7.0,,,,,,,,,,,
encoding,value,2,9863825,9869836,9867420.0,9867549.0,130.0,130.0,1941.4,1305.3,1920.0,700.0,Object_Sea_Solid_Small,26.116990457987413,32.12763787491713,1.0,Object_Sea_Solid_Small,7.0,,,,,,,,,,,
encoding,value,2,9863825,9869836,9867558.0,9869356.0,1799.0,1799.0,1929.8,1340.0,1920.0,700.0,Object_Sea_Solid_Small,26.116990457987413,32.12763787491713,1.0,Object_Sea_Solid_Small,7.0,,,,,,,,,,,
encoding,value,2,9863825,9869836,9869503.0,9870032.0,530.0,333.0,1934.3,1359.1,1920.0,700.0,Object_Sea_Solid_Small,26.116990457987413,32.12763787491713,1.0,Object_Sea_Solid_Small,7.0,,,,,,,,,,,
encoding,attention,2,9869836,9872853,9870043.0,9870406.0,364.0,364.0,1989.2,1346.5,1920.0,700.0,Object_Sea_Solid_Small,32.12774945795536,35.14473616599571,1.0,Object_Sea_Solid_Small,7.0,7.0,1.0,0.7491505409125239,,,,,,,,
encoding,attention,2,9869836,9872853,9870425.0,9871014.0,590.0,590.0,1894.7,1358.3,1920.0,700.0,Object_Sea_Solid_Small,32.12774945795536,35.14473616599571,1.0,Object_Sea_Solid_Small,7.0,7.0,1.0,0.7491505409125239,,,,,,,,
encoding,attention,2,9869836,9872853,9871287.0,9871514.0,228.0,228.0,2092.1,1317.7,2249.0,891.0,Object_Land_Solid_Large,32.12774945795536,35.14473616599571,1.0,Object_Sea_Solid_Small,7.0,7.0,1.0,0.7491505409125239,,,,,,,,
encoding,attention,2,9869836,9872853,9871534.0,9872531.0,998.0,998.0,1958.0,1340.2,1920.0,700.0,Object_Sea_Solid_Small,32.12774945795536,35.14473616599571,1.0,Object_Sea_Solid_Small,7.0,7.0,1.0,0.7491505409125239,,,,,,,,
encoding,fixation,3,9872853,9873859,9873096.0,9873203.0,108.0,108.0,1966.5,1097.9,1920.0,1080.0,fixation,35.14488866599277,36.15030070801731,1.0,Animal_Sea_Pattern_Small,-9.0,,,,,,,,,,,
encoding,fixation,3,9872853,9873859,9873212.0,9874149.0,938.0,647.0,1929.1,1082.4,1920.0,1080.0,fixation,35.14488866599277,36.15030070801731,1.0,Animal_Sea_Pattern_Small,-9.0,,,,,,,,,,,
encoding,image,3,9873859,9874870,9874184.0,9875014.0,831.0,686.0,2223.2,912.5,2249.0,1269.0,Animal_Sea_Pattern_Small,36.15044612495694,37.161742290947586,1.0,Animal_Sea_Pattern_Small,-9.0,,,,,,,,,,,
encoding,value,3,9874870,9880884,9875032.0,9875840.0,809.0,809.0,2256.5,812.9000000000001,2249.0,1269.0,Animal_Sea_Pattern_Small,37.16185554093681,43.17478779098019,1.0,Animal_Sea_Pattern_Small,-9.0,,,,,,,,,,,
encoding,value,3,9874870,9880884,9876068.0,9876126.0,59.0,59.0,2265.9,771.5,2249.0,1269.0,Animal_Sea_Pattern_Small,37.16185554093681,43.17478779098019,1.0,Animal_Sea_Pattern_Small,-9.0,,,,,,,,,,,
encoding,value,3,9874870,9880884,9876434.0,9876553.0,120.0,120.0,2147.2,805.4000000000001,2249.0,1269.0,Animal_Sea_Pattern_Small,37.16185554093681,43.17478779098019,1.0,Animal_Sea_Pattern_Small,-9.0,,,,,,,,,,,
encoding,value,3,9874870,9880884,9876573.0,9881154.0,4582.0,4311.0,2246.7,782.4000000000001,2249.0,1269.0,Animal_Sea_Pattern_Small,37.16185554093681,43.17478779098019,1.0,Animal_Sea_Pattern_Small,-9.0,,,,,,,,,,,
encoding,attention,3,9880884,9883902,9881166.0,9882110.0,945.0,945.0,2287.0,785.7,2249.0,1269.0,Animal_Sea_Pattern_Small,43.17492220795248,46.1925349580124,1.0,Animal_Sea_Pattern_Small,-9.0,-9.0,1.0,0.893123707966879,,,,,,,,
encoding,attention,3,9880884,9883902,9882369.0,9883087.0,719.0,719.0,2304.9,781.4000000000001,2249.0,1269.0,Animal_Sea_Pattern_Small,43.17492220795248,46.1925349580124,1.0,Animal_Sea_Pattern_Small,-9.0,-9.0,1.0,0.893123707966879,,,,,,,,
encoding,attention,3,9880884,9883902,9883102.0,9883535.0,434.0,434.0,2285.3,852.7,2249.0,1269.0,Animal_Sea_Pattern_Small,43.17492220795248,46.1925349580124,1.0,Animal_Sea_Pattern_Small,-9.0,-9.0,1.0,0.893123707966879,,,,,,,,
encoding,attention,3,9880884,9883902,9883561.0,9883699.0,139.0,139.0,1984.5,1002.4000000000001,2249.0,1269.0,Animal_Sea_Pattern_Small,43.17492220795248,46.1925349580124,1.0,Animal_Sea_Pattern_Small,-9.0,-9.0,1.0,0.893123707966879,,,,,,,,
encoding,fixation,4,9883902,9884660,9883960.0,9884168.0,209.0,209.0,2231.9,907.0999999999999,2249.0,1269.0,Animal_Sea_Pattern_Small,46.19270479097031,46.951006624964066,1.0,Object_Land_Solid_Large,-2.0,,,,,,,,,,,
encoding,fixation,4,9883902,9884660,9884205.0,9884636.0,432.0,432.0,1942.3,1079.9,1920.0,1080.0,fixation,46.19270479097031,46.951006624964066,1.0,Object_Land_Solid_Large,-2.0,,,,,,,,,,,
encoding,image,4,9884660,9885670,9884856.0,9885021.0,166.0,166.0,1923.9,1093.2,1920.0,1080.0,fixation,46.951114833005704,47.96085999999195,1.0,Object_Land_Solid_Large,-2.0,,,,,,,,,,,
encoding,image,4,9884660,9885670,9885056.0,9885235.0,180.0,180.0,2209.4,1222.5,2249.0,891.0,Object_Land_Solid_Large,46.951114833005704,47.96085999999195,1.0,Object_Land_Solid_Large,-2.0,,,,,,,,,,,
encoding,image,4,9884660,9885670,9885270.0,9886281.0,1012.0,400.0,1923.1,1087.4,1920.0,1080.0,fixation,46.951114833005704,47.96085999999195,1.0,Object_Land_Solid_Large,-2.0,,,,,,,,,,,
encoding,value,4,9885670,9891681,9886321.0,9887087.0,767.0,767.0,2247.4,1164.5,2249.0,891.0,Object_Land_Solid_Large,47.9609794159187,53.97157412499655,1.0,Object_Land_Solid_Large,-2.0,,,,,,,,,,,
encoding,value,4,9885670,9891681,9887297.0,9888144.0,848.0,848.0,2238.5,1164.3,2249.0,891.0,Object_Land_Solid_Large,47.9609794159187,53.97157412499655,1.0,Object_Land_Solid_Large,-2.0,,,,,,,,,,,
encoding,value,4,9885670,9891681,9888429.0,9888562.0,134.0,134.0,2338.0,1141.4,2249.0,891.0,Object_Land_Solid_Large,47.9609794159187,53.97157412499655,1.0,Object_Land_Solid_Large,-2.0,,,,,,,,,,,
encoding,value,4,9885670,9891681,9888581.0,9890767.0,2187.0,2187.0,2233.4,1170.7,2249.0,891.0,Object_Land_Solid_Large,47.9609794159187,53.97157412499655,1.0,Object_Land_Solid_Large,-2.0,,,,,,,,,,,
encoding,value,4,9885670,9891681,9890960.0,9891492.0,533.0,533.0,2252.2,1165.5,2249.0,891.0,Object_Land_Solid_Large,47.9609794159187,53.97157412499655,1.0,Object_Land_Solid_Large,-2.0,,,,,,,,,,,
encoding,value,4,9885670,9891681,9891512.0,9891836.0,325.0,169.0,2217.8,1255.4,2249.0,891.0,Object_Land_Solid_Large,47.9609794159187,53.97157412499655,1.0,Object_Land_Solid_Large,-2.0,,,,,,,,,,,
encoding,attention,4,9891681,9894697,9891870.0,9893006.0,1137.0,1137.0,2220.5,1166.6,2249.0,891.0,Object_Land_Solid_Large,53.97168987500481,56.98717666591983,1.0,Object_Land_Solid_Large,-2.0,4.0,0.0,0.7326288340846077,,,,,,,,
encoding,attention,4,9891681,9894697,9893025.0,9893302.0,278.0,278.0,2289.8,1171.0,2249.0,891.0,Object_Land_Solid_Large,53.97168987500481,56.98717666591983,1.0,Object_Land_Solid_Large,-2.0,4.0,0.0,0.7326288340846077,,,,,,,,
encoding,attention,4,9891681,9894697,9893318.0,9893640.0,323.0,323.0,2224.0,1171.0,2249.0,891.0,Object_Land_Solid_Large,53.97168987500481,56.98717666591983,1.0,Object_Land_Solid_Large,-2.0,4.0,0.0,0.7326288340846077,,,,,,,,
encoding,attention,4,9891681,9894697,9893659.0,9893927.0,269.0,269.0,2314.3,1162.9,2249.0,891.0,Object_Land_Solid_Large,53.97168987500481,56.98717666591983,1.0,Object_Land_Solid_Large,-2.0,4.0,0.0,0.7326288340846077,,,,,,,,
encoding,attention,4,9891681,9894697,9893945.0,9894518.0,574.0,574.0,2228.6,1169.3,2249.0,891.0,Object_Land_Solid_Large,53.97168987500481,56.98717666591983,1.0,Object_Land_Solid_Large,-2.0,4.0,0.0,0.7326288340846077,,,,,,,,
encoding,fixation,5,9894697,9895452,9894735.0,9894893.0,159.0,159.0,2275.1,1142.5,2249.0,891.0,Object_Land_Solid_Large,56.98732758301776,57.74279254092835,1.0,Object_Sea_Pattern_Small,-4.0,,,,,,,,,,,
encoding,fixation,5,9894697,9895452,9894940.0,9895086.0,147.0,147.0,1926.0,1069.1,1920.0,1080.0,fixation,56.98732758301776,57.74279254092835,1.0,Object_Sea_Pattern_Small,-4.0,,,,,,,,,,,
encoding,fixation,5,9894697,9895452,9895094.0,9895654.0,561.0,358.0,1939.6,1067.4,1920.0,1080.0,fixation,56.98732758301776,57.74279254092835,1.0,Object_Sea_Pattern_Small,-4.0,,,,,,,,,,,
encoding,image,5,9895452,9896463,9895700.0,9895932.0,233.0,233.0,1647.4,912.2,1591.0,1269.0,Object_Sea_Pattern_Small,57.74289824999869,58.753400875022635,1.0,Object_Sea_Pattern_Small,-4.0,,,,,,,,,,,
encoding,image,5,9895452,9896463,9895964.0,9896098.0,135.0,135.0,1899.4,1038.6,1920.0,1080.0,fixation,57.74289824999869,58.753400875022635,1.0,Object_Sea_Pattern_Small,-4.0,,,,,,,,,,,
encoding,image,5,9895452,9896463,9896110.0,9896217.0,108.0,108.0,1935.2,1064.4,1920.0,1080.0,fixation,57.74289824999869,58.753400875022635,1.0,Object_Sea_Pattern_Small,-4.0,,,,,,,,,,,
encoding,image,5,9895452,9896463,9896263.0,9896607.0,345.0,200.0,1653.3,906.2,1591.0,1269.0,Object_Sea_Pattern_Small,57.74289824999869,58.753400875022635,1.0,Object_Sea_Pattern_Small,-4.0,,,,,,,,,,,
encoding,value,5,9896463,9902474,9896629.0,9896889.0,261.0,261.0,1622.0,821.7,1591.0,1269.0,Object_Sea_Pattern_Small,58.75350795791019,64.76417341595516,1.0,Object_Sea_Pattern_Small,-4.0,,,,,,,,,,,
encoding,value,5,9896463,9902474,9896929.0,9897055.0,127.0,127.0,1949.3,1032.2,1920.0,1080.0,fixation,58.75350795791019,64.76417341595516,1.0,Object_Sea_Pattern_Small,-4.0,,,,,,,,,,,
encoding,value,5,9896463,9902474,9897071.0,9897390.0,320.0,320.0,1930.9,1069.3,1920.0,1080.0,fixation,58.75350795791019,64.76417341595516,1.0,Object_Sea_Pattern_Small,-4.0,,,,,,,,,,,
encoding,value,5,9896463,9902474,9897579.0,9897617.0,39.0,39.0,1884.6,1066.2,1920.0,1080.0,fixation,58.75350795791019,64.76417341595516,1.0,Object_Sea_Pattern_Small,-4.0,,,,,,,,,,,
encoding,value,5,9896463,9902474,9897652.0,9897802.0,151.0,151.0,1634.8,846.4000000000001,1591.0,1269.0,Object_Sea_Pattern_Small,58.75350795791019,64.76417341595516,1.0,Object_Sea_Pattern_Small,-4.0,,,,,,,,,,,
encoding,value,5,9896463,9902474,9897815.0,9898801.0,987.0,987.0,1607.9,794.0999999999999,1591.0,1269.0,Object_Sea_Pattern_Small,58.75350795791019,64.76417341595516,1.0,Object_Sea_Pattern_Small,-4.0,,,,,,,,,,,
encoding,value,5,9896463,9902474,9899036.0,9900586.0,1551.0,1551.0,1603.7,799.3,1591.0,1269.0,Object_Sea_Pattern_Small,58.75350795791019,64.76417341595516,1.0,Object_Sea_Pattern_Small,-4.0,,,,,,,,,,,
encoding,value,5,9896463,9902474,9900836.0,9900865.0,30.0,30.0,1591.8,850.5999999999999,1591.0,1269.0,Object_Sea_Pattern_Small,58.75350795791019,64.76417341595516,1.0,Object_Sea_Pattern_Small,-4.0,,,,,,,,,,,
encoding,value,5,9896463,9902474,9900872.0,9902276.0,1405.0,1405.0,1610.6,789.4000000000001,1591.0,1269.0,Object_Sea_Pattern_Small,58.75350795791019,64.76417341595516,1.0,Object_Sea_Pattern_Small,-4.0,,,,,,,,,,,
encoding,attention,5,9902474,9905526,9902510.0,9902537.0,28.0,28.0,1581.8,862.0,1591.0,1269.0,Object_Sea_Pattern_Small,64.76429870794527,67.81602595793083,1.0,Object_Sea_Pattern_Small,-4.0,-4.0,1.0,0.893858625087887,,,,,,,,
encoding,attention,5,9902474,9905526,9902545.0,9902915.0,371.0,371.0,1622.4,792.5999999999999,1591.0,1269.0,Object_Sea_Pattern_Small,64.76429870794527,67.81602595793083,1.0,Object_Sea_Pattern_Small,-4.0,-4.0,1.0,0.893858625087887,,,,,,,,
encoding,attention,5,9902474,9905526,9902933.0,9903729.0,797.0,797.0,1555.1,782.0999999999999,1591.0,1269.0,Object_Sea_Pattern_Small,64.76429870794527,67.81602595793083,1.0,Object_Sea_Pattern_Small,-4.0,-4.0,1.0,0.893858625087887,,,,,,,,
encoding,attention,5,9902474,9905526,9903969.0,9904144.0,176.0,176.0,1945.5,1083.1,1920.0,1080.0,fixation,64.76429870794527,67.81602595793083,1.0,Object_Sea_Pattern_Small,-4.0,-4.0,1.0,0.893858625087887,,,,,,,,
encoding,attention,5,9902474,9905526,9904152.0,9904372.0,221.0,221.0,1912.2,1067.9,1920.0,1080.0,fixation,64.76429870794527,67.81602595793083,1.0,Object_Sea_Pattern_Small,-4.0,-4.0,1.0,0.893858625087887,,,,,,,,
encoding,attention,5,9902474,9905526,9904407.0,9904591.0,185.0,185.0,1619.4,818.3,1591.0,1269.0,Object_Sea_Pattern_Small,64.76429870794527,67.81602595793083,1.0,Object_Sea_Pattern_Small,-4.0,-4.0,1.0,0.893858625087887,,,,,,,,
encoding,attention,5,9902474,9905526,9904605.0,9904974.0,370.0,370.0,1558.2,795.7,1591.0,1269.0,Object_Sea_Pattern_Small,64.76429870794527,67.81602595793083,1.0,Object_Sea_Pattern_Small,-4.0,-4.0,1.0,0.893858625087887,,,,,,,,
encoding,attention,5,9902474,9905526,9905241.0,9905339.0,99.0,99.0,2054.1,1020.9000000000001,2249.0,1269.0,Animal_Sea_Pattern_Small,64.76429870794527,67.81602595793083,1.0,Object_Sea_Pattern_Small,-4.0,-4.0,1.0,0.893858625087887,,,,,,,,
encoding,fixation,6,9905526,9906281,9905641.0,9905721.0,81.0,81.0,1617.6,806.0999999999999,1591.0,1269.0,Object_Sea_Pattern_Small,67.81617387500592,68.57125641591847,1.0,Animal_Land_Pattern_Large,1.0,,,,,,,,,,,
encoding,fixation,6,9905526,9906281,9905768.0,9906507.0,740.0,513.0,1931.8,1084.0,1920.0,1080.0,fixation,67.81617387500592,68.57125641591847,1.0,Animal_Land_Pattern_Large,1.0,,,,,,,,,,,
encoding,image,6,9906281,9907292,9906556.0,9906702.0,147.0,147.0,1935.5,761.3,1920.0,1460.0,Animal_Land_Pattern_Large,68.57137399993371,69.58182379091159,1.0,Animal_Land_Pattern_Large,1.0,,,,,,,,,,,
encoding,image,6,9906281,9907292,9906712.0,9906978.0,267.0,267.0,1889.7,738.4000000000001,1920.0,1460.0,Animal_Land_Pattern_Large,68.57137399993371,69.58182379091159,1.0,Animal_Land_Pattern_Large,1.0,,,,,,,,,,,
encoding,image,6,9906281,9907292,9906994.0,9907208.0,215.0,215.0,1935.0,685.3,1920.0,1460.0,Animal_Land_Pattern_Large,68.57137399993371,69.58182379091159,1.0,Animal_Land_Pattern_Large,1.0,,,,,,,,,,,
encoding,image,6,9906281,9907292,9907220.0,9907491.0,272.0,72.0,1896.8,648.3,1920.0,1460.0,Animal_Land_Pattern_Large,68.57137399993371,69.58182379091159,1.0,Animal_Land_Pattern_Large,1.0,,,,,,,,,,,
encoding,value,6,9907292,9913304,9907501.0,9907902.0,402.0,402.0,1922.2,610.9000000000001,1920.0,1460.0,Animal_Land_Pattern_Large,69.58196933299769,75.59329087496735,1.0,Animal_Land_Pattern_Large,1.0,,,,,,,,,,,
encoding,value,6,9907292,9913304,9908103.0,9908233.0,131.0,131.0,1932.8,1171.5,1920.0,700.0,Object_Sea_Solid_Small,69.58196933299769,75.59329087496735,1.0,Animal_Land_Pattern_Large,1.0,,,,,,,,,,,
encoding,value,6,9907292,9913304,9908251.0,9908478.0,228.0,228.0,1921.0,1101.0,1920.0,1080.0,fixation,69.58196933299769,75.59329087496735,1.0,Animal_Land_Pattern_Large,1.0,,,,,,,,,,,
encoding,value,6,9907292,9913304,9908522.0,9908716.0,195.0,195.0,1908.2,624.0999999999999,1920.0,1460.0,Animal_Land_Pattern_Large,69.58196933299769,75.59329087496735,1.0,Animal_Land_Pattern_Large,1.0,,,,,,,,,,,
encoding,value,6,9907292,9913304,9908724.0,9909771.0,1048.0,1048.0,1930.7,612.5999999999999,1920.0,1460.0,Animal_Land_Pattern_Large,69.58196933299769,75.59329087496735,1.0,Animal_Land_Pattern_Large,1.0,,,,,,,,,,,
encoding,value,6,9907292,9913304,9909787.0,9909820.0,34.0,34.0,1887.2,689.4000000000001,1920.0,1460.0,Animal_Land_Pattern_Large,69.58196933299769,75.59329087496735,1.0,Animal_Land_Pattern_Large,1.0,,,,,,,,,,,
encoding,value,6,9907292,9913304,9910028.0,9910718.0,691.0,691.0,1931.8,714.2,1920.0,1460.0,Animal_Land_Pattern_Large,69.58196933299769,75.59329087496735,1.0,Animal_Land_Pattern_Large,1.0,,,,,,,,,,,
encoding,value,6,9907292,9913304,9910743.0,9913545.0,2803.0,2561.0,1915.7,603.4000000000001,1920.0,1460.0,Animal_Land_Pattern_Large,69.58196933299769,75.59329087496735,1.0,Animal_Land_Pattern_Large,1.0,,,,,,,,,,,
encoding,attention,6,9913304,9916321,9913557.0,9913812.0,256.0,256.0,1964.6,605.3,1920.0,1460.0,Animal_Land_Pattern_Large,75.59341616590973,78.61012650001794,1.0,Animal_Land_Pattern_Large,1.0,1.0,1.0,0.7704892500769347,,,,,,,,
encoding,attention,6,9913304,9916321,9913831.0,9913950.0,120.0,120.0,1878.1,619.0,1920.0,1460.0,Animal_Land_Pattern_Large,75.59341616590973,78.61012650001794,1.0,Animal_Land_Pattern_Large,1.0,1.0,1.0,0.7704892500769347,,,,,,,,
encoding,attention,6,9913304,9916321,9913967.0,9914399.0,433.0,433.0,1960.5,632.9000000000001,1920.0,1460.0,Animal_Land_Pattern_Large,75.59341616590973,78.61012650001794,1.0,Animal_Land_Pattern_Large,1.0,1.0,1.0,0.7704892500769347,,,,,,,,
encoding,attention,6,9913304,9916321,9914414.0,9914558.0,145.0,145.0,1877.8,620.9000000000001,1920.0,1460.0,Animal_Land_Pattern_Large,75.59341616590973,78.61012650001794,1.0,Animal_Land_Pattern_Large,1.0,1.0,1.0,0.7704892500769347,,,,,,,,
encoding,attention,6,9913304,9916321,9914813.0,9914851.0,39.0,39.0,1901.9,626.2,1920.0,1460.0,Animal_Land_Pattern_Large,75.59341616590973,78.61012650001794,1.0,Animal_Land_Pattern_Large,1.0,1.0,1.0,0.7704892500769347,,,,,,,,
encoding,attention,6,9913304,9916321,9914864.0,9914943.0,80.0,80.0,1934.7,617.9000000000001,1920.0,1460.0,Animal_Land_Pattern_Large,75.59341616590973,78.61012650001794,1.0,Animal_Land_Pattern_Large,1.0,1.0,1.0,0.7704892500769347,,,,,,,,
encoding,attention,6,9913304,9916321,9914951.0,9915321.0,371.0,371.0,1971.8,600.0999999999999,1920.0,1460.0,Animal_Land_Pattern_Large,75.59341616590973,78.61012650001794,1.0,Animal_Land_Pattern_Large,1.0,1.0,1.0,0.7704892500769347,,,,,,,,
encoding,attention,6,9913304,9916321,9915344.0,9915755.0,412.0,412.0,1887.8,758.2,1920.0,1460.0,Animal_Land_Pattern_Large,75.59341616590973,78.61012650001794,1.0,Animal_Land_Pattern_Large,1.0,1.0,1.0,0.7704892500769347,,,,,,,,
encoding,attention,6,9913304,9916321,9915768.0,9916009.0,242.0,242.0,1955.3,746.5999999999999,1920.0,1460.0,Animal_Land_Pattern_Large,75.59341616590973,78.61012650001794,1.0,Animal_Land_Pattern_Large,1.0,1.0,1.0,0.7704892500769347,,,,,,,,
encoding,attention,6,9913304,9916321,9916018.0,9916275.0,258.0,258.0,1955.7,708.5,1920.0,1460.0,Animal_Land_Pattern_Large,75.59341616590973,78.61012650001794,1.0,Animal_Land_Pattern_Large,1.0,1.0,1.0,0.7704892500769347,,,,,,,,
encoding,fixation,7,10305464,10306720,10305668.0,10305797.0,130.0,130.0,1944.2,1062.7,1920.0,1080.0,fixation,10.173669624957256,11.429551165900191,2.0,Object_Land_Pattern_Large,7.0,,,,,,,,,,,
encoding,fixation,7,10305464,10306720,10305805.0,10306029.0,225.0,225.0,1944.9,1097.0,1920.0,1080.0,fixation,10.173669624957256,11.429551165900191,2.0,Object_Land_Pattern_Large,7.0,,,,,,,,,,,
encoding,fixation,7,10305464,10306720,10306063.0,10306306.0,244.0,244.0,1958.5,1350.9,1920.0,700.0,Animal_Land_Pattern_Small,10.173669624957256,11.429551165900191,2.0,Object_Land_Pattern_Large,7.0,,,,,,,,,,,
encoding,fixation,7,10305464,10306720,10306336.0,10306453.0,118.0,118.0,1935.6,1194.8,1920.0,700.0,Animal_Land_Pattern_Small,10.173669624957256,11.429551165900191,2.0,Object_Land_Pattern_Large,7.0,,,,,,,,,,,
encoding,fixation,7,10305464,10306720,10306472.0,10306916.0,445.0,248.0,1955.8,1121.4,1920.0,1080.0,fixation,10.173669624957256,11.429551165900191,2.0,Object_Land_Pattern_Large,7.0,,,,,,,,,,,
encoding,image,7,10306720,10307732,10306950.0,10307289.0,340.0,340.0,2228.5,1233.7,2249.0,891.0,Object_Land_Pattern_Large,11.429687249939889,12.442082291003317,2.0,Object_Land_Pattern_Large,7.0,,,,,,,,,,,
encoding,image,7,10306720,10307732,10307516.0,10307931.0,416.0,216.0,2236.4,1193.3,2249.0,891.0,Object_Land_Pattern_Large,11.429687249939889,12.442082291003317,2.0,Object_Land_Pattern_Large,7.0,,,,,,,,,,,
encoding,value,7,10307732,10313746,10307938.0,10309599.0,1662.0,1662.0,2271.7,1191.9,2249.0,891.0,Object_Land_Pattern_Large,12.442192832939329,18.455692040966824,2.0,Object_Land_Pattern_Large,7.0,,,,,,,,,,,
encoding,value,7,10307732,10313746,10309615.0,10309888.0,274.0,274.0,2237.7,1223.2,2249.0,891.0,Object_Land_Pattern_Large,12.442192832939329,18.455692040966824,2.0,Object_Land_Pattern_Large,7.0,,,,,,,,,,,
encoding,value,7,10307732,10313746,10309899.0,10310078.0,180.0,180.0,2272.6,1198.9,2249.0,891.0,Object_Land_Pattern_Large,12.442192832939329,18.455692040966824,2.0,Object_Land_Pattern_Large,7.0,,,,,,,,,,,
encoding,value,7,10307732,10313746,10310093.0,10310662.0,570.0,570.0,2258.9,1266.0,2249.0,891.0,Object_Land_Pattern_Large,12.442192832939329,18.455692040966824,2.0,Object_Land_Pattern_Large,7.0,,,,,,,,,,,
encoding,value,7,10307732,10313746,10310873.0,10311073.0,201.0,201.0,2265.1,1214.1,2249.0,891.0,Object_Land_Pattern_Large,12.442192832939329,18.455692040966824,2.0,Object_Land_Pattern_Large,7.0,,,,,,,,,,,
encoding,value,7,10307732,10313746,10311083.0,10311976.0,894.0,894.0,2251.9,1201.1,2249.0,891.0,Object_Land_Pattern_Large,12.442192832939329,18.455692040966824,2.0,Object_Land_Pattern_Large,7.0,,,,,,,,,,,
encoding,value,7,10307732,10313746,10311998.0,10312129.0,132.0,132.0,2037.3,1187.2,2249.0,891.0,Object_Land_Pattern_Large,12.442192832939329,18.455692040966824,2.0,Object_Land_Pattern_Large,7.0,,,,,,,,,,,
encoding,value,7,10307732,10313746,10312145.0,10312209.0,65.0,65.0,1945.1,1156.6,1920.0,700.0,Animal_Land_Pattern_Small,12.442192832939329,18.455692040966824,2.0,Object_Land_Pattern_Large,7.0,,,,,,,,,,,
encoding,value,7,10307732,10313746,10312245.0,10312829.0,585.0,585.0,2246.2,1202.7,2249.0,891.0,Object_Land_Pattern_Large,12.442192832939329,18.455692040966824,2.0,Object_Land_Pattern_Large,7.0,,,,,,,,,,,
encoding,value,7,10307732,10313746,10313033.0,10313969.0,937.0,713.0,2262.7,1208.3,2249.0,891.0,Object_Land_Pattern_Large,12.442192832939329,18.455692040966824,2.0,Object_Land_Pattern_Large,7.0,,,,,,,,,,,
encoding,attention,7,10313746,10316765,10313983.0,10314199.0,217.0,217.0,2313.6,1208.0,2249.0,891.0,Object_Land_Pattern_Large,18.455807874910533,21.474770791013725,2.0,Object_Land_Pattern_Large,7.0,7.0,1.0,0.5593787910183892,,,,,,,,
encoding,attention,7,10313746,10316765,10314218.0,10314633.0,416.0,416.0,2201.7,1210.4,2249.0,891.0,Object_Land_Pattern_Large,18.455807874910533,21.474770791013725,2.0,Object_Land_Pattern_Large,7.0,7.0,1.0,0.5593787910183892,,,,,,,,
encoding,attention,7,10313746,10316765,10314812.0,10314832.0,21.0,21.0,2206.5,1098.0,2249.0,891.0,Object_Land_Pattern_Large,18.455807874910533,21.474770791013725,2.0,Object_Land_Pattern_Large,7.0,7.0,1.0,0.5593787910183892,,,,,,,,
encoding,attention,7,10313746,10316765,10315061.0,10315807.0,747.0,747.0,2331.3,1174.9,2249.0,891.0,Object_Land_Pattern_Large,18.455807874910533,21.474770791013725,2.0,Object_Land_Pattern_Large,7.0,7.0,1.0,0.5593787910183892,,,,,,,,
encoding,attention,7,10313746,10316765,10315822.0,10316009.0,188.0,188.0,2267.9,1230.3,2249.0,891.0,Object_Land_Pattern_Large,18.455807874910533,21.474770791013725,2.0,Object_Land_Pattern_Large,7.0,7.0,1.0,0.5593787910183892,,,,,,,,
encoding,attention,7,10313746,10316765,10316022.0,10316449.0,428.0,428.0,2221.5,1195.8,2249.0,891.0,Object_Land_Pattern_Large,18.455807874910533,21.474770791013725,2.0,Object_Land_Pattern_Large,7.0,7.0,1.0,0.5593787910183892,,,,,,,,
encoding,attention,7,10313746,10316765,10316483.0,10316626.0,144.0,144.0,1966.3,1103.0,1920.0,1080.0,fixation,18.455807874910533,21.474770791013725,2.0,Object_Land_Pattern_Large,7.0,7.0,1.0,0.5593787910183892,,,,,,,,
encoding,fixation,8,10316765,10317521,10316991.0,10317726.0,736.0,530.0,1952.4,1092.7,1920.0,1080.0,fixation,21.47492162499111,22.23005587491207,2.0,Object_Sea_Solid_Large,6.0,,,,,,,,,,,
encoding,image,8,10317521,10318533,10317762.0,10318124.0,363.0,363.0,2256.7,912.0,2249.0,1269.0,Object_Sea_Solid_Large,22.2301778330002,23.241919916006736,2.0,Object_Sea_Solid_Large,6.0,,,,,,,,,,,
encoding,image,8,10317521,10318533,10318369.0,10318708.0,340.0,164.0,2277.6,858.3,2249.0,1269.0,Object_Sea_Solid_Large,22.2301778330002,23.241919916006736,2.0,Object_Sea_Solid_Large,6.0,,,,,,,,,,,
encoding,value,8,10318533,10324546,10318727.0,10319837.0,1111.0,1111.0,2269.1,800.3,2249.0,1269.0,Object_Sea_Solid_Large,23.242023707949556,29.25486604101025,2.0,Object_Sea_Solid_Large,6.0,,,,,,,,,,,
encoding,value,8,10318533,10324546,10320067.0,10320601.0,535.0,535.0,2247.3,871.2,2249.0,1269.0,Object_Sea_Solid_Large,23.242023707949556,29.25486604101025,2.0,Object_Sea_Solid_Large,6.0,,,,,,,,,,,
encoding,value,8,10318533,10324546,10320619.0,10321602.0,984.0,984.0,2270.0,803.5999999999999,2249.0,1269.0,Object_Sea_Solid_Large,23.242023707949556,29.25486604101025,2.0,Object_Sea_Solid_Large,6.0,,,,,,,,,,,
encoding,value,8,10318533,10324546,10321623.0,10322051.0,429.0,429.0,2272.0,886.8,2249.0,1269.0,Object_Sea_Solid_Large,23.242023707949556,29.25486604101025,2.0,Object_Sea_Solid_Large,6.0,,,,,,,,,,,
encoding,value,8,10318533,10324546,10322073.0,10322405.0,333.0,333.0,2283.6,795.0999999999999,2249.0,1269.0,Object_Sea_Solid_Large,23.242023707949556,29.25486604101025,2.0,Object_Sea_Solid_Large,6.0,,,,,,,,,,,
encoding,value,8,10318533,10324546,10322607.0,10323503.0,897.0,897.0,2263.8,800.9000000000001,2249.0,1269.0,Object_Sea_Solid_Large,23.242023707949556,29.25486604101025,2.0,Object_Sea_Solid_Large,6.0,,,,,,,,,,,
encoding,value,8,10318533,10324546,10323513.0,10324263.0,751.0,751.0,2243.6,815.5,2249.0,1269.0,Object_Sea_Solid_Large,23.242023707949556,29.25486604101025,2.0,Object_Sea_Solid_Large,6.0,,,,,,,,,,,
encoding,value,8,10318533,10324546,10324271.0,10324747.0,477.0,275.0,2268.5,801.7,2249.0,1269.0,Object_Sea_Solid_Large,23.242023707949556,29.25486604101025,2.0,Object_Sea_Solid_Large,6.0,,,,,,,,,,,
encoding,attention,8,10324546,10327564,10324756.0,10325022.0,267.0,267.0,2231.1,797.9000000000001,2249.0,1269.0,Object_Sea_Solid_Large,29.25498508301098,32.27278637490235,2.0,Object_Sea_Solid_Large,6.0,6.0,1.0,1.1383413340663535,,,,,,,,
encoding,attention,8,10324546,10327564,10325040.0,10326276.0,1237.0,1237.0,2302.1,792.5,2249.0,1269.0,Object_Sea_Solid_Large,29.25498508301098,32.27278637490235,2.0,Object_Sea_Solid_Large,6.0,6.0,1.0,1.1383413340663535,,,,,,,,
encoding,fixation,9,10327564,10329069,10327760.0,10329321.0,1562.0,1309.0,1966.9,1095.3,1920.0,1080.0,fixation,32.273024082998745,33.77826724993065,2.0,Object_Sea_Pattern_Small,-9.0,,,,,,,,,,,
encoding,image,9,10329069,10330080,10329354.0,10329577.0,224.0,224.0,1699.7,960.3,1591.0,1269.0,Object_Sea_Pattern_Small,33.778385040932335,34.78903791599441,2.0,Object_Sea_Pattern_Small,-9.0,,,,,,,,,,,
encoding,image,9,10329069,10330080,10329588.0,10329942.0,355.0,355.0,1653.2,933.9000000000001,1591.0,1269.0,Object_Sea_Pattern_Small,33.778385040932335,34.78903791599441,2.0,Object_Sea_Pattern_Small,-9.0,,,,,,,,,,,
encoding,value,9,10330080,10336095,10330210.0,10330315.0,106.0,106.0,1633.4,891.0,1591.0,1269.0,Object_Sea_Pattern_Small,34.78914749994874,40.80380808294285,2.0,Object_Sea_Pattern_Small,-9.0,,,,,,,,,,,
encoding,value,9,10330080,10336095,10330334.0,10331299.0,966.0,966.0,1646.8,808.7,1591.0,1269.0,Object_Sea_Pattern_Small,34.78914749994874,40.80380808294285,2.0,Object_Sea_Pattern_Small,-9.0,,,,,,,,,,,
encoding,value,9,10330080,10336095,10331316.0,10331809.0,494.0,494.0,1627.3,881.2,1591.0,1269.0,Object_Sea_Pattern_Small,34.78914749994874,40.80380808294285,2.0,Object_Sea_Pattern_Small,-9.0,,,,,,,,,,,
encoding,value,9,10330080,10336095,10331823.0,10333713.0,1891.0,1891.0,1631.3,808.0,1591.0,1269.0,Object_Sea_Pattern_Small,34.78914749994874,40.80380808294285,2.0,Object_Sea_Pattern_Small,-9.0,,,,,,,,,,,
encoding,value,9,10330080,10336095,10333981.0,10336301.0,2321.0,2114.0,1642.5,810.0,1591.0,1269.0,Object_Sea_Pattern_Small,34.78914749994874,40.80380808294285,2.0,Object_Sea_Pattern_Small,-9.0,,,,,,,,,,,
encoding,attention,9,10336095,10339112,10336309.0,10337123.0,815.0,815.0,1689.5,812.3,1591.0,1269.0,Object_Sea_Pattern_Small,40.803920915932395,43.82076304091606,2.0,Object_Sea_Pattern_Small,-9.0,-9.0,1.0,0.6524131250334904,,,,,,,,
encoding,attention,9,10336095,10339112,10337383.0,10337559.0,177.0,177.0,1668.1,876.0,1591.0,1269.0,Object_Sea_Pattern_Small,40.803920915932395,43.82076304091606,2.0,Object_Sea_Pattern_Small,-9.0,-9.0,1.0,0.6524131250334904,,,,,,,,
encoding,attention,9,10336095,10339112,10337575.0,10337945.0,371.0,371.0,1702.3,817.7,1591.0,1269.0,Object_Sea_Pattern_Small,40.803920915932395,43.82076304091606,2.0,Object_Sea_Pattern_Small,-9.0,-9.0,1.0,0.6524131250334904,,,,,,,,
encoding,attention,9,10336095,10339112,10337985.0,10338225.0,241.0,241.0,2043.0,888.7,2249.0,1269.0,Object_Sea_Solid_Large,40.803920915932395,43.82076304091606,2.0,Object_Sea_Pattern_Small,-9.0,-9.0,1.0,0.6524131250334904,,,,,,,,
encoding,attention,9,10336095,10339112,10338260.0,10338961.0,702.0,702.0,1671.9,885.5,1591.0,1269.0,Object_Sea_Pattern_Small,40.803920915932395,43.82076304091606,2.0,Object_Sea_Pattern_Small,-9.0,-9.0,1.0,0.6524131250334904,,,,,,,,
encoding,fixation,10,10339112,10340368,10339226.0,10339254.0,29.0,29.0,1624.9,932.4000000000001,1591.0,1269.0,Object_Sea_Pattern_Small,43.820915457908995,45.07635995792225,2.0,Animal_Sea_Solid_Small,2.0,,,,,,,,,,,
encoding,fixation,10,10339112,10340368,10339266.0,10339367.0,102.0,102.0,1641.8,846.5,1591.0,1269.0,Object_Sea_Pattern_Small,43.820915457908995,45.07635995792225,2.0,Animal_Sea_Solid_Small,2.0,,,,,,,,,,,
encoding,fixation,10,10339112,10340368,10339405.0,10339533.0,129.0,129.0,1967.2,1034.3,1920.0,1080.0,fixation,43.820915457908995,45.07635995792225,2.0,Animal_Sea_Solid_Small,2.0,,,,,,,,,,,
encoding,fixation,10,10339112,10340368,10339547.0,10340471.0,925.0,821.0,1955.4,1092.9,1920.0,1080.0,fixation,43.820915457908995,45.07635995792225,2.0,Animal_Sea_Solid_Small,2.0,,,,,,,,,,,
encoding,image,10,10340368,10341379,10340744.0,10340923.0,180.0,180.0,1892.4,744.0,1920.0,1460.0,Animal_Sea_Solid_Small,45.07647787500173,46.08748824999202,2.0,Animal_Sea_Solid_Small,2.0,,,,,,,,,,,
encoding,image,10,10340368,10341379,10340935.0,10341462.0,528.0,444.0,1943.5,732.4000000000001,1920.0,1460.0,Animal_Sea_Solid_Small,45.07647787500173,46.08748824999202,2.0,Animal_Sea_Solid_Small,2.0,,,,,,,,,,,
encoding,value,10,10341379,10347391,10341473.0,10341596.0,124.0,124.0,1948.9,700.4000000000001,1920.0,1460.0,Animal_Sea_Solid_Small,46.08762199990451,52.09944745793473,2.0,Animal_Sea_Solid_Small,2.0,,,,,,,,,,,
encoding,value,10,10341379,10347391,10341614.0,10342077.0,464.0,464.0,1931.1,648.4000000000001,1920.0,1460.0,Animal_Sea_Solid_Small,46.08762199990451,52.09944745793473,2.0,Animal_Sea_Solid_Small,2.0,,,,,,,,,,,
encoding,value,10,10341379,10347391,10342454.0,10343721.0,1268.0,1268.0,1939.7,631.0,1920.0,1460.0,Animal_Sea_Solid_Small,46.08762199990451,52.09944745793473,2.0,Animal_Sea_Solid_Small,2.0,,,,,,,,,,,
encoding,value,10,10341379,10347391,10343733.0,10343941.0,209.0,209.0,1917.6,662.0999999999999,1920.0,1460.0,Animal_Sea_Solid_Small,46.08762199990451,52.09944745793473,2.0,Animal_Sea_Solid_Small,2.0,,,,,,,,,,,
encoding,value,10,10341379,10347391,10343951.0,10344136.0,186.0,186.0,1939.8,631.9000000000001,1920.0,1460.0,Animal_Sea_Solid_Small,46.08762199990451,52.09944745793473,2.0,Animal_Sea_Solid_Small,2.0,,,,,,,,,,,
encoding,value,10,10341379,10347391,10344470.0,10346452.0,1983.0,1983.0,1943.9,652.2,1920.0,1460.0,Animal_Sea_Solid_Small,46.08762199990451,52.09944745793473,2.0,Animal_Sea_Solid_Small,2.0,,,,,,,,,,,
encoding,value,10,10341379,10347391,10346757.0,10346823.0,67.0,67.0,2001.3,681.9000000000001,1920.0,1460.0,Animal_Sea_Solid_Small,46.08762199990451,52.09944745793473,2.0,Animal_Sea_Solid_Small,2.0,,,,,,,,,,,
encoding,value,10,10341379,10347391,10346835.0,10347631.0,797.0,556.0,1962.7,653.3,1920.0,1460.0,Animal_Sea_Solid_Small,46.08762199990451,52.09944745793473,2.0,Animal_Sea_Solid_Small,2.0,,,,,,,,,,,
encoding,attention,10,10347391,10350408,10347640.0,10347913.0,274.0,274.0,1997.0,705.0,1920.0,1460.0,Animal_Sea_Solid_Small,52.09959712496493,55.11645591596607,2.0,Animal_Sea_Solid_Small,2.0,2.0,1.0,0.7565511659486219,,,,,,,,
encoding,attention,10,10347391,10350408,10347973.0,10348003.0,31.0,31.0,1910.8,737.5,1920.0,1460.0,Animal_Sea_Solid_Small,52.09959712496493,55.11645591596607,2.0,Animal_Sea_Solid_Small,2.0,2.0,1.0,0.7565511659486219,,,,,,,,
encoding,attention,10,10347391,10350408,10348408.0,10348436.0,29.0,29.0,1888.7,806.3,1920.0,1460.0,Animal_Sea_Solid_Small,52.09959712496493,55.11645591596607,2.0,Animal_Sea_Solid_Small,2.0,2.0,1.0,0.7565511659486219,,,,,,,,
encoding,attention,10,10347391,10350408,10348645.0,10348665.0,21.0,21.0,1987.2,740.0,1920.0,1460.0,Animal_Sea_Solid_Small,52.09959712496493,55.11645591596607,2.0,Animal_Sea_Solid_Small,2.0,2.0,1.0,0.7565511659486219,,,,,,,,
encoding,attention,10,10347391,10350408,10348761.0,10348915.0,155.0,155.0,1995.2,719.9000000000001,1920.0,1460.0,Animal_Sea_Solid_Small,52.09959712496493,55.11645591596607,2.0,Animal_Sea_Solid_Small,2.0,2.0,1.0,0.7565511659486219,,,,,,,,
encoding,attention,10,10347391,10350408,10348924.0,10349040.0,117.0,117.0,1992.6,731.2,1920.0,1460.0,Animal_Sea_Solid_Small,52.09959712496493,55.11645591596607,2.0,Animal_Sea_Solid_Small,2.0,2.0,1.0,0.7565511659486219,,,,,,,,
encoding,attention,10,10347391,10350408,10349066.0,10349288.0,223.0,223.0,1906.5,776.0,1920.0,1460.0,Animal_Sea_Solid_Small,52.09959712496493,55.11645591596607,2.0,Animal_Sea_Solid_Small,2.0,2.0,1.0,0.7565511659486219,,,,,,,,
encoding,attention,10,10347391,10350408,10349317.0,10349407.0,91.0,91.0,1891.2,773.2,1920.0,1460.0,Animal_Sea_Solid_Small,52.09959712496493,55.11645591596607,2.0,Animal_Sea_Solid_Small,2.0,2.0,1.0,0.7565511659486219,,,,,,,,
encoding,attention,10,10347391,10350408,10349780.0,10349830.0,51.0,51.0,1853.7,779.0999999999999,1920.0,1460.0,Animal_Sea_Solid_Small,52.09959712496493,55.11645591596607,2.0,Animal_Sea_Solid_Small,2.0,2.0,1.0,0.7565511659486219,,,,,,,,
encoding,fixation,11,10350409,10351414,10350465.0,10350631.0,167.0,167.0,2004.2,646.2,1920.0,1460.0,Animal_Sea_Solid_Small,55.11662120791152,56.121907499968074,2.0,Animal_Land_Solid_Large,-9.0,,,,,,,,,,,
encoding,fixation,11,10350409,10351414,10350685.0,10350789.0,105.0,105.0,1956.0,1015.0999999999999,1920.0,1460.0,Animal_Sea_Solid_Small,55.11662120791152,56.121907499968074,2.0,Animal_Land_Solid_Large,-9.0,,,,,,,,,,,
encoding,fixation,11,10350409,10351414,10350808.0,10351619.0,812.0,606.0,1953.8,1103.0,1920.0,1080.0,fixation,55.11662120791152,56.121907499968074,2.0,Animal_Land_Solid_Large,-9.0,,,,,,,,,,,
encoding,image,11,10351414,10352426,10351653.0,10351913.0,261.0,261.0,1671.8,1273.0,1591.0,891.0,Animal_Land_Solid_Large,56.122005540994,57.133461624966,2.0,Animal_Land_Solid_Large,-9.0,,,,,,,,,,,
encoding,image,11,10351414,10352426,10351927.0,10352181.0,255.0,255.0,1639.7,1233.2,1591.0,891.0,Animal_Land_Solid_Large,56.122005540994,57.133461624966,2.0,Animal_Land_Solid_Large,-9.0,,,,,,,,,,,
encoding,value,11,10352426,10358438,10352480.0,10352716.0,237.0,237.0,1932.1,1143.7,1920.0,1080.0,fixation,57.13357116596307,63.1459726250032,2.0,Animal_Land_Solid_Large,-9.0,,,,,,,,,,,
encoding,value,11,10352426,10358438,10352750.0,10353933.0,1184.0,1184.0,1660.6,1183.6,1591.0,891.0,Animal_Land_Solid_Large,57.13357116596307,63.1459726250032,2.0,Animal_Land_Solid_Large,-9.0,,,,,,,,,,,
encoding,value,11,10352426,10358438,10353948.0,10354270.0,323.0,323.0,1661.0,1257.8,1591.0,891.0,Animal_Land_Solid_Large,57.13357116596307,63.1459726250032,2.0,Animal_Land_Solid_Large,-9.0,,,,,,,,,,,
encoding,value,11,10352426,10358438,10354290.0,10354676.0,387.0,387.0,1654.7,1184.4,1591.0,891.0,Animal_Land_Solid_Large,57.13357116596307,63.1459726250032,2.0,Animal_Land_Solid_Large,-9.0,,,,,,,,,,,
encoding,value,11,10352426,10358438,10354934.0,10355398.0,465.0,465.0,1654.8,1174.1,1591.0,891.0,Animal_Land_Solid_Large,57.13357116596307,63.1459726250032,2.0,Animal_Land_Solid_Large,-9.0,,,,,,,,,,,
encoding,value,11,10352426,10358438,10355418.0,10356014.0,597.0,597.0,1662.8,1257.9,1591.0,891.0,Animal_Land_Solid_Large,57.13357116596307,63.1459726250032,2.0,Animal_Land_Solid_Large,-9.0,,,,,,,,,,,
encoding,value,11,10352426,10358438,10356032.0,10357106.0,1075.0,1075.0,1650.0,1193.1,1591.0,891.0,Animal_Land_Solid_Large,57.13357116596307,63.1459726250032,2.0,Animal_Land_Solid_Large,-9.0,,,,,,,,,,,
encoding,value,11,10352426,10358438,10357348.0,10358753.0,1406.0,1090.0,1656.4,1204.6,1591.0,891.0,Animal_Land_Solid_Large,57.13357116596307,63.1459726250032,2.0,Animal_Land_Solid_Large,-9.0,,,,,,,,,,,
encoding,attention,11,10358438,10361456,10358763.0,10359363.0,601.0,601.0,1610.4,1190.8,1591.0,891.0,Animal_Land_Solid_Large,63.1460982079152,66.16318420798052,2.0,Animal_Land_Solid_Large,-9.0,-9.0,1.0,0.6874839579686522,,,,,,,,
encoding,attention,11,10358438,10361456,10359608.0,10359713.0,106.0,106.0,1920.5,1124.5,1920.0,1080.0,fixation,63.1460982079152,66.16318420798052,2.0,Animal_Land_Solid_Large,-9.0,-9.0,1.0,0.6874839579686522,,,,,,,,
encoding,attention,11,10358438,10361456,10359720.0,10359959.0,240.0,240.0,1964.2,1116.0,1920.0,1080.0,fixation,63.1460982079152,66.16318420798052,2.0,Animal_Land_Solid_Large,-9.0,-9.0,1.0,0.6874839579686522,,,,,,,,
encoding,attention,11,10358438,10361456,10359995.0,10360134.0,140.0,140.0,1659.6,1162.0,1591.0,891.0,Animal_Land_Solid_Large,63.1460982079152,66.16318420798052,2.0,Animal_Land_Solid_Large,-9.0,-9.0,1.0,0.6874839579686522,,,,,,,,
encoding,attention,11,10358438,10361456,10360146.0,10360889.0,744.0,744.0,1608.5,1176.9,1591.0,891.0,Animal_Land_Solid_Large,63.1460982079152,66.16318420798052,2.0,Animal_Land_Solid_Large,-9.0,-9.0,1.0,0.6874839579686522,,,,,,,,
encoding,fixation,12,10361456,10362211,10361492.0,10361658.0,167.0,167.0,1607.4,1177.0,1591.0,891.0,Animal_Land_Solid_Large,66.16338437492959,66.91890154092107,2.0,Animal_Land_Pattern_Small,9.0,,,,,,,,,,,
encoding,fixation,12,10361456,10362211,10361694.0,10362431.0,738.0,517.0,1947.6,1113.5,1920.0,1080.0,fixation,66.16338437492959,66.91890154092107,2.0,Animal_Land_Pattern_Small,9.0,,,,,,,,,,,
encoding,image,12,10362211,10363222,10362465.0,10362584.0,120.0,120.0,1960.9,1374.8,1920.0,700.0,Animal_Land_Pattern_Small,66.91900316590909,67.92986133298837,2.0,Animal_Land_Pattern_Small,9.0,,,,,,,,,,,
encoding,image,12,10362211,10363222,10362601.0,10363412.0,812.0,621.0,1943.7,1429.4,1920.0,700.0,Animal_Land_Pattern_Small,66.91900316590909,67.92986133298837,2.0,Animal_Land_Pattern_Small,9.0,,,,,,,,,,,
encoding,value,12,10363223,10369234,10363426.0,10364815.0,1390.0,1390.0,1945.7,1380.3,1920.0,700.0,Animal_Land_Pattern_Small,67.92998379096389,73.9413937079953,2.0,Animal_Land_Pattern_Small,9.0,,,,,,,,,,,
encoding,value,12,10363223,10369234,10364824.0,10366980.0,2157.0,2157.0,1949.7,1366.3,1920.0,700.0,Animal_Land_Pattern_Small,67.92998379096389,73.9413937079953,2.0,Animal_Land_Pattern_Small,9.0,,,,,,,,,,,
encoding,value,12,10363223,10369234,10367124.0,10367908.0,785.0,785.0,1950.6,1376.0,1920.0,700.0,Animal_Land_Pattern_Small,67.92998379096389,73.9413937079953,2.0,Animal_Land_Pattern_Small,9.0,,,,,,,,,,,
encoding,value,12,10363223,10369234,10368137.0,10368610.0,474.0,474.0,1956.5,1363.7,1920.0,700.0,Animal_Land_Pattern_Small,67.92998379096389,73.9413937079953,2.0,Animal_Land_Pattern_Small,9.0,,,,,,,,,,,
encoding,value,12,10363223,10369234,10368627.0,10368935.0,309.0,309.0,1943.2,1432.2,1920.0,700.0,Animal_Land_Pattern_Small,67.92998379096389,73.9413937079953,2.0,Animal_Land_Pattern_Small,9.0,,,,,,,,,,,
encoding,value,12,10363223,10369234,10368952.0,10369487.0,536.0,282.0,1952.5,1363.1,1920.0,700.0,Animal_Land_Pattern_Small,67.92998379096389,73.9413937079953,2.0,Animal_Land_Pattern_Small,9.0,,,,,,,,,,,
encoding,attention,12,10369234,10372251,10369499.0,10370511.0,1013.0,1013.0,1990.9,1380.5,1920.0,700.0,Animal_Land_Pattern_Small,73.94150620792061,76.95817608293146,2.0,Animal_Land_Pattern_Small,9.0,9.0,1.0,0.7560299170436338,,,,,,,,
encoding,attention,12,10369234,10372251,10370529.0,10370755.0,227.0,227.0,1970.1,1434.4,1920.0,700.0,Animal_Land_Pattern_Small,73.94150620792061,76.95817608293146,2.0,Animal_Land_Pattern_Small,9.0,9.0,1.0,0.7560299170436338,,,,,,,,
encoding,attention,12,10369234,10372251,10370770.0,10371030.0,261.0,261.0,1917.1,1391.3,1920.0,700.0,Animal_Land_Pattern_Small,73.94150620792061,76.95817608293146,2.0,Animal_Land_Pattern_Small,9.0,9.0,1.0,0.7560299170436338,,,,,,,,
encoding,attention,12,10369234,10372251,10371045.0,10371225.0,181.0,181.0,1997.0,1381.3,1920.0,700.0,Animal_Land_Pattern_Small,73.94150620792061,76.95817608293146,2.0,Animal_Land_Pattern_Small,9.0,9.0,1.0,0.7560299170436338,,,,,,,,
encoding,attention,12,10369234,10372251,10371444.0,10371608.0,165.0,165.0,1950.9,1403.7,1920.0,700.0,Animal_Land_Pattern_Small,73.94150620792061,76.95817608293146,2.0,Animal_Land_Pattern_Small,9.0,9.0,1.0,0.7560299170436338,,,,,,,,
encoding,attention,12,10369234,10372251,10371627.0,10371989.0,363.0,363.0,1939.2,1453.5,1920.0,700.0,Animal_Land_Pattern_Small,73.94150620792061,76.95817608293146,2.0,Animal_Land_Pattern_Small,9.0,9.0,1.0,0.7560299170436338,,,,,,,,
encoding,fixation,13,10724244,10725000,10724308.0,10724444.0,137.0,137.0,2086.5,839.7,2249.0,1269.0,Object_Land_Solid_Small,8.47322099993471,9.228971082950013,3.0,Animal_Land_Solid_Small,-2.0,,,,,,,,,,,
encoding,fixation,13,10724244,10725000,10724473.0,10724604.0,132.0,132.0,1943.1,1036.1,1920.0,1080.0,fixation,8.47322099993471,9.228971082950013,3.0,Animal_Land_Solid_Small,-2.0,,,,,,,,,,,
encoding,fixation,13,10724244,10725000,10724616.0,10725171.0,556.0,384.0,1936.5,1096.5,1920.0,1080.0,fixation,8.47322099993471,9.228971082950013,3.0,Animal_Land_Solid_Small,-2.0,,,,,,,,,,,
encoding,image,13,10725000,10726012,10725204.0,10725536.0,333.0,333.0,1650.2,929.8,1591.0,1269.0,Animal_Land_Solid_Small,9.229175957967527,10.241137249977328,3.0,Animal_Land_Solid_Small,-2.0,,,,,,,,,,,
encoding,image,13,10725000,10726012,10725768.0,10726187.0,420.0,244.0,1619.8,861.3,1591.0,1269.0,Animal_Land_Solid_Small,9.229175957967527,10.241137249977328,3.0,Animal_Land_Solid_Small,-2.0,,,,,,,,,,,
encoding,value,13,10726012,10732025,10726204.0,10726955.0,752.0,752.0,1619.9,800.4000000000001,1591.0,1269.0,Animal_Land_Solid_Small,10.241249374928884,16.254054374992847,3.0,Animal_Land_Solid_Small,-2.0,,,,,,,,,,,
encoding,value,13,10726012,10732025,10726976.0,10727263.0,288.0,288.0,1622.5,897.5999999999999,1591.0,1269.0,Animal_Land_Solid_Small,10.241249374928884,16.254054374992847,3.0,Animal_Land_Solid_Small,-2.0,,,,,,,,,,,
encoding,value,13,10726012,10732025,10727275.0,10727790.0,516.0,516.0,1616.8,837.2,1591.0,1269.0,Animal_Land_Solid_Small,10.241249374928884,16.254054374992847,3.0,Animal_Land_Solid_Small,-2.0,,,,,,,,,,,
encoding,value,13,10726012,10732025,10728024.0,10728218.0,195.0,195.0,1644.4,901.5,1591.0,1269.0,Animal_Land_Solid_Small,10.241249374928884,16.254054374992847,3.0,Animal_Land_Solid_Small,-2.0,,,,,,,,,,,
encoding,value,13,10726012,10732025,10728230.0,10728926.0,697.0,697.0,1612.2,860.2,1591.0,1269.0,Animal_Land_Solid_Small,10.241249374928884,16.254054374992847,3.0,Animal_Land_Solid_Small,-2.0,,,,,,,,,,,
encoding,value,13,10726012,10732025,10728941.0,10729532.0,592.0,592.0,1645.3,922.2,1591.0,1269.0,Animal_Land_Solid_Small,10.241249374928884,16.254054374992847,3.0,Animal_Land_Solid_Small,-2.0,,,,,,,,,,,
encoding,value,13,10726012,10732025,10729557.0,10730144.0,588.0,588.0,1612.7,810.5,1591.0,1269.0,Animal_Land_Solid_Small,10.241249374928884,16.254054374992847,3.0,Animal_Land_Solid_Small,-2.0,,,,,,,,,,,
encoding,value,13,10726012,10732025,10730182.0,10730402.0,221.0,221.0,1909.2,1026.7,1920.0,1080.0,fixation,10.241249374928884,16.254054374992847,3.0,Animal_Land_Solid_Small,-2.0,,,,,,,,,,,
encoding,value,13,10726012,10732025,10730416.0,10730540.0,125.0,125.0,1934.7,1073.1,1920.0,1080.0,fixation,10.241249374928884,16.254054374992847,3.0,Animal_Land_Solid_Small,-2.0,,,,,,,,,,,
encoding,value,13,10726012,10732025,10730788.0,10732224.0,1437.0,1237.0,1616.0,791.3,1591.0,1269.0,Animal_Land_Solid_Small,10.241249374928884,16.254054374992847,3.0,Animal_Land_Solid_Small,-2.0,,,,,,,,,,,
encoding,attention,13,10732025,10735043,10732234.0,10733046.0,813.0,813.0,1656.7,802.2,1591.0,1269.0,Animal_Land_Solid_Small,16.254193540895358,19.27230729092844,3.0,Animal_Land_Solid_Small,-2.0,-2.0,1.0,0.6043627080507576,,,,,,,,
encoding,attention,13,10732025,10735043,10733359.0,10734528.0,1170.0,1170.0,1628.4,850.2,1591.0,1269.0,Animal_Land_Solid_Small,16.254193540895358,19.27230729092844,3.0,Animal_Land_Solid_Small,-2.0,-2.0,1.0,0.6043627080507576,,,,,,,,
encoding,fixation,14,10735044,10735799,10735264.0,10735375.0,112.0,112.0,1918.2,1036.6,1920.0,1080.0,fixation,19.27247633296065,20.027775874943472,3.0,Object_Land_Pattern_Small,-7.0,,,,,,,,,,,
encoding,fixation,14,10735044,10735799,10735391.0,10736062.0,672.0,408.0,1931.9,1088.3,1920.0,1080.0,fixation,19.27247633296065,20.027775874943472,3.0,Object_Land_Pattern_Small,-7.0,,,,,,,,,,,
encoding,image,14,10735799,10736811,10736089.0,10736543.0,455.0,455.0,1659.0,1212.5,1591.0,891.0,Object_Land_Pattern_Small,20.027872999897227,21.040170624968596,3.0,Object_Land_Pattern_Small,-7.0,,,,,,,,,,,
encoding,image,14,10735799,10736811,10736558.0,10736647.0,90.0,90.0,1616.1,1259.3,1591.0,891.0,Object_Land_Pattern_Small,20.027872999897227,21.040170624968596,3.0,Object_Land_Pattern_Small,-7.0,,,,,,,,,,,
encoding,value,14,10736812,10742824,10736886.0,10737001.0,116.0,116.0,1650.4,1210.1,1591.0,891.0,Object_Land_Pattern_Small,21.040283957961947,27.052420207997784,3.0,Object_Land_Pattern_Small,-7.0,,,,,,,,,,,
encoding,value,14,10736812,10742824,10737012.0,10739130.0,2119.0,2119.0,1622.8,1174.3,1591.0,891.0,Object_Land_Pattern_Small,21.040283957961947,27.052420207997784,3.0,Object_Land_Pattern_Small,-7.0,,,,,,,,,,,
encoding,value,14,10736812,10742824,10739340.0,10739621.0,282.0,282.0,1605.6,1198.9,1591.0,891.0,Object_Land_Pattern_Small,21.040283957961947,27.052420207997784,3.0,Object_Land_Pattern_Small,-7.0,,,,,,,,,,,
encoding,value,14,10736812,10742824,10739636.0,10739857.0,222.0,222.0,1615.2,1250.4,1591.0,891.0,Object_Land_Pattern_Small,21.040283957961947,27.052420207997784,3.0,Object_Land_Pattern_Small,-7.0,,,,,,,,,,,
encoding,value,14,10736812,10742824,10739874.0,10740893.0,1020.0,1020.0,1625.3,1175.0,1591.0,891.0,Object_Land_Pattern_Small,21.040283957961947,27.052420207997784,3.0,Object_Land_Pattern_Small,-7.0,,,,,,,,,,,
encoding,value,14,10736812,10742824,10740910.0,10741195.0,286.0,286.0,1607.8,1227.9,1591.0,891.0,Object_Land_Pattern_Small,21.040283957961947,27.052420207997784,3.0,Object_Land_Pattern_Small,-7.0,,,,,,,,,,,
encoding,value,14,10736812,10742824,10741210.0,10742462.0,1253.0,1253.0,1619.7,1171.6,1591.0,891.0,Object_Land_Pattern_Small,21.040283957961947,27.052420207997784,3.0,Object_Land_Pattern_Small,-7.0,,,,,,,,,,,
encoding,value,14,10736812,10742824,10742693.0,10743050.0,358.0,131.0,1613.5,1164.2,1591.0,891.0,Object_Land_Pattern_Small,21.040283957961947,27.052420207997784,3.0,Object_Land_Pattern_Small,-7.0,,,,,,,,,,,
encoding,attention,14,10742824,10745842,10743060.0,10743960.0,901.0,901.0,1665.3,1167.4,1591.0,891.0,Object_Land_Pattern_Small,27.05253120791167,30.070117999915965,3.0,Object_Land_Pattern_Small,-7.0,-7.0,1.0,0.760220457916148,,,,,,,,
encoding,attention,14,10742824,10745842,10743975.0,10744045.0,71.0,71.0,1611.1,1208.9,1591.0,891.0,Object_Land_Pattern_Small,27.05253120791167,30.070117999915965,3.0,Object_Land_Pattern_Small,-7.0,-7.0,1.0,0.760220457916148,,,,,,,,
encoding,attention,14,10742824,10745842,10744276.0,10744469.0,194.0,194.0,1631.8,1195.7,1591.0,891.0,Object_Land_Pattern_Small,27.05253120791167,30.070117999915965,3.0,Object_Land_Pattern_Small,-7.0,-7.0,1.0,0.760220457916148,,,,,,,,
encoding,fixation,15,10745842,10746347,10746115.0,10746212.0,98.0,98.0,1917.0,1104.4,1920.0,1080.0,fixation,30.07026974996552,30.575491291005164,3.0,Object_Land_Solid_Small,7.0,,,,,,,,,,,
encoding,image,15,10746347,10747359,10746433.0,10746697.0,265.0,265.0,1921.3,1085.1,1920.0,1080.0,fixation,30.575600332929753,31.586743291001767,3.0,Object_Land_Solid_Small,7.0,,,,,,,,,,,
encoding,image,15,10746347,10747359,10746728.0,10746868.0,141.0,141.0,2141.3,1017.4000000000001,2249.0,1269.0,Object_Land_Solid_Small,30.575600332929753,31.586743291001767,3.0,Object_Land_Solid_Small,7.0,,,,,,,,,,,
encoding,image,15,10746347,10747359,10746895.0,10747504.0,610.0,464.0,1945.3,1071.9,1920.0,1080.0,fixation,30.575600332929753,31.586743291001767,3.0,Object_Land_Solid_Small,7.0,,,,,,,,,,,
encoding,value,15,10747359,10753370,10747537.0,10747687.0,151.0,151.0,2150.5,942.5999999999999,2249.0,1269.0,Object_Land_Solid_Small,31.586869290913455,37.59822624991648,3.0,Object_Land_Solid_Small,7.0,,,,,,,,,,,
encoding,value,15,10747359,10753370,10747715.0,10748468.0,754.0,754.0,2262.5,810.8,2249.0,1269.0,Object_Land_Solid_Small,31.586869290913455,37.59822624991648,3.0,Object_Land_Solid_Small,7.0,,,,,,,,,,,
encoding,value,15,10747359,10753370,10748485.0,10748682.0,198.0,198.0,2214.2,871.0,2249.0,1269.0,Object_Land_Solid_Small,31.586869290913455,37.59822624991648,3.0,Object_Land_Solid_Small,7.0,,,,,,,,,,,
encoding,value,15,10747359,10753370,10748691.0,10749420.0,730.0,730.0,2243.7,906.8,2249.0,1269.0,Object_Land_Solid_Small,31.586869290913455,37.59822624991648,3.0,Object_Land_Solid_Small,7.0,,,,,,,,,,,
encoding,value,15,10747359,10753370,10749431.0,10749687.0,257.0,257.0,2200.5,920.7,2249.0,1269.0,Object_Land_Solid_Small,31.586869290913455,37.59822624991648,3.0,Object_Land_Solid_Small,7.0,,,,,,,,,,,
encoding,value,15,10747359,10753370,10749889.0,10750072.0,184.0,184.0,2237.5,869.5,2249.0,1269.0,Object_Land_Solid_Small,31.586869290913455,37.59822624991648,3.0,Object_Land_Solid_Small,7.0,,,,,,,,,,,
encoding,value,15,10747359,10753370,10750088.0,10751355.0,1268.0,1268.0,2252.5,799.8,2249.0,1269.0,Object_Land_Solid_Small,31.586869290913455,37.59822624991648,3.0,Object_Land_Solid_Small,7.0,,,,,,,,,,,
encoding,value,15,10747359,10753370,10751364.0,10751655.0,292.0,292.0,2262.7,787.8,2249.0,1269.0,Object_Land_Solid_Small,31.586869290913455,37.59822624991648,3.0,Object_Land_Solid_Small,7.0,,,,,,,,,,,
encoding,value,15,10747359,10753370,10751675.0,10752212.0,538.0,538.0,2241.8,871.9000000000001,2249.0,1269.0,Object_Land_Solid_Small,31.586869290913455,37.59822624991648,3.0,Object_Land_Solid_Small,7.0,,,,,,,,,,,
encoding,value,15,10747359,10753370,10752235.0,10753037.0,803.0,803.0,2260.3,785.2,2249.0,1269.0,Object_Land_Solid_Small,31.586869290913455,37.59822624991648,3.0,Object_Land_Solid_Small,7.0,,,,,,,,,,,
encoding,value,15,10747359,10753370,10753249.0,10753603.0,355.0,121.0,2241.7,799.8,2249.0,1269.0,Object_Land_Solid_Small,31.586869290913455,37.59822624991648,3.0,Object_Land_Solid_Small,7.0,,,,,,,,,,,
encoding,attention,15,10753370,10756388,10753612.0,10753726.0,115.0,115.0,2208.6,797.2,2249.0,1269.0,Object_Land_Solid_Small,37.59834695793688,40.61570774996653,3.0,Object_Land_Solid_Small,7.0,7.0,1.0,0.7466162079945207,,,,,,,,
encoding,attention,15,10753370,10756388,10753745.0,10754765.0,1021.0,1021.0,2309.3,784.0999999999999,2249.0,1269.0,Object_Land_Solid_Small,37.59834695793688,40.61570774996653,3.0,Object_Land_Solid_Small,7.0,7.0,1.0,0.7466162079945207,,,,,,,,
encoding,attention,15,10753370,10756388,10754795.0,10755014.0,220.0,220.0,2003.6,957.0,2249.0,1269.0,Object_Land_Solid_Small,37.59834695793688,40.61570774996653,3.0,Object_Land_Solid_Small,7.0,7.0,1.0,0.7466162079945207,,,,,,,,
encoding,attention,15,10753370,10756388,10755048.0,10755191.0,144.0,144.0,2284.3,806.9000000000001,2249.0,1269.0,Object_Land_Solid_Small,37.59834695793688,40.61570774996653,3.0,Object_Land_Solid_Small,7.0,7.0,1.0,0.7466162079945207,,,,,,,,
encoding,attention,15,10753370,10756388,10755201.0,10756196.0,996.0,996.0,2303.8,798.9000000000001,2249.0,1269.0,Object_Land_Solid_Small,37.59834695793688,40.61570774996653,3.0,Object_Land_Solid_Small,7.0,7.0,1.0,0.7466162079945207,,,,,,,,
encoding,fixation,16,10756388,10757143,10756423.0,10756684.0,262.0,262.0,2246.9,826.3,2249.0,1269.0,Object_Land_Solid_Small,40.61587570793927,41.37129033298697,3.0,Animal_Sea_Solid_Large,-4.0,,,,,,,,,,,
encoding,fixation,16,10756388,10757143,10756719.0,10756865.0,147.0,147.0,1961.9,1045.9,1920.0,1080.0,fixation,40.61587570793927,41.37129033298697,3.0,Animal_Sea_Solid_Large,-4.0,,,,,,,,,,,
encoding,fixation,16,10756388,10757143,10756875.0,10757523.0,649.0,268.0,1931.4,1080.1,1920.0,1080.0,fixation,40.61587570793927,41.37129033298697,3.0,Animal_Sea_Solid_Large,-4.0,,,,,,,,,,,
encoding,image,16,10757144,10758155,10757560.0,10758260.0,701.0,595.0,2220.9,1232.6,2249.0,891.0,Animal_Sea_Solid_Large,41.37139424995985,42.382681499933824,3.0,Animal_Sea_Solid_Large,-4.0,,,,,,,,,,,
encoding,value,16,10758155,10764167,10758277.0,10758404.0,128.0,128.0,2221.2,1166.9,2249.0,891.0,Animal_Sea_Solid_Large,42.38288420799654,48.394290874945,3.0,Animal_Sea_Solid_Large,-4.0,,,,,,,,,,,
encoding,value,16,10758155,10764167,10758415.0,10758636.0,222.0,222.0,2266.5,1170.6,2249.0,891.0,Animal_Sea_Solid_Large,42.38288420799654,48.394290874945,3.0,Animal_Sea_Solid_Large,-4.0,,,,,,,,,,,
encoding,value,16,10758155,10764167,10758828.0,10761342.0,2515.0,2515.0,2247.3,1178.6,2249.0,891.0,Animal_Sea_Solid_Large,42.38288420799654,48.394290874945,3.0,Animal_Sea_Solid_Large,-4.0,,,,,,,,,,,
encoding,value,16,10758155,10764167,10761356.0,10761432.0,77.0,77.0,2215.4,1229.9,2249.0,891.0,Animal_Sea_Solid_Large,42.38288420799654,48.394290874945,3.0,Animal_Sea_Solid_Large,-4.0,,,,,,,,,,,
encoding,value,16,10758155,10764167,10761629.0,10761795.0,167.0,167.0,2231.2,1231.4,2249.0,891.0,Animal_Sea_Solid_Large,42.38288420799654,48.394290874945,3.0,Animal_Sea_Solid_Large,-4.0,,,,,,,,,,,
encoding,value,16,10758155,10764167,10761815.0,10762570.0,756.0,756.0,2248.3,1184.5,2249.0,891.0,Animal_Sea_Solid_Large,42.38288420799654,48.394290874945,3.0,Animal_Sea_Solid_Large,-4.0,,,,,,,,,,,
encoding,value,16,10758155,10764167,10762590.0,10763219.0,630.0,630.0,2246.2,1259.3,2249.0,891.0,Animal_Sea_Solid_Large,42.38288420799654,48.394290874945,3.0,Animal_Sea_Solid_Large,-4.0,,,,,,,,,,,
encoding,value,16,10758155,10764167,10763429.0,10764445.0,1017.0,738.0,2243.1,1167.4,2249.0,891.0,Animal_Sea_Solid_Large,42.38288420799654,48.394290874945,3.0,Animal_Sea_Solid_Large,-4.0,,,,,,,,,,,
encoding,attention,16,10764167,10767184,10764461.0,10765130.0,670.0,670.0,2301.4,1174.1,2249.0,891.0,Animal_Sea_Solid_Large,48.39446179091465,51.411226540920325,3.0,Animal_Sea_Solid_Large,-4.0,-4.0,1.0,0.593381250044331,,,,,,,,
encoding,attention,16,10764167,10767184,10765360.0,10765559.0,200.0,200.0,2033.4,1109.7,2249.0,891.0,Animal_Sea_Solid_Large,48.39446179091465,51.411226540920325,3.0,Animal_Sea_Solid_Large,-4.0,-4.0,1.0,0.593381250044331,,,,,,,,
encoding,attention,16,10764167,10767184,10765587.0,10765819.0,233.0,233.0,2221.6,1163.6,2249.0,891.0,Animal_Sea_Solid_Large,48.39446179091465,51.411226540920325,3.0,Animal_Sea_Solid_Large,-4.0,-4.0,1.0,0.593381250044331,,,,,,,,
encoding,fixation,17,10767184,10768439,10767382.0,10767487.0,106.0,106.0,2002.8,1112.5,2249.0,891.0,Animal_Sea_Solid_Large,51.41138270800002,52.66670274990611,3.0,Object_Sea_Pattern_Large,1.0,,,,,,,,,,,
encoding,fixation,17,10767184,10768439,10767501.0,10768675.0,1175.0,938.0,1936.7,1077.0,1920.0,1080.0,fixation,51.41138270800002,52.66670274990611,3.0,Object_Sea_Pattern_Large,1.0,,,,,,,,,,,
encoding,image,17,10768439,10769451,10768724.0,10768879.0,156.0,156.0,1983.9,758.0,1920.0,1460.0,Object_Sea_Pattern_Large,52.666810915921815,53.67815079097636,3.0,Object_Sea_Pattern_Large,1.0,,,,,,,,,,,
encoding,image,17,10768439,10769451,10768891.0,10769081.0,191.0,191.0,1934.3,722.2,1920.0,1460.0,Object_Sea_Pattern_Large,52.666810915921815,53.67815079097636,3.0,Object_Sea_Pattern_Large,1.0,,,,,,,,,,,
encoding,image,17,10768439,10769451,10769091.0,10769357.0,267.0,267.0,1907.4,694.0,1920.0,1460.0,Object_Sea_Pattern_Large,52.666810915921815,53.67815079097636,3.0,Object_Sea_Pattern_Large,1.0,,,,,,,,,,,
encoding,image,17,10768439,10769451,10769368.0,10769997.0,630.0,83.0,1913.5,637.8,1920.0,1460.0,Object_Sea_Pattern_Large,52.666810915921815,53.67815079097636,3.0,Object_Sea_Pattern_Large,1.0,,,,,,,,,,,
encoding,value,17,10769451,10775463,10770262.0,10774173.0,3912.0,3912.0,1927.7,612.5999999999999,1920.0,1460.0,Object_Sea_Pattern_Large,53.67826808290556,59.6901250409428,3.0,Object_Sea_Pattern_Large,1.0,,,,,,,,,,,
encoding,value,17,10769451,10775463,10774404.0,10775676.0,1273.0,1059.0,1918.5,626.0999999999999,1920.0,1460.0,Object_Sea_Pattern_Large,53.67826808290556,59.6901250409428,3.0,Object_Sea_Pattern_Large,1.0,,,,,,,,,,,
encoding,attention,17,10775463,10778480,10775689.0,10775833.0,145.0,145.0,1982.0,628.2,1920.0,1460.0,Object_Sea_Pattern_Large,59.690270499908365,62.70706829091069,3.0,Object_Sea_Pattern_Large,1.0,1.0,1.0,0.6416815409902483,,,,,,,,
encoding,attention,17,10775463,10778480,10775852.0,10776545.0,694.0,694.0,1874.1,615.4000000000001,1920.0,1460.0,Object_Sea_Pattern_Large,59.690270499908365,62.70706829091069,3.0,Object_Sea_Pattern_Large,1.0,1.0,1.0,0.6416815409902483,,,,,,,,
encoding,attention,17,10775463,10778480,10776774.0,10776808.0,35.0,35.0,1909.5,698.2,1920.0,1460.0,Object_Sea_Pattern_Large,59.690270499908365,62.70706829091069,3.0,Object_Sea_Pattern_Large,1.0,1.0,1.0,0.6416815409902483,,,,,,,,
encoding,attention,17,10775463,10778480,10776818.0,10776966.0,149.0,149.0,1937.3,634.9000000000001,1920.0,1460.0,Object_Sea_Pattern_Large,59.690270499908365,62.70706829091069,3.0,Object_Sea_Pattern_Large,1.0,1.0,1.0,0.6416815409902483,,,,,,,,
encoding,attention,17,10775463,10778480,10776980.0,10777106.0,127.0,127.0,1875.3,609.2,1920.0,1460.0,Object_Sea_Pattern_Large,59.690270499908365,62.70706829091069,3.0,Object_Sea_Pattern_Large,1.0,1.0,1.0,0.6416815409902483,,,,,,,,
encoding,attention,17,10775463,10778480,10777144.0,10777331.0,188.0,188.0,1946.6,1004.3,1920.0,1460.0,Object_Sea_Pattern_Large,59.690270499908365,62.70706829091069,3.0,Object_Sea_Pattern_Large,1.0,1.0,1.0,0.6416815409902483,,,,,,,,
encoding,attention,17,10775463,10778480,10777340.0,10777488.0,149.0,149.0,1944.2,1048.6,1920.0,1080.0,fixation,59.690270499908365,62.70706829091069,3.0,Object_Sea_Pattern_Large,1.0,1.0,1.0,0.6416815409902483,,,,,,,,
encoding,attention,17,10775463,10778480,10777540.0,10777743.0,204.0,204.0,1947.6,662.5999999999999,1920.0,1460.0,Object_Sea_Pattern_Large,59.690270499908365,62.70706829091069,3.0,Object_Sea_Pattern_Large,1.0,1.0,1.0,0.6416815409902483,,,,,,,,
encoding,attention,17,10775463,10778480,10777753.0,10777943.0,191.0,191.0,1903.7,644.0,1920.0,1460.0,Object_Sea_Pattern_Large,59.690270499908365,62.70706829091069,3.0,Object_Sea_Pattern_Large,1.0,1.0,1.0,0.6416815409902483,,,,,,,,
encoding,attention,17,10775463,10778480,10777952.0,10778399.0,448.0,448.0,1925.4,664.8,1920.0,1460.0,Object_Sea_Pattern_Large,59.690270499908365,62.70706829091069,3.0,Object_Sea_Pattern_Large,1.0,1.0,1.0,0.6416815409902483,,,,,,,,
encoding,fixation,18,10778480,10779236,10778708.0,10778818.0,111.0,111.0,1923.3,1020.5,1920.0,1080.0,fixation,62.70722599991131,63.4625155829126,3.0,Animal_Sea_Pattern_Large,1.0,,,,,,,,,,,
encoding,fixation,18,10778480,10779236,10778830.0,10779453.0,624.0,406.0,1934.4,1071.5,1920.0,1080.0,fixation,62.70722599991131,63.4625155829126,3.0,Animal_Sea_Pattern_Large,1.0,,,,,,,,,,,
encoding,image,18,10779236,10780246,10779492.0,10780068.0,577.0,577.0,1934.8,1400.9,1920.0,700.0,Animal_Sea_Pattern_Large,63.46264145791065,64.47281970793847,3.0,Animal_Sea_Pattern_Large,1.0,,,,,,,,,,,
encoding,image,18,10779236,10780246,10780081.0,10780395.0,315.0,165.0,1897.2,1428.2,1920.0,700.0,Animal_Sea_Pattern_Large,63.46264145791065,64.47281970793847,3.0,Animal_Sea_Pattern_Large,1.0,,,,,,,,,,,
encoding,value,18,10780246,10786257,10780417.0,10780751.0,335.0,335.0,1937.2,1341.6,1920.0,700.0,Animal_Sea_Pattern_Large,64.47292433294933,70.48311570798978,3.0,Animal_Sea_Pattern_Large,1.0,,,,,,,,,,,
encoding,value,18,10780246,10786257,10780963.0,10781166.0,204.0,204.0,1925.6,1240.3,1920.0,700.0,Animal_Sea_Pattern_Large,64.47292433294933,70.48311570798978,3.0,Animal_Sea_Pattern_Large,1.0,,,,,,,,,,,
encoding,value,18,10780246,10786257,10781235.0,10781384.0,150.0,150.0,1901.4,680.0999999999999,1920.0,1460.0,Object_Sea_Pattern_Large,64.47292433294933,70.48311570798978,3.0,Animal_Sea_Pattern_Large,1.0,,,,,,,,,,,
encoding,value,18,10780246,10786257,10781448.0,10781589.0,142.0,142.0,1932.2,1283.6,1920.0,700.0,Animal_Sea_Pattern_Large,64.47292433294933,70.48311570798978,3.0,Animal_Sea_Pattern_Large,1.0,,,,,,,,,,,
encoding,value,18,10780246,10786257,10781604.0,10782740.0,1137.0,1137.0,1935.5,1333.2,1920.0,700.0,Animal_Sea_Pattern_Large,64.47292433294933,70.48311570798978,3.0,Animal_Sea_Pattern_Large,1.0,,,,,,,,,,,
encoding,value,18,10780246,10786257,10782976.0,10784007.0,1032.0,1032.0,1924.2,1326.6,1920.0,700.0,Animal_Sea_Pattern_Large,64.47292433294933,70.48311570798978,3.0,Animal_Sea_Pattern_Large,1.0,,,,,,,,,,,
encoding,value,18,10780246,10786257,10784015.0,10784535.0,521.0,521.0,1938.4,1338.8,1920.0,700.0,Animal_Sea_Pattern_Large,64.47292433294933,70.48311570798978,3.0,Animal_Sea_Pattern_Large,1.0,,,,,,,,,,,
encoding,value,18,10780246,10786257,10784738.0,10786512.0,1775.0,1519.0,1929.4,1350.4,1920.0,700.0,Animal_Sea_Pattern_Large,64.47292433294933,70.48311570798978,3.0,Animal_Sea_Pattern_Large,1.0,,,,,,,,,,,
encoding,attention,18,10786257,10789274,10786521.0,10787629.0,1109.0,1109.0,1971.5,1366.1,1920.0,700.0,Animal_Sea_Pattern_Large,70.48325933294836,73.50034604093526,3.0,Animal_Sea_Pattern_Large,1.0,1.0,1.0,0.630783166969195,,,,,,,,
encoding,attention,18,10786257,10789274,10787821.0,10787934.0,114.0,114.0,2043.9,1269.1,2249.0,891.0,Animal_Sea_Solid_Large,70.48325933294836,73.50034604093526,3.0,Animal_Sea_Pattern_Large,1.0,1.0,1.0,0.630783166969195,,,,,,,,
encoding,fixation,19,11092592,11093598,11092808.0,11092931.0,124.0,124.0,1920.5,1015.7,1920.0,1080.0,fixation,5.156898292014375,6.162402834044769,4.0,Animal_Sea_Pattern_Small,-3.0,,,,,,,,,,,
encoding,fixation,19,11092592,11093598,11092946.0,11093544.0,599.0,599.0,1923.2,1070.7,1920.0,1080.0,fixation,5.156898292014375,6.162402834044769,4.0,Animal_Sea_Pattern_Small,-3.0,,,,,,,,,,,
encoding,image,19,11093598,11094611,11093693.0,11093793.0,101.0,101.0,1919.5,1086.4,1920.0,1080.0,fixation,6.162511375034228,7.176132709020749,4.0,Animal_Sea_Pattern_Small,-3.0,,,,,,,,,,,
encoding,image,19,11093598,11094611,11093843.0,11094180.0,338.0,338.0,2198.6,909.9000000000001,2249.0,1269.0,Animal_Sea_Pattern_Small,6.162511375034228,7.176132709020749,4.0,Animal_Sea_Pattern_Small,-3.0,,,,,,,,,,,
encoding,image,19,11093598,11094611,11094196.0,11094527.0,332.0,332.0,2267.8,898.8,2249.0,1269.0,Animal_Sea_Pattern_Small,6.162511375034228,7.176132709020749,4.0,Animal_Sea_Pattern_Small,-3.0,,,,,,,,,,,
encoding,image,19,11093598,11094611,11094543.0,11094772.0,230.0,68.0,2205.8,912.8,2249.0,1269.0,Animal_Sea_Pattern_Small,6.162511375034228,7.176132709020749,4.0,Animal_Sea_Pattern_Small,-3.0,,,,,,,,,,,
encoding,value,19,11094611,11100625,11094795.0,11095673.0,879.0,879.0,2256.8,801.8,2249.0,1269.0,Animal_Sea_Pattern_Small,7.176255875034258,13.1895672500832,4.0,Animal_Sea_Pattern_Small,-3.0,,,,,,,,,,,
encoding,value,19,11094611,11100625,11095892.0,11095964.0,73.0,73.0,1929.0,1047.0,1920.0,1080.0,fixation,7.176255875034258,13.1895672500832,4.0,Animal_Sea_Pattern_Small,-3.0,,,,,,,,,,,
encoding,value,19,11094611,11100625,11096004.0,11096172.0,169.0,169.0,2228.9,852.2,2249.0,1269.0,Animal_Sea_Pattern_Small,7.176255875034258,13.1895672500832,4.0,Animal_Sea_Pattern_Small,-3.0,,,,,,,,,,,
encoding,value,19,11094611,11100625,11096191.0,11099845.0,3655.0,3655.0,2255.1,789.9000000000001,2249.0,1269.0,Animal_Sea_Pattern_Small,7.176255875034258,13.1895672500832,4.0,Animal_Sea_Pattern_Small,-3.0,,,,,,,,,,,
encoding,value,19,11094611,11100625,11099878.0,11099988.0,111.0,111.0,1911.3,1012.9000000000001,1920.0,1080.0,fixation,7.176255875034258,13.1895672500832,4.0,Animal_Sea_Pattern_Small,-3.0,,,,,,,,,,,
encoding,value,19,11094611,11100625,11100160.0,11100829.0,670.0,465.0,2259.3,796.8,2249.0,1269.0,Animal_Sea_Pattern_Small,7.176255875034258,13.1895672500832,4.0,Animal_Sea_Pattern_Small,-3.0,,,,,,,,,,,
encoding,attention,19,11100625,11103643,11100841.0,11101791.0,951.0,951.0,2309.2,796.3,2249.0,1269.0,Animal_Sea_Pattern_Small,13.1897747090552,16.207614209037274,4.0,Animal_Sea_Pattern_Small,-3.0,-3.0,1.0,0.7407436670036986,,,,,,,,
encoding,attention,19,11100625,11103643,11101804.0,11101947.0,144.0,144.0,2246.0,798.3,2249.0,1269.0,Animal_Sea_Pattern_Small,13.1897747090552,16.207614209037274,4.0,Animal_Sea_Pattern_Small,-3.0,-3.0,1.0,0.7407436670036986,,,,,,,,
encoding,attention,19,11100625,11103643,11102163.0,11102394.0,232.0,232.0,2221.8,891.8,2249.0,1269.0,Animal_Sea_Pattern_Small,13.1897747090552,16.207614209037274,4.0,Animal_Sea_Pattern_Small,-3.0,-3.0,1.0,0.7407436670036986,,,,,,,,
encoding,attention,19,11100625,11103643,11102403.0,11102869.0,467.0,467.0,2270.3,894.4000000000001,2249.0,1269.0,Animal_Sea_Pattern_Small,13.1897747090552,16.207614209037274,4.0,Animal_Sea_Pattern_Small,-3.0,-3.0,1.0,0.7407436670036986,,,,,,,,
encoding,attention,19,11100625,11103643,11102891.0,11103581.0,691.0,691.0,2306.3,802.9000000000001,2249.0,1269.0,Animal_Sea_Pattern_Small,13.1897747090552,16.207614209037274,4.0,Animal_Sea_Pattern_Small,-3.0,-3.0,1.0,0.7407436670036986,,,,,,,,
encoding,fixation,20,11103643,11104399,11103868.0,11103981.0,114.0,114.0,1969.9,988.0999999999999,1920.0,1460.0,Animal_Land_Pattern_Large,16.207770792068914,16.963550584041514,4.0,Object_Sea_Pattern_Small,9.0,,,,,,,,,,,
encoding,fixation,20,11103643,11104399,11104002.0,11104666.0,665.0,397.0,1937.2,1083.9,1920.0,1080.0,fixation,16.207770792068914,16.963550584041514,4.0,Object_Sea_Pattern_Small,9.0,,,,,,,,,,,
encoding,image,20,11104399,11105412,11104700.0,11104942.0,243.0,243.0,1639.1,925.9000000000001,1591.0,1269.0,Object_Sea_Pattern_Small,16.96368125011213,17.976149667054415,4.0,Object_Sea_Pattern_Small,9.0,,,,,,,,,,,
encoding,image,20,11104399,11105412,11104954.0,11105586.0,633.0,458.0,1608.4,879.2,1591.0,1269.0,Object_Sea_Pattern_Small,16.96368125011213,17.976149667054415,4.0,Object_Sea_Pattern_Small,9.0,,,,,,,,,,,
encoding,value,20,11105412,11111424,11105605.0,11106219.0,615.0,615.0,1623.7,800.0999999999999,1591.0,1269.0,Object_Sea_Pattern_Small,17.97634887509048,23.98844570911024,4.0,Object_Sea_Pattern_Small,9.0,,,,,,,,,,,
encoding,value,20,11105412,11111424,11106434.0,11107279.0,846.0,846.0,1613.7,819.7,1591.0,1269.0,Object_Sea_Pattern_Small,17.97634887509048,23.98844570911024,4.0,Object_Sea_Pattern_Small,9.0,,,,,,,,,,,
encoding,value,20,11105412,11111424,11107548.0,11107585.0,38.0,38.0,1600.0,889.0,1591.0,1269.0,Object_Sea_Pattern_Small,17.97634887509048,23.98844570911024,4.0,Object_Sea_Pattern_Small,9.0,,,,,,,,,,,
encoding,value,20,11105412,11111424,11107593.0,11107743.0,151.0,151.0,1613.2,822.0,1591.0,1269.0,Object_Sea_Pattern_Small,17.97634887509048,23.98844570911024,4.0,Object_Sea_Pattern_Small,9.0,,,,,,,,,,,
encoding,value,20,11105412,11111424,11107761.0,11109018.0,1258.0,1258.0,1621.0,876.0999999999999,1591.0,1269.0,Object_Sea_Pattern_Small,17.97634887509048,23.98844570911024,4.0,Object_Sea_Pattern_Small,9.0,,,,,,,,,,,
encoding,value,20,11105412,11111424,11109037.0,11110719.0,1683.0,1683.0,1611.0,796.8,1591.0,1269.0,Object_Sea_Pattern_Small,17.97634887509048,23.98844570911024,4.0,Object_Sea_Pattern_Small,9.0,,,,,,,,,,,
encoding,value,20,11105412,11111424,11110951.0,11110974.0,24.0,24.0,1599.2,900.4000000000001,1591.0,1269.0,Object_Sea_Pattern_Small,17.97634887509048,23.98844570911024,4.0,Object_Sea_Pattern_Small,9.0,,,,,,,,,,,
encoding,value,20,11105412,11111424,11110985.0,11111621.0,637.0,439.0,1614.8,798.2,1591.0,1269.0,Object_Sea_Pattern_Small,17.97634887509048,23.98844570911024,4.0,Object_Sea_Pattern_Small,9.0,,,,,,,,,,,
encoding,attention,20,11111424,11114441,11111632.0,11111764.0,133.0,133.0,1562.0,792.4000000000001,1591.0,1269.0,Object_Sea_Pattern_Small,23.988570667104796,27.00502200005576,4.0,Object_Sea_Pattern_Small,9.0,9.0,1.0,0.719206582987681,,,,,,,,
encoding,attention,20,11111424,11114441,11111782.0,11112584.0,803.0,803.0,1651.2,796.7,1591.0,1269.0,Object_Sea_Pattern_Small,23.988570667104796,27.00502200005576,4.0,Object_Sea_Pattern_Small,9.0,9.0,1.0,0.719206582987681,,,,,,,,
encoding,attention,20,11111424,11114441,11112602.0,11112807.0,206.0,206.0,1611.7,873.3,1591.0,1269.0,Object_Sea_Pattern_Small,23.988570667104796,27.00502200005576,4.0,Object_Sea_Pattern_Small,9.0,9.0,1.0,0.719206582987681,,,,,,,,
encoding,attention,20,11111424,11114441,11112822.0,11112937.0,116.0,116.0,1685.1,810.0,1591.0,1269.0,Object_Sea_Pattern_Small,23.988570667104796,27.00502200005576,4.0,Object_Sea_Pattern_Small,9.0,9.0,1.0,0.719206582987681,,,,,,,,
encoding,attention,20,11111424,11114441,11113207.0,11113290.0,84.0,84.0,1613.8,817.2,1591.0,1269.0,Object_Sea_Pattern_Small,23.988570667104796,27.00502200005576,4.0,Object_Sea_Pattern_Small,9.0,9.0,1.0,0.719206582987681,,,,,,,,
encoding,attention,20,11111424,11114441,11113305.0,11113662.0,358.0,358.0,1611.5,869.4000000000001,1591.0,1269.0,Object_Sea_Pattern_Small,23.988570667104796,27.00502200005576,4.0,Object_Sea_Pattern_Small,9.0,9.0,1.0,0.719206582987681,,,,,,,,
encoding,fixation,21,11114441,11115947,11114480.0,11114698.0,219.0,219.0,1622.6,879.0999999999999,1591.0,1269.0,Object_Sea_Pattern_Small,27.005216084071435,28.510756292031147,4.0,Object_Sea_Solid_Small,-3.0,,,,,,,,,,,
encoding,fixation,21,11114441,11115947,11114732.0,11116142.0,1411.0,1215.0,1939.9,1071.4,1920.0,1080.0,fixation,27.005216084071435,28.510756292031147,4.0,Object_Sea_Solid_Small,-3.0,,,,,,,,,,,
encoding,image,21,11115947,11116957,11116179.0,11116326.0,148.0,148.0,1946.8,1392.0,1920.0,700.0,Object_Sea_Solid_Small,28.51088766707107,29.52130595908966,4.0,Object_Sea_Solid_Small,-3.0,,,,,,,,,,,
encoding,image,21,11115947,11116957,11116339.0,11116701.0,363.0,363.0,1949.3,1443.9,1920.0,700.0,Object_Sea_Solid_Small,28.51088766707107,29.52130595908966,4.0,Object_Sea_Solid_Small,-3.0,,,,,,,,,,,
encoding,image,21,11115947,11116957,11116912.0,11117111.0,200.0,45.0,1950.3,1314.5,1920.0,700.0,Object_Sea_Solid_Small,28.51088766707107,29.52130595908966,4.0,Object_Sea_Solid_Small,-3.0,,,,,,,,,,,
encoding,value,21,11116957,11122968,11117119.0,11117256.0,138.0,138.0,1923.4,1290.2,1920.0,700.0,Object_Sea_Solid_Small,29.521421917015687,35.53197045903653,4.0,Object_Sea_Solid_Small,-3.0,,,,,,,,,,,
encoding,value,21,11116957,11122968,11117267.0,11117856.0,590.0,590.0,1933.2,1340.5,1920.0,700.0,Object_Sea_Solid_Small,29.521421917015687,35.53197045903653,4.0,Object_Sea_Solid_Small,-3.0,,,,,,,,,,,
encoding,value,21,11116957,11122968,11117876.0,11118236.0,361.0,361.0,1928.5,1449.1,1920.0,700.0,Object_Sea_Solid_Small,29.521421917015687,35.53197045903653,4.0,Object_Sea_Solid_Small,-3.0,,,,,,,,,,,
encoding,value,21,11116957,11122968,11118244.0,11118728.0,485.0,485.0,1904.6,1469.8,1920.0,700.0,Object_Sea_Solid_Small,29.521421917015687,35.53197045903653,4.0,Object_Sea_Solid_Small,-3.0,,,,,,,,,,,
encoding,value,21,11116957,11122968,11118754.0,11119125.0,372.0,372.0,1949.5,1358.9,1920.0,700.0,Object_Sea_Solid_Small,29.521421917015687,35.53197045903653,4.0,Object_Sea_Solid_Small,-3.0,,,,,,,,,,,
encoding,value,21,11116957,11122968,11119144.0,11119398.0,255.0,255.0,1941.5,1444.7,1920.0,700.0,Object_Sea_Solid_Small,29.521421917015687,35.53197045903653,4.0,Object_Sea_Solid_Small,-3.0,,,,,,,,,,,
encoding,value,21,11116957,11122968,11119609.0,11119734.0,126.0,126.0,1953.1,1291.7,1920.0,700.0,Object_Sea_Solid_Small,29.521421917015687,35.53197045903653,4.0,Object_Sea_Solid_Small,-3.0,,,,,,,,,,,
encoding,value,21,11116957,11122968,11119747.0,11123179.0,3433.0,3221.0,1938.8,1345.1,1920.0,700.0,Object_Sea_Solid_Small,29.521421917015687,35.53197045903653,4.0,Object_Sea_Solid_Small,-3.0,,,,,,,,,,,
encoding,attention,21,11122968,11125988,11123191.0,11123343.0,153.0,153.0,1988.2,1348.2,1920.0,700.0,Object_Sea_Solid_Small,35.53207295900211,38.551373750087805,4.0,Object_Sea_Solid_Small,-3.0,-3.0,1.0,0.7747470419853926,,,,,,,,
encoding,attention,21,11122968,11125988,11123363.0,11124194.0,832.0,832.0,1893.4,1347.0,1920.0,700.0,Object_Sea_Solid_Small,35.53207295900211,38.551373750087805,4.0,Object_Sea_Solid_Small,-3.0,-3.0,1.0,0.7747470419853926,,,,,,,,
encoding,attention,21,11122968,11125988,11124408.0,11124529.0,122.0,122.0,1939.5,1344.3,1920.0,700.0,Object_Sea_Solid_Small,35.53207295900211,38.551373750087805,4.0,Object_Sea_Solid_Small,-3.0,-3.0,1.0,0.7747470419853926,,,,,,,,
encoding,attention,21,11122968,11125988,11124539.0,11124816.0,278.0,278.0,1902.7,1353.5,1920.0,700.0,Object_Sea_Solid_Small,35.53207295900211,38.551373750087805,4.0,Object_Sea_Solid_Small,-3.0,-3.0,1.0,0.7747470419853926,,,,,,,,
encoding,attention,21,11122968,11125988,11124835.0,11125094.0,260.0,260.0,2004.0,1351.2,1920.0,700.0,Object_Sea_Solid_Small,35.53207295900211,38.551373750087805,4.0,Object_Sea_Solid_Small,-3.0,-3.0,1.0,0.7747470419853926,,,,,,,,
encoding,attention,21,11122968,11125988,11125115.0,11125434.0,320.0,320.0,1961.0,1417.0,1920.0,700.0,Object_Sea_Solid_Small,35.53207295900211,38.551373750087805,4.0,Object_Sea_Solid_Small,-3.0,-3.0,1.0,0.7747470419853926,,,,,,,,
encoding,attention,21,11122968,11125988,11125451.0,11125754.0,304.0,304.0,1897.8,1365.4,1920.0,700.0,Object_Sea_Solid_Small,35.53207295900211,38.551373750087805,4.0,Object_Sea_Solid_Small,-3.0,-3.0,1.0,0.7747470419853926,,,,,,,,
encoding,fixation,22,11125988,11127493,11126187.0,11126304.0,118.0,118.0,1899.8,1138.8,1920.0,1080.0,fixation,38.5515277920058,40.05683154205326,4.0,Object_Land_Solid_Large,-4.0,,,,,,,,,,,
encoding,fixation,22,11125988,11127493,11126318.0,11127689.0,1372.0,1175.0,1943.1,1091.7,1920.0,1080.0,fixation,38.5515277920058,40.05683154205326,4.0,Object_Land_Solid_Large,-4.0,,,,,,,,,,,
encoding,image,22,11127494,11128504,11127724.0,11127955.0,232.0,232.0,2232.1,1232.6,2249.0,891.0,Object_Land_Solid_Large,40.05696912505664,41.06726200005505,4.0,Object_Land_Solid_Large,-4.0,,,,,,,,,,,
encoding,image,22,11127494,11128504,11127962.0,11128678.0,717.0,542.0,2198.6,1239.2,2249.0,891.0,Object_Land_Solid_Large,40.05696912505664,41.06726200005505,4.0,Object_Land_Solid_Large,-4.0,,,,,,,,,,,
encoding,value,22,11128504,11134515,11128696.0,11129204.0,509.0,509.0,2258.5,1203.0,2249.0,891.0,Object_Land_Solid_Large,41.06741804210469,47.07779691705946,4.0,Object_Land_Solid_Large,-4.0,,,,,,,,,,,
encoding,value,22,11128504,11134515,11129416.0,11132069.0,2654.0,2654.0,2249.4,1179.3,2249.0,891.0,Object_Land_Solid_Large,41.06741804210469,47.07779691705946,4.0,Object_Land_Solid_Large,-4.0,,,,,,,,,,,
encoding,value,22,11128504,11134515,11132087.0,11132303.0,217.0,217.0,2232.2,1244.2,2249.0,891.0,Object_Land_Solid_Large,41.06741804210469,47.07779691705946,4.0,Object_Land_Solid_Large,-4.0,,,,,,,,,,,
encoding,value,22,11128504,11134515,11132322.0,11134140.0,1819.0,1819.0,2254.3,1178.2,2249.0,891.0,Object_Land_Solid_Large,41.06741804210469,47.07779691705946,4.0,Object_Land_Solid_Large,-4.0,,,,,,,,,,,
encoding,value,22,11128504,11134515,11134147.0,11134721.0,575.0,368.0,2262.6,1173.4,2249.0,891.0,Object_Land_Solid_Large,41.06741804210469,47.07779691705946,4.0,Object_Land_Solid_Large,-4.0,,,,,,,,,,,
encoding,attention,22,11134515,11137532,11134731.0,11135634.0,904.0,904.0,2301.4,1179.3,2249.0,891.0,Object_Land_Solid_Large,47.07791150000412,50.094830459100194,4.0,Object_Land_Solid_Large,-4.0,-4.0,1.0,0.8528842501109466,,,,,,,,
encoding,attention,22,11134515,11137532,11135837.0,11135963.0,127.0,127.0,2021.6,1109.4,2249.0,891.0,Object_Land_Solid_Large,47.07791150000412,50.094830459100194,4.0,Object_Land_Solid_Large,-4.0,-4.0,1.0,0.8528842501109466,,,,,,,,
encoding,attention,22,11134515,11137532,11135979.0,11136479.0,501.0,501.0,1950.4,1102.7,1920.0,1080.0,fixation,47.07791150000412,50.094830459100194,4.0,Object_Land_Solid_Large,-4.0,-4.0,1.0,0.8528842501109466,,,,,,,,
encoding,attention,22,11134515,11137532,11136513.0,11136729.0,217.0,217.0,2243.0,1197.0,2249.0,891.0,Object_Land_Solid_Large,47.07791150000412,50.094830459100194,4.0,Object_Land_Solid_Large,-4.0,-4.0,1.0,0.8528842501109466,,,,,,,,
encoding,attention,22,11134515,11137532,11136748.0,11137268.0,521.0,521.0,2323.4,1176.1,2249.0,891.0,Object_Land_Solid_Large,47.07791150000412,50.094830459100194,4.0,Object_Land_Solid_Large,-4.0,-4.0,1.0,0.8528842501109466,,,,,,,,
encoding,fixation,23,11137532,11138787,11137692.0,11137769.0,78.0,78.0,1961.4,1062.1,1920.0,1080.0,fixation,50.09503841702826,51.350176834035665,4.0,Animal_Land_Solid_Large,8.0,,,,,,,,,,,
encoding,fixation,23,11137532,11138787,11137933.0,11139346.0,1414.0,854.0,1938.7,1076.5,1920.0,1080.0,fixation,50.09503841702826,51.350176834035665,4.0,Animal_Land_Solid_Large,8.0,,,,,,,,,,,
encoding,image,23,11138787,11139799,11139380.0,11139623.0,244.0,244.0,1648.8,1190.8,1591.0,891.0,Animal_Land_Solid_Large,51.35027891700156,52.36218612501398,4.0,Animal_Land_Solid_Large,8.0,,,,,,,,,,,
encoding,image,23,11138787,11139799,11139633.0,11139980.0,348.0,166.0,1636.4,1220.9,1591.0,891.0,Animal_Land_Solid_Large,51.35027891700156,52.36218612501398,4.0,Animal_Land_Solid_Large,8.0,,,,,,,,,,,
encoding,value,23,11139799,11145814,11139998.0,11140352.0,355.0,355.0,1648.7,1170.8,1591.0,891.0,Animal_Land_Solid_Large,52.36229233408813,58.376950334059075,4.0,Animal_Land_Solid_Large,8.0,,,,,,,,,,,
encoding,value,23,11139799,11145814,11140548.0,11141137.0,590.0,590.0,1632.1,1171.4,1591.0,891.0,Animal_Land_Solid_Large,52.36229233408813,58.376950334059075,4.0,Animal_Land_Solid_Large,8.0,,,,,,,,,,,
encoding,value,23,11139799,11145814,11141155.0,11141482.0,328.0,328.0,1634.6,1244.8,1591.0,891.0,Animal_Land_Solid_Large,52.36229233408813,58.376950334059075,4.0,Animal_Land_Solid_Large,8.0,,,,,,,,,,,
encoding,value,23,11139799,11145814,11141687.0,11143739.0,2053.0,2053.0,1626.5,1155.9,1591.0,891.0,Animal_Land_Solid_Large,52.36229233408813,58.376950334059075,4.0,Animal_Land_Solid_Large,8.0,,,,,,,,,,,
encoding,value,23,11139799,11145814,11143922.0,11146017.0,2096.0,1892.0,1637.5,1174.2,1591.0,891.0,Animal_Land_Solid_Large,52.36229233408813,58.376950334059075,4.0,Animal_Land_Solid_Large,8.0,,,,,,,,,,,
encoding,attention,23,11145814,11148836,11146028.0,11146172.0,145.0,145.0,1598.2,1174.7,1591.0,891.0,Animal_Land_Solid_Large,58.37705525010824,61.398264834075235,4.0,Animal_Land_Solid_Large,8.0,8.0,1.0,1.3581123750191182,,,,,,,,
encoding,attention,23,11145814,11148836,11146192.0,11146943.0,752.0,752.0,1679.4,1165.2,1591.0,891.0,Animal_Land_Solid_Large,58.37705525010824,61.398264834075235,4.0,Animal_Land_Solid_Large,8.0,8.0,1.0,1.3581123750191182,,,,,,,,
encoding,attention,23,11145814,11148836,11146956.0,11147781.0,826.0,826.0,1607.1,1159.2,1591.0,891.0,Animal_Land_Solid_Large,58.37705525010824,61.398264834075235,4.0,Animal_Land_Solid_Large,8.0,8.0,1.0,1.3581123750191182,,,,,,,,
encoding,attention,23,11145814,11148836,11147795.0,11147952.0,158.0,158.0,1685.0,1166.0,1591.0,891.0,Animal_Land_Solid_Large,58.37705525010824,61.398264834075235,4.0,Animal_Land_Solid_Large,8.0,8.0,1.0,1.3581123750191182,,,,,,,,
encoding,attention,23,11145814,11148836,11148162.0,11148173.0,12.0,12.0,1637.3,1205.8,1591.0,891.0,Animal_Land_Solid_Large,58.37705525010824,61.398264834075235,4.0,Animal_Land_Solid_Large,8.0,8.0,1.0,1.3581123750191182,,,,,,,,
encoding,fixation,24,11148836,11149842,11149048.0,11149270.0,223.0,223.0,1940.1,1096.3,1920.0,1080.0,fixation,61.39843429205939,62.40472429210786,4.0,Animal_Land_Pattern_Large,-2.0,,,,,,,,,,,
encoding,fixation,24,11148836,11149842,11149490.0,11150053.0,564.0,352.0,1956.2,1079.5,1920.0,1080.0,fixation,61.39843429205939,62.40472429210786,4.0,Animal_Land_Pattern_Large,-2.0,,,,,,,,,,,
encoding,image,24,11149842,11150854,11150097.0,11150205.0,109.0,109.0,1919.3,815.5,1920.0,1460.0,Animal_Land_Pattern_Large,62.40483458410017,63.41607312508859,4.0,Animal_Land_Pattern_Large,-2.0,,,,,,,,,,,
encoding,image,24,11149842,11150854,11150227.0,11150508.0,282.0,282.0,1903.4,747.5999999999999,1920.0,1460.0,Animal_Land_Pattern_Large,62.40483458410017,63.41607312508859,4.0,Animal_Land_Pattern_Large,-2.0,,,,,,,,,,,
encoding,image,24,11149842,11150854,11150526.0,11150798.0,273.0,273.0,1947.6,695.8,1920.0,1460.0,Animal_Land_Pattern_Large,62.40483458410017,63.41607312508859,4.0,Animal_Land_Pattern_Large,-2.0,,,,,,,,,,,
encoding,image,24,11149842,11150854,11150809.0,11151044.0,236.0,45.0,1920.8,660.5,1920.0,1460.0,Animal_Land_Pattern_Large,62.40483458410017,63.41607312508859,4.0,Animal_Land_Pattern_Large,-2.0,,,,,,,,,,,
encoding,value,24,11150854,11156866,11151058.0,11151589.0,532.0,532.0,1933.7,615.3,1920.0,1460.0,Animal_Land_Pattern_Large,63.41618883400224,69.42814595904201,4.0,Animal_Land_Pattern_Large,-2.0,,,,,,,,,,,
encoding,value,24,11150854,11156866,11151607.0,11151884.0,278.0,278.0,1959.3,682.2,1920.0,1460.0,Animal_Land_Pattern_Large,63.41618883400224,69.42814595904201,4.0,Animal_Land_Pattern_Large,-2.0,,,,,,,,,,,
encoding,value,24,11150854,11156866,11151894.0,11152093.0,200.0,200.0,1937.8,712.0999999999999,1920.0,1460.0,Animal_Land_Pattern_Large,63.41618883400224,69.42814595904201,4.0,Animal_Land_Pattern_Large,-2.0,,,,,,,,,,,
encoding,value,24,11150854,11156866,11152111.0,11152550.0,440.0,440.0,1944.7,635.0,1920.0,1460.0,Animal_Land_Pattern_Large,63.41618883400224,69.42814595904201,4.0,Animal_Land_Pattern_Large,-2.0,,,,,,,,,,,
encoding,value,24,11150854,11156866,11152808.0,11156665.0,3858.0,3858.0,1936.2,623.3,1920.0,1460.0,Animal_Land_Pattern_Large,63.41618883400224,69.42814595904201,4.0,Animal_Land_Pattern_Large,-2.0,,,,,,,,,,,
encoding,value,24,11150854,11156866,11156678.0,11156851.0,174.0,174.0,1899.5,660.8,1920.0,1460.0,Animal_Land_Pattern_Large,63.41618883400224,69.42814595904201,4.0,Animal_Land_Pattern_Large,-2.0,,,,,,,,,,,
encoding,value,24,11150854,11156866,11156865.0,11157089.0,225.0,1.0,1949.9,619.7,1920.0,1460.0,Animal_Land_Pattern_Large,63.41618883400224,69.42814595904201,4.0,Animal_Land_Pattern_Large,-2.0,,,,,,,,,,,
encoding,attention,24,11156866,11159883,11157098.0,11157691.0,594.0,594.0,1986.5,620.0999999999999,1920.0,1460.0,Animal_Land_Pattern_Large,69.42826050007716,72.44535545899998,4.0,Animal_Land_Pattern_Large,-2.0,-2.0,1.0,0.5743939579697326,,,,,,,,
encoding,attention,24,11156866,11159883,11157913.0,11158029.0,117.0,117.0,1952.7,1121.3,1920.0,1080.0,fixation,69.42826050007716,72.44535545899998,4.0,Animal_Land_Pattern_Large,-2.0,-2.0,1.0,0.5743939579697326,,,,,,,,
encoding,attention,24,11156866,11159883,11158044.0,11158293.0,250.0,250.0,1942.5,1083.7,1920.0,1080.0,fixation,69.42826050007716,72.44535545899998,4.0,Animal_Land_Pattern_Large,-2.0,-2.0,1.0,0.5743939579697326,,,,,,,,
encoding,attention,24,11156866,11159883,11158349.0,11158617.0,269.0,269.0,1926.1,647.2,1920.0,1460.0,Animal_Land_Pattern_Large,69.42826050007716,72.44535545899998,4.0,Animal_Land_Pattern_Large,-2.0,-2.0,1.0,0.5743939579697326,,,,,,,,
encoding,attention,24,11156866,11159883,11158636.0,11158786.0,151.0,151.0,1889.9,710.7,1920.0,1460.0,Animal_Land_Pattern_Large,69.42826050007716,72.44535545899998,4.0,Animal_Land_Pattern_Large,-2.0,-2.0,1.0,0.5743939579697326,,,,,,,,
encoding,attention,24,11156866,11159883,11158795.0,11159092.0,298.0,298.0,1887.4,742.4000000000001,1920.0,1460.0,Animal_Land_Pattern_Large,69.42826050007716,72.44535545899998,4.0,Animal_Land_Pattern_Large,-2.0,-2.0,1.0,0.5743939579697326,,,,,,,,
encoding,fixation,25,11450569,11452077,11450587.0,11450750.0,164.0,164.0,2095.4,1339.1,2249.0,891.0,Object_Land_Pattern_Large,4.335629624896683,5.8426884999498725,5.0,Animal_Sea_Solid_Small,-7.0,,,,,,,,,,,
encoding,fixation,25,11450569,11452077,11450778.0,11450918.0,141.0,141.0,1942.7,1143.5,1920.0,1080.0,fixation,4.335629624896683,5.8426884999498725,5.0,Animal_Sea_Solid_Small,-7.0,,,,,,,,,,,
encoding,fixation,25,11450569,11452077,11450929.0,11451411.0,483.0,483.0,1943.8,1108.6,1920.0,1080.0,fixation,4.335629624896683,5.8426884999498725,5.0,Animal_Sea_Solid_Small,-7.0,,,,,,,,,,,
encoding,fixation,25,11450569,11452077,11451449.0,11451582.0,134.0,134.0,1961.0,849.5999999999999,1920.0,1460.0,Animal_Sea_Solid_Small,4.335629624896683,5.8426884999498725,5.0,Animal_Sea_Solid_Small,-7.0,,,,,,,,,,,
encoding,fixation,25,11450569,11452077,11451607.0,11451738.0,132.0,132.0,1932.8,1007.5999999999999,1920.0,1460.0,Animal_Sea_Solid_Small,4.335629624896683,5.8426884999498725,5.0,Animal_Sea_Solid_Small,-7.0,,,,,,,,,,,
encoding,fixation,25,11450569,11452077,11451753.0,11452232.0,480.0,324.0,1946.1,1076.9,1920.0,1080.0,fixation,4.335629624896683,5.8426884999498725,5.0,Animal_Sea_Solid_Small,-7.0,,,,,,,,,,,
encoding,image,25,11452077,11453089,11452281.0,11452407.0,127.0,127.0,1944.1,772.5999999999999,1920.0,1460.0,Animal_Sea_Solid_Small,5.842845791950822,6.855541416909546,5.0,Animal_Sea_Solid_Small,-7.0,,,,,,,,,,,
encoding,image,25,11452077,11453089,11452419.0,11453006.0,588.0,588.0,1946.2,734.0,1920.0,1460.0,Animal_Sea_Solid_Small,5.842845791950822,6.855541416909546,5.0,Animal_Sea_Solid_Small,-7.0,,,,,,,,,,,
encoding,image,25,11452077,11453089,11453015.0,11453272.0,258.0,74.0,1928.0,705.9000000000001,1920.0,1460.0,Animal_Sea_Solid_Small,5.842845791950822,6.855541416909546,5.0,Animal_Sea_Solid_Small,-7.0,,,,,,,,,,,
encoding,value,25,11453089,11459103,11453288.0,11454021.0,734.0,734.0,1945.0,648.5999999999999,1920.0,1460.0,Animal_Sea_Solid_Small,6.8556526669999585,12.86945812497288,5.0,Animal_Sea_Solid_Small,-7.0,,,,,,,,,,,
encoding,value,25,11453089,11459103,11454036.0,11454229.0,194.0,194.0,1937.5,702.3,1920.0,1460.0,Animal_Sea_Solid_Small,6.8556526669999585,12.86945812497288,5.0,Animal_Sea_Solid_Small,-7.0,,,,,,,,,,,
encoding,value,25,11453089,11459103,11454472.0,11454523.0,52.0,52.0,1873.4,769.4000000000001,1920.0,1460.0,Animal_Sea_Solid_Small,6.8556526669999585,12.86945812497288,5.0,Animal_Sea_Solid_Small,-7.0,,,,,,,,,,,
encoding,value,25,11453089,11459103,11454597.0,11454966.0,370.0,370.0,1922.8,772.5999999999999,1920.0,1460.0,Animal_Sea_Solid_Small,6.8556526669999585,12.86945812497288,5.0,Animal_Sea_Solid_Small,-7.0,,,,,,,,,,,
encoding,value,25,11453089,11459103,11454986.0,11455745.0,760.0,760.0,1947.0,633.9000000000001,1920.0,1460.0,Animal_Sea_Solid_Small,6.8556526669999585,12.86945812497288,5.0,Animal_Sea_Solid_Small,-7.0,,,,,,,,,,,
encoding,value,25,11453089,11459103,11456001.0,11456068.0,68.0,68.0,1931.5,846.3,1920.0,1460.0,Animal_Sea_Solid_Small,6.8556526669999585,12.86945812497288,5.0,Animal_Sea_Solid_Small,-7.0,,,,,,,,,,,
encoding,value,25,11453089,11459103,11456083.0,11456748.0,666.0,666.0,1954.5,752.9000000000001,1920.0,1460.0,Animal_Sea_Solid_Small,6.8556526669999585,12.86945812497288,5.0,Animal_Sea_Solid_Small,-7.0,,,,,,,,,,,
encoding,value,25,11453089,11459103,11456765.0,11457260.0,496.0,496.0,1934.6,682.5999999999999,1920.0,1460.0,Animal_Sea_Solid_Small,6.8556526669999585,12.86945812497288,5.0,Animal_Sea_Solid_Small,-7.0,,,,,,,,,,,
encoding,value,25,11453089,11459103,11457268.0,11458810.0,1543.0,1543.0,1933.6,683.3,1920.0,1460.0,Animal_Sea_Solid_Small,6.8556526669999585,12.86945812497288,5.0,Animal_Sea_Solid_Small,-7.0,,,,,,,,,,,
encoding,attention,25,11459104,11462121,11459427.0,11459595.0,169.0,169.0,1946.7,744.7,1920.0,1460.0,Animal_Sea_Solid_Small,12.86959204194136,15.886900416924618,5.0,Animal_Sea_Solid_Small,-7.0,-7.0,1.0,1.1821040830109268,,,,,,,,
encoding,attention,25,11459104,11462121,11459615.0,11459991.0,377.0,377.0,1995.4,636.2,1920.0,1460.0,Animal_Sea_Solid_Small,12.86959204194136,15.886900416924618,5.0,Animal_Sea_Solid_Small,-7.0,-7.0,1.0,1.1821040830109268,,,,,,,,
encoding,attention,25,11459104,11462121,11460007.0,11460480.0,474.0,474.0,1902.0,654.7,1920.0,1460.0,Animal_Sea_Solid_Small,12.86959204194136,15.886900416924618,5.0,Animal_Sea_Solid_Small,-7.0,-7.0,1.0,1.1821040830109268,,,,,,,,
encoding,attention,25,11459104,11462121,11460493.0,11460629.0,137.0,137.0,1973.9,697.5999999999999,1920.0,1460.0,Animal_Sea_Solid_Small,12.86959204194136,15.886900416924618,5.0,Animal_Sea_Solid_Small,-7.0,-7.0,1.0,1.1821040830109268,,,,,,,,
encoding,attention,25,11459104,11462121,11461000.0,11461084.0,85.0,85.0,2020.5,690.0999999999999,1920.0,1460.0,Animal_Sea_Solid_Small,12.86959204194136,15.886900416924618,5.0,Animal_Sea_Solid_Small,-7.0,-7.0,1.0,1.1821040830109268,,,,,,,,
encoding,fixation,26,11462121,11463128,11462374.0,11463323.0,950.0,754.0,1959.5,1091.1,1920.0,1080.0,fixation,15.887058457941748,16.89388762495946,5.0,Animal_Land_Solid_Large,-3.0,,,,,,,,,,,
encoding,image,26,11463128,11464140,11463359.0,11463624.0,266.0,266.0,1667.8,1275.0,1591.0,891.0,Animal_Land_Solid_Large,16.893996457918547,17.9055754999863,5.0,Animal_Land_Solid_Large,-3.0,,,,,,,,,,,
encoding,image,26,11463128,11464140,11463656.0,11464023.0,368.0,368.0,1943.0,1120.5,1920.0,1080.0,fixation,16.893996457918547,17.9055754999863,5.0,Animal_Land_Solid_Large,-3.0,,,,,,,,,,,
encoding,image,26,11463128,11464140,11464056.0,11464170.0,115.0,84.0,1647.4,1160.0,1591.0,891.0,Animal_Land_Solid_Large,16.893996457918547,17.9055754999863,5.0,Animal_Land_Solid_Large,-3.0,,,,,,,,,,,
encoding,value,26,11464140,11470154,11464370.0,11464502.0,133.0,133.0,1636.5,1232.8,1591.0,891.0,Animal_Land_Solid_Large,17.905701707932167,23.919271166902035,5.0,Animal_Land_Solid_Large,-3.0,,,,,,,,,,,
encoding,value,26,11464140,11470154,11464518.0,11468231.0,3714.0,3714.0,1644.4,1174.4,1591.0,891.0,Animal_Land_Solid_Large,17.905701707932167,23.919271166902035,5.0,Animal_Land_Solid_Large,-3.0,,,,,,,,,,,
encoding,value,26,11464140,11470154,11468491.0,11469100.0,610.0,610.0,1647.5,1176.8,1591.0,891.0,Animal_Land_Solid_Large,17.905701707932167,23.919271166902035,5.0,Animal_Land_Solid_Large,-3.0,,,,,,,,,,,
encoding,value,26,11464140,11470154,11469132.0,11469632.0,501.0,501.0,1936.8,1113.2,1920.0,1080.0,fixation,17.905701707932167,23.919271166902035,5.0,Animal_Land_Solid_Large,-3.0,,,,,,,,,,,
encoding,value,26,11464140,11470154,11469664.0,11470282.0,619.0,490.0,1646.7,1171.0,1591.0,891.0,Animal_Land_Solid_Large,17.905701707932167,23.919271166902035,5.0,Animal_Land_Solid_Large,-3.0,,,,,,,,,,,
encoding,attention,26,11470154,11473172,11470442.0,11470564.0,123.0,123.0,1666.1,1209.4,1591.0,891.0,Animal_Land_Solid_Large,23.91942399996333,26.936773082939908,5.0,Animal_Land_Solid_Large,-3.0,-3.0,1.0,0.5877852919511497,,,,,,,,
encoding,attention,26,11470154,11473172,11470580.0,11471225.0,646.0,646.0,1602.5,1184.3,1591.0,891.0,Animal_Land_Solid_Large,23.91942399996333,26.936773082939908,5.0,Animal_Land_Solid_Large,-3.0,-3.0,1.0,0.5877852919511497,,,,,,,,
encoding,attention,26,11470154,11473172,11471243.0,11471652.0,410.0,410.0,1658.7,1257.5,1591.0,891.0,Animal_Land_Solid_Large,23.91942399996333,26.936773082939908,5.0,Animal_Land_Solid_Large,-3.0,-3.0,1.0,0.5877852919511497,,,,,,,,
encoding,attention,26,11470154,11473172,11471659.0,11472125.0,467.0,467.0,1658.1,1291.7,1591.0,891.0,Animal_Land_Solid_Large,23.91942399996333,26.936773082939908,5.0,Animal_Land_Solid_Large,-3.0,-3.0,1.0,0.5877852919511497,,,,,,,,
encoding,fixation,27,11473172,11474178,11473497.0,11474369.0,873.0,681.0,1939.6,1115.3,1920.0,1080.0,fixation,26.93691899999976,27.943207249976695,5.0,Object_Land_Pattern_Large,-8.0,,,,,,,,,,,
encoding,image,27,11474178,11475190,11474405.0,11475354.0,950.0,785.0,2262.3,1260.4,2249.0,891.0,Object_Land_Pattern_Large,27.943310000002384,28.95559887494892,5.0,Object_Land_Pattern_Large,-8.0,,,,,,,,,,,
encoding,value,27,11475190,11481203,11475364.0,11475643.0,280.0,280.0,2280.2,1218.8,2249.0,891.0,Object_Land_Pattern_Large,28.955721707898192,34.9677144580055,5.0,Object_Land_Pattern_Large,-8.0,,,,,,,,,,,
encoding,value,27,11475190,11481203,11475854.0,11476447.0,594.0,594.0,2274.7,1198.1,2249.0,891.0,Object_Land_Pattern_Large,28.955721707898192,34.9677144580055,5.0,Object_Land_Pattern_Large,-8.0,,,,,,,,,,,
encoding,value,27,11475190,11481203,11476461.0,11477085.0,625.0,625.0,2268.4,1260.3,2249.0,891.0,Object_Land_Pattern_Large,28.955721707898192,34.9677144580055,5.0,Object_Land_Pattern_Large,-8.0,,,,,,,,,,,
encoding,value,27,11475190,11481203,11477100.0,11478646.0,1547.0,1547.0,2274.9,1202.6,2249.0,891.0,Object_Land_Pattern_Large,28.955721707898192,34.9677144580055,5.0,Object_Land_Pattern_Large,-8.0,,,,,,,,,,,
encoding,value,27,11475190,11481203,11478659.0,11478880.0,222.0,222.0,2276.1,1246.8,2249.0,891.0,Object_Land_Pattern_Large,28.955721707898192,34.9677144580055,5.0,Object_Land_Pattern_Large,-8.0,,,,,,,,,,,
encoding,value,27,11475190,11481203,11478890.0,11481414.0,2525.0,2313.0,2274.9,1196.8,2249.0,891.0,Object_Land_Pattern_Large,28.955721707898192,34.9677144580055,5.0,Object_Land_Pattern_Large,-8.0,,,,,,,,,,,
encoding,attention,27,11481203,11484221,11481424.0,11482170.0,747.0,747.0,2311.8,1200.6,2249.0,891.0,Object_Land_Pattern_Large,34.96783945790958,37.98617491696496,5.0,Object_Land_Pattern_Large,-8.0,-8.0,1.0,0.602671124972403,,,,,,,,
encoding,attention,27,11481203,11484221,11482184.0,11482837.0,654.0,654.0,2237.6,1194.3,2249.0,891.0,Object_Land_Pattern_Large,34.96783945790958,37.98617491696496,5.0,Object_Land_Pattern_Large,-8.0,-8.0,1.0,0.602671124972403,,,,,,,,
encoding,attention,27,11481203,11484221,11482852.0,11483310.0,459.0,459.0,2326.0,1192.3,2249.0,891.0,Object_Land_Pattern_Large,34.96783945790958,37.98617491696496,5.0,Object_Land_Pattern_Large,-8.0,-8.0,1.0,0.602671124972403,,,,,,,,
encoding,attention,27,11481203,11484221,11483322.0,11483601.0,280.0,280.0,2303.4,1236.0,2249.0,891.0,Object_Land_Pattern_Large,34.96783945790958,37.98617491696496,5.0,Object_Land_Pattern_Large,-8.0,-8.0,1.0,0.602671124972403,,,,,,,,
encoding,attention,27,11481203,11484221,11483612.0,11483854.0,243.0,243.0,2334.0,1198.4,2249.0,891.0,Object_Land_Pattern_Large,34.96783945790958,37.98617491696496,5.0,Object_Land_Pattern_Large,-8.0,-8.0,1.0,0.602671124972403,,,,,,,,
encoding,attention,27,11481203,11484221,11483866.0,11484105.0,240.0,240.0,2309.5,1235.3,2249.0,891.0,Object_Land_Pattern_Large,34.96783945790958,37.98617491696496,5.0,Object_Land_Pattern_Large,-8.0,-8.0,1.0,0.602671124972403,,,,,,,,
encoding,fixation,28,11484221,11484728,11484322.0,11484531.0,210.0,210.0,2279.1,1234.9,2249.0,891.0,Object_Land_Pattern_Large,37.98633079195861,38.4930354579119,5.0,Animal_Land_Pattern_Small,8.0,,,,,,,,,,,
encoding,fixation,28,11484221,11484728,11484566.0,11484719.0,154.0,154.0,1937.5,1130.0,1920.0,1080.0,fixation,37.98633079195861,38.4930354579119,5.0,Animal_Land_Pattern_Small,8.0,,,,,,,,,,,
encoding,image,28,11484728,11485739,11484730.0,11484974.0,245.0,245.0,1974.0,1111.3,1920.0,1080.0,fixation,38.493154541938566,39.50425024994183,5.0,Animal_Land_Pattern_Small,8.0,,,,,,,,,,,
encoding,image,28,11484728,11485739,11485012.0,11485175.0,164.0,164.0,1957.1,1369.0,1920.0,700.0,Animal_Land_Pattern_Small,38.493154541938566,39.50425024994183,5.0,Animal_Land_Pattern_Small,8.0,,,,,,,,,,,
encoding,image,28,11484728,11485739,11485191.0,11485507.0,317.0,317.0,1959.0,1430.7,1920.0,700.0,Animal_Land_Pattern_Small,38.493154541938566,39.50425024994183,5.0,Animal_Land_Pattern_Small,8.0,,,,,,,,,,,
encoding,image,28,11484728,11485739,11485531.0,11485915.0,385.0,208.0,1963.3,1308.7,1920.0,700.0,Animal_Land_Pattern_Small,38.493154541938566,39.50425024994183,5.0,Animal_Land_Pattern_Small,8.0,,,,,,,,,,,
encoding,value,28,11485739,11491751,11485926.0,11486416.0,491.0,491.0,1965.4,1355.1,1920.0,700.0,Animal_Land_Pattern_Small,39.50435962493066,45.51551354199182,5.0,Animal_Land_Pattern_Small,8.0,,,,,,,,,,,
encoding,value,28,11485739,11491751,11486435.0,11486857.0,423.0,423.0,1952.5,1443.5,1920.0,700.0,Animal_Land_Pattern_Small,39.50435962493066,45.51551354199182,5.0,Animal_Land_Pattern_Small,8.0,,,,,,,,,,,
encoding,value,28,11485739,11491751,11486874.0,11487290.0,417.0,417.0,1959.6,1368.3,1920.0,700.0,Animal_Land_Pattern_Small,39.50435962493066,45.51551354199182,5.0,Animal_Land_Pattern_Small,8.0,,,,,,,,,,,
encoding,value,28,11485739,11491751,11487477.0,11490234.0,2758.0,2758.0,1953.3,1370.7,1920.0,700.0,Animal_Land_Pattern_Small,39.50435962493066,45.51551354199182,5.0,Animal_Land_Pattern_Small,8.0,,,,,,,,,,,
encoding,value,28,11485739,11491751,11490250.0,11490472.0,223.0,223.0,1954.0,1440.6,1920.0,700.0,Animal_Land_Pattern_Small,39.50435962493066,45.51551354199182,5.0,Animal_Land_Pattern_Small,8.0,,,,,,,,,,,
encoding,value,28,11485739,11491751,11490487.0,11490928.0,442.0,442.0,1949.1,1372.2,1920.0,700.0,Animal_Land_Pattern_Small,39.50435962493066,45.51551354199182,5.0,Animal_Land_Pattern_Small,8.0,,,,,,,,,,,
