phase,event,onset,offset,trial_number,game,image,outcome,choice,correct,rt,letter,match,response,option,true_value,true_position,recalled_position,
encoding,fixation,9.933437958010472,11.448791290982626,1,1,Animal_Land_Solid_Large,-2,,,,,,,,,,,
encoding,image,11.448948208009824,12.467672124970704,1,1,Animal_Land_Solid_Large,-2,,,,,,,,,,,
encoding,value,12.467775375000201,18.484122875030152,1,1,Animal_Land_Solid_Large,-2,,,,,,,,,,,
encoding,attention,18.48427662497852,21.50563799997326,1,1,Animal_Land_Solid_Large,-2,-2,1,1.1712633329443634,,,,,,,,
encoding,fixation,21.505784458015114,23.011653708061203,2,1,Animal_Sea_Solid_Large,7,,,,,,,,,,,
encoding,image,23.011751750018448,24.023545583011582,2,1,Animal_Sea_Solid_Large,7,,,,,,,,,,,
encoding,value,24.023670708062127,30.0356215829961,2,1,Animal_Sea_Solid_Large,7,,,,,,,,,,,
encoding,attention,30.035740875056945,33.05309408297762,2,1,Animal_Sea_Solid_Large,7,+7,1,0.7572207499761134,,,,,,,,
encoding,fixation,33.05328437499702,34.56128362508025,3,1,Object_Land_Pattern_Small,-9,,,,,,,,,,,
encoding,image,34.56141658301931,35.57270137500018,3,1,Object_Land_Pattern_Small,-9,,,,,,,,,,,
encoding,value,35.572867208044045,41.58524058305193,3,1,Object_Land_Pattern_Small,-9,,,,,,,,,,,
encoding,attention,41.58534995804075,44.60260354098864,3,1,Object_Land_Pattern_Small,-9,-9,1,0.7128256249707192,,,,,,,,
encoding,fixation,44.60277216602117,45.86079787497874,4,1,Object_Land_Solid_Large,9,,,,,,,,,,,
encoding,image,45.8609319999814,46.87146020797081,4,1,Object_Land_Solid_Large,9,,,,,,,,,,,
encoding,value,46.871572708012536,52.882074791006744,4,1,Object_Land_Solid_Large,9,,,,,,,,,,,
encoding,attention,52.88219245802611,55.89994650008157,4,1,Object_Land_Solid_Large,9,+9,1,0.7274740419816226,,,,,,,,
encoding,fixation,55.90008937497623,57.40536958305165,5,1,Object_Sea_Pattern_Small,9,,,,,,,,,,,
encoding,image,57.405476791085675,58.416597291012295,5,1,Object_Sea_Pattern_Small,9,,,,,,,,,,,
encoding,value,58.41677495802287,64.42757250007708,5,1,Object_Sea_Pattern_Small,9,,,,,,,,,,,
encoding,attention,64.42772820801474,67.49781270802487,5,1,Object_Sea_Pattern_Small,9,+9,1,0.9846652500564232,,,,,,,,
encoding,fixation,67.49795016599819,69.0035323749762,6,1,Animal_Sea_Pattern_Small,-1,,,,,,,,,,,
encoding,image,69.00365187507123,70.01509900006931,6,1,Animal_Sea_Pattern_Small,-1,,,,,,,,,,,
encoding,value,70.01520300004631,76.0269062500447,6,1,Animal_Sea_Pattern_Small,-1,,,,,,,,,,,
encoding,attention,76.02702987508383,79.04495370807126,6,1,Animal_Sea_Pattern_Small,-1,-1,1,0.6360121250618249,,,,,,,,
n-back,,,,1,1,,,,1,None,C,False,None,,,,,
n-back,,,,2,1,,,,1,None,V,False,None,,,,,
n-back,,,,3,1,,,,1,0.546453290968202,C,True,1,,,,,
n-back,,,,4,1,,,,1,None,C,False,None,,,,,
n-back,,,,5,1,,,,1,None,X,False,None,,,,,
n-back,,,,6,1,,,,1,0.6410669169854373,C,True,1,,,,,
n-back,,,,7,1,,,,0,None,X,True,None,,,,,
n-back,,,,8,1,,,,0,None,C,True,None,,,,,
n-back,,,,9,1,,,,1,None,C,False,None,,,,,
n-back,,,,10,1,,,,1,None,N,False,None,,,,,
n-back,,,,11,1,,,,1,None,Z,False,None,,,,,
n-back,,,,12,1,,,,1,None,V,False,None,,,,,
n-back,,,,13,1,,,,1,None,V,False,None,,,,,
n-back,,,,14,1,,,,1,None,N,False,None,,,,,
n-back,,,,15,1,,,,1,None,X,False,None,,,,,
n-back,,,,16,1,,,,1,None,C,False,None,,,,,
n-back,,,,17,1,,,,1,1.0711034999694675,X,True,1,,,,,
n-back,,,,18,1,,,,1,None,Z,False,None,,,,,
n-back,,,,19,1,,,,0,None,X,True,None,,,,,
n-back,,,,20,1,,,,1,None,X,False,None,,,,,
n-back,,,,21,1,,,,1,None,N,False,None,,,,,
n-back,,,,22,1,,,,1,1.0381112500326708,X,True,1,,,,,
n-back,,,,23,1,,,,0,None,N,True,None,,,,,
n-back,,,,24,1,,,,0,None,X,True,None,,,,,
n-back,,,,25,1,,,,1,0.6147355000721291,N,True,1,,,,,
n-back,,,,26,1,,,,1,None,V,False,None,,,,,
n-back,,,,27,1,,,,1,None,C,False,None,,,,,
n-back,,,,28,1,,,,1,None,B,False,None,,,,,
n-back,,,,29,1,,,,0,1.2257981669390574,V,False,1,,,,,
n-back,,,,30,1,,,,1,None,N,False,None,,,,,
choice,fixation,164.81341754097957,165.31989233300555,1,1,,,,,,,,,Solid,,,,
choice,option,165.3295594160445,166.51185041607823,1,1,,,,,,,,,Solid,,,,
choice,choice,166.51196904107928,193.22848037502263,1,1,,,1,1,25.705457041971385,,,,Solid,,,,
choice,fixation,193.22861258301418,194.48360829101875,2,1,,,,,,,,,Large,,,,
choice,option,194.49307299999055,195.52140620804857,2,1,,,,,,,,,Large,,,,
choice,choice,195.52151550003327,225.6520097909961,2,1,,,1,1,29.119179707951844,,,,Large,,,,
choice,fixation,225.65215425007045,226.9071211660048,3,1,,,,,,,,,Pattern,,,,
choice,option,226.91667841607705,227.9448054160457,3,1,,,,,,,,,Pattern,,,,
choice,choice,227.9449207080761,241.93429883301724,3,1,,,1,0,12.978848750004545,,,,Pattern,,,,
choice,fixation,241.9344363330165,242.4397583330283,4,1,,,,,,,,,Small,,,,
choice,option,242.4485621249769,243.47622687497642,4,1,,,,,,,,,Small,,,,
choice,choice,243.4763414580375,249.8010448750574,4,1,,,2,1,5.315360040985979,,,,Small,,,,
choice,fixation,249.8011592500843,250.5565917500062,5,1,,,,,,,,,Land,,,,
choice,option,250.56528766604606,251.5928962500766,5,1,,,,,,,,,Land,,,,
choice,choice,251.59299845807254,276.65198908303864,5,1,,,1,0,24.048166417051107,,,,Land,,,,
choice,fixation,276.6521092080511,277.40739212499466,6,1,,,,,,,,,Object,,,,
choice,option,277.4171331250109,278.44428499997593,6,1,,,,,,,,,Object,,,,
choice,choice,278.4444250409724,285.2431417499902,6,1,,,1,1,5.786879291990772,,,,Object,,,,
choice,fixation,285.2432782910764,285.7485143750673,7,1,,,,,,,,,Animal,,,,
choice,option,285.7576383330161,286.78580941597465,7,1,,,,,,,,,Animal,,,,
choice,choice,286.7859157080529,294.1227310830727,7,1,,,2,0,6.325803000014275,,,,Animal,,,,
choice,fixation,294.1228620830225,295.62797066604253,8,1,,,,,,,,,Sea,,,,
choice,option,295.6364075409947,296.66335050005,8,1,,,,,,,,,Sea,,,,
choice,choice,296.6634813750861,304.86734795803204,8,1,,,1,1,7.194063166971318,,,,Sea,,,,
memory,free_recall,354.868867916055,372.29272437503096,0,1,,,,,,,,,,,,,
memory,value_recall,417.1439639580203,426.92632508301176,1,1,Object_Sea_Pattern_Small,,,,9.778122832998633,,,,,9,,,
memory,value_recall,427.97382150008343,433.9878887910163,2,1,Object_Land_Pattern_Small,,,,6.010602374910377,,,,,-9,,,
memory,value_recall,435.53690920805093,437.7879993750248,3,1,Object_Land_Solid_Large,,,,2.246588333044201,,,,,9,,,
memory,value_recall,438.8344547500601,441.5792203330202,4,1,Animal_Sea_Solid_Large,,,,2.7415214580250904,,,,,7,,,
memory,value_recall,442.6269532080041,444.4515035409713,5,1,Animal_Land_Solid_Large,,,,1.821997040999122,,,,,-2,,,
memory,value_recall,446.4980236659758,450.3753687500721,6,1,Animal_Sea_Pattern_Small,,,,3.873230415978469,,,,,-1,,,
memory,spatial_recall,470.1761783750262,476.4491148330271,6,1,Object_Land_Solid_Large,,,1,6.270371582941152,,,,,,"[329, -190]","[329, -190]",
memory,spatial_recall,478.25701137504075,481.89611420803703,6,1,Animal_Sea_Pattern_Small,,,1,3.6350944580044597,,,,,,"[-329, -190]","[-329, -190]",
memory,spatial_recall,483.1999142910354,487.03289245802443,6,1,Object_Sea_Pattern_Small,,,1,3.8290619999170303,,,,,,"[0, 380]","[0, 380]",
memory,spatial_recall,488.8414967500139,490.83215712499805,6,1,Object_Land_Pattern_Small,,,1,1.9864782920340076,,,,,,"[-329, 190]","[-329, 190]",
memory,spatial_recall,492.6424182499759,494.3699480830692,6,1,Animal_Sea_Solid_Large,,,1,1.723282500053756,,,,,,"[0, -380]","[0, -380]",
memory,spatial_recall,496.1859161660541,499.33641704102047,6,1,Animal_Land_Solid_Large,,,1,3.14399991708342,,,,,,"[329, 189]","[329, 189]",
encoding,fixation,9.89271633408498,11.398045083973557,7,2,Animal_Land_Pattern_Large,-9,,,,,,,,,,,
encoding,image,11.39824483403936,12.409740500035696,7,2,Animal_Land_Pattern_Large,-9,,,,,,,,,,,
encoding,value,12.40984754206147,18.423803374986164,7,2,Animal_Land_Pattern_Large,-9,,,,,,,,,,,
encoding,attention,18.42392720899079,21.44148983398918,7,2,Animal_Land_Pattern_Large,-9,-9,1,0.678386333049275,,,,,,,,
encoding,fixation,21.44163091701921,22.69598820898682,8,2,Animal_Land_Solid_Small,1,,,,,,,,,,,
encoding,image,22.69609679200221,23.706790041993372,8,2,Animal_Land_Solid_Small,1,,,,,,,,,,,
encoding,value,23.706899916986004,29.718778542010114,8,2,Animal_Land_Solid_Small,1,,,,,,,,,,,
encoding,attention,29.7188885420328,32.73544000007678,8,2,Animal_Land_Solid_Small,1,+1,1,0.6745431669987738,,,,,,,,
encoding,fixation,32.73566887504421,33.49181979207788,9,2,Object_Sea_Solid_Large,2,,,,,,,,,,,
encoding,image,33.49197662505321,34.503574041998945,9,2,Object_Sea_Solid_Large,2,,,,,,,,,,,
encoding,value,34.503691166988574,40.516118708997965,9,2,Object_Sea_Solid_Large,2,,,,,,,,,,,
encoding,attention,40.51624849997461,43.53406854206696,9,2,Object_Sea_Solid_Large,2,+2,1,0.9631206250051036,,,,,,,,
encoding,fixation,43.534245584043674,45.041850583977066,10,2,Object_Sea_Pattern_Large,3,,,,,,,,,,,
encoding,image,45.04196675005369,46.052955624996684,10,2,Object_Sea_Pattern_Large,3,,,,,,,,,,,
encoding,value,46.053062958992086,52.06543166702613,10,2,Object_Sea_Pattern_Large,3,,,,,,,,,,,
encoding,attention,52.065548083977774,55.0851326250704,10,2,Object_Sea_Pattern_Large,3,+3,1,0.556721750064753,,,,,,,,
encoding,fixation,55.08529533399269,56.592836959054694,11,2,Object_Sea_Solid_Small,-7,,,,,,,,,,,
encoding,image,56.59293404198252,57.60343566699885,11,2,Object_Sea_Solid_Small,-7,,,,,,,,,,,
encoding,value,57.60358554206323,63.613886125036515,11,2,Object_Sea_Solid_Small,-7,,,,,,,,,,,
encoding,attention,63.61399004200939,66.63083124998957,11,2,Object_Sea_Solid_Small,-7,-7,1,1.2831340410048142,,,,,,,,
encoding,fixation,66.63102862506639,67.13622979202773,12,2,Animal_Land_Pattern_Small,9,,,,,,,,,,,
encoding,image,67.13636254204903,68.14736237504985,12,2,Animal_Land_Pattern_Small,9,,,,,,,,,,,
encoding,value,68.14748941699509,74.15867783408612,12,2,Animal_Land_Pattern_Small,9,,,,,,,,,,,
encoding,attention,74.15879379201215,77.18063729198184,12,2,Animal_Land_Pattern_Small,9,+9,1,1.6608808330493048,,,,,,,,
n-back,,,,31,2,,,,1,None,N,False,None,,,,,
n-back,,,,32,2,,,,1,None,B,False,None,,,,,
n-back,,,,33,2,,,,1,None,B,False,None,,,,,
n-back,,,,34,2,,,,1,1.2238393749576062,B,True,1,,,,,
n-back,,,,35,2,,,,1,None,C,False,None,,,,,
n-back,,,,36,2,,,,1,0.6786851669894531,B,True,1,,,,,
n-back,,,,37,2,,,,1,None,V,False,None,,,,,
n-back,,,,38,2,,,,1,None,V,False,None,,,,,
n-back,,,,39,2,,,,1,None,N,False,None,,,,,
n-back,,,,40,2,,,,1,None,X,False,None,,,,,
n-back,,,,41,2,,,,1,None,V,False,None,,,,,
n-back,,,,42,2,,,,1,None,Z,False,None,,,,,
n-back,,,,43,2,,,,1,0.8192417090758681,V,True,1,,,,,
n-back,,,,44,2,,,,1,1.1059907920425758,Z,True,1,,,,,
n-back,,,,45,2,,,,0,None,V,True,None,,,,,
n-back,,,,46,2,,,,1,1.2010466669453308,Z,True,1,,,,,
n-back,,,,47,2,,,,1,None,N,False,None,,,,,
n-back,,,,48,2,,,,1,None,N,False,None,,,,,
n-back,,,,49,2,,,,1,None,B,False,None,,,,,
n-back,,,,50,2,,,,1,None,C,False,None,,,,,
n-back,,,,51,2,,,,1,0.8163340829778463,B,True,1,,,,,
n-back,,,,52,2,,,,1,None,B,False,None,,,,,
n-back,,,,53,2,,,,1,0.6743547909427434,B,True,1,,,,,
n-back,,,,54,2,,,,1,None,Z,False,None,,,,,
n-back,,,,55,2,,,,1,None,V,False,None,,,,,
n-back,,,,56,2,,,,1,None,B,False,None,,,,,
n-back,,,,57,2,,,,1,None,C,False,None,,,,,
n-back,,,,58,2,,,,1,0.7231681250268593,B,True,1,,,,,
n-back,,,,59,2,,,,1,0.8674059580080211,C,True,1,,,,,
n-back,,,,60,2,,,,1,None,Z,False,None,,,,,
choice,fixation,153.39410166698508,153.89745037502144,9,2,,,,,,,,,Sea,,,,
choice,option,153.90551812504418,154.9325842920225,9,2,,,,,,,,,Sea,,,,
choice,choice,154.9326764170546,176.6898785419762,9,2,,,2,1,20.745578415924683,,,,Sea,,,,
choice,fixation,176.68999458407052,177.1948026670143,10,2,,,,,,,,,Pattern,,,,
choice,option,177.2039513749769,178.23027125000954,10,2,,,,,,,,,Pattern,,,,
choice,choice,178.23038637498394,200.37177841702942,10,2,,,2,0,21.130387166980654,,,,Pattern,,,,
choice,fixation,200.37191579199862,201.87700041697826,11,2,,,,,,,,,Land,,,,
choice,option,201.88569245906547,202.91374779201578,11,2,,,,,,,,,Land,,,,
choice,choice,202.91385662497487,210.0760717500234,11,2,,,1,1,6.149086209014058,,,,Land,,,,
choice,fixation,210.07621079206,211.3314807920251,12,2,,,,,,,,,Large,,,,
choice,option,211.34017416706774,212.3685011670459,12,2,,,,,,,,,Large,,,,
choice,choice,212.3686274170177,226.2129982090555,12,2,,,1,0,12.83318558393512,,,,Large,,,,
choice,fixation,226.2131532090716,226.96906854200643,13,2,,,,,,,,,Small,,,,
choice,option,226.97831304208376,228.00737604207825,13,2,,,,,,,,,Small,,,,
choice,choice,228.0074903339846,240.05110550008249,13,2,,,2,0,11.032926958985627,,,,Small,,,,
choice,fixation,240.0512305420125,240.8082923340844,14,2,,,,,,,,,Object,,,,
choice,option,240.818131292006,241.84425833402202,14,2,,,,,,,,,Object,,,,
choice,choice,241.84436533402186,249.50842354202177,14,2,,,1,0,6.6521204999880865,,,,Object,,,,
choice,fixation,249.50854604202323,250.51346787507646,15,2,,,,,,,,,Animal,,,,
choice,option,250.52335070900153,251.55149570899084,15,2,,,,,,,,,Animal,,,,
choice,choice,251.55160483403597,258.52153470902704,15,2,,,1,1,5.958648375002667,,,,Animal,,,,
choice,fixation,258.5216463750694,260.02711412508506,16,2,,,,,,,,,Solid,,,,
choice,option,260.03641179203987,261.06390275002923,16,2,,,,,,,,,Solid,,,,
choice,choice,261.0640407090541,276.2831414170796,16,2,,,1,0,14.208450875012204,,,,Solid,,,,
memory,free_recall,287.8596122090239,332.6520542090293,6,2,,,,,,,,,,,,,
memory,value_recall,348.6013977919938,354.52333050000016,7,2,Object_Sea_Solid_Large,,,,5.917624374968,,,,,2,,,
memory,value_recall,355.57031379197724,359.4105579999741,8,2,Animal_Land_Pattern_Large,,,,3.836876166984439,,,,,-9,,,
memory,value_recall,360.95703404198866,364.3742850420531,9,2,Object_Sea_Solid_Small,,,,3.4131727919448167,,,,,-7,,,
memory,value_recall,366.1709354170598,369.88235575007275,10,2,Object_Sea_Pattern_Large,,,,3.7073122080182657,,,,,3,,,
memory,value_recall,371.4281497920165,377.644565124996,11,2,Animal_Land_Solid_Small,,,,6.212241625064053,,,,,1,,,
memory,value_recall,378.94156312500127,384.0519196250243,12,2,Animal_Land_Pattern_Small,,,,5.106284208013676,,,,,9,,,
memory,spatial_recall,392.2604595840676,396.64408462506253,12,2,Object_Sea_Solid_Large,,,1,4.379549624980427,,,,,,"[-329, 190]","[-329, 190]",
memory,spatial_recall,398.4525781250559,400.5133303750772,12,2,Object_Sea_Pattern_Large,,,1,2.0569021250121295,,,,,,"[329, 189]","[329, 189]",
memory,spatial_recall,401.8189953750698,403.0639866250567,12,2,Animal_Land_Pattern_Small,,,1,1.240858625038527,,,,,,"[-329, -190]","[-329, -190]",
memory,spatial_recall,404.111119417008,405.81826737499796,12,2,Animal_Land_Pattern_Large,,,1,1.7046380420215428,,,,,,"[0, 380]","[0, 380]",
memory,spatial_recall,407.1261791670695,408.8180331250187,12,2,Object_Sea_Solid_Small,,,1,1.687958125025034,,,,,,"[0, -380]","[0, -380]",
memory,spatial_recall,410.12792370899115,411.8773593340302,12,2,Animal_Land_Solid_Small,,,1,1.7454652499873191,,,,,,"[329, -190]","[329, -190]",
encoding,fixation,8.291432457976043,9.79679866693914,13,3,Object_Sea_Solid_Large,-2,,,,,,,,,,,
encoding,image,9.796913624973968,10.809403166989796,13,3,Object_Sea_Solid_Large,-2,,,,,,,,,,,
encoding,value,10.809516416979022,16.82342229189817,13,3,Object_Sea_Solid_Large,-2,,,,,,,,,,,
encoding,attention,16.82352912495844,19.841970291920006,13,3,Object_Sea_Solid_Large,-2,-2,1,1.0183180420426652,,,,,,,,
encoding,fixation,19.842112457961775,21.097113499999978,14,3,Animal_Sea_Pattern_Large,4,,,,,,,,,,,
encoding,image,21.09722049999982,22.107666332973167,14,3,Animal_Sea_Pattern_Large,4,,,,,,,,,,,
encoding,value,22.107778291916475,28.120604916941375,14,3,Animal_Sea_Pattern_Large,4,,,,,,,,,,,
encoding,attention,28.1207179579651,31.13757079199422,14,3,Animal_Sea_Pattern_Large,4,+4,1,0.6791963339783251,,,,,,,,
encoding,fixation,31.13772491691634,31.642825874965638,15,3,Object_Land_Pattern_Large,-1,,,,,,,,,,,
encoding,image,31.642928832909092,32.65490170789417,15,3,Object_Land_Pattern_Large,-1,,,,,,,,,,,
encoding,value,32.65501929190941,38.67118229193147,15,3,Object_Land_Pattern_Large,-1,,,,,,,,,,,
encoding,attention,38.6712919579586,41.690366707975045,15,3,Object_Land_Pattern_Large,-1,-1,1,0.958070749999024,,,,,,,,
encoding,fixation,41.69050454196986,43.196357292006724,16,3,Animal_Sea_Solid_Small,-4,,,,,,,,,,,
encoding,image,43.19644383294508,44.20658379199449,16,3,Animal_Sea_Solid_Small,-4,,,,,,,,,,,
encoding,value,44.206771833007224,50.218056999961846,16,3,Animal_Sea_Solid_Small,-4,,,,,,,,,,,
encoding,attention,50.21816049993504,53.237447916995734,16,3,Animal_Sea_Solid_Small,-4,-4,1,1.0696382080204785,,,,,,,,
encoding,fixation,53.23761074990034,53.74262924992945,17,3,Object_Land_Solid_Small,4,,,,,,,,,,,
encoding,image,53.742731207981706,54.75438079191372,17,3,Object_Land_Solid_Small,4,,,,,,,,,,,
encoding,value,54.754495417000726,60.76583270798437,17,3,Object_Land_Solid_Small,4,,,,,,,,,,,
encoding,attention,60.76594624994323,63.78334179194644,17,3,Object_Land_Solid_Small,4,+4,1,1.2422882500104606,,,,,,,,
encoding,fixation,63.78348754195031,64.79002516693436,18,3,Animal_Land_Pattern_Small,-2,,,,,,,,,,,
encoding,image,64.79014820791781,65.80386924999766,18,3,Animal_Land_Pattern_Small,-2,,,,,,,,,,,
encoding,value,65.80399783293251,71.81543074990623,18,3,Animal_Land_Pattern_Small,-2,,,,,,,,,,,
encoding,attention,71.81560629198793,74.83658995793667,18,3,Animal_Land_Pattern_Small,-2,-2,1,0.9022551670204848,,,,,,,,
n-back,,,,61,3,,,,1,None,V,False,None,,,,,
n-back,,,,62,3,,,,1,None,C,False,None,,,,,
n-back,,,,63,3,,,,1,0.6471794999670237,V,True,1,,,,,
n-back,,,,64,3,,,,1,None,X,False,None,,,,,
n-back,,,,65,3,,,,1,1.146200916962698,V,True,1,,,,,
n-back,,,,66,3,,,,1,1.0203812500694767,X,True,1,,,,,
n-back,,,,67,3,,,,1,0.6997347499709576,V,True,1,,,,,
n-back,,,,68,3,,,,1,None,B,False,None,,,,,
n-back,,,,69,3,,,,1,None,Z,False,None,,,,,
n-back,,,,70,3,,,,1,None,V,False,None,,,,,
n-back,,,,71,3,,,,1,None,B,False,None,,,,,
n-back,,,,72,3,,,,1,None,C,False,None,,,,,
n-back,,,,73,3,,,,1,None,N,False,None,,,,,
n-back,,,,74,3,,,,1,0.8759047500789165,C,True,1,,,,,
n-back,,,,75,3,,,,1,None,B,False,None,,,,,
n-back,,,,76,3,,,,1,None,V,False,None,,,,,
n-back,,,,77,3,,,,1,None,Z,False,None,,,,,
n-back,,,,78,3,,,,1,None,X,False,None,,,,,
n-back,,,,79,3,,,,1,None,N,False,None,,,,,
n-back,,,,80,3,,,,1,None,V,False,None,,,,,
n-back,,,,81,3,,,,1,1.1258982919389382,N,True,1,,,,,
n-back,,,,82,3,,,,1,None,N,False,None,,,,,
n-back,,,,83,3,,,,1,0.40116741706151515,N,True,1,,,,,
n-back,,,,84,3,,,,1,0.5273257499793544,N,True,1,,,,,
n-back,,,,85,3,,,,1,0.48842366598546505,N,True,1,,,,,
n-back,,,,86,3,,,,1,0.42995708307716995,N,True,1,,,,,
n-back,,,,87,3,,,,1,None,Z,False,None,,,,,
n-back,,,,88,3,,,,1,None,B,False,None,,,,,
n-back,,,,89,3,,,,1,None,N,False,None,,,,,
n-back,,,,90,3,,,,1,None,Z,False,None,,,,,
choice,fixation,147.94412462494802,148.44838674995117,17,3,,,,,,,,,Pattern,,,,
choice,option,148.45753495790996,149.48718679195736,17,3,,,,,,,,,Pattern,,,,
choice,choice,149.48732166690752,166.12192337494344,17,3,,,1,1,15.624015875044279,,,,Pattern,,,,
choice,fixation,166.1220560419606,167.62702266697306,18,3,,,,,,,,,Object,,,,
choice,option,167.6366037079133,168.6637159169186,18,3,,,,,,,,,Object,,,,
choice,choice,168.66381895798258,199.52980541693978,18,3,,,1,1,29.855264417012222,,,,Object,,,,
choice,fixation,199.52993620792404,200.78780537494458,19,3,,,,,,,,,Solid,,,,
choice,option,200.79724004189484,201.82358541700523,19,3,,,,,,,,,Solid,,,,
choice,choice,201.82368879194837,210.1612329169875,19,3,,,1,0,7.327364791999571,,,,Solid,,,,
choice,fixation,210.16136149992235,210.6666197499726,20,3,,,,,,,,,Animal,,,,
choice,option,210.67582291690633,211.70416708290577,20,3,,,,,,,,,Animal,,,,
choice,choice,211.7042793749133,214.45680362498388,20,3,,,2,1,1.7428982499986887,,,,Animal,,,,
choice,fixation,214.45692083297763,215.46183120796923,21,3,,,,,,,,,Small,,,,
choice,option,215.4707040420035,216.49686233291868,21,3,,,,,,,,,Small,,,,
choice,choice,216.49697979190387,224.8005788329756,21,3,,,2,1,7.290703292004764,,,,Small,,,,
choice,fixation,224.8006951669231,226.30582854198292,22,3,,,,,,,,,Land,,,,
choice,option,226.31405391695444,227.34127245796844,22,3,,,,,,,,,Land,,,,
choice,choice,227.34138974989764,232.68802737491205,22,3,,,2,0,4.336333584040403,,,,Land,,,,
choice,fixation,232.68816816690378,234.19319587491918,23,3,,,,,,,,,Large,,,,
choice,option,234.20196766697336,235.229288292001,23,3,,,,,,,,,Large,,,,
choice,choice,235.22941887495108,238.92357099999208,23,3,,,1,1,2.684553208993748,,,,Large,,,,
choice,fixation,238.92372079193592,239.92884691699874,24,3,,,,,,,,,Sea,,,,
choice,option,239.93741195800249,240.96363254194148,24,3,,,,,,,,,Sea,,,,
choice,choice,240.96374208293855,242.968723207945,24,3,,,1,0,0.9928499589441344,,,,Sea,,,,
memory,free_recall,263.89721949992236,277.4891246249899,12,3,,,,,,,,,,,,,
memory,value_recall,287.52527341700625,292.85319362499285,13,3,Object_Land_Pattern_Large,,,,5.323637083987705,,,,,-1,,,
memory,value_recall,294.89868766698055,298.515665416955,14,3,Animal_Sea_Pattern_Large,,,,3.6122754169628024,,,,,4,,,
memory,value_recall,299.5615192919504,305.1628443748923,15,3,Animal_Sea_Solid_Small,,,,5.598738875007257,,,,,-4,,,
memory,value_recall,306.9584979999345,309.9630006249063,16,3,Object_Land_Solid_Small,,,,3.0004549169680104,,,,,4,,,
memory,value_recall,311.76249449991155,313.48960458289366,17,3,Object_Sea_Solid_Large,,,,1.722950499970466,,,,,-2,,,
memory,value_recall,314.7873110829387,316.79547799995635,18,3,Animal_Land_Pattern_Small,,,,2.0041121669346467,,,,,-2,,,
memory,spatial_recall,323.04930595797487,324.91017812490463,18,3,Animal_Sea_Pattern_Large,,,1,1.8565528329927474,,,,,,"[329, -190]","[329, -190]",
memory,spatial_recall,325.97033512499183,328.1763369999826,18,3,Animal_Land_Pattern_Small,,,1,2.203313500038348,,,,,,"[-329, -190]","[-329, -190]",
memory,spatial_recall,329.735966874985,331.37972066691145,18,3,Object_Land_Pattern_Large,,,1,1.6397465409245342,,,,,,"[0, 380]","[0, 380]",
memory,spatial_recall,333.1923436250072,334.72618708293885,18,3,Animal_Sea_Solid_Small,,,1,1.5299942919518799,,,,,,"[329, 189]","[329, 189]",
memory,spatial_recall,336.03764620795846,337.2129772079643,18,3,Object_Sea_Solid_Large,,,1,1.17140304192435,,,,,,"[-329, 190]","[-329, 190]",
memory,spatial_recall,339.0285686249845,340.88063970790245,18,3,Object_Land_Solid_Small,,,1,1.8472999170189723,,,,,,"[0, -380]","[0, -380]",
encoding,fixation,5.785103834001347,7.290563584072515,19,4,Object_Land_Solid_Large,-5,,,,,,,,,,,
encoding,image,7.290670459042303,8.301549917086959,19,4,Object_Land_Solid_Large,-5,,,,,,,,,,,
encoding,value,8.301655500079505,14.314341709017754,19,4,Object_Land_Solid_Large,-5,,,,,,,,,,,
encoding,attention,14.314447125070728,17.331497250008397,19,4,Object_Land_Solid_Large,-5,-5,1,1.4894335829885677,,,,,,,,
encoding,fixation,17.331637917086482,18.83667495904956,20,4,Object_Land_Pattern_Small,2,,,,,,,,,,,
encoding,image,18.836868500104174,19.84826858411543,20,4,Object_Land_Pattern_Small,2,,,,,,,,,,,
encoding,value,19.84837400005199,25.861007625004277,20,4,Object_Land_Pattern_Small,2,,,,,,,,,,,
encoding,attention,25.86111408402212,28.87999116710853,20,4,Object_Land_Pattern_Small,2,+2,1,1.2345194580266252,,,,,,,,
encoding,fixation,28.88022125000134,29.635349000105634,21,4,Object_Sea_Pattern_Small,1,,,,,,,,,,,
encoding,image,29.635445375111885,30.6474170840811,21,4,Object_Sea_Pattern_Small,1,,,,,,,,,,,
encoding,value,30.647525750100613,36.65835237503052,21,4,Object_Sea_Pattern_Small,1,,,,,,,,,,,
encoding,attention,36.65846608404536,39.67580087506212,21,4,Object_Sea_Pattern_Small,1,+1,1,1.1766048750141636,,,,,,,,
encoding,fixation,39.676053125062026,41.18105366709642,22,4,Animal_Sea_Pattern_Small,-8,,,,,,,,,,,
encoding,image,41.181167459115386,42.194003167096525,22,4,Animal_Sea_Pattern_Small,-8,,,,,,,,,,,
encoding,value,42.19410012511071,48.20618775009643,22,4,Animal_Sea_Pattern_Small,-8,,,,,,,,,,,
encoding,attention,48.206300875055604,51.22440266702324,22,4,Animal_Sea_Pattern_Small,-8,-8,1,0.7577027919469401,,,,,,,,
encoding,fixation,51.224555334076285,52.229569459101185,23,4,Animal_Sea_Solid_Large,8,,,,,,,,,,,
encoding,image,52.22967675002292,53.24075675010681,23,4,Animal_Sea_Solid_Large,8,,,,,,,,,,,
encoding,value,53.24086908402387,59.252456167014316,23,4,Animal_Sea_Solid_Large,8,,,,,,,,,,,
encoding,attention,59.25256454211194,62.27038404205814,23,4,Animal_Sea_Solid_Large,8,+8,1,2.4325640000170097,,,,,,,,
encoding,fixation,62.27052020910196,63.525473625049926,24,4,Animal_Land_Solid_Large,-7,,,,,,,,,,,
encoding,image,63.52560404210817,64.53728237503674,24,4,Animal_Land_Solid_Large,-7,,,,,,,,,,,
encoding,value,64.5374159590574,70.54969187511597,24,4,Animal_Land_Solid_Large,-7,,,,,,,,,,,
encoding,attention,70.54981650004629,73.567261334043,24,4,Animal_Land_Solid_Large,-7,-7,1,1.0150745830032974,,,,,,,,
n-back,,,,91,4,,,,1,None,Z,False,None,,,,,
n-back,,,,92,4,,,,0,None,Z,True,None,,,,,
n-back,,,,93,4,,,,1,0.6896994169801474,Z,True,1,,,,,
n-back,,,,94,4,,,,1,None,C,False,None,,,,,
n-back,,,,95,4,,,,1,0.6090899580158293,Z,True,1,,,,,
n-back,,,,96,4,,,,1,0.7247759579913691,C,True,1,,,,,
n-back,,,,97,4,,,,1,0.5550225420156494,Z,True,1,,,,,
n-back,,,,98,4,,,,1,None,Z,False,None,,,,,
n-back,,,,99,4,,,,1,None,V,False,None,,,,,
n-back,,,,100,4,,,,1,None,C,False,None,,,,,
n-back,,,,101,4,,,,1,None,Z,False,None,,,,,
n-back,,,,102,4,,,,1,0.7199914589291438,C,True,1,,,,,
n-back,,,,103,4,,,,1,None,X,False,None,,,,,
n-back,,,,104,4,,,,1,None,X,False,None,,,,,
n-back,,,,105,4,,,,1,None,Z,False,None,,,,,
n-back,,,,106,4,,,,1,0.5840159590588883,X,True,1,,,,,
n-back,,,,107,4,,,,1,None,X,False,None,,,,,
n-back,,,,108,4,,,,1,None,B,False,None,,,,,
n-back,,,,109,4,,,,1,0.6242797499289736,X,True,1,,,,,
n-back,,,,110,4,,,,1,None,N,False,None,,,,,
n-back,,,,111,4,,,,1,0.8116020830348134,X,True,1,,,,,
n-back,,,,112,4,,,,1,None,V,False,None,,,,,
n-back,,,,113,4,,,,1,None,V,False,None,,,,,
n-back,,,,114,4,,,,1,0.4793596670497209,V,True,1,,,,,
n-back,,,,115,4,,,,1,None,X,False,None,,,,,
n-back,,,,116,4,,,,1,None,N,False,None,,,,,
n-back,,,,117,4,,,,1,None,C,False,None,,,,,
n-back,,,,118,4,,,,1,None,C,False,None,,,,,
n-back,,,,119,4,,,,1,None,B,False,None,,,,,
n-back,,,,120,4,,,,1,None,V,False,None,,,,,
choice,fixation,141.1064586250577,141.8606200000504,25,4,,,,,,,,,Large,,,,
choice,option,141.8694184590131,142.8963363750372,25,4,,,,,,,,,Large,,,,
choice,choice,142.8964582090266,153.74555345904082,25,4,,,1,0,9.838919541914947,,,,Large,,,,
choice,fixation,153.74567087506875,155.25061125005595,26,4,,,,,,,,,Pattern,,,,
choice,option,155.2604995421134,156.28982541710138,26,4,,,,,,,,,Pattern,,,,
choice,choice,156.28992725000717,159.100697584101,26,4,,,2,1,1.800940915942192,,,,Pattern,,,,
choice,fixation,159.10083412507083,159.85685191710945,27,4,,,,,,,,,Land,,,,
choice,option,159.86551141703967,160.89204087504186,27,4,,,,,,,,,Land,,,,
choice,choice,160.89214675000403,185.1023317920044,27,4,,,1,0,23.199404833023436,,,,Land,,,,
choice,fixation,185.10245770902839,185.60747829207685,28,4,,,,,,,,,Sea,,,,
choice,option,185.6158413341036,186.64214258408174,28,4,,,,,,,,,Sea,,,,
choice,choice,186.64225091703702,199.89470837509725,28,4,,,2,0,12.241688625072129,,,,Sea,,,,
choice,fixation,199.8948390420992,200.39987387508154,29,4,,,,,,,,,Animal,,,,
choice,option,200.40951979206875,201.43660016707145,29,4,,,,,,,,,Animal,,,,
choice,choice,201.436705750064,208.66332491708454,29,4,,,1,0,6.217185499961488,,,,Animal,,,,
choice,fixation,208.66344187501818,209.1683380000759,30,4,,,,,,,,,Object,,,,
choice,option,209.1776450840989,210.205000917078,30,4,,,,,,,,,Object,,,,
choice,choice,210.205118709011,214.64615716703702,30,4,,,1,0,3.431454792036675,,,,Object,,,,
choice,fixation,214.6463133340003,215.15123670909088,31,4,,,,,,,,,Solid,,,,
choice,option,215.1611655841116,216.18787212506868,31,4,,,,,,,,,Solid,,,,
choice,choice,216.18798283406068,218.94307745900005,31,4,,,1,0,1.7450309590203688,,,,Solid,,,,
choice,fixation,218.9431893340079,220.19838908407837,32,4,,,,,,,,,Small,,,,
choice,option,220.2072672090726,221.23370125005022,32,4,,,,,,,,,Small,,,,
choice,choice,221.23380608402658,226.5186997500714,32,4,,,2,1,4.27505850000307,,,,Small,,,,
memory,free_recall,239.32903662510216,252.17247845907696,18,4,,,,,,,,,,,,,
memory,value_recall,257.71364670910407,261.2073091251077,19,4,Object_Sea_Pattern_Small,,,,3.4895427079172805,,,,,1,,,
memory,value_recall,263.00366158410907,266.07899400009774,20,4,Animal_Sea_Pattern_Small,,,,3.071265083970502,,,,,-8,,,
memory,value_recall,268.12457704206463,273.13849979208317,21,4,Object_Land_Pattern_Small,,,,5.0098998750327155,,,,,2,,,
memory,value_recall,275.1843705420615,277.3053096670192,22,4,Animal_Sea_Solid_Large,,,,2.115758083993569,,,,,8,,,
memory,value_recall,279.10269400000107,284.0424668340711,23,4,Animal_Land_Solid_Large,,,,4.935499749961309,,,,,-7,,,
memory,value_recall,285.3404766250169,289.5723195000319,24,4,Object_Land_Solid_Large,,,,4.227668542065658,,,,,-5,,,
memory,spatial_recall,293.0776292090304,295.263468750054,24,4,Object_Sea_Pattern_Small,,,1,2.1818727920763195,,,,,,"[0, 380]","[0, 380]",
memory,spatial_recall,296.3239681250416,297.59603983408306,24,4,Animal_Land_Solid_Large,,,1,1.26813395798672,,,,,,"[329, 189]","[329, 189]",
memory,spatial_recall,299.1525697920006,301.2486881670775,24,4,Animal_Sea_Pattern_Small,,,1,2.091663416940719,,,,,,"[-329, -190]","[-329, -190]",
memory,spatial_recall,302.80860545905307,304.16681162500754,24,4,Object_Land_Solid_Large,,,1,1.3542437499854714,,,,,,"[329, -190]","[329, -190]",
memory,spatial_recall,305.4741235000547,308.22968033410143,24,4,Animal_Sea_Solid_Large,,,1,2.7516212499467656,,,,,,"[0, -380]","[0, -380]",
memory,spatial_recall,310.0374118341133,313.3110111251008,24,4,Object_Land_Pattern_Small,,,1,3.2694339170120656,,,,,,"[-329, 190]","[-329, 190]",
encoding,fixation,5.855804666061886,7.36095954105258,25,5,Object_Sea_Solid_Large,-1,,,,,,,,,,,
encoding,image,7.361085958080366,8.374395041028038,25,5,Object_Sea_Solid_Large,-1,,,,,,,,,,,
encoding,value,8.37450608308427,14.388273125048727,25,5,Object_Sea_Solid_Large,-1,,,,,,,,,,,
encoding,attention,14.388374041067436,17.406222500023432,25,5,Object_Sea_Solid_Large,-1,-1,1,0.9361245409818366,,,,,,,,
encoding,fixation,17.40638466598466,18.41174825001508,26,5,Animal_Land_Solid_Small,8,,,,,,,,,,,
encoding,image,18.411851500044577,19.422436833032407,26,5,Animal_Land_Solid_Small,8,,,,,,,,,,,
encoding,value,19.4225434580585,25.43462154106237,26,5,Animal_Land_Solid_Small,8,,,,,,,,,,,
encoding,attention,25.434728000080213,28.451328875031322,26,5,Animal_Land_Solid_Small,8,+8,1,1.0012524999910966,,,,,,,,
encoding,fixation,28.45147725008428,28.957430875045247,27,5,Object_Sea_Solid_Small,-2,,,,,,,,,,,
encoding,image,28.95753804105334,29.967996791005135,27,5,Object_Sea_Solid_Small,-2,,,,,,,,,,,
encoding,value,29.96810316608753,35.98088225000538,27,5,Object_Sea_Solid_Small,-2,,,,,,,,,,,
encoding,attention,35.98100145801436,38.99758720805403,27,5,Object_Sea_Solid_Small,-2,-2,1,1.7116302089998499,,,,,,,,
encoding,fixation,38.99773520801682,39.752761624986306,28,5,Object_Sea_Pattern_Large,9,,,,,,,,,,,
encoding,image,39.752871125005186,40.76522633305285,28,5,Object_Sea_Pattern_Large,9,,,,,,,,,,,
encoding,value,40.7653365409933,46.777615583036095,28,5,Object_Sea_Pattern_Large,9,,,,,,,,,,,
encoding,attention,46.777732499991544,49.7957811250817,28,5,Object_Sea_Pattern_Large,9,+9,1,1.5470752499531955,,,,,,,,
encoding,fixation,49.795989500009455,50.801089083077386,29,5,Animal_Land_Pattern_Small,4,,,,,,,,,,,
encoding,image,50.801214208011515,51.8162616250338,29,5,Animal_Land_Pattern_Small,4,,,,,,,,,,,
encoding,value,51.816365875070915,57.82749962504022,29,5,Animal_Land_Pattern_Small,4,,,,,,,,,,,
encoding,attention,57.82761054101866,60.845861040987074,29,5,Animal_Land_Pattern_Small,4,+4,1,1.2144362499238923,,,,,,,,
encoding,fixation,60.84600675001275,61.35155108303297,30,5,Animal_Land_Pattern_Large,-9,,,,,,,,,,,
encoding,image,61.35166350007057,62.36303108301945,30,5,Animal_Land_Pattern_Large,-9,,,,,,,,,,,
encoding,value,62.36313425004482,68.37394854100421,30,5,Animal_Land_Pattern_Large,-9,,,,,,,,,,,
encoding,attention,68.37411837500986,71.3928393330425,30,5,Animal_Land_Pattern_Large,-9,-9,1,1.1892206250922754,,,,,,,,
n-back,,,,121,5,,,,1,None,Z,False,None,,,,,
n-back,,,,122,5,,,,0,None,C,True,None,,,,,
n-back,,,,123,5,,,,1,0.5985257920110598,Z,True,1,,,,,
n-back,,,,124,5,,,,1,None,N,False,None,,,,,
n-back,,,,125,5,,,,1,None,V,False,None,,,,,
n-back,,,,126,5,,,,1,0.84245200001169,N,True,1,,,,,
n-back,,,,127,5,,,,1,0.5555387090425938,V,True,1,,,,,
n-back,,,,128,5,,,,1,None,Z,False,None,,,,,
n-back,,,,129,5,,,,1,1.034715374931693,V,True,1,,,,,
n-back,,,,130,5,,,,1,None,X,False,None,,,,,
n-back,,,,131,5,,,,1,None,N,False,None,,,,,
n-back,,,,132,5,,,,1,None,Z,False,None,,,,,
n-back,,,,133,5,,,,1,None,X,False,None,,,,,
n-back,,,,134,5,,,,0,1.331375417066738,V,False,1,,,,,
n-back,,,,135,5,,,,1,None,C,False,None,,,,,
n-back,,,,136,5,,,,1,0.7424296659883112,V,True,1,,,,,
n-back,,,,137,5,,,,1,0.6851605830015615,C,True,1,,,,,
n-back,,,,138,5,,,,1,0.558473291923292,V,True,1,,,,,
n-back,,,,139,5,,,,1,None,X,False,None,,,,,
n-back,,,,140,5,,,,1,None,Z,False,None,,,,,
n-back,,,,141,5,,,,1,None,N,False,None,,,,,
n-back,,,,142,5,,,,1,None,C,False,None,,,,,
n-back,,,,143,5,,,,1,None,V,False,None,,,,,
n-back,,,,144,5,,,,1,0.6693937079980969,C,True,1,,,,,
n-back,,,,145,5,,,,1,None,Z,False,None,,,,,
n-back,,,,146,5,,,,1,None,Z,False,None,,,,,
n-back,,,,147,5,,,,1,None,N,False,None,,,,,
n-back,,,,148,5,,,,1,None,N,False,None,,,,,
n-back,,,,149,5,,,,1,None,B,False,None,,,,,
n-back,,,,150,5,,,,1,0.4894272079691291,N,True,1,,,,,
choice,fixation,146.66508366598282,148.1683656660607,33,5,,,,,,,,,Small,,,,
choice,option,148.1764262910001,149.20467941602692,33,5,,,,,,,,,Small,,,,
choice,choice,149.20480733306613,159.0783547500614,33,5,,,1,1,8.862919249921106,,,,Small,,,,
choice,fixation,159.0784967499785,160.33380725001916,34,5,,,,,,,,,Object,,,,
choice,option,160.34287108306307,161.37054558307864,34,5,,,,,,,,,Object,,,,
choice,choice,161.370642041089,167.65424729103688,34,5,,,2,0,5.273671415983699,,,,Object,,,,
choice,fixation,167.65436891606078,168.90960991603788,35,5,,,,,,,,,Sea,,,,
choice,option,168.9185440830188,169.9444740000181,35,5,,,,,,,,,Sea,,,,
choice,choice,169.9446600410156,188.10210487502627,35,5,,,2,0,17.14661041693762,,,,Sea,,,,
choice,fixation,188.1022251250688,189.60753637505695,36,5,,,,,,,,,Land,,,,
choice,option,189.61608154105488,190.64333933300804,36,5,,,,,,,,,Land,,,,
choice,choice,190.64344424998853,194.00584266602527,36,5,,,1,1,2.352703374926932,,,,Land,,,,
choice,fixation,194.0059774160618,194.51092066604178,37,5,,,,,,,,,Solid,,,,
choice,option,194.52044674998615,195.54690845799632,37,5,,,,,,,,,Solid,,,,
choice,choice,195.54702516598627,203.45474166597705,37,5,,,1,1,6.897697833017446,,,,Solid,,,,
choice,fixation,203.45487212506123,204.21008129103575,38,5,,,,,,,,,Large,,,,
choice,option,204.21862225001678,205.24531300005037,38,5,,,,,,,,,Large,,,,
choice,choice,205.24542787508108,207.9649247910129,38,5,,,2,1,1.7090201659593731,,,,Large,,,,
choice,fixation,207.9650613750564,208.47013899998274,39,5,,,,,,,,,Pattern,,,,
choice,option,208.47995320800692,209.50659854104742,39,5,,,,,,,,,Pattern,,,,
choice,choice,209.5067365000723,213.5498279579915,39,5,,,2,0,3.0334230840671808,,,,Pattern,,,,
choice,fixation,213.54994608298875,214.8049325409811,40,5,,,,,,,,,Animal,,,,
choice,option,214.81461500003934,215.84192949999124,40,5,,,,,,,,,Animal,,,,
choice,choice,215.84204829100054,221.18164299998898,40,5,,,2,0,4.326878125080839,,,,Animal,,,,
memory,free_recall,235.46669320808724,246.8705235410016,24,5,,,,,,,,,,,,,
memory,value_recall,254.19569954101462,256.82421737501863,25,5,Animal_Land_Pattern_Large,,,,2.6243073750520125,,,,,-9,,,
memory,value_recall,257.87187458307017,259.90434779098723,26,5,Object_Sea_Solid_Large,,,,2.0294101249892265,,,,,-1,,,
memory,value_recall,260.9504442079924,263.33711129100993,27,5,Object_Sea_Pattern_Large,,,,2.3832300830399618,,,,,9,,,
memory,value_recall,264.88417924998794,266.70330312498845,28,5,Animal_Land_Solid_Small,,,,1.8151644580066204,,,,,8,,,
memory,value_recall,268.74917954101693,273.1850504160393,29,5,Object_Sea_Solid_Small,,,,4.43168749997858,,,,,-2,,,
memory,value_recall,274.9818813330494,277.7637061250862,30,5,Animal_Land_Pattern_Small,,,,2.77774358401075,,,,,4,,,
memory,spatial_recall,281.8389322910225,283.67574362503365,30,5,Animal_Land_Pattern_Large,,,1,1.8322515420150012,,,,,,"[0, 380]","[0, 380]",
memory,spatial_recall,285.7420034580864,287.0377903750632,30,5,Object_Sea_Pattern_Large,,,1,1.2887425000080839,,,,,,"[329, 189]","[329, 189]",
memory,spatial_recall,288.3325229580514,289.35443812503945,30,5,Object_Sea_Solid_Small,,,1,1.0179596249945462,,,,,,"[0, -380]","[0, -380]",
memory,spatial_recall,290.40113420807756,292.4522749159951,30,5,Animal_Land_Pattern_Small,,,1,2.0487553329439834,,,,,,"[-329, -190]","[-329, -190]",
memory,spatial_recall,294.01084945804905,295.98749199998565,30,5,Object_Sea_Solid_Large,,,1,1.9722599580418319,,,,,,"[-329, 190]","[-329, 190]",
memory,spatial_recall,297.2921530830208,298.6179413750069,30,5,Animal_Land_Solid_Small,,,1,1.320885874913074,,,,,,"[329, -190]","[329, -190]",
encoding,fixation,6.663422791985795,7.169164250022732,31,6,Animal_Land_Pattern_Small,-8,,,,,,,,,,,
encoding,image,7.1692877089371905,8.182507749996148,31,6,Animal_Land_Pattern_Small,-8,,,,,,,,,,,
encoding,value,8.182689833920449,14.195509291952476,31,6,Animal_Land_Pattern_Small,-8,,,,,,,,,,,
encoding,attention,14.195619249949232,17.213123166933656,31,6,Animal_Land_Pattern_Small,-8,-8,1,0.7560431660385802,,,,,,,,
encoding,fixation,17.213355874991976,17.968537708977237,32,6,Animal_Sea_Solid_Small,1,,,,,,,,,,,
encoding,image,17.968640459002927,18.98002625000663,32,6,Animal_Sea_Solid_Small,1,,,,,,,,,,,
encoding,value,18.980225708917715,24.992466249968857,32,6,Animal_Sea_Solid_Small,1,,,,,,,,,,,
encoding,attention,24.99257858400233,28.01088620896917,32,6,Animal_Sea_Solid_Small,1,+1,1,2.561315209022723,,,,,,,,
encoding,fixation,28.01102912495844,28.516064249910414,33,6,Object_Sea_Solid_Large,-6,,,,,,,,,,,
encoding,image,28.516166166984476,29.528212041943334,33,6,Object_Sea_Solid_Large,-6,,,,,,,,,,,
encoding,value,29.528361208969727,35.54105879191775,33,6,Object_Sea_Solid_Large,-6,,,,,,,,,,,
encoding,attention,35.54117712494917,38.559954624972306,33,6,Object_Sea_Solid_Large,-6,-6,1,0.941179999965243,,,,,,,,
encoding,fixation,38.560096084023826,39.565386374946684,34,6,Animal_Sea_Pattern_Large,4,,,,,,,,,,,
encoding,image,39.56549258402083,40.575984374969266,34,6,Animal_Sea_Pattern_Large,4,,,,,,,,,,,
encoding,value,40.57610283396207,46.5877940839855,34,6,Animal_Sea_Pattern_Large,4,,,,,,,,,,,
encoding,attention,46.587925708969124,49.60502858401742,34,6,Animal_Sea_Pattern_Large,4,+4,1,1.2005721250316128,,,,,,,,
encoding,fixation,49.60519170900807,50.11344066692982,35,6,Object_Land_Solid_Small,1,,,,,,,,,,,
encoding,image,50.11355150002055,51.12521145900246,35,6,Object_Land_Solid_Small,1,,,,,,,,,,,
encoding,value,51.12532937491778,57.13653054193128,35,6,Object_Land_Solid_Small,1,,,,,,,,,,,
encoding,attention,57.13671666698065,60.153510416974314,35,6,Object_Land_Solid_Small,1,+1,1,0.5716919170226902,,,,,,,,
encoding,fixation,60.1536484999815,60.90861587494146,36,6,Object_Land_Pattern_Large,6,,,,,,,,,,,
encoding,image,60.90870899998117,61.9208572920179,36,6,Object_Land_Pattern_Large,6,,,,,,,,,,,
encoding,value,61.920976499910466,67.93308470898774,36,6,Object_Land_Pattern_Large,6,,,,,,,,,,,
encoding,attention,67.93327224999666,70.95141704194248,36,6,Object_Land_Pattern_Large,6,+6,1,1.0524590419372544,,,,,,,,
n-back,,,,151,6,,,,1,None,X,False,None,,,,,
n-back,,,,152,6,,,,1,None,Z,False,None,,,,,
n-back,,,,153,6,,,,1,0.6636162920622155,X,True,1,,,,,
n-back,,,,154,6,,,,1,None,N,False,None,,,,,
n-back,,,,155,6,,,,1,None,V,False,None,,,,,
n-back,,,,156,6,,,,1,None,V,False,None,,,,,
n-back,,,,157,6,,,,1,None,X,False,None,,,,,
n-back,,,,158,6,,,,1,0.9131091249873862,V,True,1,,,,,
n-back,,,,159,6,,,,1,None,Z,False,None,,,,,
n-back,,,,160,6,,,,1,None,C,False,None,,,,,
n-back,,,,161,6,,,,1,None,X,False,None,,,,,
n-back,,,,162,6,,,,1,1.390168167068623,C,True,1,,,,,
n-back,,,,163,6,,,,1,None,C,False,None,,,,,
n-back,,,,164,6,,,,1,0.421175834024325,C,True,1,,,,,
n-back,,,,165,6,,,,1,0.3481530410936102,C,True,1,,,,,
n-back,,,,166,6,,,,1,None,V,False,None,,,,,
n-back,,,,167,6,,,,1,None,X,False,None,,,,,
n-back,,,,168,6,,,,1,None,X,False,None,,,,,
n-back,,,,169,6,,,,1,None,V,False,None,,,,,
n-back,,,,170,6,,,,1,None,V,False,None,,,,,
n-back,,,,171,6,,,,1,0.4429887079168111,V,True,1,,,,,
n-back,,,,172,6,,,,1,0.3813000409863889,V,True,1,,,,,
n-back,,,,173,6,,,,1,0.37241729197558016,V,True,1,,,,,
n-back,,,,174,6,,,,1,None,B,False,None,,,,,
n-back,,,,175,6,,,,1,0.8847904579015449,V,True,1,,,,,
n-back,,,,176,6,,,,1,0.6497539579868317,B,True,1,,,,,
n-back,,,,177,6,,,,1,None,B,False,None,,,,,
n-back,,,,178,6,,,,1,None,V,False,None,,,,,
n-back,,,,179,6,,,,1,None,X,False,None,,,,,
n-back,,,,180,6,,,,1,None,X,False,None,,,,,
choice,fixation,144.75643129192758,145.26225070899818,41,6,,,,,,,,,Animal,,,,
choice,option,145.27117974997964,146.29810820892453,41,6,,,,,,,,,Animal,,,,
choice,choice,146.29821525001898,148.9565535839647,41,6,,,1,0,1.6486132920254022,,,,Animal,,,,
choice,fixation,148.9566808749223,150.2122161249863,42,6,,,,,,,,,Small,,,,
choice,option,150.22098137496505,151.24818695895374,42,6,,,,,,,,,Small,,,,
choice,choice,151.24834858393297,158.53499974997249,42,6,,,2,1,6.277220999938436,,,,Small,,,,
choice,fixation,158.5351668340154,159.2903638749849,43,6,,,,,,,,,Solid,,,,
choice,option,159.29933995893225,160.3258330419194,43,6,,,,,,,,,Solid,,,,
choice,choice,160.32593279192224,162.34018045896664,43,6,,,1,0,1.0048041659174487,,,,Solid,,,,
choice,fixation,162.34029841702431,163.09536420891527,44,6,,,,,,,,,Sea,,,,
choice,option,163.10395570890978,164.13043133402243,44,6,,,,,,,,,Sea,,,,
choice,choice,164.13054308400024,166.68474258400965,44,6,,,1,0,1.5446444579865783,,,,Sea,,,,
choice,fixation,166.68487870891113,167.6898768339306,45,6,,,,,,,,,Large,,,,
choice,option,167.6981219999725,168.72463541699108,45,6,,,,,,,,,Large,,,,
choice,choice,168.7247479999205,170.88529829191975,45,6,,,1,1,1.1505564999533817,,,,Large,,,,
choice,fixation,170.8854244169779,171.39062345901038,46,6,,,,,,,,,Land,,,,
choice,option,171.39931191701908,172.4262440840248,46,6,,,,,,,,,Land,,,,
choice,choice,172.42635495890863,176.816625833977,46,6,,,1,0,3.3806305000325665,,,,Land,,,,
choice,fixation,176.81675362493843,177.82171908393502,47,6,,,,,,,,,Pattern,,,,
choice,option,177.83078891702462,178.8577977499226,47,6,,,,,,,,,Pattern,,,,
choice,choice,178.85790887498297,180.99873766698875,47,6,,,2,0,1.1311292910249904,,,,Pattern,,,,
choice,fixation,180.99886170891114,181.5040987499524,48,6,,,,,,,,,Object,,,,
choice,option,181.51352766691707,182.5400037500076,48,6,,,,,,,,,Object,,,,
choice,choice,182.54010712495074,184.4213005839847,48,6,,,1,1,0.8716707499697804,,,,Object,,,,
memory,free_recall,196.75965633394662,210.16841283394024,30,6,,,,,,,,,,,,,
memory,value_recall,214.82104320893995,218.76741229195613,31,6,Object_Land_Solid_Small,,,,3.9387379579711705,,,,,1,,,
memory,value_recall,220.3131747089792,222.4879363749642,32,6,Animal_Land_Pattern_Small,,,,2.170623957994394,,,,,-8,,,
memory,value_recall,224.28667399997357,226.3914704589406,33,6,Object_Sea_Solid_Large,,,,2.1007923330180347,,,,,-6,,,
memory,value_recall,227.93669433391187,233.0554270419525,34,6,Animal_Sea_Pattern_Large,,,,5.114329666015692,,,,,4,,,
memory,value_recall,235.102970500011,238.36822345899418,35,6,Animal_Sea_Solid_Small,,,,3.261135209002532,,,,,1,,,
memory,value_recall,239.91412520897575,241.47209333395585,36,6,Object_Land_Pattern_Large,,,,1.5539734170306474,,,,,6,,,
memory,spatial_recall,245.5404883750016,247.45117820892483,36,6,Animal_Sea_Solid_Small,,,1,1.9066883749328554,,,,,,"[329, 189]","[329, 189]",
memory,spatial_recall,249.01303987496067,250.31485754193272,36,6,Object_Sea_Solid_Large,,,1,1.2976661660941318,,,,,,"[-329, 190]","[-329, 190]",
memory,spatial_recall,251.61287716694642,252.7537869589869,36,6,Animal_Land_Pattern_Small,,,1,1.1368578330148011,,,,,,"[-329, -190]","[-329, -190]",
memory,spatial_recall,254.56804270891007,255.4846284999512,36,6,Object_Land_Solid_Small,,,1,0.9122203749138862,,,,,,"[0, -380]","[0, -380]",
memory,spatial_recall,257.04233837500215,258.37251562497113,36,6,Object_Land_Pattern_Large,,,1,1.326321875094436,,,,,,"[0, 380]","[0, 380]",
memory,spatial_recall,259.67896962491795,260.8516314169392,36,6,Animal_Sea_Pattern_Large,,,1,1.168648042017594,,,,,,"[329, -190]","[329, -190]",
encoding,fixation,5.062556458055042,5.567878416972235,37,7,Animal_Sea_Pattern_Small,-2,,,,,,,,,,,
encoding,image,5.5679923329735175,6.580403874977492,37,7,Animal_Sea_Pattern_Small,-2,,,,,,,,,,,
encoding,value,6.58052412502002,12.593751500011422,37,7,Animal_Sea_Pattern_Small,-2,,,,,,,,,,,
encoding,attention,12.593858708045445,15.612026500049978,37,7,Animal_Sea_Pattern_Small,-2,-2,1,0.9097442920319736,,,,,,,,
encoding,fixation,15.612294708029367,16.1178692500107,38,7,Animal_Sea_Solid_Large,-1,,,,,,,,,,,
encoding,image,16.11797200003639,17.130120791960508,38,7,Animal_Sea_Solid_Large,-1,,,,,,,,,,,
encoding,value,17.130224875058047,23.142219125060365,38,7,Animal_Sea_Solid_Large,-1,,,,,,,,,,,
encoding,attention,23.142406583065167,26.159172417013906,38,7,Animal_Sea_Solid_Large,-1,-1,1,0.6263444169890136,,,,,,,,
encoding,fixation,26.15931595803704,27.665116791962646,39,7,Object_Land_Solid_Large,-4,,,,,,,,,,,
encoding,image,27.665256749955006,28.67549749999307,39,7,Object_Land_Solid_Large,-4,,,,,,,,,,,
encoding,value,28.67562920798082,34.686928082956,39,7,Object_Land_Solid_Large,-4,,,,,,,,,,,
encoding,attention,34.68702962505631,37.70422679197509,39,7,Object_Land_Solid_Large,-4,-4,1,0.7206142080249265,,,,,,,,
encoding,fixation,37.70437279203907,38.459830999956466,40,7,Object_Land_Pattern_Small,-4,,,,,,,,,,,
encoding,image,38.45995187503286,39.47139399999287,40,7,Object_Land_Pattern_Small,-4,,,,,,,,,,,
encoding,value,39.4715097079752,45.483478417037986,40,7,Object_Land_Pattern_Small,-4,,,,,,,,,,,
encoding,attention,45.48360120796133,48.50204620801378,40,7,Object_Land_Pattern_Small,-4,-4,1,0.6853553330292925,,,,,,,,
encoding,fixation,48.50225795805454,49.25742012495175,41,7,Animal_Land_Solid_Large,9,,,,,,,,,,,
encoding,image,49.257547458051704,50.26941245805938,41,7,Animal_Land_Solid_Large,9,,,,,,,,,,,
encoding,value,50.269525708048604,56.28096304205246,41,7,Animal_Land_Solid_Large,9,,,,,,,,,,,
encoding,attention,56.28108812496066,59.298890625010245,41,7,Animal_Land_Solid_Large,9,+9,1,0.655435457942076,,,,,,,,
encoding,fixation,59.299041750025935,60.55434749997221,42,7,Object_Sea_Pattern_Small,9,,,,,,,,,,,
encoding,image,60.55447337497026,61.565309250028804,42,7,Object_Sea_Pattern_Small,9,,,,,,,,,,,
encoding,value,61.56542287499178,67.57792675006203,42,7,Object_Sea_Pattern_Small,9,,,,,,,,,,,
encoding,attention,67.57804170798045,70.59489570802543,42,7,Object_Sea_Pattern_Small,9,+9,1,0.8629778750473633,,,,,,,,
n-back,,,,181,7,,,,1,None,B,False,None,,,,,
n-back,,,,182,7,,,,1,None,V,False,None,,,,,
n-back,,,,183,7,,,,1,1.1065533329965547,B,True,1,,,,,
n-back,,,,184,7,,,,1,None,B,False,None,,,,,
n-back,,,,185,7,,,,1,0.6112397500546649,B,True,1,,,,,
n-back,,,,186,7,,,,1,None,Z,False,None,,,,,
n-back,,,,187,7,,,,1,None,X,False,None,,,,,
n-back,,,,188,7,,,,1,None,X,False,None,,,,,
n-back,,,,189,7,,,,1,None,B,False,None,,,,,
n-back,,,,190,7,,,,1,None,B,False,None,,,,,
n-back,,,,191,7,,,,1,0.5341119170188904,B,True,1,,,,,
n-back,,,,192,7,,,,1,None,V,False,None,,,,,
n-back,,,,193,7,,,,1,None,C,False,None,,,,,
n-back,,,,194,7,,,,1,None,X,False,None,,,,,
n-back,,,,195,7,,,,1,0.8965710840420797,C,True,1,,,,,
n-back,,,,196,7,,,,1,None,C,False,None,,,,,
n-back,,,,197,7,,,,1,0.49694199999794364,C,True,1,,,,,
n-back,,,,198,7,,,,1,0.7395146250491962,C,True,1,,,,,
n-back,,,,199,7,,,,1,0.4567995830439031,C,True,1,,,,,
n-back,,,,200,7,,,,1,0.38017766701523215,C,True,1,,,,,
n-back,,,,201,7,,,,1,None,N,False,None,,,,,
n-back,,,,202,7,,,,1,None,N,False,None,,,,,
n-back,,,,203,7,,,,1,None,C,False,None,,,,,
n-back,,,,204,7,,,,1,None,B,False,None,,,,,
n-back,,,,205,7,,,,1,None,Z,False,None,,,,,
n-back,,,,206,7,,,,1,None,Z,False,None,,,,,
n-back,,,,207,7,,,,1,None,C,False,None,,,,,
n-back,,,,208,7,,,,1,None,V,False,None,,,,,
n-back,,,,209,7,,,,1,0.9855888750171289,C,True,1,,,,,
n-back,,,,210,7,,,,1,0.6818924589315429,V,True,1,,,,,
choice,fixation,146.81000879197381,148.31349295796826,49,7,,,,,,,,,Object,,,,
choice,option,148.32244637503754,149.3506867500255,49,7,,,,,,,,,Object,,,,
choice,choice,149.35086679202504,162.51513591699768,49,7,,,1,1,12.153263207990676,,,,Object,,,,
choice,fixation,162.5152902919799,163.02078074996825,50,7,,,,,,,,,Animal,,,,
choice,option,163.03000200004317,164.05733945802785,50,7,,,,,,,,,Animal,,,,
choice,choice,164.05744550004601,170.0264927080134,50,7,,,2,0,4.957723333034664,,,,Animal,,,,
choice,fixation,170.0266287920531,170.5315198750468,51,7,,,,,,,,,Large,,,,
choice,option,170.54009887506254,171.56686654197983,51,7,,,,,,,,,Large,,,,
choice,choice,171.5669750829693,192.96395387500525,51,7,,,1,1,20.385530209052376,,,,Large,,,,
choice,fixation,192.96406612498686,194.46909491706174,52,7,,,,,,,,,Small,,,,
choice,option,194.47834112495184,195.5057387079578,52,7,,,,,,,,,Small,,,,
choice,choice,195.5059322080342,199.4245149580529,52,7,,,2,0,2.9089716660091653,,,,Small,,,,
choice,fixation,199.42464133305475,200.93225254199933,53,7,,,,,,,,,Sea,,,,
choice,option,200.94123241701163,201.9677695420105,53,7,,,,,,,,,Sea,,,,
choice,choice,201.96787220798433,208.41785691701807,53,7,,,1,1,5.440118083031848,,,,Sea,,,,
choice,fixation,208.41798699996434,209.1729956669733,54,7,,,,,,,,,Pattern,,,,
choice,option,209.1820050419774,210.2090145420516,54,7,,,,,,,,,Pattern,,,,
choice,choice,210.20912987506017,218.39246787503362,54,7,,,1,1,7.17319987504743,,,,Pattern,,,,
choice,fixation,218.3925931249978,218.8976607080549,55,7,,,,,,,,,Solid,,,,
choice,option,218.9064954170026,219.93361812504008,55,7,,,,,,,,,Solid,,,,
choice,choice,219.93372591701336,241.40490175003652,55,7,,,1,1,20.460362375015393,,,,Solid,,,,
choice,fixation,241.40502216701861,242.4100481249625,56,7,,,,,,,,,Land,,,,
choice,option,242.41858075000346,243.44772279204335,56,7,,,,,,,,,Land,,,,
choice,choice,243.44783120800275,250.69870991702192,56,7,,,1,1,6.240918874973431,,,,Land,,,,
memory,free_recall,261.37944983295165,270.67468216700945,36,7,,,,,,,,,,,,,
memory,value_recall,273.9516480419552,279.1230612080544,37,7,Animal_Sea_Solid_Large,,,,5.167333040968515,,,,,-1,,,
memory,value_recall,280.17229133297224,282.38756508298684,38,7,Object_Land_Solid_Large,,,,2.2119921669363976,,,,,-4,,,
memory,value_recall,284.0098019579891,285.6591308329953,39,7,Animal_Land_Solid_Large,,,,1.6450645420700312,,,,,9,,,
memory,value_recall,286.6940414169803,289.08342220797203,40,7,Animal_Sea_Pattern_Small,,,,2.3863087920472026,,,,,-2,,,
memory,value_recall,290.38161283300724,292.0669590419857,41,7,Object_Sea_Pattern_Small,,,,1.6809873749734834,,,,,9,,,
memory,value_recall,294.114660250023,297.453190542059,42,7,Object_Land_Pattern_Small,,,,3.3344092089682817,,,,,-4,,,
memory,spatial_recall,301.60833787498996,303.75432862504385,42,7,Object_Sea_Pattern_Small,,,1,2.1412844579899684,,,,,,"[0, 380]","[0, 380]",
memory,spatial_recall,305.5616389999632,307.42071162501816,42,7,Object_Land_Solid_Large,,,1,1.8551088339881971,,,,,,"[329, -190]","[329, -190]",
memory,spatial_recall,308.73038004199043,310.8198952500243,42,7,Animal_Land_Solid_Large,,,1,2.0854379589436576,,,,,,"[329, 189]","[329, 189]",
memory,spatial_recall,311.8766125419643,312.92010016704444,42,7,Animal_Sea_Solid_Large,,,1,1.039090833044611,,,,,,"[0, -380]","[0, -380]",
memory,spatial_recall,313.9665415000636,315.1868155830307,42,7,Object_Land_Pattern_Small,,,1,1.2178401669953018,,,,,,"[-329, 190]","[-329, 190]",
memory,spatial_recall,316.484091833001,318.4568174170563,42,7,Animal_Sea_Pattern_Small,,,1,1.9687739160144702,,,,,,"[-329, -190]","[-329, -190]",
