subject,phase,event,trial_number,game,option,choice,rt,roi_content,item_index,is_relevant,fix_start,fix_end,fix_duration_bounded
115,choice,choice,1,1.0,Solid,1.0,25.705457041971385,Animal_Land_Solid_Large,0,1,4435353.0,4436071.0,718.0
115,choice,choice,1,1.0,Solid,1.0,25.705457041971385,Animal_Sea_Pattern_Small,1,0,4436313.0,4436630.0,317.0
115,choice,choice,1,1.0,Solid,1.0,25.705457041971385,Object_Sea_Pattern_Small,2,0,4439974.0,4441173.0,1199.0
115,choice,choice,1,1.0,Solid,1.0,25.705457041971385,Animal_Sea_Pattern_Small,1,0,4445151.0,4445354.0,203.0
115,choice,choice,1,1.0,Solid,1.0,25.705457041971385,Object_Land_Pattern_Small,3,0,4445667.0,4445771.0,104.0
115,choice,choice,1,1.0,Solid,1.0,25.705457041971385,Object_Sea_Pattern_Small,2,0,4446109.0,4446747.0,638.0
115,choice,choice,1,1.0,Solid,1.0,25.705457041971385,Object_Land_Pattern_Small,3,0,4446942.0,4447630.0,688.0
115,choice,choice,1,1.0,Solid,1.0,25.705457041971385,Object_Sea_Pattern_Small,2,0,4447657.0,4448403.0,746.0
115,choice,choice,1,1.0,Solid,1.0,25.705457041971385,Object_Land_Pattern_Small,3,0,4448611.0,4449076.0,465.0
115,choice,choice,1,1.0,Solid,1.0,25.705457041971385,Animal_Land_Solid_Large,0,1,4449125.0,4450003.0,878.0
115,choice,choice,1,1.0,Solid,1.0,25.705457041971385,Object_Sea_Pattern_Small,2,0,4450181.0,4451915.0,1734.0
115,choice,choice,1,1.0,Solid,1.0,25.705457041971385,Animal_Sea_Solid_Large,4,1,4452136.0,4452982.0,846.0
115,choice,choice,1,1.0,Solid,1.0,25.705457041971385,Object_Land_Solid_Large,5,1,4453559.0,4453911.0,352.0
115,choice,choice,1,1.0,Solid,1.0,25.705457041971385,Object_Land_Pattern_Small,3,0,4453950.0,4454356.0,406.0
115,choice,choice,1,1.0,Solid,1.0,25.705457041971385,Animal_Sea_Pattern_Small,1,0,4454395.0,4454650.0,255.0
115,choice,choice,1,1.0,Solid,1.0,25.705457041971385,Object_Land_Pattern_Small,3,0,4455622.0,4455834.0,212.0
115,choice,choice,2,1.0,Large,1.0,29.119179707951844,Object_Land_Pattern_Small,3,0,4459374.0,4460073.0,699.0
115,choice,choice,2,1.0,Large,1.0,29.119179707951844,Animal_Sea_Pattern_Small,1,0,4460092.0,4463104.0,3012.0
115,choice,choice,2,1.0,Large,1.0,29.119179707951844,Animal_Sea_Solid_Large,4,1,4463496.0,4463822.0,326.0
115,choice,choice,2,1.0,Large,1.0,29.119179707951844,Animal_Sea_Pattern_Small,1,0,4464005.0,4464119.0,114.0
115,choice,choice,2,1.0,Large,1.0,29.119179707951844,Object_Land_Pattern_Small,3,0,4464135.0,4465121.0,986.0
115,choice,choice,2,1.0,Large,1.0,29.119179707951844,Object_Sea_Pattern_Small,2,0,4465341.0,4467794.0,2453.0
115,choice,choice,2,1.0,Large,1.0,29.119179707951844,Animal_Land_Solid_Large,0,1,4468328.0,4469793.0,1465.0
115,choice,choice,2,1.0,Large,1.0,29.119179707951844,Object_Land_Solid_Large,5,1,4470173.0,4471840.0,1667.0
115,choice,choice,2,1.0,Large,1.0,29.119179707951844,Animal_Sea_Solid_Large,4,1,4471862.0,4472544.0,682.0
115,choice,choice,2,1.0,Large,1.0,29.119179707951844,Animal_Sea_Pattern_Small,1,0,4472573.0,4475425.0,2852.0
115,choice,choice,2,1.0,Large,1.0,29.119179707951844,Object_Land_Pattern_Small,3,0,4475861.0,4478790.0,2929.0
115,choice,choice,2,1.0,Large,1.0,29.119179707951844,Animal_Sea_Pattern_Small,1,0,4479014.0,4479369.0,355.0
115,choice,choice,2,1.0,Large,1.0,29.119179707951844,Object_Sea_Pattern_Small,2,0,4479898.0,4480362.0,464.0
115,choice,choice,2,1.0,Large,1.0,29.119179707951844,Object_Land_Pattern_Small,3,0,4480382.0,4481192.0,810.0
115,choice,choice,2,1.0,Large,1.0,29.119179707951844,Object_Sea_Pattern_Small,2,0,4481366.0,4482299.0,933.0
115,choice,choice,2,1.0,Large,1.0,29.119179707951844,Animal_Land_Solid_Large,0,1,4482337.0,4482467.0,130.0
115,choice,choice,2,1.0,Large,1.0,29.119179707951844,Object_Land_Pattern_Small,3,0,4485115.0,4487111.0,1996.0
115,choice,choice,3,1.0,Pattern,1.0,12.978848750004545,Animal_Land_Solid_Large,0,0,4492262.0,4493441.0,1179.0
115,choice,choice,3,1.0,Pattern,1.0,12.978848750004545,Object_Sea_Pattern_Small,2,1,4493894.0,4494111.0,217.0
115,choice,choice,3,1.0,Pattern,1.0,12.978848750004545,Object_Land_Pattern_Small,3,1,4494153.0,4499321.0,5168.0
115,choice,choice,3,1.0,Pattern,1.0,12.978848750004545,Animal_Sea_Pattern_Small,1,1,4499574.0,4500432.0,858.0
115,choice,choice,3,1.0,Pattern,1.0,12.978848750004545,Animal_Sea_Solid_Large,4,0,4500486.0,4501018.0,532.0
115,choice,choice,3,1.0,Pattern,1.0,12.978848750004545,Object_Land_Solid_Large,5,0,4501042.0,4501470.0,428.0
115,choice,choice,3,1.0,Pattern,1.0,12.978848750004545,Animal_Sea_Pattern_Small,1,1,4501644.0,4501816.0,172.0
115,choice,choice,3,1.0,Pattern,1.0,12.978848750004545,Object_Land_Pattern_Small,3,1,4501823.0,4503170.0,1347.0
115,choice,choice,4,1.0,Small,2.0,5.315360040985979,Object_Land_Pattern_Small,3,1,4507951.0,4508700.0,749.0
115,choice,choice,4,1.0,Small,2.0,5.315360040985979,Object_Land_Solid_Large,5,0,4508952.0,4510115.0,1163.0
115,choice,choice,4,1.0,Small,2.0,5.315360040985979,Object_Sea_Pattern_Small,2,1,4510335.0,4510995.0,660.0
115,choice,choice,4,1.0,Small,2.0,5.315360040985979,Object_Land_Pattern_Small,3,1,4511374.0,4511890.0,516.0
115,choice,choice,4,1.0,Small,2.0,5.315360040985979,Animal_Sea_Pattern_Small,1,1,4511926.0,4512122.0,196.0
115,choice,choice,5,1.0,Land,1.0,24.048166417051107,Object_Land_Pattern_Small,3,1,4515655.0,4516448.0,793.0
115,choice,choice,5,1.0,Land,1.0,24.048166417051107,Object_Sea_Pattern_Small,2,0,4516471.0,4517565.0,1094.0
115,choice,choice,5,1.0,Land,1.0,24.048166417051107,Object_Land_Pattern_Small,3,1,4518026.0,4519099.0,1073.0
115,choice,choice,5,1.0,Land,1.0,24.048166417051107,Object_Sea_Pattern_Small,2,0,4519505.0,4520625.0,1120.0
115,choice,choice,5,1.0,Land,1.0,24.048166417051107,Object_Land_Pattern_Small,3,1,4520808.0,4521263.0,455.0
115,choice,choice,5,1.0,Land,1.0,24.048166417051107,Object_Sea_Pattern_Small,2,0,4521451.0,4523850.0,2399.0
115,choice,choice,5,1.0,Land,1.0,24.048166417051107,Animal_Land_Solid_Large,0,1,4525864.0,4526348.0,484.0
115,choice,choice,5,1.0,Land,1.0,24.048166417051107,Object_Land_Solid_Large,5,1,4526392.0,4527065.0,673.0
115,choice,choice,5,1.0,Land,1.0,24.048166417051107,Object_Sea_Pattern_Small,2,0,4528798.0,4529257.0,459.0
115,choice,choice,5,1.0,Land,1.0,24.048166417051107,Animal_Land_Solid_Large,0,1,4529280.0,4529744.0,464.0
115,choice,choice,5,1.0,Land,1.0,24.048166417051107,Object_Land_Solid_Large,5,1,4530205.0,4530597.0,392.0
115,choice,choice,5,1.0,Land,1.0,24.048166417051107,Animal_Sea_Solid_Large,4,0,4530618.0,4531015.0,397.0
115,choice,choice,5,1.0,Land,1.0,24.048166417051107,Animal_Sea_Pattern_Small,1,0,4531039.0,4531248.0,209.0
115,choice,choice,5,1.0,Land,1.0,24.048166417051107,Object_Land_Pattern_Small,3,1,4531287.0,4532878.0,1591.0
115,choice,choice,5,1.0,Land,1.0,24.048166417051107,Animal_Sea_Solid_Large,4,0,4534175.0,4534443.0,268.0
115,choice,choice,5,1.0,Land,1.0,24.048166417051107,Object_Land_Pattern_Small,3,1,4537436.0,4538151.0,715.0
115,choice,choice,5,1.0,Land,1.0,24.048166417051107,Animal_Sea_Pattern_Small,1,0,4539037.0,4539233.0,196.0
115,choice,choice,6,1.0,Object,1.0,5.786879291990772,Object_Sea_Pattern_Small,2,1,4542196.0,4543166.0,970.0
115,choice,choice,6,1.0,Object,1.0,5.786879291990772,Object_Land_Pattern_Small,3,1,4543400.0,4544960.0,1560.0
115,choice,choice,6,1.0,Object,1.0,5.786879291990772,Animal_Sea_Pattern_Small,1,0,4545036.0,4545787.0,751.0
115,choice,choice,6,1.0,Object,1.0,5.786879291990772,Object_Land_Pattern_Small,3,1,4545814.0,4547075.0,1261.0
115,choice,choice,6,1.0,Object,1.0,5.786879291990772,Animal_Sea_Pattern_Small,1,0,4547336.0,4547509.0,173.0
115,choice,choice,7,1.0,Animal,2.0,6.325803000014275,Object_Land_Pattern_Small,3,0,4555726.0,4556424.0,698.0
115,choice,choice,8,1.0,Sea,1.0,7.194063166971318,Object_Sea_Pattern_Small,2,1,4561576.0,4563469.0,1893.0
115,choice,choice,8,1.0,Sea,1.0,7.194063166971318,Object_Land_Pattern_Small,3,0,4564216.0,4564369.0,153.0
115,choice,choice,8,1.0,Sea,1.0,7.194063166971318,Object_Sea_Pattern_Small,2,1,4565681.0,4566110.0,429.0
115,choice,choice,8,1.0,Sea,1.0,7.194063166971318,Object_Land_Solid_Large,5,0,4566164.0,4566801.0,637.0
115,choice,choice,8,1.0,Sea,1.0,7.194063166971318,Animal_Sea_Solid_Large,4,1,4566845.0,4567039.0,194.0
115,choice,choice,9,2.0,Sea,2.0,20.745578415924683,Animal_Land_Pattern_Large,0,0,4940249.0,4940442.0,193.0
115,choice,choice,9,2.0,Sea,2.0,20.745578415924683,Object_Sea_Solid_Large,1,1,4940460.0,4940795.0,335.0
115,choice,choice,9,2.0,Sea,2.0,20.745578415924683,Object_Sea_Pattern_Large,2,1,4941351.0,4943709.0,2358.0
115,choice,choice,9,2.0,Sea,2.0,20.745578415924683,Animal_Land_Pattern_Large,0,0,4943944.0,4944996.0,1052.0
115,choice,choice,9,2.0,Sea,2.0,20.745578415924683,Object_Sea_Pattern_Large,2,1,4945382.0,4948685.0,3303.0
115,choice,choice,9,2.0,Sea,2.0,20.745578415924683,Animal_Land_Solid_Small,3,0,4950195.0,4951429.0,1234.0
115,choice,choice,9,2.0,Sea,2.0,20.745578415924683,Object_Sea_Solid_Small,4,1,4951469.0,4951824.0,355.0
115,choice,choice,9,2.0,Sea,2.0,20.745578415924683,Animal_Land_Pattern_Small,5,0,4951843.0,4952351.0,508.0
115,choice,choice,9,2.0,Sea,2.0,20.745578415924683,Object_Sea_Solid_Large,1,1,4952973.0,4953934.0,961.0
115,choice,choice,9,2.0,Sea,2.0,20.745578415924683,Object_Sea_Solid_Small,4,1,4954208.0,4955372.0,1164.0
115,choice,choice,9,2.0,Sea,2.0,20.745578415924683,Object_Sea_Solid_Large,1,1,4955749.0,4955894.0,145.0
115,choice,choice,9,2.0,Sea,2.0,20.745578415924683,Animal_Land_Pattern_Small,5,0,4955945.0,4956336.0,391.0
115,choice,choice,9,2.0,Sea,2.0,20.745578415924683,Object_Sea_Solid_Large,1,1,4956551.0,4958035.0,1484.0
115,choice,choice,9,2.0,Sea,2.0,20.745578415924683,Object_Sea_Pattern_Large,2,1,4958258.0,4958645.0,387.0
115,choice,choice,9,2.0,Sea,2.0,20.745578415924683,Animal_Land_Pattern_Small,5,0,4959836.0,4960331.0,495.0
115,choice,choice,9,2.0,Sea,2.0,20.745578415924683,Object_Sea_Solid_Small,4,1,4960376.0,4960635.0,259.0
115,choice,choice,9,2.0,Sea,2.0,20.745578415924683,Animal_Land_Pattern_Small,5,0,4960654.0,4960807.0,153.0
115,choice,choice,10,2.0,Pattern,2.0,21.130387166980658,Animal_Land_Pattern_Small,5,1,4964600.0,4965028.0,428.0
115,choice,choice,10,2.0,Pattern,2.0,21.130387166980658,Animal_Land_Pattern_Large,0,1,4965504.0,4965933.0,429.0
115,choice,choice,10,2.0,Pattern,2.0,21.130387166980658,Object_Sea_Solid_Large,1,0,4965973.0,4966723.0,750.0
115,choice,choice,10,2.0,Pattern,2.0,21.130387166980658,Animal_Land_Pattern_Large,0,1,4966883.0,4967558.0,675.0
115,choice,choice,10,2.0,Pattern,2.0,21.130387166980658,Animal_Land_Solid_Small,3,0,4967749.0,4968436.0,687.0
115,choice,choice,10,2.0,Pattern,2.0,21.130387166980658,Object_Sea_Solid_Large,1,0,4968463.0,4968666.0,203.0
115,choice,choice,10,2.0,Pattern,2.0,21.130387166980658,Animal_Land_Pattern_Large,0,1,4968831.0,4969843.0,1012.0
115,choice,choice,10,2.0,Pattern,2.0,21.130387166980658,Object_Sea_Solid_Large,1,0,4969894.0,4970248.0,354.0
115,choice,choice,10,2.0,Pattern,2.0,21.130387166980658,Object_Sea_Pattern_Large,2,1,4971937.0,4974405.0,2468.0
115,choice,choice,10,2.0,Pattern,2.0,21.130387166980658,Object_Sea_Solid_Small,4,0,4976380.0,4977817.0,1437.0
115,choice,choice,10,2.0,Pattern,2.0,21.130387166980658,Object_Sea_Pattern_Large,2,1,4977845.0,4978000.0,155.0
115,choice,choice,10,2.0,Pattern,2.0,21.130387166980658,Animal_Land_Pattern_Large,0,1,4978180.0,4978299.0,119.0
115,choice,choice,10,2.0,Pattern,2.0,21.130387166980658,Object_Sea_Pattern_Large,2,1,4979077.0,4979659.0,582.0
115,choice,choice,10,2.0,Pattern,2.0,21.130387166980658,Animal_Land_Pattern_Large,0,1,4980615.0,4980946.0,331.0
115,choice,choice,10,2.0,Pattern,2.0,21.130387166980658,Animal_Land_Pattern_Small,5,1,4981425.0,4981736.0,311.0
115,choice,choice,10,2.0,Pattern,2.0,21.130387166980658,Object_Sea_Solid_Large,1,0,4981911.0,4982031.0,120.0
115,choice,choice,10,2.0,Pattern,2.0,21.130387166980658,Animal_Land_Pattern_Small,5,1,4982865.0,4982948.0,83.0
115,choice,choice,11,2.0,Land,1.0,6.149086209014058,Animal_Land_Pattern_Large,0,1,4988818.0,4989354.0,536.0
115,choice,choice,11,2.0,Land,1.0,6.149086209014058,Object_Sea_Solid_Large,1,0,4990125.0,4990195.0,70.0
115,choice,choice,11,2.0,Land,1.0,6.149086209014058,Animal_Land_Pattern_Large,0,1,4990371.0,4991445.0,1074.0
115,choice,choice,11,2.0,Land,1.0,6.149086209014058,Animal_Land_Pattern_Small,5,1,4991966.0,4992764.0,798.0
115,choice,choice,11,2.0,Land,1.0,6.149086209014058,Animal_Land_Solid_Small,3,1,4992798.0,4993193.0,395.0
115,choice,choice,12,2.0,Large,1.0,12.83318558393512,Object_Sea_Pattern_Large,2,1,4998688.0,5000027.0,1339.0
115,choice,choice,12,2.0,Large,1.0,12.83318558393512,Object_Sea_Solid_Large,1,1,5000274.0,5000700.0,426.0
115,choice,choice,12,2.0,Large,1.0,12.83318558393512,Animal_Land_Pattern_Small,5,0,5000906.0,5001099.0,193.0
115,choice,choice,12,2.0,Large,1.0,12.83318558393512,Object_Sea_Solid_Large,1,1,5001121.0,5002493.0,1372.0
115,choice,choice,12,2.0,Large,1.0,12.83318558393512,Animal_Land_Pattern_Small,5,0,5002674.0,5004404.0,1730.0
115,choice,choice,12,2.0,Large,1.0,12.83318558393512,Object_Sea_Solid_Small,4,0,5004611.0,5006950.0,2339.0
115,choice,choice,12,2.0,Large,1.0,12.83318558393512,Animal_Land_Solid_Small,3,0,5007146.0,5007312.0,166.0
115,choice,choice,12,2.0,Large,1.0,12.83318558393512,Animal_Land_Pattern_Small,5,0,5007355.0,5007620.0,265.0
115,choice,choice,12,2.0,Large,1.0,12.83318558393512,Animal_Land_Pattern_Large,0,1,5007827.0,5008462.0,635.0
115,choice,choice,12,2.0,Large,1.0,12.83318558393512,Object_Sea_Solid_Large,1,1,5008485.0,5009248.0,763.0
115,choice,choice,13,2.0,Small,2.0,11.032926958985628,Object_Sea_Pattern_Large,2,0,5014438.0,5014604.0,166.0
115,choice,choice,13,2.0,Small,2.0,11.032926958985628,Animal_Land_Pattern_Small,5,1,5014648.0,5015738.0,1090.0
115,choice,choice,13,2.0,Small,2.0,11.032926958985628,Animal_Land_Solid_Small,3,1,5018746.0,5019848.0,1102.0
115,choice,choice,13,2.0,Small,2.0,11.032926958985628,Animal_Land_Pattern_Small,5,1,5022405.0,5022753.0,348.0
115,choice,choice,13,2.0,Small,2.0,11.032926958985628,Animal_Land_Solid_Small,3,1,5022929.0,5023074.0,145.0
115,choice,choice,13,2.0,Small,2.0,11.032926958985628,Animal_Land_Pattern_Small,5,1,5024138.0,5024260.0,122.0
115,choice,choice,14,2.0,Object,1.0,6.6521204999880865,Animal_Land_Pattern_Large,0,0,5028046.0,5028296.0,250.0
115,choice,choice,14,2.0,Object,1.0,6.6521204999880865,Object_Sea_Pattern_Large,2,1,5029034.0,5031160.0,2126.0
115,choice,choice,14,2.0,Object,1.0,6.6521204999880865,Animal_Land_Pattern_Small,5,0,5031444.0,5031961.0,517.0
115,choice,choice,14,2.0,Object,1.0,6.6521204999880865,Object_Sea_Solid_Large,1,1,5032643.0,5033728.0,1085.0
115,choice,choice,15,2.0,Animal,1.0,5.958648375002667,Object_Sea_Solid_Large,1,0,5037296.0,5039008.0,1712.0
115,choice,choice,16,2.0,Solid,1.0,14.208450875012204,Object_Sea_Solid_Large,1,1,5047440.0,5050966.0,3526.0
115,choice,choice,16,2.0,Solid,1.0,14.208450875012204,Object_Sea_Pattern_Large,2,0,5059422.0,5059495.0,73.0
115,choice,choice,16,2.0,Solid,1.0,14.208450875012204,Object_Sea_Solid_Large,1,1,5060155.0,5060375.0,220.0
115,choice,choice,17,3.0,Pattern,1.0,15.62401587504428,Object_Sea_Solid_Large,0,0,5375618.0,5378388.0,2770.0
115,choice,choice,17,3.0,Pattern,1.0,15.62401587504428,Animal_Sea_Pattern_Large,1,1,5379064.0,5379849.0,785.0
115,choice,choice,17,3.0,Pattern,1.0,15.62401587504428,Object_Sea_Solid_Large,0,0,5380558.0,5380678.0,120.0
115,choice,choice,17,3.0,Pattern,1.0,15.62401587504428,Animal_Land_Pattern_Small,2,1,5381312.0,5383396.0,2084.0
115,choice,choice,17,3.0,Pattern,1.0,15.62401587504428,Object_Land_Solid_Small,3,0,5383694.0,5384096.0,402.0
115,choice,choice,17,3.0,Pattern,1.0,15.62401587504428,Animal_Land_Pattern_Small,2,1,5384338.0,5384502.0,164.0
115,choice,choice,17,3.0,Pattern,1.0,15.62401587504428,Object_Land_Pattern_Large,4,1,5384541.0,5386152.0,1611.0
115,choice,choice,17,3.0,Pattern,1.0,15.62401587504428,Object_Sea_Solid_Large,0,0,5386412.0,5387057.0,645.0
115,choice,choice,17,3.0,Pattern,1.0,15.62401587504428,Object_Land_Pattern_Large,4,1,5387264.0,5387722.0,458.0
115,choice,choice,17,3.0,Pattern,1.0,15.62401587504428,Animal_Sea_Pattern_Large,1,1,5388132.0,5388337.0,205.0
115,choice,choice,17,3.0,Pattern,1.0,15.62401587504428,Object_Sea_Solid_Large,0,0,5388777.0,5389146.0,369.0
115,choice,choice,17,3.0,Pattern,1.0,15.62401587504428,Animal_Sea_Pattern_Large,1,1,5389182.0,5389702.0,520.0
115,choice,choice,17,3.0,Pattern,1.0,15.62401587504428,Animal_Land_Pattern_Small,2,1,5389968.0,5390724.0,756.0
115,choice,choice,18,3.0,Object,1.0,29.855264417012226,Object_Land_Pattern_Large,4,1,5395125.0,5396684.0,1559.0
115,choice,choice,18,3.0,Object,1.0,29.855264417012226,Animal_Sea_Solid_Small,5,0,5396719.0,5397890.0,1171.0
115,choice,choice,18,3.0,Object,1.0,29.855264417012226,Object_Land_Pattern_Large,4,1,5397916.0,5403111.0,5195.0
115,choice,choice,18,3.0,Object,1.0,29.855264417012226,Object_Sea_Solid_Large,0,1,5404117.0,5405577.0,1460.0
115,choice,choice,18,3.0,Object,1.0,29.855264417012226,Animal_Land_Pattern_Small,2,0,5405616.0,5407488.0,1872.0
115,choice,choice,18,3.0,Object,1.0,29.855264417012226,Object_Land_Solid_Small,3,1,5407861.0,5408263.0,402.0
115,choice,choice,18,3.0,Object,1.0,29.855264417012226,Animal_Land_Pattern_Small,2,0,5408277.0,5409291.0,1014.0
115,choice,choice,18,3.0,Object,1.0,29.855264417012226,Object_Land_Solid_Small,3,1,5409517.0,5411269.0,1752.0
115,choice,choice,18,3.0,Object,1.0,29.855264417012226,Animal_Land_Pattern_Small,2,0,5411501.0,5413227.0,1726.0
115,choice,choice,18,3.0,Object,1.0,29.855264417012226,Object_Sea_Solid_Large,0,1,5413710.0,5414404.0,694.0
115,choice,choice,18,3.0,Object,1.0,29.855264417012226,Animal_Sea_Solid_Small,5,0,5414438.0,5415322.0,884.0
115,choice,choice,18,3.0,Object,1.0,29.855264417012226,Animal_Sea_Pattern_Large,1,0,5415505.0,5416621.0,1116.0
115,choice,choice,18,3.0,Object,1.0,29.855264417012226,Object_Sea_Solid_Large,0,1,5416936.0,5417366.0,430.0
115,choice,choice,18,3.0,Object,1.0,29.855264417012226,Animal_Land_Pattern_Small,2,0,5417407.0,5418632.0,1225.0
115,choice,choice,18,3.0,Object,1.0,29.855264417012226,Object_Sea_Solid_Large,0,1,5418831.0,5419859.0,1028.0
115,choice,choice,18,3.0,Object,1.0,29.855264417012226,Animal_Land_Pattern_Small,2,0,5419914.0,5420342.0,428.0
115,choice,choice,18,3.0,Object,1.0,29.855264417012226,Object_Sea_Solid_Large,0,1,5420364.0,5422390.0,2026.0
115,choice,choice,18,3.0,Object,1.0,29.855264417012226,Animal_Land_Pattern_Small,2,0,5423561.0,5423799.0,238.0
115,choice,choice,18,3.0,Object,1.0,29.855264417012226,Object_Sea_Solid_Large,0,1,5423817.0,5424369.0,552.0
115,choice,choice,18,3.0,Object,1.0,29.855264417012226,Animal_Land_Pattern_Small,2,0,5424397.0,5424505.0,108.0
115,choice,choice,19,3.0,Solid,1.0,7.327364791999571,Object_Land_Pattern_Large,4,0,5429036.0,5429678.0,642.0
115,choice,choice,19,3.0,Solid,1.0,7.327364791999571,Object_Sea_Solid_Large,0,1,5430106.0,5430181.0,75.0
115,choice,choice,19,3.0,Solid,1.0,7.327364791999571,Object_Land_Pattern_Large,4,0,5430373.0,5430747.0,374.0
115,choice,choice,19,3.0,Solid,1.0,7.327364791999571,Animal_Sea_Solid_Small,5,1,5430783.0,5432328.0,1545.0
115,choice,choice,19,3.0,Solid,1.0,7.327364791999571,Object_Sea_Solid_Large,0,1,5432577.0,5434235.0,1658.0
115,choice,choice,19,3.0,Solid,1.0,7.327364791999571,Animal_Sea_Pattern_Large,1,0,5434582.0,5434838.0,256.0
115,choice,choice,19,3.0,Solid,1.0,7.327364791999571,Animal_Land_Pattern_Small,2,0,5434856.0,5435060.0,204.0
115,choice,choice,20,3.0,Animal,2.0,1.7428982499986887,Object_Sea_Solid_Large,0,0,5437957.0,5438121.0,164.0
115,choice,choice,20,3.0,Animal,2.0,1.7428982499986887,Object_Land_Pattern_Large,4,0,5438354.0,5438967.0,613.0
115,choice,choice,21,3.0,Small,2.0,7.290703292004764,Object_Land_Pattern_Large,4,0,5442913.0,5444398.0,1485.0
115,choice,choice,21,3.0,Small,2.0,7.290703292004764,Animal_Land_Pattern_Small,2,1,5444711.0,5444812.0,101.0
115,choice,choice,21,3.0,Small,2.0,7.290703292004764,Object_Sea_Solid_Large,0,0,5444990.0,5445433.0,443.0
115,choice,choice,21,3.0,Small,2.0,7.290703292004764,Animal_Land_Pattern_Small,2,1,5445471.0,5445784.0,313.0
115,choice,choice,21,3.0,Small,2.0,7.290703292004764,Object_Sea_Solid_Large,0,0,5445931.0,5447071.0,1140.0
115,choice,choice,21,3.0,Small,2.0,7.290703292004764,Animal_Land_Pattern_Small,2,1,5447109.0,5447444.0,335.0
115,choice,choice,21,3.0,Small,2.0,7.290703292004764,Object_Sea_Solid_Large,0,0,5447647.0,5448780.0,1133.0
115,choice,choice,21,3.0,Small,2.0,7.290703292004764,Animal_Land_Pattern_Small,2,1,5448798.0,5449223.0,425.0
115,choice,choice,21,3.0,Small,2.0,7.290703292004764,Object_Sea_Solid_Large,0,0,5449535.0,5449778.0,243.0
115,choice,choice,22,3.0,Land,2.0,4.336333584040403,Object_Land_Pattern_Large,4,1,5453771.0,5455165.0,1394.0
115,choice,choice,22,3.0,Land,2.0,4.336333584040403,Animal_Sea_Solid_Small,5,0,5455362.0,5456097.0,735.0
115,choice,choice,22,3.0,Land,2.0,4.336333584040403,Animal_Land_Pattern_Small,2,1,5457419.0,5457582.0,163.0
115,choice,choice,23,3.0,Large,1.0,2.684553208993748,Object_Sea_Solid_Large,0,1,5462024.0,5462297.0,273.0
115,choice,choice,23,3.0,Large,1.0,2.684553208993748,Object_Land_Pattern_Large,4,1,5462778.0,5462982.0,204.0
115,choice,choice,23,3.0,Large,1.0,2.684553208993748,Object_Sea_Solid_Large,0,1,5463009.0,5463653.0,644.0
115,choice,choice,25,4.0,Large,1.0,9.838919541914947,Object_Sea_Pattern_Small,0,0,5751067.0,5751273.0,206.0
115,choice,choice,25,4.0,Large,1.0,9.838919541914947,Animal_Land_Solid_Large,1,1,5754690.0,5756049.0,1359.0
115,choice,choice,25,4.0,Large,1.0,9.838919541914947,Object_Land_Pattern_Small,2,0,5756695.0,5757477.0,782.0
115,choice,choice,25,4.0,Large,1.0,9.838919541914947,Animal_Sea_Pattern_Small,3,0,5757686.0,5757918.0,232.0
115,choice,choice,25,4.0,Large,1.0,9.838919541914947,Animal_Sea_Solid_Large,4,1,5757967.0,5758192.0,225.0
115,choice,choice,25,4.0,Large,1.0,9.838919541914947,Object_Sea_Pattern_Small,0,0,5759230.0,5759857.0,627.0
115,choice,choice,25,4.0,Large,1.0,9.838919541914947,Animal_Sea_Pattern_Small,3,0,5760075.0,5760286.0,211.0
115,choice,choice,26,4.0,Pattern,2.0,1.800940915942192,Object_Land_Pattern_Small,2,1,5765190.0,5765587.0,397.0
115,choice,choice,27,4.0,Land,1.0,23.199404833023436,Object_Sea_Pattern_Small,0,0,5769049.0,5769267.0,218.0
115,choice,choice,27,4.0,Land,1.0,23.199404833023436,Animal_Land_Solid_Large,1,1,5769304.0,5769997.0,693.0
115,choice,choice,27,4.0,Land,1.0,23.199404833023436,Object_Land_Pattern_Small,2,1,5770246.0,5773124.0,2878.0
115,choice,choice,27,4.0,Land,1.0,23.199404833023436,Animal_Sea_Pattern_Small,3,0,5773376.0,5774119.0,743.0
115,choice,choice,27,4.0,Land,1.0,23.199404833023436,Animal_Sea_Solid_Large,4,0,5774138.0,5775653.0,1515.0
115,choice,choice,27,4.0,Land,1.0,23.199404833023436,Object_Land_Pattern_Small,2,1,5775892.0,5776473.0,581.0
115,choice,choice,27,4.0,Land,1.0,23.199404833023436,Animal_Sea_Solid_Large,4,0,5776522.0,5776613.0,91.0
115,choice,choice,27,4.0,Land,1.0,23.199404833023436,Object_Land_Pattern_Small,2,1,5776792.0,5778708.0,1916.0
115,choice,choice,27,4.0,Land,1.0,23.199404833023436,Object_Land_Solid_Large,5,1,5781454.0,5782138.0,684.0
115,choice,choice,27,4.0,Land,1.0,23.199404833023436,Object_Land_Pattern_Small,2,1,5782700.0,5783248.0,548.0
115,choice,choice,27,4.0,Land,1.0,23.199404833023436,Animal_Sea_Solid_Large,4,0,5784408.0,5784481.0,73.0
115,choice,choice,27,4.0,Land,1.0,23.199404833023436,Object_Land_Pattern_Small,2,1,5785260.0,5785821.0,561.0
115,choice,choice,27,4.0,Land,1.0,23.199404833023436,Object_Land_Solid_Large,5,1,5785882.0,5787087.0,1205.0
115,choice,choice,27,4.0,Land,1.0,23.199404833023436,Object_Land_Pattern_Small,2,1,5789364.0,5790726.0,1362.0
115,choice,choice,28,4.0,Sea,2.0,12.241688625072127,Object_Land_Pattern_Small,2,0,5796026.0,5796515.0,489.0
115,choice,choice,28,4.0,Sea,2.0,12.241688625072127,Object_Sea_Pattern_Small,0,1,5796546.0,5798483.0,1937.0
115,choice,choice,28,4.0,Sea,2.0,12.241688625072127,Object_Land_Pattern_Small,2,0,5798727.0,5804077.0,5350.0
115,choice,choice,28,4.0,Sea,2.0,12.241688625072127,Animal_Sea_Pattern_Small,3,1,5805987.0,5806432.0,445.0
115,choice,choice,29,4.0,Animal,1.0,6.217185499961488,Object_Sea_Pattern_Small,0,0,5809727.0,5810127.0,400.0
115,choice,choice,29,4.0,Animal,1.0,6.217185499961488,Animal_Land_Solid_Large,1,1,5810627.0,5810769.0,142.0
115,choice,choice,29,4.0,Animal,1.0,6.217185499961488,Object_Land_Pattern_Small,2,0,5810948.0,5811907.0,959.0
115,choice,choice,29,4.0,Animal,1.0,6.217185499961488,Animal_Sea_Pattern_Small,3,1,5812185.0,5812409.0,224.0
115,choice,choice,29,4.0,Animal,1.0,6.217185499961488,Object_Land_Pattern_Small,2,0,5812424.0,5813296.0,872.0
115,choice,choice,29,4.0,Animal,1.0,6.217185499961488,Animal_Land_Solid_Large,1,1,5813323.0,5814004.0,681.0
115,choice,choice,29,4.0,Animal,1.0,6.217185499961488,Object_Sea_Pattern_Small,0,0,5814227.0,5814638.0,411.0
115,choice,choice,29,4.0,Animal,1.0,6.217185499961488,Object_Land_Pattern_Small,2,0,5814682.0,5815172.0,490.0
115,choice,choice,30,4.0,Object,1.0,3.431454792036675,Object_Land_Pattern_Small,2,1,5818187.0,5820937.0,2750.0
115,choice,choice,31,4.0,Solid,1.0,1.7450309590203688,Object_Land_Pattern_Small,2,0,5824166.0,5824739.0,573.0
115,choice,choice,31,4.0,Solid,1.0,1.7450309590203688,Animal_Sea_Pattern_Small,3,0,5824768.0,5824961.0,193.0
115,choice,choice,31,4.0,Solid,1.0,1.7450309590203688,Object_Land_Pattern_Small,2,0,5824979.0,5825658.0,679.0
115,choice,choice,32,4.0,Small,2.0,4.27505850000307,Object_Land_Pattern_Small,2,1,5829402.0,5829768.0,366.0
115,choice,choice,32,4.0,Small,2.0,4.27505850000307,Animal_Sea_Pattern_Small,3,1,5829827.0,5830028.0,201.0
115,choice,choice,32,4.0,Small,2.0,4.27505850000307,Object_Land_Pattern_Small,2,1,5830219.0,5831372.0,1153.0
115,choice,choice,32,4.0,Small,2.0,4.27505850000307,Animal_Sea_Pattern_Small,3,1,5831415.0,5831608.0,193.0
115,choice,choice,32,4.0,Small,2.0,4.27505850000307,Object_Land_Pattern_Small,2,1,5831637.0,5832087.0,450.0
115,choice,choice,32,4.0,Small,2.0,4.27505850000307,Object_Sea_Pattern_Small,0,1,5832129.0,5832325.0,196.0
115,choice,choice,32,4.0,Small,2.0,4.27505850000307,Object_Land_Pattern_Small,2,1,5832507.0,5833230.0,723.0
115,choice,choice,33,5.0,Small,1.0,8.862919249921106,Animal_Land_Pattern_Small,0,1,6116766.0,6117026.0,260.0
115,choice,choice,33,5.0,Small,1.0,8.862919249921106,Object_Sea_Solid_Large,1,0,6117059.0,6117387.0,328.0
115,choice,choice,33,5.0,Small,1.0,8.862919249921106,Animal_Land_Pattern_Large,2,0,6117620.0,6119846.0,2226.0
115,choice,choice,33,5.0,Small,1.0,8.862919249921106,Animal_Land_Pattern_Small,0,1,6120238.0,6120446.0,208.0
115,choice,choice,33,5.0,Small,1.0,8.862919249921106,Object_Sea_Solid_Large,1,0,6120461.0,6120786.0,325.0
115,choice,choice,33,5.0,Small,1.0,8.862919249921106,Animal_Land_Pattern_Small,0,1,6120828.0,6123155.0,2327.0
115,choice,choice,33,5.0,Small,1.0,8.862919249921106,Animal_Land_Solid_Small,3,1,6123733.0,6124208.0,475.0
115,choice,choice,34,5.0,Object,2.0,5.273671415983699,Object_Sea_Solid_Large,1,1,6129213.0,6129888.0,675.0
115,choice,choice,34,5.0,Object,2.0,5.273671415983699,Animal_Land_Pattern_Small,0,0,6130414.0,6131566.0,1152.0
115,choice,choice,34,5.0,Object,2.0,5.273671415983699,Animal_Land_Pattern_Large,2,0,6131620.0,6132321.0,701.0
115,choice,choice,34,5.0,Object,2.0,5.273671415983699,Object_Sea_Solid_Large,1,1,6132354.0,6132954.0,600.0
115,choice,choice,35,5.0,Sea,2.0,17.14661041693762,Object_Sea_Solid_Large,1,1,6137253.0,6138021.0,768.0
115,choice,choice,35,5.0,Sea,2.0,17.14661041693762,Animal_Land_Pattern_Small,0,0,6138201.0,6138820.0,619.0
115,choice,choice,35,5.0,Sea,2.0,17.14661041693762,Object_Sea_Solid_Small,4,1,6138852.0,6140094.0,1242.0
115,choice,choice,35,5.0,Sea,2.0,17.14661041693762,Animal_Land_Pattern_Small,0,0,6140116.0,6140329.0,213.0
115,choice,choice,35,5.0,Sea,2.0,17.14661041693762,Animal_Land_Pattern_Large,2,0,6140613.0,6142472.0,1859.0
115,choice,choice,35,5.0,Sea,2.0,17.14661041693762,Object_Sea_Pattern_Large,5,1,6142528.0,6145608.0,3080.0
115,choice,choice,35,5.0,Sea,2.0,17.14661041693762,Animal_Land_Solid_Small,3,0,6149136.0,6149440.0,304.0
115,choice,choice,35,5.0,Sea,2.0,17.14661041693762,Animal_Land_Pattern_Small,0,0,6149668.0,6152389.0,2721.0
115,choice,choice,35,5.0,Sea,2.0,17.14661041693762,Object_Sea_Solid_Small,4,1,6152474.0,6152946.0,472.0
115,choice,choice,35,5.0,Sea,2.0,17.14661041693762,Object_Sea_Solid_Large,1,1,6153163.0,6153848.0,685.0
115,choice,choice,36,5.0,Land,1.0,2.352703374926932,Object_Sea_Solid_Large,1,0,6157989.0,6158491.0,502.0
115,choice,choice,36,5.0,Land,1.0,2.352703374926932,Animal_Land_Pattern_Small,0,1,6158678.0,6159789.0,1111.0
115,choice,choice,37,5.0,Solid,1.0,6.897697833017446,Animal_Land_Pattern_Large,2,0,6162813.0,6164595.0,1782.0
115,choice,choice,37,5.0,Solid,1.0,6.897697833017446,Object_Sea_Solid_Large,1,1,6164810.0,6166301.0,1491.0
115,choice,choice,37,5.0,Solid,1.0,6.897697833017446,Animal_Land_Pattern_Small,0,0,6167672.0,6168272.0,600.0
115,choice,choice,37,5.0,Solid,1.0,6.897697833017446,Object_Sea_Solid_Large,1,1,6168294.0,6169206.0,912.0
115,choice,choice,38,5.0,Large,2.0,1.7090201659593731,Animal_Land_Pattern_Large,2,1,6172633.0,6172708.0,75.0
115,choice,choice,38,5.0,Large,2.0,1.7090201659593731,Object_Sea_Solid_Large,1,1,6172914.0,6173199.0,285.0
115,choice,choice,39,5.0,Pattern,2.0,3.0334230840671808,Object_Sea_Solid_Large,1,0,6176925.0,6177340.0,415.0
115,choice,choice,39,5.0,Pattern,2.0,3.0334230840671808,Animal_Land_Pattern_Small,0,1,6177537.0,6179242.0,1705.0
115,choice,choice,40,5.0,Animal,2.0,4.326878125080839,Object_Sea_Solid_Large,1,0,6183219.0,6183517.0,298.0
115,choice,choice,40,5.0,Animal,2.0,4.326878125080839,Object_Sea_Pattern_Large,5,0,6183573.0,6183677.0,104.0
115,choice,choice,40,5.0,Animal,2.0,4.326878125080839,Object_Sea_Solid_Large,1,0,6184240.0,6184571.0,331.0
115,choice,choice,40,5.0,Animal,2.0,4.326878125080839,Animal_Land_Pattern_Small,0,1,6184594.0,6185906.0,1312.0
115,choice,choice,41,6.0,Animal,1.0,1.6486132920254022,Object_Sea_Solid_Large,0,0,6506686.0,6507448.0,762.0
115,choice,choice,42,6.0,Small,2.0,6.277220999938436,Object_Sea_Solid_Large,0,0,6512250.0,6517434.0,5184.0
115,choice,choice,46,6.0,Land,1.0,3.3806305000325665,Animal_Sea_Solid_Small,1,0,6534151.0,6534247.0,96.0
115,choice,choice,46,6.0,Land,1.0,3.3806305000325665,Animal_Sea_Pattern_Large,2,0,6534846.0,6534975.0,129.0
115,choice,choice,46,6.0,Land,1.0,3.3806305000325665,Object_Sea_Solid_Large,0,0,6535213.0,6535376.0,163.0
115,choice,choice,49,7.0,Object,1.0,12.153263207990676,Object_Land_Pattern_Small,0,1,6848381.0,6849451.0,1070.0
115,choice,choice,49,7.0,Object,1.0,12.153263207990676,Animal_Sea_Pattern_Small,1,0,6849515.0,6849773.0,258.0
115,choice,choice,49,7.0,Object,1.0,12.153263207990676,Object_Land_Solid_Large,2,1,6850306.0,6850834.0,528.0
115,choice,choice,49,7.0,Object,1.0,12.153263207990676,Object_Land_Pattern_Small,0,1,6851047.0,6851846.0,799.0
115,choice,choice,49,7.0,Object,1.0,12.153263207990676,Animal_Sea_Pattern_Small,1,0,6851883.0,6852448.0,565.0
115,choice,choice,49,7.0,Object,1.0,12.153263207990676,Object_Land_Solid_Large,2,1,6852799.0,6853226.0,427.0
115,choice,choice,49,7.0,Object,1.0,12.153263207990676,Object_Land_Pattern_Small,0,1,6853269.0,6853943.0,674.0
115,choice,choice,49,7.0,Object,1.0,12.153263207990676,Object_Sea_Pattern_Small,3,1,6854133.0,6855373.0,1240.0
115,choice,choice,49,7.0,Object,1.0,12.153263207990676,Object_Land_Pattern_Small,0,1,6855578.0,6856752.0,1174.0
115,choice,choice,49,7.0,Object,1.0,12.153263207990676,Object_Sea_Pattern_Small,3,1,6857015.0,6858119.0,1104.0
115,choice,choice,50,7.0,Animal,2.0,4.957723333034664,Animal_Sea_Pattern_Small,1,1,6862529.0,6863381.0,852.0
115,choice,choice,50,7.0,Animal,2.0,4.957723333034664,Animal_Sea_Solid_Large,4,1,6863442.0,6863750.0,308.0
115,choice,choice,50,7.0,Animal,2.0,4.957723333034664,Object_Land_Solid_Large,2,0,6863770.0,6864148.0,378.0
115,choice,choice,50,7.0,Animal,2.0,4.957723333034664,Object_Land_Pattern_Small,0,0,6864303.0,6865581.0,1278.0
115,choice,choice,50,7.0,Animal,2.0,4.957723333034664,Object_Sea_Pattern_Small,3,0,6865797.0,6866379.0,582.0
115,choice,choice,50,7.0,Animal,2.0,4.957723333034664,Animal_Land_Solid_Large,5,1,6866410.0,6866630.0,220.0
115,choice,choice,50,7.0,Animal,2.0,4.957723333034664,Object_Sea_Pattern_Small,3,0,6866650.0,6866972.0,322.0
115,choice,choice,51,7.0,Large,1.0,20.385530209052376,Object_Land_Pattern_Small,0,0,6870114.0,6871309.0,1195.0
115,choice,choice,51,7.0,Large,1.0,20.385530209052376,Animal_Sea_Pattern_Small,1,0,6871393.0,6871743.0,350.0
115,choice,choice,51,7.0,Large,1.0,20.385530209052376,Animal_Sea_Solid_Large,4,1,6871940.0,6873463.0,1523.0
115,choice,choice,51,7.0,Large,1.0,20.385530209052376,Object_Land_Solid_Large,2,1,6873496.0,6875171.0,1675.0
115,choice,choice,51,7.0,Large,1.0,20.385530209052376,Object_Land_Pattern_Small,0,0,6876020.0,6876611.0,591.0
115,choice,choice,51,7.0,Large,1.0,20.385530209052376,Animal_Land_Solid_Large,5,1,6876689.0,6877040.0,351.0
115,choice,choice,51,7.0,Large,1.0,20.385530209052376,Object_Sea_Pattern_Small,3,0,6877075.0,6878151.0,1076.0
115,choice,choice,51,7.0,Large,1.0,20.385530209052376,Object_Land_Pattern_Small,0,0,6878399.0,6882407.0,4008.0
115,choice,choice,51,7.0,Large,1.0,20.385530209052376,Object_Sea_Pattern_Small,3,0,6883621.0,6883940.0,319.0
115,choice,choice,51,7.0,Large,1.0,20.385530209052376,Animal_Land_Solid_Large,5,1,6883959.0,6885020.0,1061.0
115,choice,choice,51,7.0,Large,1.0,20.385530209052376,Object_Sea_Pattern_Small,3,0,6885039.0,6886547.0,1508.0
115,choice,choice,51,7.0,Large,1.0,20.385530209052376,Object_Land_Solid_Large,2,1,6888582.0,6888616.0,34.0
115,choice,choice,51,7.0,Large,1.0,20.385530209052376,Animal_Sea_Solid_Large,4,1,6888803.0,6889225.0,422.0
115,choice,choice,52,7.0,Small,2.0,2.9089716660091653,Animal_Sea_Pattern_Small,1,1,6894064.0,6894407.0,343.0
115,choice,choice,52,7.0,Small,2.0,2.9089716660091653,Animal_Land_Solid_Large,5,0,6894734.0,6894985.0,251.0
115,choice,choice,52,7.0,Small,2.0,2.9089716660091653,Object_Land_Pattern_Small,0,1,6895006.0,6895127.0,121.0
115,choice,choice,53,7.0,Sea,1.0,5.440118083031848,Object_Land_Pattern_Small,0,0,6900630.0,6900835.0,205.0
115,choice,choice,53,7.0,Sea,1.0,5.440118083031848,Animal_Sea_Pattern_Small,1,1,6901406.0,6901966.0,560.0
115,choice,choice,53,7.0,Sea,1.0,5.440118083031848,Object_Land_Solid_Large,2,0,6902196.0,6902802.0,606.0
115,choice,choice,53,7.0,Sea,1.0,5.440118083031848,Object_Land_Pattern_Small,0,0,6903273.0,6903986.0,713.0
115,choice,choice,53,7.0,Sea,1.0,5.440118083031848,Object_Sea_Pattern_Small,3,1,6904189.0,6904763.0,574.0
115,choice,choice,53,7.0,Sea,1.0,5.440118083031848,Object_Land_Pattern_Small,0,0,6904795.0,6905002.0,207.0
115,choice,choice,54,7.0,Pattern,1.0,7.17319987504743,Animal_Sea_Pattern_Small,1,1,6908309.0,6909242.0,933.0
115,choice,choice,54,7.0,Pattern,1.0,7.17319987504743,Object_Land_Solid_Large,2,0,6909710.0,6910735.0,1025.0
115,choice,choice,54,7.0,Pattern,1.0,7.17319987504743,Animal_Sea_Solid_Large,4,0,6910968.0,6911083.0,115.0
115,choice,choice,54,7.0,Pattern,1.0,7.17319987504743,Object_Land_Pattern_Small,0,1,6911100.0,6912424.0,1324.0
115,choice,choice,54,7.0,Pattern,1.0,7.17319987504743,Object_Sea_Pattern_Small,3,1,6912693.0,6915261.0,2568.0
115,choice,choice,55,7.0,Solid,1.0,20.460362375015393,Object_Land_Pattern_Small,0,0,6918081.0,6918187.0,106.0
115,choice,choice,55,7.0,Solid,1.0,20.460362375015393,Animal_Sea_Pattern_Small,1,0,6918408.0,6918744.0,336.0
115,choice,choice,55,7.0,Solid,1.0,20.460362375015393,Object_Land_Pattern_Small,0,0,6918778.0,6919202.0,424.0
115,choice,choice,55,7.0,Solid,1.0,20.460362375015393,Animal_Sea_Pattern_Small,1,0,6919247.0,6922898.0,3651.0
115,choice,choice,55,7.0,Solid,1.0,20.460362375015393,Animal_Sea_Solid_Large,4,1,6923400.0,6924069.0,669.0
115,choice,choice,55,7.0,Solid,1.0,20.460362375015393,Animal_Sea_Pattern_Small,1,0,6924085.0,6925363.0,1278.0
115,choice,choice,55,7.0,Solid,1.0,20.460362375015393,Animal_Land_Solid_Large,5,1,6926309.0,6926485.0,176.0
115,choice,choice,55,7.0,Solid,1.0,20.460362375015393,Object_Sea_Pattern_Small,3,0,6926675.0,6928371.0,1696.0
115,choice,choice,55,7.0,Solid,1.0,20.460362375015393,Object_Land_Pattern_Small,0,0,6928384.0,6930078.0,1694.0
115,choice,choice,55,7.0,Solid,1.0,20.460362375015393,Animal_Sea_Pattern_Small,1,0,6930511.0,6930649.0,138.0
115,choice,choice,55,7.0,Solid,1.0,20.460362375015393,Object_Land_Pattern_Small,0,0,6930876.0,6931080.0,204.0
115,choice,choice,55,7.0,Solid,1.0,20.460362375015393,Animal_Sea_Pattern_Small,1,0,6931385.0,6932713.0,1328.0
115,choice,choice,55,7.0,Solid,1.0,20.460362375015393,Animal_Sea_Solid_Large,4,1,6932982.0,6933398.0,416.0
115,choice,choice,55,7.0,Solid,1.0,20.460362375015393,Object_Land_Solid_Large,2,1,6933423.0,6934790.0,1367.0
115,choice,choice,55,7.0,Solid,1.0,20.460362375015393,Animal_Sea_Solid_Large,4,1,6934850.0,6935140.0,290.0
115,choice,choice,55,7.0,Solid,1.0,20.460362375015393,Object_Sea_Pattern_Small,3,0,6935336.0,6936262.0,926.0
115,choice,choice,55,7.0,Solid,1.0,20.460362375015393,Animal_Land_Solid_Large,5,1,6936282.0,6936619.0,337.0
115,choice,choice,55,7.0,Solid,1.0,20.460362375015393,Object_Sea_Pattern_Small,3,0,6936656.0,6937242.0,586.0
115,choice,choice,55,7.0,Solid,1.0,20.460362375015393,Animal_Land_Solid_Large,5,1,6937431.0,6937696.0,265.0
115,choice,choice,56,7.0,Land,1.0,6.240918874973431,Animal_Sea_Pattern_Small,1,0,6942239.0,6942469.0,230.0
115,choice,choice,56,7.0,Land,1.0,6.240918874973431,Object_Land_Pattern_Small,0,1,6942500.0,6942737.0,237.0
115,choice,choice,56,7.0,Land,1.0,6.240918874973431,Animal_Sea_Pattern_Small,1,0,6942762.0,6943366.0,604.0
115,choice,choice,56,7.0,Land,1.0,6.240918874973431,Object_Sea_Pattern_Small,3,0,6944223.0,6944395.0,172.0
115,choice,choice,56,7.0,Land,1.0,6.240918874973431,Object_Land_Pattern_Small,0,1,6944417.0,6945269.0,852.0
115,choice,choice,56,7.0,Land,1.0,6.240918874973431,Object_Sea_Pattern_Small,3,0,6945295.0,6945699.0,404.0
115,choice,choice,56,7.0,Land,1.0,6.240918874973431,Animal_Sea_Solid_Large,4,0,6946364.0,6946633.0,269.0
115,choice,choice,56,7.0,Land,1.0,6.240918874973431,Object_Land_Solid_Large,2,1,6946665.0,6946854.0,189.0
115,choice,choice,56,7.0,Land,1.0,6.240918874973431,Animal_Land_Solid_Large,5,1,6947094.0,6947530.0,436.0
