phase,event,trial_number,eyetracker_onset,eyetracker_offset,fix_start,fix_end,fix_duration_full,fix_duration_bounded,fix_x,fix_y,roi_x,roi_y,roi_content,onset,offset,game,image,outcome,choice,correct,rt,letter,match,response,option,true_value,true_position,recalled_position,Unnamed: 18
encoding,fixation,1,4273559,4275075,4273572.0,4273822.0,251.0,251.0,1848.6,957.5,1591.0,1269.0,Animal_Sea_Pattern_Small,9.933437958010472,11.448791290982626,1.0,Animal_Land_Solid_Large,-2.0,,,,,,,,,,,
encoding,fixation,1,4273559,4275075,4273852.0,4274020.0,169.0,169.0,1932.2,1109.3,1920.0,1080.0,fixation,9.933437958010472,11.448791290982626,1.0,Animal_Land_Solid_Large,-2.0,,,,,,,,,,,
encoding,fixation,1,4273559,4275075,4274030.0,4275293.0,1264.0,1045.0,1923.7,1069.6,1920.0,1080.0,fixation,9.933437958010472,11.448791290982626,1.0,Animal_Land_Solid_Large,-2.0,,,,,,,,,,,
encoding,image,1,4275075,4276093,4275342.0,4276593.0,1252.0,751.0,2256.4,1301.2,2249.0,891.0,Animal_Land_Solid_Large,11.448948208009824,12.467672124970704,1.0,Animal_Land_Solid_Large,-2.0,,,,,,,,,,,
encoding,value,1,4276093,4282110,4276793.0,4279277.0,2485.0,2485.0,2225.1,1183.9,2249.0,891.0,Animal_Land_Solid_Large,12.4677753750002,18.484122875030152,1.0,Animal_Land_Solid_Large,-2.0,,,,,,,,,,,
encoding,value,1,4276093,4282110,4279307.0,4279964.0,658.0,658.0,2246.6,1299.0,2249.0,891.0,Animal_Land_Solid_Large,12.4677753750002,18.484122875030152,1.0,Animal_Land_Solid_Large,-2.0,,,,,,,,,,,
encoding,value,1,4276093,4282110,4280117.0,4280479.0,363.0,363.0,2254.6,1269.2,2249.0,891.0,Animal_Land_Solid_Large,12.4677753750002,18.484122875030152,1.0,Animal_Land_Solid_Large,-2.0,,,,,,,,,,,
encoding,value,1,4276093,4282110,4280500.0,4280736.0,237.0,237.0,2244.6,1185.1,2249.0,891.0,Animal_Land_Solid_Large,12.4677753750002,18.484122875030152,1.0,Animal_Land_Solid_Large,-2.0,,,,,,,,,,,
encoding,value,1,4276093,4282110,4280758.0,4282291.0,1534.0,1352.0,2245.5,1309.6,2249.0,891.0,Animal_Land_Solid_Large,12.4677753750002,18.484122875030152,1.0,Animal_Land_Solid_Large,-2.0,,,,,,,,,,,
encoding,attention,1,4282110,4285132,4282316.0,4282531.0,216.0,216.0,2220.2,1179.7,2249.0,891.0,Animal_Land_Solid_Large,18.48427662497852,21.50563799997326,1.0,Animal_Land_Solid_Large,-2.0,-2.0,1.0,1.1712633329443634,,,,,,,,
encoding,attention,1,4282110,4285132,4282545.0,4282913.0,369.0,369.0,2272.5,1162.8,2249.0,891.0,Animal_Land_Solid_Large,18.48427662497852,21.50563799997326,1.0,Animal_Land_Solid_Large,-2.0,-2.0,1.0,1.1712633329443634,,,,,,,,
encoding,fixation,2,4285132,4286638,4285348.0,4285499.0,152.0,152.0,1888.1,1092.9,1920.0,1080.0,fixation,21.50578445801511,23.011653708061203,1.0,Animal_Sea_Solid_Large,7.0,,,,,,,,,,,
encoding,fixation,2,4285132,4286638,4285673.0,4286806.0,1134.0,965.0,1883.7,1084.9,1920.0,1080.0,fixation,21.50578445801511,23.011653708061203,1.0,Animal_Sea_Solid_Large,7.0,,,,,,,,,,,
encoding,image,2,4286638,4287650,4286856.0,4287588.0,733.0,733.0,1889.7,739.8,1920.0,1460.0,Animal_Sea_Solid_Large,23.011751750018448,24.023545583011582,1.0,Animal_Sea_Solid_Large,7.0,,,,,,,,,,,
encoding,value,2,4287650,4293662,4287759.0,4287958.0,200.0,200.0,1890.1,746.0,1920.0,1460.0,Animal_Sea_Solid_Large,24.023670708062127,30.0356215829961,1.0,Animal_Sea_Solid_Large,7.0,,,,,,,,,,,
encoding,value,2,4287650,4293662,4287992.0,4288817.0,826.0,826.0,1900.8,617.8,1920.0,1460.0,Animal_Sea_Solid_Large,24.023670708062127,30.0356215829961,1.0,Animal_Sea_Solid_Large,7.0,,,,,,,,,,,
encoding,value,2,4287650,4293662,4288840.0,4289912.0,1073.0,1073.0,1895.2,737.8,1920.0,1460.0,Animal_Sea_Solid_Large,24.023670708062127,30.0356215829961,1.0,Animal_Sea_Solid_Large,7.0,,,,,,,,,,,
encoding,value,2,4287650,4293662,4290094.0,4291037.0,944.0,944.0,1882.7,717.2,1920.0,1460.0,Animal_Sea_Solid_Large,24.023670708062127,30.0356215829961,1.0,Animal_Sea_Solid_Large,7.0,,,,,,,,,,,
encoding,value,2,4287650,4293662,4291046.0,4291546.0,501.0,501.0,1894.5,746.0999999999999,1920.0,1460.0,Animal_Sea_Solid_Large,24.023670708062127,30.0356215829961,1.0,Animal_Sea_Solid_Large,7.0,,,,,,,,,,,
encoding,value,2,4287650,4293662,4291576.0,4294078.0,2503.0,2086.0,1883.6,618.4000000000001,1920.0,1460.0,Animal_Sea_Solid_Large,24.023670708062127,30.0356215829961,1.0,Animal_Sea_Solid_Large,7.0,,,,,,,,,,,
encoding,attention,2,4293662,4296680,4294087.0,4295707.0,1621.0,1621.0,1937.5,611.5999999999999,1920.0,1460.0,Animal_Sea_Solid_Large,30.035740875056945,33.05309408297762,1.0,Animal_Sea_Solid_Large,7.0,7.0,1.0,0.7572207499761134,,,,,,,,
encoding,attention,2,4293662,4296680,4295728.0,4295878.0,151.0,151.0,1915.7,679.3,1920.0,1460.0,Animal_Sea_Solid_Large,30.035740875056945,33.05309408297762,1.0,Animal_Sea_Solid_Large,7.0,7.0,1.0,0.7572207499761134,,,,,,,,
encoding,fixation,3,4296680,4298188,4296950.0,4297050.0,101.0,101.0,1890.1,1143.4,1920.0,700.0,Object_Sea_Pattern_Small,33.05328437499702,34.56128362508025,1.0,Object_Land_Pattern_Small,-9.0,,,,,,,,,,,
encoding,fixation,3,4296680,4298188,4297072.0,4297251.0,180.0,180.0,1896.0,1078.3,1920.0,1080.0,fixation,33.05328437499702,34.56128362508025,1.0,Object_Land_Pattern_Small,-9.0,,,,,,,,,,,
encoding,fixation,3,4296680,4298188,4297425.0,4298357.0,933.0,763.0,1879.6,1086.0,1920.0,1080.0,fixation,33.05328437499702,34.56128362508025,1.0,Object_Land_Pattern_Small,-9.0,,,,,,,,,,,
encoding,image,3,4298188,4299199,4298392.0,4298746.0,355.0,355.0,1571.0,1288.3,1591.0,891.0,Object_Land_Pattern_Small,34.56141658301931,35.57270137500018,1.0,Object_Land_Pattern_Small,-9.0,,,,,,,,,,,
encoding,image,3,4298188,4299199,4298754.0,4299006.0,253.0,253.0,1560.5,1268.8,1591.0,891.0,Object_Land_Pattern_Small,34.56141658301931,35.57270137500018,1.0,Object_Land_Pattern_Small,-9.0,,,,,,,,,,,
encoding,image,3,4298188,4299199,4299165.0,4299528.0,364.0,34.0,1536.8,1309.8,1591.0,891.0,Object_Land_Pattern_Small,34.56141658301931,35.57270137500018,1.0,Object_Land_Pattern_Small,-9.0,,,,,,,,,,,
encoding,value,3,4299200,4305212,4299536.0,4299732.0,197.0,197.0,1563.4,1285.0,1591.0,891.0,Object_Land_Pattern_Small,35.572867208044045,41.58524058305193,1.0,Object_Land_Pattern_Small,-9.0,,,,,,,,,,,
encoding,value,3,4299200,4305212,4299751.0,4299969.0,219.0,219.0,1573.7,1193.2,1591.0,891.0,Object_Land_Pattern_Small,35.572867208044045,41.58524058305193,1.0,Object_Land_Pattern_Small,-9.0,,,,,,,,,,,
encoding,value,3,4299200,4305212,4299989.0,4300230.0,242.0,242.0,1567.3,1289.2,1591.0,891.0,Object_Land_Pattern_Small,35.572867208044045,41.58524058305193,1.0,Object_Land_Pattern_Small,-9.0,,,,,,,,,,,
encoding,value,3,4299200,4305212,4300267.0,4302241.0,1975.0,1975.0,1576.2,1162.5,1591.0,891.0,Object_Land_Pattern_Small,35.572867208044045,41.58524058305193,1.0,Object_Land_Pattern_Small,-9.0,,,,,,,,,,,
encoding,value,3,4299200,4305212,4302260.0,4302625.0,366.0,366.0,1559.6,1248.7,1591.0,891.0,Object_Land_Pattern_Small,35.572867208044045,41.58524058305193,1.0,Object_Land_Pattern_Small,-9.0,,,,,,,,,,,
encoding,value,3,4299200,4305212,4302633.0,4303668.0,1036.0,1036.0,1571.7,1280.2,1591.0,891.0,Object_Land_Pattern_Small,35.572867208044045,41.58524058305193,1.0,Object_Land_Pattern_Small,-9.0,,,,,,,,,,,
encoding,value,3,4299200,4305212,4303689.0,4304578.0,890.0,890.0,1573.3,1148.6,1591.0,891.0,Object_Land_Pattern_Small,35.572867208044045,41.58524058305193,1.0,Object_Land_Pattern_Small,-9.0,,,,,,,,,,,
encoding,value,3,4299200,4305212,4304597.0,4304929.0,333.0,333.0,1568.6,1231.0,1591.0,891.0,Object_Land_Pattern_Small,35.572867208044045,41.58524058305193,1.0,Object_Land_Pattern_Small,-9.0,,,,,,,,,,,
encoding,value,3,4299200,4305212,4304952.0,4305683.0,732.0,260.0,1572.2,1140.4,1591.0,891.0,Object_Land_Pattern_Small,35.572867208044045,41.58524058305193,1.0,Object_Land_Pattern_Small,-9.0,,,,,,,,,,,
encoding,attention,3,4305212,4308230,4305700.0,4306286.0,587.0,587.0,1547.0,1147.8,1591.0,891.0,Object_Land_Pattern_Small,41.58534995804075,44.60260354098864,1.0,Object_Land_Pattern_Small,-9.0,-9.0,1.0,0.7128256249707192,,,,,,,,
encoding,attention,3,4305212,4308230,4306477.0,4306731.0,255.0,255.0,1563.4,1227.2,1591.0,891.0,Object_Land_Pattern_Small,41.58534995804075,44.60260354098864,1.0,Object_Land_Pattern_Small,-9.0,-9.0,1.0,0.7128256249707192,,,,,,,,
encoding,attention,3,4305212,4308230,4306747.0,4307666.0,920.0,920.0,1631.0,1173.2,1591.0,891.0,Object_Land_Pattern_Small,41.58534995804075,44.60260354098864,1.0,Object_Land_Pattern_Small,-9.0,-9.0,1.0,0.7128256249707192,,,,,,,,
encoding,attention,3,4305212,4308230,4307686.0,4307974.0,289.0,289.0,1570.9,1176.5,1591.0,891.0,Object_Land_Pattern_Small,41.58534995804075,44.60260354098864,1.0,Object_Land_Pattern_Small,-9.0,-9.0,1.0,0.7128256249707192,,,,,,,,
encoding,fixation,4,4308230,4309488,4308476.0,4308682.0,207.0,207.0,1895.3,1066.2,1920.0,1080.0,fixation,44.60277216602117,45.86079787497874,1.0,Object_Land_Solid_Large,9.0,,,,,,,,,,,
encoding,fixation,4,4308230,4309488,4308826.0,4309114.0,289.0,289.0,1898.3,1091.2,1920.0,1080.0,fixation,44.60277216602117,45.86079787497874,1.0,Object_Land_Solid_Large,9.0,,,,,,,,,,,
encoding,fixation,4,4308230,4309488,4309133.0,4309721.0,589.0,355.0,1879.6,1068.5,1920.0,1080.0,fixation,44.60277216602117,45.86079787497874,1.0,Object_Land_Solid_Large,9.0,,,,,,,,,,,
encoding,image,4,4309488,4310499,4309769.0,4310517.0,749.0,730.0,2202.7,883.5999999999999,2249.0,1269.0,Object_Land_Solid_Large,45.8609319999814,46.87146020797081,1.0,Object_Land_Solid_Large,9.0,,,,,,,,,,,
encoding,value,4,4310499,4316510,4310663.0,4312342.0,1680.0,1680.0,2214.5,889.5,2249.0,1269.0,Object_Land_Solid_Large,46.871572708012536,52.882074791006744,1.0,Object_Land_Solid_Large,9.0,,,,,,,,,,,
encoding,value,4,4310499,4316510,4312364.0,4316429.0,4066.0,4066.0,2256.1,793.2,2249.0,1269.0,Object_Land_Solid_Large,46.871572708012536,52.882074791006744,1.0,Object_Land_Solid_Large,9.0,,,,,,,,,,,
encoding,attention,4,4316510,4319528,4316603.0,4316835.0,233.0,233.0,2213.6,858.7,2249.0,1269.0,Object_Land_Solid_Large,52.88219245802611,55.89994650008157,1.0,Object_Land_Solid_Large,9.0,9.0,1.0,0.7274740419816226,,,,,,,,
encoding,attention,4,4316510,4319528,4316859.0,4318877.0,2019.0,2019.0,2274.2,792.9000000000001,2249.0,1269.0,Object_Land_Solid_Large,52.88219245802611,55.89994650008157,1.0,Object_Land_Solid_Large,9.0,9.0,1.0,0.7274740419816226,,,,,,,,
encoding,attention,4,4316510,4319528,4318894.0,4319145.0,252.0,252.0,2205.3,895.3,2249.0,1269.0,Object_Land_Solid_Large,52.88219245802611,55.89994650008157,1.0,Object_Land_Solid_Large,9.0,9.0,1.0,0.7274740419816226,,,,,,,,
encoding,fixation,5,4319528,4321033,4319730.0,4319926.0,197.0,197.0,1913.4,1078.5,1920.0,1080.0,fixation,55.90008937497623,57.40536958305165,1.0,Object_Sea_Pattern_Small,9.0,,,,,,,,,,,
encoding,fixation,5,4319528,4321033,4319942.0,4321227.0,1286.0,1091.0,1895.4,1089.0,1920.0,1080.0,fixation,55.90008937497623,57.40536958305165,1.0,Object_Sea_Pattern_Small,9.0,,,,,,,,,,,
encoding,image,5,4321033,4322044,4321291.0,4321394.0,104.0,104.0,1890.2,1563.2,1920.0,700.0,Object_Sea_Pattern_Small,57.405476791085675,58.416597291012295,1.0,Object_Sea_Pattern_Small,9.0,,,,,,,,,,,
encoding,image,5,4321033,4322044,4321414.0,4321696.0,283.0,283.0,1888.2,1491.6,1920.0,700.0,Object_Sea_Pattern_Small,57.405476791085675,58.416597291012295,1.0,Object_Sea_Pattern_Small,9.0,,,,,,,,,,,
encoding,image,5,4321033,4322044,4321872.0,4322218.0,347.0,172.0,1880.0,1518.9,1920.0,700.0,Object_Sea_Pattern_Small,57.405476791085675,58.416597291012295,1.0,Object_Sea_Pattern_Small,9.0,,,,,,,,,,,
encoding,value,5,4322045,4328056,4322234.0,4322393.0,160.0,160.0,1882.7,1410.8,1920.0,700.0,Object_Sea_Pattern_Small,58.41677495802287,64.42757250007708,1.0,Object_Sea_Pattern_Small,9.0,,,,,,,,,,,
encoding,value,5,4322045,4328056,4322404.0,4323593.0,1190.0,1190.0,1896.9,1382.5,1920.0,700.0,Object_Sea_Pattern_Small,58.41677495802287,64.42757250007708,1.0,Object_Sea_Pattern_Small,9.0,,,,,,,,,,,
encoding,value,5,4322045,4328056,4323751.0,4328475.0,4725.0,4305.0,1868.8,1379.5,1920.0,700.0,Object_Sea_Pattern_Small,58.41677495802287,64.42757250007708,1.0,Object_Sea_Pattern_Small,9.0,,,,,,,,,,,
encoding,attention,5,4328056,4331126,,,,,,,,,none,64.42772820801474,67.49781270802487,1.0,Object_Sea_Pattern_Small,9.0,9.0,1.0,0.9846652500564232,,,,,,,,
encoding,fixation,6,4331126,4332632,4331380.0,4331465.0,86.0,86.0,1855.1,1019.0999999999999,1591.0,1269.0,Animal_Sea_Pattern_Small,67.49795016599819,69.0035323749762,1.0,Animal_Sea_Pattern_Small,-1.0,,,,,,,,,,,
encoding,fixation,6,4331126,4332632,4331478.0,4332875.0,1398.0,1154.0,1888.4,1075.9,1920.0,1080.0,fixation,67.49795016599819,69.0035323749762,1.0,Animal_Sea_Pattern_Small,-1.0,,,,,,,,,,,
encoding,image,6,4332632,4333643,4332915.0,4333228.0,314.0,314.0,1582.4,856.3,1591.0,1269.0,Animal_Sea_Pattern_Small,69.00365187507123,70.01509900006931,1.0,Animal_Sea_Pattern_Small,-1.0,,,,,,,,,,,
encoding,image,6,4332632,4333643,4333244.0,4333369.0,126.0,126.0,1552.1,863.5999999999999,1591.0,1269.0,Animal_Sea_Pattern_Small,69.00365187507123,70.01509900006931,1.0,Animal_Sea_Pattern_Small,-1.0,,,,,,,,,,,
encoding,image,6,4332632,4333643,4333580.0,4333953.0,374.0,63.0,1601.1,861.5999999999999,1591.0,1269.0,Animal_Sea_Pattern_Small,69.00365187507123,70.01509900006931,1.0,Animal_Sea_Pattern_Small,-1.0,,,,,,,,,,,
encoding,value,6,4333644,4339655,4333977.0,4336656.0,2680.0,2680.0,1575.3,761.4000000000001,1591.0,1269.0,Animal_Sea_Pattern_Small,70.01520300004631,76.0269062500447,1.0,Animal_Sea_Pattern_Small,-1.0,,,,,,,,,,,
encoding,value,6,4333644,4339655,4336673.0,4339942.0,3270.0,2982.0,1566.2,761.2,1591.0,1269.0,Animal_Sea_Pattern_Small,70.01520300004631,76.0269062500447,1.0,Animal_Sea_Pattern_Small,-1.0,,,,,,,,,,,
encoding,attention,6,4339655,4342674,4339962.0,4340838.0,877.0,877.0,1515.8,766.3,1591.0,1269.0,Animal_Sea_Pattern_Small,76.02702987508383,79.04495370807126,1.0,Animal_Sea_Pattern_Small,-1.0,-1.0,1.0,0.6360121250618249,,,,,,,,
encoding,attention,6,4339655,4342674,4340845.0,4340974.0,130.0,130.0,1575.9,784.7,1591.0,1269.0,Animal_Sea_Pattern_Small,76.02702987508383,79.04495370807126,1.0,Animal_Sea_Pattern_Small,-1.0,-1.0,1.0,0.6360121250618249,,,,,,,,
encoding,attention,6,4339655,4342674,4341195.0,4341574.0,380.0,380.0,1676.4,986.7,1591.0,1269.0,Animal_Sea_Pattern_Small,76.02702987508383,79.04495370807126,1.0,Animal_Sea_Pattern_Small,-1.0,-1.0,1.0,0.6360121250618249,,,,,,,,
encoding,fixation,7,4795110,4796615,4795384.0,4795523.0,140.0,140.0,1896.7,1123.0,1920.0,1080.0,fixation,9.89271633408498,11.398045083973557,2.0,Animal_Land_Pattern_Large,-9.0,,,,,,,,,,,
encoding,fixation,7,4795110,4796615,4795530.0,4795588.0,59.0,59.0,1895.6,1090.6,1920.0,1080.0,fixation,9.89271633408498,11.398045083973557,2.0,Animal_Land_Pattern_Large,-9.0,,,,,,,,,,,
encoding,fixation,7,4795110,4796615,4795782.0,4796844.0,1063.0,833.0,1903.2,1085.9,1920.0,1080.0,fixation,9.89271633408498,11.398045083973557,2.0,Animal_Land_Pattern_Large,-9.0,,,,,,,,,,,
encoding,image,7,4796615,4797627,4796906.0,4797052.0,147.0,147.0,1907.4,1459.7,1920.0,700.0,Animal_Land_Pattern_Large,11.39824483403936,12.409740500035696,2.0,Animal_Land_Pattern_Large,-9.0,,,,,,,,,,,
encoding,image,7,4796615,4797627,4797067.0,4797771.0,705.0,560.0,1863.7,1499.7,1920.0,700.0,Animal_Land_Pattern_Large,11.39824483403936,12.409740500035696,2.0,Animal_Land_Pattern_Large,-9.0,,,,,,,,,,,
encoding,value,7,4797627,4803641,4797794.0,4798117.0,324.0,324.0,1894.8,1376.7,1920.0,700.0,Animal_Land_Pattern_Large,12.40984754206147,18.423803374986164,2.0,Animal_Land_Pattern_Large,-9.0,,,,,,,,,,,
encoding,value,7,4797627,4803641,4798261.0,4799231.0,971.0,971.0,1891.6,1367.9,1920.0,700.0,Animal_Land_Pattern_Large,12.40984754206147,18.423803374986164,2.0,Animal_Land_Pattern_Large,-9.0,,,,,,,,,,,
encoding,value,7,4797627,4803641,4799252.0,4800663.0,1412.0,1412.0,1860.0,1494.8,1920.0,700.0,Animal_Land_Pattern_Large,12.40984754206147,18.423803374986164,2.0,Animal_Land_Pattern_Large,-9.0,,,,,,,,,,,
encoding,value,7,4797627,4803641,4800682.0,4801223.0,542.0,542.0,1897.5,1380.9,1920.0,700.0,Animal_Land_Pattern_Large,12.40984754206147,18.423803374986164,2.0,Animal_Land_Pattern_Large,-9.0,,,,,,,,,,,
encoding,value,7,4797627,4803641,4801247.0,4801433.0,187.0,187.0,1881.2,1487.6,1920.0,700.0,Animal_Land_Pattern_Large,12.40984754206147,18.423803374986164,2.0,Animal_Land_Pattern_Large,-9.0,,,,,,,,,,,
encoding,value,7,4797627,4803641,4801579.0,4803268.0,1690.0,1690.0,1894.2,1379.9,1920.0,700.0,Animal_Land_Pattern_Large,12.40984754206147,18.423803374986164,2.0,Animal_Land_Pattern_Large,-9.0,,,,,,,,,,,
encoding,value,7,4797627,4803641,4803295.0,4803818.0,524.0,346.0,1845.6,1482.4,1920.0,700.0,Animal_Land_Pattern_Large,12.40984754206147,18.423803374986164,2.0,Animal_Land_Pattern_Large,-9.0,,,,,,,,,,,
encoding,attention,7,4803641,4806659,4803840.0,4803992.0,153.0,153.0,1854.0,1391.3,1920.0,700.0,Animal_Land_Pattern_Large,18.42392720899079,21.44148983398918,2.0,Animal_Land_Pattern_Large,-9.0,-9.0,1.0,0.678386333049275,,,,,,,,
encoding,attention,7,4803641,4806659,4804000.0,4804556.0,557.0,557.0,1835.1,1380.9,1920.0,700.0,Animal_Land_Pattern_Large,18.42392720899079,21.44148983398918,2.0,Animal_Land_Pattern_Large,-9.0,-9.0,1.0,0.678386333049275,,,,,,,,
encoding,fixation,8,4806659,4807914,4806959.0,4807064.0,106.0,106.0,1863.0,1044.6,1920.0,1080.0,fixation,21.44163091701921,22.69598820898682,2.0,Animal_Land_Solid_Small,1.0,,,,,,,,,,,
encoding,fixation,8,4806659,4807914,4807072.0,4807241.0,170.0,170.0,1858.1,1084.5,1920.0,1080.0,fixation,21.44163091701921,22.69598820898682,2.0,Animal_Land_Solid_Small,1.0,,,,,,,,,,,
encoding,fixation,8,4806659,4807914,4807422.0,4807606.0,185.0,185.0,1877.5,1095.3,1920.0,1080.0,fixation,21.44163091701921,22.69598820898682,2.0,Animal_Land_Solid_Small,1.0,,,,,,,,,,,
encoding,fixation,8,4806659,4807914,4807625.0,4808205.0,581.0,289.0,1869.5,1081.4,1920.0,1080.0,fixation,21.44163091701921,22.69598820898682,2.0,Animal_Land_Solid_Small,1.0,,,,,,,,,,,
encoding,image,8,4807914,4808924,4808255.0,4808440.0,186.0,186.0,2212.5,889.8,2249.0,1269.0,Animal_Land_Solid_Small,22.69609679200221,23.706790041993372,2.0,Animal_Land_Solid_Small,1.0,,,,,,,,,,,
encoding,image,8,4807914,4808924,4808450.0,4809359.0,910.0,474.0,2250.8,917.9000000000001,2249.0,1269.0,Animal_Land_Solid_Small,22.69609679200221,23.706790041993372,2.0,Animal_Land_Solid_Small,1.0,,,,,,,,,,,
encoding,value,8,4808925,4814937,4809379.0,4809623.0,245.0,245.0,2228.5,775.9000000000001,2249.0,1269.0,Animal_Land_Solid_Small,23.706899916986004,29.718778542010114,2.0,Animal_Land_Solid_Small,1.0,,,,,,,,,,,
encoding,value,8,4808925,4814937,4809783.0,4810415.0,633.0,633.0,2216.0,799.5999999999999,2249.0,1269.0,Animal_Land_Solid_Small,23.706899916986004,29.718778542010114,2.0,Animal_Land_Solid_Small,1.0,,,,,,,,,,,
encoding,value,8,4808925,4814937,4810437.0,4810645.0,209.0,209.0,2233.3,935.4000000000001,2249.0,1269.0,Animal_Land_Solid_Small,23.706899916986004,29.718778542010114,2.0,Animal_Land_Solid_Small,1.0,,,,,,,,,,,
encoding,value,8,4808925,4814937,4810840.0,4811086.0,247.0,247.0,2214.9,928.0999999999999,2249.0,1269.0,Animal_Land_Solid_Small,23.706899916986004,29.718778542010114,2.0,Animal_Land_Solid_Small,1.0,,,,,,,,,,,
encoding,value,8,4808925,4814937,4811095.0,4811499.0,405.0,405.0,2243.0,941.2,2249.0,1269.0,Animal_Land_Solid_Small,23.706899916986004,29.718778542010114,2.0,Animal_Land_Solid_Small,1.0,,,,,,,,,,,
encoding,value,8,4808925,4814937,4811522.0,4811892.0,371.0,371.0,2222.8,822.8,2249.0,1269.0,Animal_Land_Solid_Small,23.706899916986004,29.718778542010114,2.0,Animal_Land_Solid_Small,1.0,,,,,,,,,,,
encoding,value,8,4808925,4814937,4811901.0,4812888.0,988.0,988.0,2203.1,806.2,2249.0,1269.0,Animal_Land_Solid_Small,23.706899916986004,29.718778542010114,2.0,Animal_Land_Solid_Small,1.0,,,,,,,,,,,
encoding,value,8,4808925,4814937,4812916.0,4813952.0,1037.0,1037.0,2239.3,937.3,2249.0,1269.0,Animal_Land_Solid_Small,23.706899916986004,29.718778542010114,2.0,Animal_Land_Solid_Small,1.0,,,,,,,,,,,
encoding,value,8,4808925,4814937,4813990.0,4814681.0,692.0,692.0,2213.4,825.5,2249.0,1269.0,Animal_Land_Solid_Small,23.706899916986004,29.718778542010114,2.0,Animal_Land_Solid_Small,1.0,,,,,,,,,,,
encoding,value,8,4808925,4814937,4814711.0,4815289.0,579.0,226.0,2239.9,905.5999999999999,2249.0,1269.0,Animal_Land_Solid_Small,23.706899916986004,29.718778542010114,2.0,Animal_Land_Solid_Small,1.0,,,,,,,,,,,
encoding,attention,8,4814937,4817953,4815312.0,4815885.0,574.0,574.0,2202.4,843.2,2249.0,1269.0,Animal_Land_Solid_Small,29.7188885420328,32.73544000007678,2.0,Animal_Land_Solid_Small,1.0,1.0,1.0,0.6745431669987738,,,,,,,,
encoding,attention,8,4814937,4817953,4816099.0,4816252.0,154.0,154.0,2205.9,859.8,2249.0,1269.0,Animal_Land_Solid_Small,29.7188885420328,32.73544000007678,2.0,Animal_Land_Solid_Small,1.0,1.0,1.0,0.6745431669987738,,,,,,,,
encoding,attention,8,4814937,4817953,4816271.0,4816541.0,271.0,271.0,2239.5,943.5,2249.0,1269.0,Animal_Land_Solid_Small,29.7188885420328,32.73544000007678,2.0,Animal_Land_Solid_Small,1.0,1.0,1.0,0.6745431669987738,,,,,,,,
encoding,attention,8,4814937,4817953,4816548.0,4817290.0,743.0,743.0,2263.4,907.4000000000001,2249.0,1269.0,Animal_Land_Solid_Small,29.7188885420328,32.73544000007678,2.0,Animal_Land_Solid_Small,1.0,1.0,1.0,0.6745431669987738,,,,,,,,
encoding,fixation,9,4817954,4818710,4818176.0,4818356.0,181.0,181.0,1897.3,1093.0,1920.0,1080.0,fixation,32.73566887504421,33.49181979207788,2.0,Object_Sea_Solid_Large,2.0,,,,,,,,,,,
encoding,fixation,9,4817954,4818710,4818525.0,4818872.0,348.0,185.0,1878.6,1097.4,1920.0,1080.0,fixation,32.73566887504421,33.49181979207788,2.0,Object_Sea_Solid_Large,2.0,,,,,,,,,,,
encoding,image,9,4818710,4819722,4818906.0,4819122.0,217.0,217.0,1610.7,1255.1,1591.0,891.0,Object_Sea_Solid_Large,33.49197662505321,34.503574041998945,2.0,Object_Sea_Solid_Large,2.0,,,,,,,,,,,
encoding,image,9,4818710,4819722,4819139.0,4819431.0,293.0,293.0,1579.2,1271.3,1591.0,891.0,Object_Sea_Solid_Large,33.49197662505321,34.503574041998945,2.0,Object_Sea_Solid_Large,2.0,,,,,,,,,,,
encoding,image,9,4818710,4819722,4819440.0,4820325.0,886.0,282.0,1547.9,1253.7,1591.0,891.0,Object_Sea_Solid_Large,33.49197662505321,34.503574041998945,2.0,Object_Sea_Solid_Large,2.0,,,,,,,,,,,
encoding,value,9,4819722,4825734,4820505.0,4820769.0,265.0,265.0,1531.2,1314.5,1591.0,891.0,Object_Sea_Solid_Large,34.503691166988574,40.516118708997965,2.0,Object_Sea_Solid_Large,2.0,,,,,,,,,,,
encoding,value,9,4819722,4825734,4820778.0,4824228.0,3451.0,3451.0,1538.9,1258.1,1591.0,891.0,Object_Sea_Solid_Large,34.503691166988574,40.516118708997965,2.0,Object_Sea_Solid_Large,2.0,,,,,,,,,,,
encoding,value,9,4819722,4825734,4824395.0,4826087.0,1693.0,1339.0,1546.5,1270.3,1591.0,891.0,Object_Sea_Solid_Large,34.503691166988574,40.516118708997965,2.0,Object_Sea_Solid_Large,2.0,,,,,,,,,,,
encoding,attention,9,4825735,4828753,4826105.0,4826960.0,856.0,856.0,1548.1,1161.9,1591.0,891.0,Object_Sea_Solid_Large,40.51624849997461,43.53406854206696,2.0,Object_Sea_Solid_Large,2.0,2.0,1.0,0.9631206250051036,,,,,,,,
encoding,attention,9,4825735,4828753,4827145.0,4827668.0,524.0,524.0,1539.1,1155.8,1591.0,891.0,Object_Sea_Solid_Large,40.51624849997461,43.53406854206696,2.0,Object_Sea_Solid_Large,2.0,2.0,1.0,0.9631206250051036,,,,,,,,
encoding,attention,9,4825735,4828753,4827683.0,4828529.0,847.0,847.0,1586.3,1244.1,1591.0,891.0,Object_Sea_Solid_Large,40.51624849997461,43.53406854206696,2.0,Object_Sea_Solid_Large,2.0,2.0,1.0,0.9631206250051036,,,,,,,,
encoding,fixation,10,4828753,4830260,4828994.0,4829611.0,618.0,618.0,1894.1,1079.3,1920.0,1080.0,fixation,43.534245584043674,45.041850583977066,2.0,Object_Sea_Pattern_Large,3.0,,,,,,,,,,,
encoding,fixation,10,4828753,4830260,4829833.0,4830468.0,636.0,427.0,1890.9,1085.8,1920.0,1080.0,fixation,43.534245584043674,45.041850583977066,2.0,Object_Sea_Pattern_Large,3.0,,,,,,,,,,,
encoding,image,10,4830261,4831272,4830508.0,4830724.0,217.0,217.0,2202.6,1305.4,2249.0,891.0,Object_Sea_Pattern_Large,45.04196675005369,46.052955624996684,2.0,Object_Sea_Pattern_Large,3.0,,,,,,,,,,,
encoding,image,10,4830261,4831272,4830742.0,4831593.0,852.0,530.0,2217.1,1274.4,2249.0,891.0,Object_Sea_Pattern_Large,45.04196675005369,46.052955624996684,2.0,Object_Sea_Pattern_Large,3.0,,,,,,,,,,,
encoding,value,10,4831272,4837284,4831608.0,4831845.0,238.0,238.0,2222.7,1168.4,2249.0,891.0,Object_Sea_Pattern_Large,46.053062958992086,52.06543166702613,2.0,Object_Sea_Pattern_Large,3.0,,,,,,,,,,,
encoding,value,10,4831272,4837284,4832024.0,4833956.0,1933.0,1933.0,2210.5,1180.6,2249.0,891.0,Object_Sea_Pattern_Large,46.053062958992086,52.06543166702613,2.0,Object_Sea_Pattern_Large,3.0,,,,,,,,,,,
encoding,value,10,4831272,4837284,4834158.0,4836666.0,2509.0,2509.0,2204.4,1183.6,2249.0,891.0,Object_Sea_Pattern_Large,46.053062958992086,52.06543166702613,2.0,Object_Sea_Pattern_Large,3.0,,,,,,,,,,,
encoding,value,10,4831272,4837284,4836856.0,4837565.0,710.0,428.0,2212.6,1174.6,2249.0,891.0,Object_Sea_Pattern_Large,46.053062958992086,52.06543166702613,2.0,Object_Sea_Pattern_Large,3.0,,,,,,,,,,,
encoding,attention,10,4837284,4840304,4837576.0,4839948.0,2373.0,2373.0,2178.6,1183.2,2249.0,891.0,Object_Sea_Pattern_Large,52.065548083977774,55.0851326250704,2.0,Object_Sea_Pattern_Large,3.0,3.0,1.0,0.556721750064753,,,,,,,,
encoding,fixation,11,4840304,4841812,4840534.0,4840844.0,311.0,311.0,2236.6,1314.3,2249.0,891.0,Object_Sea_Pattern_Large,55.08529533399269,56.592836959054694,2.0,Object_Sea_Solid_Small,-7.0,,,,,,,,,,,
encoding,fixation,11,4840304,4841812,4840902.0,4842013.0,1112.0,910.0,1885.5,1053.3,1920.0,1080.0,fixation,55.08529533399269,56.592836959054694,2.0,Object_Sea_Solid_Small,-7.0,,,,,,,,,,,
encoding,image,11,4841812,4842823,4842067.0,4842145.0,79.0,79.0,1899.8,630.3,1920.0,1460.0,Object_Sea_Solid_Small,56.59293404198252,57.60343566699885,2.0,Object_Sea_Solid_Small,-7.0,,,,,,,,,,,
encoding,image,11,4841812,4842823,4842159.0,4843487.0,1329.0,664.0,1892.7,703.8,1920.0,1460.0,Object_Sea_Solid_Small,56.59293404198252,57.60343566699885,2.0,Object_Sea_Solid_Small,-7.0,,,,,,,,,,,
encoding,value,11,4842823,4848833,4843698.0,4844208.0,511.0,511.0,1900.4,713.5999999999999,1920.0,1460.0,Object_Sea_Solid_Small,57.60358554206323,63.613886125036515,2.0,Object_Sea_Solid_Small,-7.0,,,,,,,,,,,
encoding,value,11,4842823,4848833,4844223.0,4845922.0,1700.0,1700.0,1882.5,716.0,1920.0,1460.0,Object_Sea_Solid_Small,57.60358554206323,63.613886125036515,2.0,Object_Sea_Solid_Small,-7.0,,,,,,,,,,,
encoding,value,11,4842823,4848833,4846172.0,4848519.0,2348.0,2348.0,1873.3,715.9000000000001,1920.0,1460.0,Object_Sea_Solid_Small,57.60358554206323,63.613886125036515,2.0,Object_Sea_Solid_Small,-7.0,,,,,,,,,,,
encoding,value,11,4842823,4848833,4848774.0,4849145.0,372.0,59.0,1888.8,718.0,1920.0,1460.0,Object_Sea_Solid_Small,57.60358554206323,63.613886125036515,2.0,Object_Sea_Solid_Small,-7.0,,,,,,,,,,,
encoding,attention,11,4848833,4851850,4849163.0,4849344.0,182.0,182.0,1877.1,633.5999999999999,1920.0,1460.0,Object_Sea_Solid_Small,63.61399004200939,66.63083124998957,2.0,Object_Sea_Solid_Small,-7.0,-7.0,1.0,1.2831340410048142,,,,,,,,
encoding,attention,11,4848833,4851850,4849353.0,4849786.0,434.0,434.0,1831.1,628.2,1920.0,1460.0,Object_Sea_Solid_Small,63.61399004200939,66.63083124998957,2.0,Object_Sea_Solid_Small,-7.0,-7.0,1.0,1.2831340410048142,,,,,,,,
encoding,attention,11,4848833,4851850,4849801.0,4850619.0,819.0,819.0,1907.6,653.0999999999999,1920.0,1460.0,Object_Sea_Solid_Small,63.61399004200939,66.63083124998957,2.0,Object_Sea_Solid_Small,-7.0,-7.0,1.0,1.2831340410048142,,,,,,,,
encoding,attention,11,4848833,4851850,4850875.0,4850997.0,123.0,123.0,1848.1,767.5,1920.0,1460.0,Object_Sea_Solid_Small,63.61399004200939,66.63083124998957,2.0,Object_Sea_Solid_Small,-7.0,-7.0,1.0,1.2831340410048142,,,,,,,,
encoding,attention,11,4848833,4851850,4851006.0,4851530.0,525.0,525.0,1864.2,746.9000000000001,1920.0,1460.0,Object_Sea_Solid_Small,63.61399004200939,66.63083124998957,2.0,Object_Sea_Solid_Small,-7.0,-7.0,1.0,1.2831340410048142,,,,,,,,
encoding,fixation,12,4851851,4852356,4852170.0,4852343.0,174.0,174.0,1878.0,1085.5,1920.0,1080.0,fixation,66.63102862506639,67.13622979202773,2.0,Animal_Land_Pattern_Small,9.0,,,,,,,,,,,
encoding,image,12,4852356,4853367,4852548.0,4852696.0,149.0,149.0,1854.9,1090.4,1920.0,1080.0,fixation,67.13636254204903,68.14736237504985,2.0,Animal_Land_Pattern_Small,9.0,,,,,,,,,,,
encoding,image,12,4852356,4853367,4852733.0,4853039.0,307.0,307.0,1571.7,898.8,1591.0,1269.0,Animal_Land_Pattern_Small,67.13636254204903,68.14736237504985,2.0,Animal_Land_Pattern_Small,9.0,,,,,,,,,,,
encoding,image,12,4852356,4853367,4853047.0,4853675.0,629.0,320.0,1604.4,873.5,1591.0,1269.0,Animal_Land_Pattern_Small,67.13636254204903,68.14736237504985,2.0,Animal_Land_Pattern_Small,9.0,,,,,,,,,,,
encoding,value,12,4853367,4859379,4853695.0,4854109.0,415.0,415.0,1573.3,763.5999999999999,1591.0,1269.0,Animal_Land_Pattern_Small,68.14748941699509,74.15867783408612,2.0,Animal_Land_Pattern_Small,9.0,,,,,,,,,,,
encoding,value,12,4853367,4859379,4854128.0,4854620.0,493.0,493.0,1568.4,883.8,1591.0,1269.0,Animal_Land_Pattern_Small,68.14748941699509,74.15867783408612,2.0,Animal_Land_Pattern_Small,9.0,,,,,,,,,,,
encoding,value,12,4853367,4859379,4854638.0,4856115.0,1478.0,1478.0,1569.3,784.9000000000001,1591.0,1269.0,Animal_Land_Pattern_Small,68.14748941699509,74.15867783408612,2.0,Animal_Land_Pattern_Small,9.0,,,,,,,,,,,
encoding,value,12,4853367,4859379,4856138.0,4856300.0,163.0,163.0,1558.5,879.0999999999999,1591.0,1269.0,Animal_Land_Pattern_Small,68.14748941699509,74.15867783408612,2.0,Animal_Land_Pattern_Small,9.0,,,,,,,,,,,
encoding,value,12,4853367,4859379,4856331.0,4856443.0,113.0,113.0,1551.7,789.7,1591.0,1269.0,Animal_Land_Pattern_Small,68.14748941699509,74.15867783408612,2.0,Animal_Land_Pattern_Small,9.0,,,,,,,,,,,
encoding,value,12,4853367,4859379,4856682.0,4859319.0,2638.0,2638.0,1571.8,791.4000000000001,1591.0,1269.0,Animal_Land_Pattern_Small,68.14748941699509,74.15867783408612,2.0,Animal_Land_Pattern_Small,9.0,,,,,,,,,,,
encoding,value,12,4853367,4859379,4859349.0,4859601.0,253.0,30.0,1593.6,901.3,1591.0,1269.0,Animal_Land_Pattern_Small,68.14748941699509,74.15867783408612,2.0,Animal_Land_Pattern_Small,9.0,,,,,,,,,,,
encoding,attention,12,4859379,4862401,4859634.0,4860009.0,376.0,376.0,1590.4,795.9000000000001,1591.0,1269.0,Animal_Land_Pattern_Small,74.15879379201215,77.18063729198184,2.0,Animal_Land_Pattern_Small,9.0,9.0,1.0,1.6608808330493048,,,,,,,,
encoding,fixation,13,5234265,5235770,5234276.0,5234504.0,229.0,229.0,1825.3,1196.8,1591.0,891.0,Object_Sea_Solid_Large,8.291432457976043,9.79679866693914,3.0,Object_Sea_Solid_Large,-2.0,,,,,,,,,,,
encoding,fixation,13,5234265,5235770,5234522.0,5235943.0,1422.0,1248.0,1874.3,1117.4,1920.0,1080.0,fixation,8.291432457976043,9.79679866693914,3.0,Object_Sea_Solid_Large,-2.0,,,,,,,,,,,
encoding,image,13,5235770,5236783,5235977.0,5236176.0,200.0,200.0,1606.9,1286.4,1591.0,891.0,Object_Sea_Solid_Large,9.796913624973968,10.809403166989796,3.0,Object_Sea_Solid_Large,-2.0,,,,,,,,,,,
encoding,image,13,5235770,5236783,5236196.0,5237107.0,912.0,587.0,1550.6,1267.4,1591.0,891.0,Object_Sea_Solid_Large,9.796913624973968,10.809403166989796,3.0,Object_Sea_Solid_Large,-2.0,,,,,,,,,,,
encoding,value,13,5236783,5242797,5237279.0,5238049.0,771.0,771.0,1529.5,1296.8,1591.0,891.0,Object_Sea_Solid_Large,10.809516416979022,16.82342229189817,3.0,Object_Sea_Solid_Large,-2.0,,,,,,,,,,,
encoding,value,13,5236783,5242797,5238064.0,5238220.0,157.0,157.0,1580.0,1202.8,1591.0,891.0,Object_Sea_Solid_Large,10.809516416979022,16.82342229189817,3.0,Object_Sea_Solid_Large,-2.0,,,,,,,,,,,
encoding,value,13,5236783,5242797,5238395.0,5238695.0,301.0,301.0,1547.9,1222.9,1591.0,891.0,Object_Sea_Solid_Large,10.809516416979022,16.82342229189817,3.0,Object_Sea_Solid_Large,-2.0,,,,,,,,,,,
encoding,value,13,5236783,5242797,5238715.0,5239395.0,681.0,681.0,1556.7,1289.1,1591.0,891.0,Object_Sea_Solid_Large,10.809516416979022,16.82342229189817,3.0,Object_Sea_Solid_Large,-2.0,,,,,,,,,,,
encoding,value,13,5236783,5242797,5239559.0,5241345.0,1787.0,1787.0,1539.8,1263.8,1591.0,891.0,Object_Sea_Solid_Large,10.809516416979022,16.82342229189817,3.0,Object_Sea_Solid_Large,-2.0,,,,,,,,,,,
encoding,value,13,5236783,5242797,5241492.0,5242120.0,629.0,629.0,1529.5,1294.5,1591.0,891.0,Object_Sea_Solid_Large,10.809516416979022,16.82342229189817,3.0,Object_Sea_Solid_Large,-2.0,,,,,,,,,,,
encoding,value,13,5236783,5242797,5242129.0,5243069.0,941.0,668.0,1526.0,1256.3,1591.0,891.0,Object_Sea_Solid_Large,10.809516416979022,16.82342229189817,3.0,Object_Sea_Solid_Large,-2.0,,,,,,,,,,,
encoding,attention,13,5242797,5245816,5243088.0,5243547.0,460.0,460.0,1517.8,1175.0,1591.0,891.0,Object_Sea_Solid_Large,16.82352912495844,19.841970291920006,3.0,Object_Sea_Solid_Large,-2.0,-2.0,1.0,1.0183180420426652,,,,,,,,
encoding,attention,13,5242797,5245816,5243560.0,5244062.0,503.0,503.0,1586.5,1173.1,1591.0,891.0,Object_Sea_Solid_Large,16.82352912495844,19.841970291920006,3.0,Object_Sea_Solid_Large,-2.0,-2.0,1.0,1.0183180420426652,,,,,,,,
encoding,attention,13,5242797,5245816,5244229.0,5244395.0,167.0,167.0,1480.1,1347.5,1591.0,891.0,Object_Sea_Solid_Large,16.82352912495844,19.841970291920006,3.0,Object_Sea_Solid_Large,-2.0,-2.0,1.0,1.0183180420426652,,,,,,,,
encoding,fixation,14,5245816,5247071,5246344.0,5246450.0,107.0,107.0,1817.5,1120.3,1591.0,891.0,Object_Sea_Solid_Large,19.842112457961775,21.097113499999978,3.0,Animal_Sea_Pattern_Large,4.0,,,,,,,,,,,
encoding,fixation,14,5245816,5247071,5246458.0,5247311.0,854.0,613.0,1863.0,1118.0,1920.0,1080.0,fixation,19.842112457961775,21.097113499999978,3.0,Animal_Sea_Pattern_Large,4.0,,,,,,,,,,,
encoding,image,14,5247071,5248082,5247359.0,5248600.0,1242.0,723.0,2142.7,933.9000000000001,2249.0,1269.0,Animal_Sea_Pattern_Large,21.09722049999982,22.107666332973167,3.0,Animal_Sea_Pattern_Large,4.0,,,,,,,,,,,
encoding,value,14,5248082,5254095,5248783.0,5249028.0,246.0,246.0,2132.5,888.2,2249.0,1269.0,Animal_Sea_Pattern_Large,22.107778291916475,28.120604916941375,3.0,Animal_Sea_Pattern_Large,4.0,,,,,,,,,,,
encoding,value,14,5248082,5254095,5249044.0,5249695.0,652.0,652.0,2147.6,950.9000000000001,2249.0,1269.0,Animal_Sea_Pattern_Large,22.107778291916475,28.120604916941375,3.0,Animal_Sea_Pattern_Large,4.0,,,,,,,,,,,
encoding,value,14,5248082,5254095,5249712.0,5250292.0,581.0,581.0,2130.6,922.8,2249.0,1269.0,Animal_Sea_Pattern_Large,22.107778291916475,28.120604916941375,3.0,Animal_Sea_Pattern_Large,4.0,,,,,,,,,,,
encoding,value,14,5248082,5254095,5250301.0,5250427.0,127.0,127.0,2171.0,919.2,2249.0,1269.0,Animal_Sea_Pattern_Large,22.107778291916475,28.120604916941375,3.0,Animal_Sea_Pattern_Large,4.0,,,,,,,,,,,
encoding,value,14,5248082,5254095,5250605.0,5251073.0,469.0,469.0,2134.4,928.4000000000001,2249.0,1269.0,Animal_Sea_Pattern_Large,22.107778291916475,28.120604916941375,3.0,Animal_Sea_Pattern_Large,4.0,,,,,,,,,,,
encoding,value,14,5248082,5254095,5251084.0,5252359.0,1276.0,1276.0,2164.6,902.5,2249.0,1269.0,Animal_Sea_Pattern_Large,22.107778291916475,28.120604916941375,3.0,Animal_Sea_Pattern_Large,4.0,,,,,,,,,,,
encoding,value,14,5248082,5254095,5252544.0,5253179.0,636.0,636.0,2174.6,904.0,2249.0,1269.0,Animal_Sea_Pattern_Large,22.107778291916475,28.120604916941375,3.0,Animal_Sea_Pattern_Large,4.0,,,,,,,,,,,
encoding,value,14,5248082,5254095,5253186.0,5253987.0,802.0,802.0,2150.2,910.0,2249.0,1269.0,Animal_Sea_Pattern_Large,22.107778291916475,28.120604916941375,3.0,Animal_Sea_Pattern_Large,4.0,,,,,,,,,,,
encoding,value,14,5248082,5254095,5254008.0,5254469.0,462.0,87.0,2180.5,816.2,2249.0,1269.0,Animal_Sea_Pattern_Large,22.107778291916475,28.120604916941375,3.0,Animal_Sea_Pattern_Large,4.0,,,,,,,,,,,
encoding,attention,14,5254095,5257112,5254479.0,5255034.0,556.0,556.0,2235.9,821.5,2249.0,1269.0,Animal_Sea_Pattern_Large,28.1207179579651,31.13757079199422,3.0,Animal_Sea_Pattern_Large,4.0,4.0,1.0,0.6791963339783251,,,,,,,,
encoding,attention,14,5254095,5257112,5255221.0,5255856.0,636.0,636.0,2176.8,924.3,2249.0,1269.0,Animal_Sea_Pattern_Large,28.1207179579651,31.13757079199422,3.0,Animal_Sea_Pattern_Large,4.0,4.0,1.0,0.6791963339783251,,,,,,,,
encoding,fixation,15,5257112,5257617,5257141.0,5257326.0,186.0,186.0,2133.0,916.5999999999999,2249.0,1269.0,Animal_Sea_Pattern_Large,31.13772491691634,31.64282587496564,3.0,Object_Land_Pattern_Large,-1.0,,,,,,,,,,,
encoding,fixation,15,5257112,5257617,5257366.0,5257519.0,154.0,154.0,1846.5,1132.8,1591.0,891.0,Object_Sea_Solid_Large,31.13772491691634,31.64282587496564,3.0,Object_Land_Pattern_Large,-1.0,,,,,,,,,,,
encoding,fixation,15,5257112,5257617,5257527.0,5257773.0,247.0,90.0,1836.9,1110.7,1591.0,891.0,Object_Sea_Solid_Large,31.13772491691634,31.64282587496564,3.0,Object_Land_Pattern_Large,-1.0,,,,,,,,,,,
encoding,image,15,5257617,5258629,5257910.0,5259606.0,1697.0,719.0,1841.3,1487.4,1920.0,700.0,Object_Land_Pattern_Large,31.642928832909092,32.65490170789417,3.0,Object_Land_Pattern_Large,-1.0,,,,,,,,,,,
encoding,value,15,5258629,5264646,5259779.0,5260933.0,1155.0,1155.0,1826.6,1487.3,1920.0,700.0,Object_Land_Pattern_Large,32.65501929190941,38.67118229193147,3.0,Object_Land_Pattern_Large,-1.0,,,,,,,,,,,
encoding,value,15,5258629,5264646,5261173.0,5262548.0,1376.0,1376.0,1849.1,1478.7,1920.0,700.0,Object_Land_Pattern_Large,32.65501929190941,38.67118229193147,3.0,Object_Land_Pattern_Large,-1.0,,,,,,,,,,,
encoding,value,15,5258629,5264646,5262555.0,5263292.0,738.0,738.0,1877.3,1475.5,1920.0,700.0,Object_Land_Pattern_Large,32.65501929190941,38.67118229193147,3.0,Object_Land_Pattern_Large,-1.0,,,,,,,,,,,
encoding,value,15,5258629,5264646,5263301.0,5263863.0,563.0,563.0,1852.2,1459.9,1920.0,700.0,Object_Land_Pattern_Large,32.65501929190941,38.67118229193147,3.0,Object_Land_Pattern_Large,-1.0,,,,,,,,,,,
encoding,value,15,5258629,5264646,5263998.0,5264932.0,935.0,648.0,1866.1,1468.3,1920.0,700.0,Object_Land_Pattern_Large,32.65501929190941,38.67118229193147,3.0,Object_Land_Pattern_Large,-1.0,,,,,,,,,,,
encoding,attention,15,5264646,5267665,5264966.0,5265152.0,187.0,187.0,1841.9,1357.1,1920.0,700.0,Object_Land_Pattern_Large,38.6712919579586,41.690366707975045,3.0,Object_Land_Pattern_Large,-1.0,-1.0,1.0,0.958070749999024,,,,,,,,
encoding,attention,15,5264646,5267665,5265160.0,5265312.0,153.0,153.0,1822.3,1377.1,1920.0,700.0,Object_Land_Pattern_Large,38.6712919579586,41.690366707975045,3.0,Object_Land_Pattern_Large,-1.0,-1.0,1.0,0.958070749999024,,,,,,,,
encoding,attention,15,5264646,5267665,5265324.0,5265836.0,513.0,513.0,1899.4,1393.6,1920.0,700.0,Object_Land_Pattern_Large,38.6712919579586,41.690366707975045,3.0,Object_Land_Pattern_Large,-1.0,-1.0,1.0,0.958070749999024,,,,,,,,
encoding,attention,15,5264646,5267665,5265996.0,5267301.0,1306.0,1306.0,1838.8,1468.1,1920.0,700.0,Object_Land_Pattern_Large,38.6712919579586,41.690366707975045,3.0,Object_Land_Pattern_Large,-1.0,-1.0,1.0,0.958070749999024,,,,,,,,
encoding,fixation,16,5267665,5269171,5267928.0,5268038.0,111.0,111.0,1858.9,1026.1,1591.0,1269.0,Animal_Land_Pattern_Small,41.69050454196986,43.19635729200672,3.0,Animal_Sea_Solid_Small,-4.0,,,,,,,,,,,
encoding,fixation,16,5267665,5269171,5268048.0,5268352.0,305.0,305.0,1857.7,1072.6,1920.0,1080.0,fixation,41.69050454196986,43.19635729200672,3.0,Animal_Sea_Solid_Small,-4.0,,,,,,,,,,,
encoding,fixation,16,5267665,5269171,5268551.0,5269334.0,784.0,620.0,1875.7,1068.5,1920.0,1080.0,fixation,41.69050454196986,43.19635729200672,3.0,Animal_Sea_Solid_Small,-4.0,,,,,,,,,,,
encoding,image,16,5269171,5270181,5269374.0,5269892.0,519.0,519.0,2190.5,1304.8,2249.0,891.0,Animal_Sea_Solid_Small,43.19644383294508,44.20658379199449,3.0,Animal_Sea_Solid_Small,-4.0,,,,,,,,,,,
encoding,image,16,5269171,5270181,5269907.0,5270589.0,683.0,274.0,2164.8,1305.0,2249.0,891.0,Animal_Sea_Solid_Small,43.19644383294508,44.20658379199449,3.0,Animal_Sea_Solid_Small,-4.0,,,,,,,,,,,
encoding,value,16,5270182,5276193,5270762.0,5270964.0,203.0,203.0,2173.2,1303.1,2249.0,891.0,Animal_Sea_Solid_Small,44.206771833007224,50.218056999961846,3.0,Animal_Sea_Solid_Small,-4.0,,,,,,,,,,,
encoding,value,16,5270182,5276193,5270985.0,5271741.0,757.0,757.0,2192.5,1213.8,2249.0,891.0,Animal_Sea_Solid_Small,44.206771833007224,50.218056999961846,3.0,Animal_Sea_Solid_Small,-4.0,,,,,,,,,,,
encoding,value,16,5270182,5276193,5271907.0,5272436.0,530.0,530.0,2172.0,1253.3,2249.0,891.0,Animal_Sea_Solid_Small,44.206771833007224,50.218056999961846,3.0,Animal_Sea_Solid_Small,-4.0,,,,,,,,,,,
encoding,value,16,5270182,5276193,5272449.0,5272995.0,547.0,547.0,2173.4,1305.2,2249.0,891.0,Animal_Sea_Solid_Small,44.206771833007224,50.218056999961846,3.0,Animal_Sea_Solid_Small,-4.0,,,,,,,,,,,
encoding,value,16,5270182,5276193,5273040.0,5273323.0,284.0,284.0,1721.8,1238.6,1591.0,891.0,Object_Sea_Solid_Large,44.206771833007224,50.218056999961846,3.0,Animal_Sea_Solid_Small,-4.0,,,,,,,,,,,
encoding,value,16,5270182,5276193,5273346.0,5273525.0,180.0,180.0,1912.2,1128.9,1920.0,1080.0,fixation,44.206771833007224,50.218056999961846,3.0,Animal_Sea_Solid_Small,-4.0,,,,,,,,,,,
encoding,value,16,5270182,5276193,5273559.0,5273681.0,123.0,123.0,2077.0,1073.6,2249.0,1269.0,Animal_Sea_Pattern_Large,44.206771833007224,50.218056999961846,3.0,Animal_Sea_Solid_Small,-4.0,,,,,,,,,,,
encoding,value,16,5270182,5276193,5273896.0,5274024.0,129.0,129.0,2158.6,1229.9,2249.0,891.0,Animal_Sea_Solid_Small,44.206771833007224,50.218056999961846,3.0,Animal_Sea_Solid_Small,-4.0,,,,,,,,,,,
encoding,value,16,5270182,5276193,5274043.0,5274217.0,175.0,175.0,2155.6,1340.4,2249.0,891.0,Animal_Sea_Solid_Small,44.206771833007224,50.218056999961846,3.0,Animal_Sea_Solid_Small,-4.0,,,,,,,,,,,
encoding,value,16,5270182,5276193,5274242.0,5274737.0,496.0,496.0,1909.1,1449.4,1920.0,700.0,Object_Land_Pattern_Large,44.206771833007224,50.218056999961846,3.0,Animal_Sea_Solid_Small,-4.0,,,,,,,,,,,
encoding,value,16,5270182,5276193,5274772.0,5275088.0,317.0,317.0,2185.3,1285.7,2249.0,891.0,Animal_Sea_Solid_Small,44.206771833007224,50.218056999961846,3.0,Animal_Sea_Solid_Small,-4.0,,,,,,,,,,,
encoding,value,16,5270182,5276193,5275101.0,5275820.0,720.0,720.0,2174.9,1322.4,2249.0,891.0,Animal_Sea_Solid_Small,44.206771833007224,50.218056999961846,3.0,Animal_Sea_Solid_Small,-4.0,,,,,,,,,,,
encoding,value,16,5270182,5276193,5275980.0,5276511.0,532.0,213.0,2160.8,1327.5,2249.0,891.0,Animal_Sea_Solid_Small,44.206771833007224,50.218056999961846,3.0,Animal_Sea_Solid_Small,-4.0,,,,,,,,,,,
encoding,attention,16,5276193,5279213,5276533.0,5276726.0,194.0,194.0,2158.9,1217.5,2249.0,891.0,Animal_Sea_Solid_Small,50.21816049993504,53.237447916995734,3.0,Animal_Sea_Solid_Small,-4.0,-4.0,1.0,1.0696382080204785,,,,,,,,
encoding,attention,16,5276193,5279213,5276743.0,5277522.0,780.0,780.0,2149.0,1190.6,2249.0,891.0,Animal_Sea_Solid_Small,50.21816049993504,53.237447916995734,3.0,Animal_Sea_Solid_Small,-4.0,-4.0,1.0,1.0696382080204785,,,,,,,,
encoding,attention,16,5276193,5279213,5277693.0,5278781.0,1089.0,1089.0,2176.2,1330.9,2249.0,891.0,Animal_Sea_Solid_Small,50.21816049993504,53.237447916995734,3.0,Animal_Sea_Solid_Small,-4.0,-4.0,1.0,1.0696382080204785,,,,,,,,
encoding,fixation,17,5279213,5279718,5279489.0,5279818.0,330.0,229.0,1878.6,1105.6,1920.0,1080.0,fixation,53.23761074990034,53.74262924992945,3.0,Object_Land_Solid_Small,4.0,,,,,,,,,,,
encoding,image,17,5279718,5280730,5279986.0,5280066.0,81.0,81.0,1851.1,788.5,1920.0,1460.0,Object_Land_Solid_Small,53.742731207981706,54.75438079191372,3.0,Object_Land_Solid_Small,4.0,,,,,,,,,,,
encoding,image,17,5279718,5280730,5280082.0,5281432.0,1351.0,648.0,1859.9,712.4000000000001,1920.0,1460.0,Object_Land_Solid_Small,53.742731207981706,54.75438079191372,3.0,Object_Land_Solid_Small,4.0,,,,,,,,,,,
encoding,value,17,5280730,5286741,5281697.0,5281774.0,78.0,78.0,1861.9,757.8,1920.0,1460.0,Object_Land_Solid_Small,54.754495417000726,60.76583270798437,3.0,Object_Land_Solid_Small,4.0,,,,,,,,,,,
encoding,value,17,5280730,5286741,5281784.0,5283080.0,1297.0,1297.0,1857.6,726.0999999999999,1920.0,1460.0,Object_Land_Solid_Small,54.754495417000726,60.76583270798437,3.0,Object_Land_Solid_Small,4.0,,,,,,,,,,,
encoding,value,17,5280730,5286741,5283299.0,5284167.0,869.0,869.0,1861.9,708.9000000000001,1920.0,1460.0,Object_Land_Solid_Small,54.754495417000726,60.76583270798437,3.0,Object_Land_Solid_Small,4.0,,,,,,,,,,,
encoding,value,17,5280730,5286741,5284223.0,5284384.0,162.0,162.0,1828.3,1181.7,1591.0,891.0,Object_Sea_Solid_Large,54.754495417000726,60.76583270798437,3.0,Object_Land_Solid_Small,4.0,,,,,,,,,,,
encoding,value,17,5280730,5286741,5284404.0,5284595.0,192.0,192.0,1930.6,1110.1,1920.0,1080.0,fixation,54.754495417000726,60.76583270798437,3.0,Object_Land_Solid_Small,4.0,,,,,,,,,,,
encoding,value,17,5280730,5286741,5284637.0,5284987.0,351.0,351.0,1899.1,708.7,1920.0,1460.0,Object_Land_Solid_Small,54.754495417000726,60.76583270798437,3.0,Object_Land_Solid_Small,4.0,,,,,,,,,,,
encoding,value,17,5280730,5286741,5284996.0,5285181.0,186.0,186.0,1870.1,723.0999999999999,1920.0,1460.0,Object_Land_Solid_Small,54.754495417000726,60.76583270798437,3.0,Object_Land_Solid_Small,4.0,,,,,,,,,,,
encoding,value,17,5280730,5286741,5285222.0,5285564.0,343.0,343.0,2017.0,1177.3,2249.0,891.0,Animal_Sea_Solid_Small,54.754495417000726,60.76583270798437,3.0,Object_Land_Solid_Small,4.0,,,,,,,,,,,
encoding,value,17,5280730,5286741,5285613.0,5285824.0,212.0,212.0,1910.1,1459.5,1920.0,700.0,Object_Land_Pattern_Large,54.754495417000726,60.76583270798437,3.0,Object_Land_Solid_Small,4.0,,,,,,,,,,,
encoding,value,17,5280730,5286741,5286025.0,5286589.0,565.0,565.0,1895.6,729.7,1920.0,1460.0,Object_Land_Solid_Small,54.754495417000726,60.76583270798437,3.0,Object_Land_Solid_Small,4.0,,,,,,,,,,,
encoding,value,17,5280730,5286741,5286610.0,5286847.0,238.0,131.0,1878.6,630.8,1920.0,1460.0,Object_Land_Solid_Small,54.754495417000726,60.76583270798437,3.0,Object_Land_Solid_Small,4.0,,,,,,,,,,,
encoding,attention,17,5286742,5289759,5286863.0,5287076.0,214.0,214.0,1864.0,706.8,1920.0,1460.0,Object_Land_Solid_Small,60.76594624994323,63.78334179194644,3.0,Object_Land_Solid_Small,4.0,4.0,1.0,1.2422882500104606,,,,,,,,
encoding,attention,17,5286742,5289759,5287096.0,5287194.0,99.0,99.0,1833.4,644.5999999999999,1920.0,1460.0,Object_Land_Solid_Small,60.76594624994323,63.78334179194644,3.0,Object_Land_Solid_Small,4.0,4.0,1.0,1.2422882500104606,,,,,,,,
encoding,attention,17,5286742,5289759,5287470.0,5288400.0,931.0,931.0,1822.7,695.9000000000001,1920.0,1460.0,Object_Land_Solid_Small,60.76594624994323,63.78334179194644,3.0,Object_Land_Solid_Small,4.0,4.0,1.0,1.2422882500104606,,,,,,,,
encoding,attention,17,5286742,5289759,5288412.0,5288966.0,555.0,555.0,1856.0,732.8,1920.0,1460.0,Object_Land_Solid_Small,60.76594624994323,63.78334179194644,3.0,Object_Land_Solid_Small,4.0,4.0,1.0,1.2422882500104606,,,,,,,,
encoding,attention,17,5286742,5289759,5288977.0,5289214.0,238.0,238.0,1812.2,714.8,1920.0,1460.0,Object_Land_Solid_Small,60.76594624994323,63.78334179194644,3.0,Object_Land_Solid_Small,4.0,4.0,1.0,1.2422882500104606,,,,,,,,
encoding,fixation,18,5289759,5290766,5290100.0,5290220.0,121.0,121.0,1859.2,767.0999999999999,1920.0,1460.0,Object_Land_Solid_Small,63.78348754195031,64.79002516693436,3.0,Animal_Land_Pattern_Small,-2.0,,,,,,,,,,,
encoding,fixation,18,5289759,5290766,5290416.0,5291071.0,656.0,350.0,1843.9,1094.7,1591.0,891.0,Object_Sea_Solid_Large,63.78348754195031,64.79002516693436,3.0,Animal_Land_Pattern_Small,-2.0,,,,,,,,,,,
encoding,image,18,5290766,5291780,5291109.0,5291249.0,141.0,141.0,1608.0,921.5999999999999,1591.0,1269.0,Animal_Land_Pattern_Small,64.79014820791781,65.80386924999766,3.0,Animal_Land_Pattern_Small,-2.0,,,,,,,,,,,
encoding,image,18,5290766,5291780,5291269.0,5292211.0,943.0,511.0,1573.1,901.8,1591.0,1269.0,Animal_Land_Pattern_Small,64.79014820791781,65.80386924999766,3.0,Animal_Land_Pattern_Small,-2.0,,,,,,,,,,,
encoding,value,18,5291780,5297792,5292219.0,5292742.0,524.0,524.0,1570.0,895.5999999999999,1591.0,1269.0,Animal_Land_Pattern_Small,65.80399783293251,71.81543074990623,3.0,Animal_Land_Pattern_Small,-2.0,,,,,,,,,,,
encoding,value,18,5291780,5297792,5292762.0,5293051.0,290.0,290.0,1565.8,807.4000000000001,1591.0,1269.0,Animal_Land_Pattern_Small,65.80399783293251,71.81543074990623,3.0,Animal_Land_Pattern_Small,-2.0,,,,,,,,,,,
encoding,value,18,5291780,5297792,5293235.0,5293780.0,546.0,546.0,1540.2,808.5999999999999,1591.0,1269.0,Animal_Land_Pattern_Small,65.80399783293251,71.81543074990623,3.0,Animal_Land_Pattern_Small,-2.0,,,,,,,,,,,
encoding,value,18,5291780,5297792,5294017.0,5294288.0,272.0,272.0,1572.9,887.9000000000001,1591.0,1269.0,Animal_Land_Pattern_Small,65.80399783293251,71.81543074990623,3.0,Animal_Land_Pattern_Small,-2.0,,,,,,,,,,,
encoding,value,18,5291780,5297792,5294325.0,5294939.0,615.0,615.0,1849.7,1130.3,1591.0,891.0,Object_Sea_Solid_Large,65.80399783293251,71.81543074990623,3.0,Animal_Land_Pattern_Small,-2.0,,,,,,,,,,,
encoding,value,18,5291780,5297792,5294960.0,5295804.0,845.0,845.0,1848.9,1098.0,1591.0,891.0,Object_Sea_Solid_Large,65.80399783293251,71.81543074990623,3.0,Animal_Land_Pattern_Small,-2.0,,,,,,,,,,,
encoding,value,18,5291780,5297792,5295966.0,5296777.0,812.0,812.0,1901.0,1138.4,1920.0,1080.0,fixation,65.80399783293251,71.81543074990623,3.0,Animal_Land_Pattern_Small,-2.0,,,,,,,,,,,
encoding,value,18,5291780,5297792,5296822.0,5296962.0,141.0,141.0,1629.1,918.8,1591.0,1269.0,Animal_Land_Pattern_Small,65.80399783293251,71.81543074990623,3.0,Animal_Land_Pattern_Small,-2.0,,,,,,,,,,,
encoding,value,18,5291780,5297792,5296985.0,5298185.0,1201.0,807.0,1563.8,806.8,1591.0,1269.0,Animal_Land_Pattern_Small,65.80399783293251,71.81543074990623,3.0,Animal_Land_Pattern_Small,-2.0,,,,,,,,,,,
encoding,attention,18,5297792,5300813,5298198.0,5298571.0,374.0,374.0,1519.7,812.2,1591.0,1269.0,Animal_Land_Pattern_Small,71.81560629198793,74.83658995793667,3.0,Animal_Land_Pattern_Small,-2.0,-2.0,1.0,0.9022551670204848,,,,,,,,
encoding,attention,18,5297792,5300813,5298579.0,5300219.0,1641.0,1641.0,1521.1,812.8,1591.0,1269.0,Animal_Land_Pattern_Small,71.81560629198793,74.83658995793667,3.0,Animal_Land_Pattern_Small,-2.0,-2.0,1.0,0.9022551670204848,,,,,,,,
encoding,attention,18,5297792,5300813,5300226.0,5300709.0,484.0,484.0,1517.7,802.9000000000001,1591.0,1269.0,Animal_Land_Pattern_Small,71.81560629198793,74.83658995793667,3.0,Animal_Land_Pattern_Small,-2.0,-2.0,1.0,0.9022551670204848,,,,,,,,
encoding,fixation,19,5613505,5615011,5613764.0,5615282.0,1519.0,1247.0,1881.1,1090.0,1920.0,1080.0,fixation,5.785103834001347,7.290563584072515,4.0,Object_Land_Solid_Large,-5.0,,,,,,,,,,,
encoding,image,19,5615011,5616022,5615328.0,5616363.0,1036.0,694.0,2201.7,884.3,2249.0,1269.0,Object_Land_Solid_Large,7.290670459042303,8.301549917086959,4.0,Object_Land_Solid_Large,-5.0,,,,,,,,,,,
encoding,value,19,5616022,5622035,5616567.0,5617269.0,703.0,703.0,2191.8,891.5,2249.0,1269.0,Object_Land_Solid_Large,8.301655500079505,14.314341709017754,4.0,Object_Land_Solid_Large,-5.0,,,,,,,,,,,
encoding,value,19,5616022,5622035,5617279.0,5617688.0,410.0,410.0,2170.3,890.3,2249.0,1269.0,Object_Land_Solid_Large,8.301655500079505,14.314341709017754,4.0,Object_Land_Solid_Large,-5.0,,,,,,,,,,,
encoding,value,19,5616022,5622035,5617696.0,5618339.0,644.0,644.0,2209.1,922.3,2249.0,1269.0,Object_Land_Solid_Large,8.301655500079505,14.314341709017754,4.0,Object_Land_Solid_Large,-5.0,,,,,,,,,,,
encoding,value,19,5616022,5622035,5618524.0,5619444.0,921.0,921.0,2182.9,912.8,2249.0,1269.0,Object_Land_Solid_Large,8.301655500079505,14.314341709017754,4.0,Object_Land_Solid_Large,-5.0,,,,,,,,,,,
encoding,value,19,5616022,5622035,5619605.0,5620417.0,813.0,813.0,2206.1,819.5999999999999,2249.0,1269.0,Object_Land_Solid_Large,8.301655500079505,14.314341709017754,4.0,Object_Land_Solid_Large,-5.0,,,,,,,,,,,
encoding,value,19,5616022,5622035,5620444.0,5621913.0,1470.0,1470.0,2181.7,928.8,2249.0,1269.0,Object_Land_Solid_Large,8.301655500079505,14.314341709017754,4.0,Object_Land_Solid_Large,-5.0,,,,,,,,,,,
encoding,attention,19,5622035,5625052,5622091.0,5622384.0,294.0,294.0,2191.6,905.8,2249.0,1269.0,Object_Land_Solid_Large,14.314447125070728,17.331497250008397,4.0,Object_Land_Solid_Large,-5.0,-5.0,1.0,1.4894335829885677,,,,,,,,
encoding,attention,19,5622035,5625052,5622407.0,5622645.0,239.0,239.0,2179.8,816.5999999999999,2249.0,1269.0,Object_Land_Solid_Large,14.314447125070728,17.331497250008397,4.0,Object_Land_Solid_Large,-5.0,-5.0,1.0,1.4894335829885677,,,,,,,,
encoding,attention,19,5622035,5625052,5622662.0,5623854.0,1193.0,1193.0,2252.1,814.0999999999999,2249.0,1269.0,Object_Land_Solid_Large,14.314447125070728,17.331497250008397,4.0,Object_Land_Solid_Large,-5.0,-5.0,1.0,1.4894335829885677,,,,,,,,
encoding,attention,19,5622035,5625052,5623870.0,5624010.0,141.0,141.0,2231.6,875.2,2249.0,1269.0,Object_Land_Solid_Large,14.314447125070728,17.331497250008397,4.0,Object_Land_Solid_Large,-5.0,-5.0,1.0,1.4894335829885677,,,,,,,,
encoding,attention,19,5622035,5625052,5624190.0,5624402.0,213.0,213.0,2178.9,936.5999999999999,2249.0,1269.0,Object_Land_Solid_Large,14.314447125070728,17.331497250008397,4.0,Object_Land_Solid_Large,-5.0,-5.0,1.0,1.4894335829885677,,,,,,,,
encoding,fixation,20,5625052,5626557,5625340.0,5625484.0,145.0,145.0,1899.1,1106.0,1920.0,1080.0,fixation,17.331637917086482,18.83667495904956,4.0,Object_Land_Pattern_Small,2.0,,,,,,,,,,,
encoding,fixation,20,5625052,5626557,5625658.0,5626740.0,1083.0,899.0,1880.9,1122.7,1920.0,1080.0,fixation,17.331637917086482,18.83667495904956,4.0,Object_Land_Pattern_Small,2.0,,,,,,,,,,,
encoding,image,20,5626558,5627569,5626774.0,5627086.0,313.0,313.0,1573.4,1310.7,1591.0,891.0,Object_Land_Pattern_Small,18.836868500104178,19.84826858411543,4.0,Object_Land_Pattern_Small,2.0,,,,,,,,,,,
encoding,image,20,5626558,5627569,5627230.0,5628125.0,896.0,339.0,1545.1,1296.9,1591.0,891.0,Object_Land_Pattern_Small,18.836868500104178,19.84826858411543,4.0,Object_Land_Pattern_Small,2.0,,,,,,,,,,,
encoding,value,20,5627569,5633582,5628160.0,5628542.0,383.0,383.0,1589.6,1183.0,1591.0,891.0,Object_Land_Pattern_Small,19.84837400005199,25.861007625004277,4.0,Object_Land_Pattern_Small,2.0,,,,,,,,,,,
encoding,value,20,5627569,5633582,5628730.0,5628905.0,176.0,176.0,1559.4,1238.2,1591.0,891.0,Object_Land_Pattern_Small,19.84837400005199,25.861007625004277,4.0,Object_Land_Pattern_Small,2.0,,,,,,,,,,,
encoding,value,20,5627569,5633582,5628922.0,5629517.0,596.0,596.0,1553.5,1297.2,1591.0,891.0,Object_Land_Pattern_Small,19.84837400005199,25.861007625004277,4.0,Object_Land_Pattern_Small,2.0,,,,,,,,,,,
encoding,value,20,5627569,5633582,5629528.0,5629887.0,360.0,360.0,1552.8,1248.7,1591.0,891.0,Object_Land_Pattern_Small,19.84837400005199,25.861007625004277,4.0,Object_Land_Pattern_Small,2.0,,,,,,,,,,,
encoding,value,20,5627569,5633582,5629907.0,5630548.0,642.0,642.0,1584.7,1173.8,1591.0,891.0,Object_Land_Pattern_Small,19.84837400005199,25.861007625004277,4.0,Object_Land_Pattern_Small,2.0,,,,,,,,,,,
encoding,value,20,5627569,5633582,5630691.0,5631323.0,633.0,633.0,1559.5,1274.7,1591.0,891.0,Object_Land_Pattern_Small,19.84837400005199,25.861007625004277,4.0,Object_Land_Pattern_Small,2.0,,,,,,,,,,,
encoding,value,20,5627569,5633582,5631361.0,5631825.0,465.0,465.0,1595.7,1161.7,1591.0,891.0,Object_Land_Pattern_Small,19.84837400005199,25.861007625004277,4.0,Object_Land_Pattern_Small,2.0,,,,,,,,,,,
encoding,value,20,5627569,5633582,5631847.0,5631972.0,126.0,126.0,1556.6,1250.4,1591.0,891.0,Object_Land_Pattern_Small,19.84837400005199,25.861007625004277,4.0,Object_Land_Pattern_Small,2.0,,,,,,,,,,,
encoding,value,20,5627569,5633582,5632138.0,5632483.0,346.0,346.0,1540.9,1285.6,1591.0,891.0,Object_Land_Pattern_Small,19.84837400005199,25.861007625004277,4.0,Object_Land_Pattern_Small,2.0,,,,,,,,,,,
encoding,value,20,5627569,5633582,5632502.0,5635066.0,2565.0,1080.0,1593.8,1177.3,1591.0,891.0,Object_Land_Pattern_Small,19.84837400005199,25.861007625004277,4.0,Object_Land_Pattern_Small,2.0,,,,,,,,,,,
encoding,attention,20,5633582,5636601,5635248.0,5636560.0,1313.0,1313.0,1609.2,1175.9,1591.0,891.0,Object_Land_Pattern_Small,25.86111408402212,28.87999116710853,4.0,Object_Land_Pattern_Small,2.0,2.0,1.0,1.2345194580266252,,,,,,,,
encoding,fixation,21,5636601,5637357,5636948.0,5637079.0,132.0,132.0,1845.1,1132.4,1591.0,891.0,Object_Land_Pattern_Small,28.88022125000134,29.63534900010563,4.0,Object_Sea_Pattern_Small,1.0,,,,,,,,,,,
encoding,fixation,21,5636601,5637357,5637086.0,5637569.0,484.0,271.0,1878.4,1117.5,1920.0,1080.0,fixation,28.88022125000134,29.63534900010563,4.0,Object_Sea_Pattern_Small,1.0,,,,,,,,,,,
encoding,image,21,5637357,5638369,5637621.0,5637813.0,193.0,193.0,1890.0,1506.3,1920.0,700.0,Object_Sea_Pattern_Small,29.635445375111885,30.6474170840811,4.0,Object_Sea_Pattern_Small,1.0,,,,,,,,,,,
encoding,image,21,5637357,5638369,5637820.0,5638063.0,244.0,244.0,1881.9,1480.4,1920.0,700.0,Object_Sea_Pattern_Small,29.635445375111885,30.6474170840811,4.0,Object_Sea_Pattern_Small,1.0,,,,,,,,,,,
encoding,image,21,5637357,5638369,5638224.0,5638533.0,310.0,145.0,1855.2,1548.4,1920.0,700.0,Object_Sea_Pattern_Small,29.635445375111885,30.6474170840811,4.0,Object_Sea_Pattern_Small,1.0,,,,,,,,,,,
encoding,value,21,5638369,5644380,5638555.0,5638736.0,182.0,182.0,1878.9,1402.7,1920.0,700.0,Object_Sea_Pattern_Small,30.647525750100613,36.65835237503052,4.0,Object_Sea_Pattern_Small,1.0,,,,,,,,,,,
encoding,value,21,5638369,5644380,5638744.0,5639205.0,462.0,462.0,1879.5,1374.8,1920.0,700.0,Object_Sea_Pattern_Small,30.647525750100613,36.65835237503052,4.0,Object_Sea_Pattern_Small,1.0,,,,,,,,,,,
encoding,value,21,5638369,5644380,5639218.0,5639426.0,209.0,209.0,1872.4,1432.4,1920.0,700.0,Object_Sea_Pattern_Small,30.647525750100613,36.65835237503052,4.0,Object_Sea_Pattern_Small,1.0,,,,,,,,,,,
encoding,value,21,5638369,5644380,5639600.0,5640024.0,425.0,425.0,1845.6,1493.8,1920.0,700.0,Object_Sea_Pattern_Small,30.647525750100613,36.65835237503052,4.0,Object_Sea_Pattern_Small,1.0,,,,,,,,,,,
encoding,value,21,5638369,5644380,5640041.0,5640700.0,660.0,660.0,1869.1,1383.0,1920.0,700.0,Object_Sea_Pattern_Small,30.647525750100613,36.65835237503052,4.0,Object_Sea_Pattern_Small,1.0,,,,,,,,,,,
encoding,value,21,5638369,5644380,5640752.0,5641255.0,504.0,504.0,1989.5,1120.6,2249.0,891.0,Animal_Land_Solid_Large,30.647525750100613,36.65835237503052,4.0,Object_Sea_Pattern_Small,1.0,,,,,,,,,,,
encoding,value,21,5638369,5644380,5641443.0,5641636.0,194.0,194.0,1892.3,1416.4,1920.0,700.0,Object_Sea_Pattern_Small,30.647525750100613,36.65835237503052,4.0,Object_Sea_Pattern_Small,1.0,,,,,,,,,,,
encoding,value,21,5638369,5644380,5641647.0,5642265.0,619.0,619.0,1874.5,1383.2,1920.0,700.0,Object_Sea_Pattern_Small,30.647525750100613,36.65835237503052,4.0,Object_Sea_Pattern_Small,1.0,,,,,,,,,,,
encoding,value,21,5638369,5644380,5642280.0,5643137.0,858.0,858.0,1870.8,1439.1,1920.0,700.0,Object_Sea_Pattern_Small,30.647525750100613,36.65835237503052,4.0,Object_Sea_Pattern_Small,1.0,,,,,,,,,,,
encoding,value,21,5638369,5644380,5643156.0,5644403.0,1248.0,1224.0,1863.5,1375.9,1920.0,700.0,Object_Sea_Pattern_Small,30.647525750100613,36.65835237503052,4.0,Object_Sea_Pattern_Small,1.0,,,,,,,,,,,
encoding,attention,21,5644380,5647397,5644413.0,5644794.0,382.0,382.0,1856.4,1414.9,1920.0,700.0,Object_Sea_Pattern_Small,36.65846608404536,39.67580087506212,4.0,Object_Sea_Pattern_Small,1.0,1.0,1.0,1.1766048750141636,,,,,,,,
encoding,attention,21,5644380,5647397,5644813.0,5644978.0,166.0,166.0,1806.7,1376.2,1920.0,700.0,Object_Sea_Pattern_Small,36.65846608404536,39.67580087506212,4.0,Object_Sea_Pattern_Small,1.0,1.0,1.0,1.1766048750141636,,,,,,,,
encoding,attention,21,5644380,5647397,5645160.0,5645902.0,743.0,743.0,1809.1,1387.5,1920.0,700.0,Object_Sea_Pattern_Small,36.65846608404536,39.67580087506212,4.0,Object_Sea_Pattern_Small,1.0,1.0,1.0,1.1766048750141636,,,,,,,,
encoding,attention,21,5644380,5647397,5645920.0,5646064.0,145.0,145.0,1852.9,1468.9,1920.0,700.0,Object_Sea_Pattern_Small,36.65846608404536,39.67580087506212,4.0,Object_Sea_Pattern_Small,1.0,1.0,1.0,1.1766048750141636,,,,,,,,
encoding,attention,21,5644380,5647397,5646231.0,5647217.0,987.0,987.0,1857.5,1475.7,1920.0,700.0,Object_Sea_Pattern_Small,36.65846608404536,39.67580087506212,4.0,Object_Sea_Pattern_Small,1.0,1.0,1.0,1.1766048750141636,,,,,,,,
encoding,fixation,22,5647398,5648903,5647762.0,5647802.0,41.0,41.0,1863.3,1376.4,1920.0,700.0,Object_Sea_Pattern_Small,39.676053125062026,41.18105366709642,4.0,Animal_Sea_Pattern_Small,-8.0,,,,,,,,,,,
encoding,fixation,22,5647398,5648903,5647850.0,5647969.0,120.0,120.0,1853.8,1089.6,1920.0,1080.0,fixation,39.676053125062026,41.18105366709642,4.0,Animal_Sea_Pattern_Small,-8.0,,,,,,,,,,,
encoding,fixation,22,5647398,5648903,5648135.0,5649174.0,1040.0,768.0,1854.8,1101.7,1920.0,1080.0,fixation,39.676053125062026,41.18105366709642,4.0,Animal_Sea_Pattern_Small,-8.0,,,,,,,,,,,
encoding,image,22,5648903,5649916,5649223.0,5650131.0,909.0,693.0,1579.6,895.3,1591.0,1269.0,Animal_Sea_Pattern_Small,41.181167459115386,42.194003167096525,4.0,Animal_Sea_Pattern_Small,-8.0,,,,,,,,,,,
encoding,value,22,5649916,5655928,5650155.0,5650714.0,560.0,560.0,1569.5,793.5,1591.0,1269.0,Animal_Sea_Pattern_Small,42.19410012511071,48.20618775009643,4.0,Animal_Sea_Pattern_Small,-8.0,,,,,,,,,,,
encoding,value,22,5649916,5655928,5650732.0,5650993.0,262.0,262.0,1551.1,891.5999999999999,1591.0,1269.0,Animal_Sea_Pattern_Small,42.19410012511071,48.20618775009643,4.0,Animal_Sea_Pattern_Small,-8.0,,,,,,,,,,,
encoding,value,22,5649916,5655928,5651222.0,5652253.0,1032.0,1032.0,1568.1,891.8,1591.0,1269.0,Animal_Sea_Pattern_Small,42.19410012511071,48.20618775009643,4.0,Animal_Sea_Pattern_Small,-8.0,,,,,,,,,,,
encoding,value,22,5649916,5655928,5652261.0,5652926.0,666.0,666.0,1611.4,870.9000000000001,1591.0,1269.0,Animal_Sea_Pattern_Small,42.19410012511071,48.20618775009643,4.0,Animal_Sea_Pattern_Small,-8.0,,,,,,,,,,,
encoding,value,22,5649916,5655928,5653145.0,5653782.0,638.0,638.0,1598.6,880.5,1591.0,1269.0,Animal_Sea_Pattern_Small,42.19410012511071,48.20618775009643,4.0,Animal_Sea_Pattern_Small,-8.0,,,,,,,,,,,
encoding,value,22,5649916,5655928,5653800.0,5655624.0,1825.0,1825.0,1595.3,885.3,1591.0,1269.0,Animal_Sea_Pattern_Small,42.19410012511071,48.20618775009643,4.0,Animal_Sea_Pattern_Small,-8.0,,,,,,,,,,,
encoding,value,22,5649916,5655928,5655835.0,5656247.0,413.0,93.0,1604.2,913.5999999999999,1591.0,1269.0,Animal_Sea_Pattern_Small,42.19410012511071,48.20618775009643,4.0,Animal_Sea_Pattern_Small,-8.0,,,,,,,,,,,
encoding,attention,22,5655928,5658947,5656495.0,5656947.0,453.0,453.0,1536.0,829.9000000000001,1591.0,1269.0,Animal_Sea_Pattern_Small,48.2063008750556,51.22440266702324,4.0,Animal_Sea_Pattern_Small,-8.0,-8.0,1.0,0.7577027919469401,,,,,,,,
encoding,attention,22,5655928,5658947,5656969.0,5657645.0,677.0,677.0,1586.0,908.3,1591.0,1269.0,Animal_Sea_Pattern_Small,48.2063008750556,51.22440266702324,4.0,Animal_Sea_Pattern_Small,-8.0,-8.0,1.0,0.7577027919469401,,,,,,,,
encoding,attention,22,5655928,5658947,5657662.0,5658323.0,662.0,662.0,1628.3,824.7,1591.0,1269.0,Animal_Sea_Pattern_Small,48.2063008750556,51.22440266702324,4.0,Animal_Sea_Pattern_Small,-8.0,-8.0,1.0,0.7577027919469401,,,,,,,,
encoding,fixation,23,5658947,5659952,5659212.0,5659323.0,112.0,112.0,1888.5,1090.4,1920.0,1080.0,fixation,51.224555334076285,52.229569459101185,4.0,Animal_Sea_Solid_Large,8.0,,,,,,,,,,,
encoding,fixation,23,5658947,5659952,5659500.0,5660185.0,686.0,452.0,1882.3,1098.6,1920.0,1080.0,fixation,51.224555334076285,52.229569459101185,4.0,Animal_Sea_Solid_Large,8.0,,,,,,,,,,,
encoding,image,23,5659952,5660963,5660233.0,5661015.0,783.0,730.0,1900.5,747.0999999999999,1920.0,1460.0,Animal_Sea_Solid_Large,52.22967675002292,53.24075675010681,4.0,Animal_Sea_Solid_Large,8.0,,,,,,,,,,,
encoding,value,23,5660963,5666975,5661234.0,5661466.0,233.0,233.0,1885.6,754.0,1920.0,1460.0,Animal_Sea_Solid_Large,53.24086908402387,59.25245616701432,4.0,Animal_Sea_Solid_Large,8.0,,,,,,,,,,,
encoding,value,23,5660963,5666975,5661491.0,5662036.0,546.0,546.0,1900.6,629.5999999999999,1920.0,1460.0,Animal_Sea_Solid_Large,53.24086908402387,59.25245616701432,4.0,Animal_Sea_Solid_Large,8.0,,,,,,,,,,,
encoding,value,23,5660963,5666975,5662232.0,5662870.0,639.0,639.0,1892.9,759.2,1920.0,1460.0,Animal_Sea_Solid_Large,53.24086908402387,59.25245616701432,4.0,Animal_Sea_Solid_Large,8.0,,,,,,,,,,,
encoding,value,23,5660963,5666975,5662887.0,5663379.0,493.0,493.0,1867.1,729.5999999999999,1920.0,1460.0,Animal_Sea_Solid_Large,53.24086908402387,59.25245616701432,4.0,Animal_Sea_Solid_Large,8.0,,,,,,,,,,,
encoding,value,23,5660963,5666975,5663606.0,5663877.0,272.0,272.0,1865.6,700.9000000000001,1920.0,1460.0,Animal_Sea_Solid_Large,53.24086908402387,59.25245616701432,4.0,Animal_Sea_Solid_Large,8.0,,,,,,,,,,,
encoding,value,23,5660963,5666975,5663895.0,5664429.0,535.0,535.0,1895.4,633.2,1920.0,1460.0,Animal_Sea_Solid_Large,53.24086908402387,59.25245616701432,4.0,Animal_Sea_Solid_Large,8.0,,,,,,,,,,,
encoding,value,23,5660963,5666975,5664447.0,5664725.0,279.0,279.0,1878.7,739.3,1920.0,1460.0,Animal_Sea_Solid_Large,53.24086908402387,59.25245616701432,4.0,Animal_Sea_Solid_Large,8.0,,,,,,,,,,,
encoding,value,23,5660963,5666975,5664935.0,5665557.0,623.0,623.0,1892.1,767.5,1920.0,1460.0,Animal_Sea_Solid_Large,53.24086908402387,59.25245616701432,4.0,Animal_Sea_Solid_Large,8.0,,,,,,,,,,,
encoding,value,23,5660963,5666975,5665589.0,5665762.0,174.0,174.0,1891.1,639.0999999999999,1920.0,1460.0,Animal_Sea_Solid_Large,53.24086908402387,59.25245616701432,4.0,Animal_Sea_Solid_Large,8.0,,,,,,,,,,,
encoding,value,23,5660963,5666975,5665793.0,5665893.0,101.0,101.0,1901.2,784.7,1920.0,1460.0,Animal_Sea_Solid_Large,53.24086908402387,59.25245616701432,4.0,Animal_Sea_Solid_Large,8.0,,,,,,,,,,,
encoding,value,23,5660963,5666975,5666111.0,5667292.0,1182.0,864.0,1889.7,753.4000000000001,1920.0,1460.0,Animal_Sea_Solid_Large,53.24086908402387,59.25245616701432,4.0,Animal_Sea_Solid_Large,8.0,,,,,,,,,,,
encoding,attention,23,5666975,5669993,5667311.0,5667491.0,181.0,181.0,1934.6,675.3,1920.0,1460.0,Animal_Sea_Solid_Large,59.25256454211194,62.27038404205814,4.0,Animal_Sea_Solid_Large,8.0,8.0,1.0,2.4325640000170097,,,,,,,,
encoding,attention,23,5666975,5669993,5667688.0,5667813.0,126.0,126.0,1846.0,688.0999999999999,1920.0,1460.0,Animal_Sea_Solid_Large,59.25256454211194,62.27038404205814,4.0,Animal_Sea_Solid_Large,8.0,8.0,1.0,2.4325640000170097,,,,,,,,
encoding,attention,23,5666975,5669993,5667833.0,5668786.0,954.0,954.0,1829.0,648.3,1920.0,1460.0,Animal_Sea_Solid_Large,59.25256454211194,62.27038404205814,4.0,Animal_Sea_Solid_Large,8.0,8.0,1.0,2.4325640000170097,,,,,,,,
encoding,attention,23,5666975,5669993,5668799.0,5668911.0,113.0,113.0,1885.3,703.5,1920.0,1460.0,Animal_Sea_Solid_Large,59.25256454211194,62.27038404205814,4.0,Animal_Sea_Solid_Large,8.0,8.0,1.0,2.4325640000170097,,,,,,,,
encoding,attention,23,5666975,5669993,5669090.0,5669821.0,732.0,732.0,1917.7,656.8,1920.0,1460.0,Animal_Sea_Solid_Large,59.25256454211194,62.27038404205814,4.0,Animal_Sea_Solid_Large,8.0,8.0,1.0,2.4325640000170097,,,,,,,,
encoding,fixation,24,5669993,5671248,5670064.0,5670231.0,168.0,168.0,1843.6,817.2,1920.0,1460.0,Animal_Sea_Solid_Large,62.27052020910196,63.525473625049926,4.0,Animal_Land_Solid_Large,-7.0,,,,,,,,,,,
encoding,fixation,24,5669993,5671248,5670292.0,5670480.0,189.0,189.0,1872.0,1147.9,1591.0,891.0,Object_Land_Pattern_Small,62.27052020910196,63.525473625049926,4.0,Animal_Land_Solid_Large,-7.0,,,,,,,,,,,
encoding,fixation,24,5669993,5671248,5670661.0,5671436.0,776.0,587.0,1882.6,1128.9,1920.0,1080.0,fixation,62.27052020910196,63.525473625049926,4.0,Animal_Land_Solid_Large,-7.0,,,,,,,,,,,
encoding,image,24,5671248,5672260,5671473.0,5672671.0,1199.0,787.0,2241.3,1325.2,2249.0,891.0,Animal_Land_Solid_Large,63.52560404210817,64.53728237503674,4.0,Animal_Land_Solid_Large,-7.0,,,,,,,,,,,
encoding,value,24,5672260,5678273,5672852.0,5673528.0,677.0,677.0,2235.4,1334.7,2249.0,891.0,Animal_Land_Solid_Large,64.5374159590574,70.54969187511597,4.0,Animal_Land_Solid_Large,-7.0,,,,,,,,,,,
encoding,value,24,5672260,5678273,5673552.0,5673807.0,256.0,256.0,2200.6,1199.0,2249.0,891.0,Animal_Land_Solid_Large,64.5374159590574,70.54969187511597,4.0,Animal_Land_Solid_Large,-7.0,,,,,,,,,,,
encoding,value,24,5672260,5678273,5673838.0,5675147.0,1310.0,1310.0,2226.7,1329.2,2249.0,891.0,Animal_Land_Solid_Large,64.5374159590574,70.54969187511597,4.0,Animal_Land_Solid_Large,-7.0,,,,,,,,,,,
encoding,value,24,5672260,5678273,5675329.0,5676147.0,819.0,819.0,2193.6,1299.8,2249.0,891.0,Animal_Land_Solid_Large,64.5374159590574,70.54969187511597,4.0,Animal_Land_Solid_Large,-7.0,,,,,,,,,,,
encoding,value,24,5672260,5678273,5676365.0,5676604.0,240.0,240.0,2180.7,1236.0,2249.0,891.0,Animal_Land_Solid_Large,64.5374159590574,70.54969187511597,4.0,Animal_Land_Solid_Large,-7.0,,,,,,,,,,,
encoding,value,24,5672260,5678273,5676611.0,5676779.0,169.0,169.0,2190.2,1218.5,2249.0,891.0,Animal_Land_Solid_Large,64.5374159590574,70.54969187511597,4.0,Animal_Land_Solid_Large,-7.0,,,,,,,,,,,
encoding,value,24,5672260,5678273,5676824.0,5677037.0,214.0,214.0,1516.3,1191.0,1591.0,891.0,Object_Land_Pattern_Small,64.5374159590574,70.54969187511597,4.0,Animal_Land_Solid_Large,-7.0,,,,,,,,,,,
encoding,value,24,5672260,5678273,5677234.0,5677572.0,339.0,339.0,2206.6,1286.0,2249.0,891.0,Animal_Land_Solid_Large,64.5374159590574,70.54969187511597,4.0,Animal_Land_Solid_Large,-7.0,,,,,,,,,,,
encoding,value,24,5672260,5678273,5677594.0,5678116.0,523.0,523.0,2208.9,1230.7,2249.0,891.0,Animal_Land_Solid_Large,64.5374159590574,70.54969187511597,4.0,Animal_Land_Solid_Large,-7.0,,,,,,,,,,,
encoding,value,24,5672260,5678273,5678147.0,5678558.0,412.0,126.0,2222.3,1342.2,2249.0,891.0,Animal_Land_Solid_Large,64.5374159590574,70.54969187511597,4.0,Animal_Land_Solid_Large,-7.0,,,,,,,,,,,
encoding,attention,24,5678273,5681291,5678579.0,5678676.0,98.0,98.0,2214.1,1214.7,2249.0,891.0,Animal_Land_Solid_Large,70.54981650004629,73.567261334043,4.0,Animal_Land_Solid_Large,-7.0,-7.0,1.0,1.0150745830032974,,,,,,,,
encoding,attention,24,5678273,5681291,5678866.0,5679150.0,285.0,285.0,2163.6,1229.5,2249.0,891.0,Animal_Land_Solid_Large,70.54981650004629,73.567261334043,4.0,Animal_Land_Solid_Large,-7.0,-7.0,1.0,1.0150745830032974,,,,,,,,
encoding,attention,24,5678273,5681291,5679358.0,5679550.0,193.0,193.0,2167.5,1209.1,2249.0,891.0,Animal_Land_Solid_Large,70.54981650004629,73.567261334043,4.0,Animal_Land_Solid_Large,-7.0,-7.0,1.0,1.0150745830032974,,,,,,,,
encoding,fixation,25,5972784,5974289,5973051.0,5973173.0,123.0,123.0,1844.1,1104.3,1591.0,891.0,Object_Sea_Solid_Large,5.855804666061886,7.36095954105258,5.0,Object_Sea_Solid_Large,-1.0,,,,,,,,,,,
encoding,fixation,25,5972784,5974289,5973182.0,5974538.0,1357.0,1107.0,1863.3,1091.2,1920.0,1080.0,fixation,5.855804666061886,7.36095954105258,5.0,Object_Sea_Solid_Large,-1.0,,,,,,,,,,,
encoding,image,25,5974289,5975302,5974571.0,5975718.0,1148.0,731.0,1557.6,1244.9,1591.0,891.0,Object_Sea_Solid_Large,7.361085958080366,8.374395041028038,5.0,Object_Sea_Solid_Large,-1.0,,,,,,,,,,,
encoding,value,25,5975302,5981317,5975889.0,5977534.0,1646.0,1646.0,1544.4,1244.3,1591.0,891.0,Object_Sea_Solid_Large,8.37450608308427,14.388273125048729,5.0,Object_Sea_Solid_Large,-1.0,,,,,,,,,,,
encoding,value,25,5975302,5981317,5977543.0,5979004.0,1462.0,1462.0,1532.4,1222.1,1591.0,891.0,Object_Sea_Solid_Large,8.37450608308427,14.388273125048729,5.0,Object_Sea_Solid_Large,-1.0,,,,,,,,,,,
encoding,value,25,5975302,5981317,5979181.0,5980522.0,1342.0,1342.0,1543.6,1241.8,1591.0,891.0,Object_Sea_Solid_Large,8.37450608308427,14.388273125048729,5.0,Object_Sea_Solid_Large,-1.0,,,,,,,,,,,
encoding,value,25,5975302,5981317,5980692.0,5981059.0,368.0,368.0,1548.5,1252.8,1591.0,891.0,Object_Sea_Solid_Large,8.37450608308427,14.388273125048729,5.0,Object_Sea_Solid_Large,-1.0,,,,,,,,,,,
encoding,value,25,5975302,5981317,5981233.0,5981660.0,428.0,84.0,1535.9,1251.8,1591.0,891.0,Object_Sea_Solid_Large,8.37450608308427,14.388273125048729,5.0,Object_Sea_Solid_Large,-1.0,,,,,,,,,,,
encoding,attention,25,5981317,5984334,5981680.0,5981876.0,197.0,197.0,1533.1,1180.2,1591.0,891.0,Object_Sea_Solid_Large,14.388374041067436,17.406222500023432,5.0,Object_Sea_Solid_Large,-1.0,-1.0,1.0,0.9361245409818366,,,,,,,,
encoding,attention,25,5981317,5984334,5981887.0,5982032.0,146.0,146.0,1534.6,1144.4,1591.0,891.0,Object_Sea_Solid_Large,14.388374041067436,17.406222500023432,5.0,Object_Sea_Solid_Large,-1.0,-1.0,1.0,0.9361245409818366,,,,,,,,
encoding,attention,25,5981317,5984334,5982044.0,5982492.0,449.0,449.0,1624.5,1157.3,1591.0,891.0,Object_Sea_Solid_Large,14.388374041067436,17.406222500023432,5.0,Object_Sea_Solid_Large,-1.0,-1.0,1.0,0.9361245409818366,,,,,,,,
encoding,attention,25,5981317,5984334,5982515.0,5982704.0,190.0,190.0,1544.1,1238.0,1591.0,891.0,Object_Sea_Solid_Large,14.388374041067436,17.406222500023432,5.0,Object_Sea_Solid_Large,-1.0,-1.0,1.0,0.9361245409818366,,,,,,,,
encoding,attention,25,5981317,5984334,5982915.0,5983063.0,149.0,149.0,1501.5,1306.6,1591.0,891.0,Object_Sea_Solid_Large,14.388374041067436,17.406222500023432,5.0,Object_Sea_Solid_Large,-1.0,-1.0,1.0,0.9361245409818366,,,,,,,,
encoding,fixation,26,5984335,5985340,5984677.0,5984969.0,293.0,293.0,1869.9,1079.4,1920.0,1080.0,fixation,17.40638466598466,18.41174825001508,5.0,Animal_Land_Solid_Small,8.0,,,,,,,,,,,
encoding,fixation,26,5984335,5985340,5985163.0,5985583.0,421.0,177.0,1894.2,1070.6,1920.0,1080.0,fixation,17.40638466598466,18.41174825001508,5.0,Animal_Land_Solid_Small,8.0,,,,,,,,,,,
encoding,image,26,5985340,5986351,5985621.0,5985815.0,195.0,195.0,2234.1,889.8,2249.0,1269.0,Animal_Land_Solid_Small,18.411851500044577,19.422436833032407,5.0,Animal_Land_Solid_Small,8.0,,,,,,,,,,,
encoding,image,26,5985340,5986351,5985823.0,5986527.0,705.0,528.0,2257.9,920.7,2249.0,1269.0,Animal_Land_Solid_Small,18.411851500044577,19.422436833032407,5.0,Animal_Land_Solid_Small,8.0,,,,,,,,,,,
encoding,value,26,5986351,5992363,5986551.0,5987111.0,561.0,561.0,2231.2,798.4000000000001,2249.0,1269.0,Animal_Land_Solid_Small,19.4225434580585,25.43462154106237,5.0,Animal_Land_Solid_Small,8.0,,,,,,,,,,,
encoding,value,26,5986351,5992363,5987125.0,5987462.0,338.0,338.0,2231.5,906.3,2249.0,1269.0,Animal_Land_Solid_Small,19.4225434580585,25.43462154106237,5.0,Animal_Land_Solid_Small,8.0,,,,,,,,,,,
encoding,value,26,5986351,5992363,5987679.0,5988510.0,832.0,832.0,2240.3,863.5999999999999,2249.0,1269.0,Animal_Land_Solid_Small,19.4225434580585,25.43462154106237,5.0,Animal_Land_Solid_Small,8.0,,,,,,,,,,,
encoding,value,26,5986351,5992363,5988529.0,5988940.0,412.0,412.0,2220.8,789.0,2249.0,1269.0,Animal_Land_Solid_Small,19.4225434580585,25.43462154106237,5.0,Animal_Land_Solid_Small,8.0,,,,,,,,,,,
encoding,value,26,5986351,5992363,5988955.0,5989190.0,236.0,236.0,2229.1,881.0999999999999,2249.0,1269.0,Animal_Land_Solid_Small,19.4225434580585,25.43462154106237,5.0,Animal_Land_Solid_Small,8.0,,,,,,,,,,,
encoding,value,26,5986351,5992363,5989200.0,5990061.0,862.0,862.0,2245.7,932.5,2249.0,1269.0,Animal_Land_Solid_Small,19.4225434580585,25.43462154106237,5.0,Animal_Land_Solid_Small,8.0,,,,,,,,,,,
encoding,value,26,5986351,5992363,5990210.0,5990882.0,673.0,673.0,2235.3,918.2,2249.0,1269.0,Animal_Land_Solid_Small,19.4225434580585,25.43462154106237,5.0,Animal_Land_Solid_Small,8.0,,,,,,,,,,,
encoding,value,26,5986351,5992363,5991070.0,5991564.0,495.0,495.0,2245.2,934.7,2249.0,1269.0,Animal_Land_Solid_Small,19.4225434580585,25.43462154106237,5.0,Animal_Land_Solid_Small,8.0,,,,,,,,,,,
encoding,value,26,5986351,5992363,5991582.0,5992607.0,1026.0,781.0,2229.6,894.2,2249.0,1269.0,Animal_Land_Solid_Small,19.4225434580585,25.43462154106237,5.0,Animal_Land_Solid_Small,8.0,,,,,,,,,,,
encoding,attention,26,5992363,5995380,5992630.0,5992839.0,210.0,210.0,2207.7,781.9000000000001,2249.0,1269.0,Animal_Land_Solid_Small,25.434728000080213,28.45132887503132,5.0,Animal_Land_Solid_Small,8.0,8.0,1.0,1.0012524999910966,,,,,,,,
encoding,attention,26,5992363,5995380,5992850.0,5993006.0,157.0,157.0,2256.7,789.7,2249.0,1269.0,Animal_Land_Solid_Small,25.434728000080213,28.45132887503132,5.0,Animal_Land_Solid_Small,8.0,8.0,1.0,1.0012524999910966,,,,,,,,
encoding,attention,26,5992363,5995380,5993027.0,5993619.0,593.0,593.0,2173.9,788.5,2249.0,1269.0,Animal_Land_Solid_Small,25.434728000080213,28.45132887503132,5.0,Animal_Land_Solid_Small,8.0,8.0,1.0,1.0012524999910966,,,,,,,,
encoding,attention,26,5992363,5995380,5993804.0,5993941.0,138.0,138.0,2199.9,887.0999999999999,2249.0,1269.0,Animal_Land_Solid_Small,25.434728000080213,28.45132887503132,5.0,Animal_Land_Solid_Small,8.0,8.0,1.0,1.0012524999910966,,,,,,,,
encoding,attention,26,5992363,5995380,5993963.0,5994661.0,699.0,699.0,2277.9,783.0,2249.0,1269.0,Animal_Land_Solid_Small,25.434728000080213,28.45132887503132,5.0,Animal_Land_Solid_Small,8.0,8.0,1.0,1.0012524999910966,,,,,,,,
encoding,fixation,27,5995380,5995886,5995614.0,5995841.0,228.0,228.0,1875.0,1091.1,1920.0,1080.0,fixation,28.45147725008428,28.957430875045247,5.0,Object_Sea_Solid_Small,-2.0,,,,,,,,,,,
encoding,image,27,5995886,5996897,5996090.0,5996232.0,143.0,143.0,1857.4,1095.6,1920.0,1080.0,fixation,28.95753804105334,29.967996791005135,5.0,Object_Sea_Solid_Small,-2.0,,,,,,,,,,,
encoding,image,27,5995886,5996897,5996287.0,5997687.0,1401.0,610.0,1895.5,701.7,1920.0,1460.0,Object_Sea_Solid_Small,28.95753804105334,29.967996791005135,5.0,Object_Sea_Solid_Small,-2.0,,,,,,,,,,,
encoding,value,27,5996897,6002910,5997701.0,5997935.0,235.0,235.0,1906.3,622.8,1920.0,1460.0,Object_Sea_Solid_Small,29.96810316608753,35.98088225000538,5.0,Object_Sea_Solid_Small,-2.0,,,,,,,,,,,
encoding,value,27,5996897,6002910,5997954.0,5998167.0,214.0,214.0,1907.9,715.0999999999999,1920.0,1460.0,Object_Sea_Solid_Small,29.96810316608753,35.98088225000538,5.0,Object_Sea_Solid_Small,-2.0,,,,,,,,,,,
encoding,value,27,5996897,6002910,5998373.0,5999098.0,726.0,726.0,1888.8,738.8,1920.0,1460.0,Object_Sea_Solid_Small,29.96810316608753,35.98088225000538,5.0,Object_Sea_Solid_Small,-2.0,,,,,,,,,,,
encoding,value,27,5996897,6002910,5999110.0,5999723.0,614.0,614.0,1879.0,718.8,1920.0,1460.0,Object_Sea_Solid_Small,29.96810316608753,35.98088225000538,5.0,Object_Sea_Solid_Small,-2.0,,,,,,,,,,,
encoding,value,27,5996897,6002910,5999966.0,6000287.0,322.0,322.0,1866.6,717.4000000000001,1920.0,1460.0,Object_Sea_Solid_Small,29.96810316608753,35.98088225000538,5.0,Object_Sea_Solid_Small,-2.0,,,,,,,,,,,
encoding,value,27,5996897,6002910,6000505.0,6002734.0,2230.0,2230.0,1894.7,721.0999999999999,1920.0,1460.0,Object_Sea_Solid_Small,29.96810316608753,35.98088225000538,5.0,Object_Sea_Solid_Small,-2.0,,,,,,,,,,,
encoding,attention,27,6002910,6005927,6002941.0,6003263.0,323.0,323.0,1871.2,717.4000000000001,1920.0,1460.0,Object_Sea_Solid_Small,35.98100145801436,38.99758720805403,5.0,Object_Sea_Solid_Small,-2.0,-2.0,1.0,1.71163020899985,,,,,,,,
encoding,attention,27,6002910,6005927,6003284.0,6003520.0,237.0,237.0,1861.7,637.2,1920.0,1460.0,Object_Sea_Solid_Small,35.98100145801436,38.99758720805403,5.0,Object_Sea_Solid_Small,-2.0,-2.0,1.0,1.71163020899985,,,,,,,,
encoding,attention,27,6002910,6005927,6003532.0,6004913.0,1382.0,1382.0,1940.3,629.4000000000001,1920.0,1460.0,Object_Sea_Solid_Small,35.98100145801436,38.99758720805403,5.0,Object_Sea_Solid_Small,-2.0,-2.0,1.0,1.71163020899985,,,,,,,,
encoding,attention,27,6002910,6005927,6005110.0,6005242.0,133.0,133.0,2004.4,746.8,1920.0,1460.0,Object_Sea_Solid_Small,35.98100145801436,38.99758720805403,5.0,Object_Sea_Solid_Small,-2.0,-2.0,1.0,1.71163020899985,,,,,,,,
encoding,fixation,28,6005927,6006682,6006266.0,6006358.0,93.0,93.0,1881.6,1069.2,1920.0,1080.0,fixation,38.99773520801682,39.752761624986306,5.0,Object_Sea_Pattern_Large,9.0,,,,,,,,,,,
encoding,fixation,28,6005927,6006682,6006528.0,6006943.0,416.0,154.0,1884.1,1104.6,1920.0,1080.0,fixation,38.99773520801682,39.752761624986306,5.0,Object_Sea_Pattern_Large,9.0,,,,,,,,,,,
encoding,image,28,6006682,6007695,6006979.0,6008260.0,1282.0,716.0,2199.0,1273.4,2249.0,891.0,Object_Sea_Pattern_Large,39.752871125005186,40.76522633305285,5.0,Object_Sea_Pattern_Large,9.0,,,,,,,,,,,
encoding,value,28,6007695,6013707,6008424.0,6010526.0,2103.0,2103.0,2187.5,1169.6,2249.0,891.0,Object_Sea_Pattern_Large,40.7653365409933,46.777615583036095,5.0,Object_Sea_Pattern_Large,9.0,,,,,,,,,,,
encoding,value,28,6007695,6013707,6010699.0,6011103.0,405.0,405.0,2181.1,1211.5,2249.0,891.0,Object_Sea_Pattern_Large,40.7653365409933,46.777615583036095,5.0,Object_Sea_Pattern_Large,9.0,,,,,,,,,,,
encoding,value,28,6007695,6013707,6011118.0,6011711.0,594.0,594.0,2197.5,1165.5,2249.0,891.0,Object_Sea_Pattern_Large,40.7653365409933,46.777615583036095,5.0,Object_Sea_Pattern_Large,9.0,,,,,,,,,,,
encoding,value,28,6007695,6013707,6011731.0,6012240.0,510.0,510.0,2196.8,1285.9,2249.0,891.0,Object_Sea_Pattern_Large,40.7653365409933,46.777615583036095,5.0,Object_Sea_Pattern_Large,9.0,,,,,,,,,,,
encoding,value,28,6007695,6013707,6012256.0,6012511.0,256.0,256.0,2186.3,1207.3,2249.0,891.0,Object_Sea_Pattern_Large,40.7653365409933,46.777615583036095,5.0,Object_Sea_Pattern_Large,9.0,,,,,,,,,,,
encoding,value,28,6007695,6013707,6012528.0,6014159.0,1632.0,1179.0,2185.9,1186.8,2249.0,891.0,Object_Sea_Pattern_Large,40.7653365409933,46.777615583036095,5.0,Object_Sea_Pattern_Large,9.0,,,,,,,,,,,
encoding,attention,28,6013707,6016726,6014167.0,6015655.0,1489.0,1489.0,2153.4,1174.0,2249.0,891.0,Object_Sea_Pattern_Large,46.777732499991544,49.7957811250817,5.0,Object_Sea_Pattern_Large,9.0,9.0,1.0,1.5470752499531957,,,,,,,,
encoding,fixation,29,6016726,6017731,6017023.0,6017315.0,293.0,293.0,1853.8,1091.6,1920.0,1080.0,fixation,49.795989500009455,50.801089083077386,5.0,Animal_Land_Pattern_Small,4.0,,,,,,,,,,,
encoding,fixation,29,6016726,6017731,6017506.0,6017620.0,115.0,115.0,1817.7,1164.7,1591.0,891.0,Object_Sea_Solid_Large,49.795989500009455,50.801089083077386,5.0,Animal_Land_Pattern_Small,4.0,,,,,,,,,,,
encoding,fixation,29,6016726,6017731,6017639.0,6017912.0,274.0,92.0,1845.2,1094.0,1591.0,891.0,Object_Sea_Solid_Large,49.795989500009455,50.801089083077386,5.0,Animal_Land_Pattern_Small,4.0,,,,,,,,,,,
encoding,image,29,6017731,6018746,6017964.0,6018158.0,195.0,195.0,1532.2,845.5999999999999,1591.0,1269.0,Animal_Land_Pattern_Small,50.801214208011515,51.8162616250338,5.0,Animal_Land_Pattern_Small,4.0,,,,,,,,,,,
encoding,image,29,6017731,6018746,6018167.0,6019586.0,1420.0,579.0,1589.0,885.4000000000001,1591.0,1269.0,Animal_Land_Pattern_Small,50.801214208011515,51.8162616250338,5.0,Animal_Land_Pattern_Small,4.0,,,,,,,,,,,
encoding,value,29,6018746,6024758,6019594.0,6019780.0,187.0,187.0,1571.2,871.5,1591.0,1269.0,Animal_Land_Pattern_Small,51.816365875070915,57.82749962504022,5.0,Animal_Land_Pattern_Small,4.0,,,,,,,,,,,
encoding,value,29,6018746,6024758,6019987.0,6022093.0,2107.0,2107.0,1575.6,881.9000000000001,1591.0,1269.0,Animal_Land_Pattern_Small,51.816365875070915,57.82749962504022,5.0,Animal_Land_Pattern_Small,4.0,,,,,,,,,,,
encoding,value,29,6018746,6024758,6022110.0,6022367.0,258.0,258.0,1560.9,815.7,1591.0,1269.0,Animal_Land_Pattern_Small,51.816365875070915,57.82749962504022,5.0,Animal_Land_Pattern_Small,4.0,,,,,,,,,,,
encoding,value,29,6018746,6024758,6022382.0,6025169.0,2788.0,2376.0,1583.7,896.3,1591.0,1269.0,Animal_Land_Pattern_Small,51.816365875070915,57.82749962504022,5.0,Animal_Land_Pattern_Small,4.0,,,,,,,,,,,
encoding,attention,29,6024758,6027776,6025197.0,6025334.0,138.0,138.0,1516.4,824.8,1591.0,1269.0,Animal_Land_Pattern_Small,57.82761054101866,60.845861040987074,5.0,Animal_Land_Pattern_Small,4.0,4.0,1.0,1.2144362499238923,,,,,,,,
encoding,attention,29,6024758,6027776,6025506.0,6025708.0,203.0,203.0,1524.9,850.0,1591.0,1269.0,Animal_Land_Pattern_Small,57.82761054101866,60.845861040987074,5.0,Animal_Land_Pattern_Small,4.0,4.0,1.0,1.2144362499238923,,,,,,,,
encoding,fixation,30,6027776,6028282,6028078.0,6028111.0,34.0,34.0,1647.1,979.2,1591.0,1269.0,Animal_Land_Pattern_Small,60.84600675001275,61.35155108303297,5.0,Animal_Land_Pattern_Large,-9.0,,,,,,,,,,,
encoding,fixation,30,6027776,6028282,6028136.0,6028221.0,86.0,86.0,1844.5,1081.1,1591.0,891.0,Object_Sea_Solid_Large,60.84600675001275,61.35155108303297,5.0,Animal_Land_Pattern_Large,-9.0,,,,,,,,,,,
encoding,image,30,6028282,6029293,6028378.0,6028552.0,175.0,175.0,1841.7,1096.7,1591.0,891.0,Object_Sea_Solid_Large,61.35166350007057,62.36303108301945,5.0,Animal_Land_Pattern_Large,-9.0,,,,,,,,,,,
encoding,image,30,6028282,6029293,6028604.0,6028797.0,194.0,194.0,1859.5,1503.6,1920.0,700.0,Animal_Land_Pattern_Large,61.35166350007057,62.36303108301945,5.0,Animal_Land_Pattern_Large,-9.0,,,,,,,,,,,
encoding,image,30,6028282,6029293,6028809.0,6029164.0,356.0,356.0,1822.9,1534.9,1920.0,700.0,Animal_Land_Pattern_Large,61.35166350007057,62.36303108301945,5.0,Animal_Land_Pattern_Large,-9.0,,,,,,,,,,,
encoding,value,30,6029293,6035305,6029330.0,6029663.0,334.0,334.0,1829.0,1553.7,1920.0,700.0,Animal_Land_Pattern_Large,62.36313425004482,68.37394854100421,5.0,Animal_Land_Pattern_Large,-9.0,,,,,,,,,,,
encoding,value,30,6029293,6035305,6029685.0,6030515.0,831.0,831.0,1877.7,1400.4,1920.0,700.0,Animal_Land_Pattern_Large,62.36313425004482,68.37394854100421,5.0,Animal_Land_Pattern_Large,-9.0,,,,,,,,,,,
encoding,value,30,6029293,6035305,6030539.0,6031076.0,538.0,538.0,1828.5,1523.0,1920.0,700.0,Animal_Land_Pattern_Large,62.36313425004482,68.37394854100421,5.0,Animal_Land_Pattern_Large,-9.0,,,,,,,,,,,
encoding,value,30,6029293,6035305,6031085.0,6031599.0,515.0,515.0,1869.7,1508.7,1920.0,700.0,Animal_Land_Pattern_Large,62.36313425004482,68.37394854100421,5.0,Animal_Land_Pattern_Large,-9.0,,,,,,,,,,,
encoding,value,30,6029293,6035305,6031615.0,6031787.0,173.0,173.0,1826.6,1517.1,1920.0,700.0,Animal_Land_Pattern_Large,62.36313425004482,68.37394854100421,5.0,Animal_Land_Pattern_Large,-9.0,,,,,,,,,,,
encoding,value,30,6029293,6035305,6031956.0,6033126.0,1171.0,1171.0,1819.6,1511.2,1920.0,700.0,Animal_Land_Pattern_Large,62.36313425004482,68.37394854100421,5.0,Animal_Land_Pattern_Large,-9.0,,,,,,,,,,,
encoding,value,30,6029293,6035305,6033302.0,6033729.0,428.0,428.0,1864.8,1384.3,1920.0,700.0,Animal_Land_Pattern_Large,62.36313425004482,68.37394854100421,5.0,Animal_Land_Pattern_Large,-9.0,,,,,,,,,,,
encoding,value,30,6029293,6035305,6033752.0,6034067.0,316.0,316.0,1859.2,1494.4,1920.0,700.0,Animal_Land_Pattern_Large,62.36313425004482,68.37394854100421,5.0,Animal_Land_Pattern_Large,-9.0,,,,,,,,,,,
encoding,value,30,6029293,6035305,6034087.0,6034289.0,203.0,203.0,1860.5,1394.3,1920.0,700.0,Animal_Land_Pattern_Large,62.36313425004482,68.37394854100421,5.0,Animal_Land_Pattern_Large,-9.0,,,,,,,,,,,
encoding,value,30,6029293,6035305,6034296.0,6034611.0,316.0,316.0,1855.2,1376.3,1920.0,700.0,Animal_Land_Pattern_Large,62.36313425004482,68.37394854100421,5.0,Animal_Land_Pattern_Large,-9.0,,,,,,,,,,,
encoding,value,30,6029293,6035305,6034630.0,6035079.0,450.0,450.0,1838.1,1487.1,1920.0,700.0,Animal_Land_Pattern_Large,62.36313425004482,68.37394854100421,5.0,Animal_Land_Pattern_Large,-9.0,,,,,,,,,,,
encoding,value,30,6029293,6035305,6035094.0,6035268.0,175.0,175.0,1874.0,1420.7,1920.0,700.0,Animal_Land_Pattern_Large,62.36313425004482,68.37394854100421,5.0,Animal_Land_Pattern_Large,-9.0,,,,,,,,,,,
encoding,value,30,6029293,6035305,6035278.0,6035619.0,342.0,27.0,1862.0,1386.7,1920.0,700.0,Animal_Land_Pattern_Large,62.36313425004482,68.37394854100421,5.0,Animal_Land_Pattern_Large,-9.0,,,,,,,,,,,
encoding,attention,30,6035305,6038324,6035639.0,6036215.0,577.0,577.0,1803.4,1380.6,1920.0,700.0,Animal_Land_Pattern_Large,68.37411837500986,71.3928393330425,5.0,Animal_Land_Pattern_Large,-9.0,-9.0,1.0,1.1892206250922754,,,,,,,,
encoding,attention,30,6035305,6038324,6036224.0,6036980.0,757.0,757.0,1839.5,1390.3,1920.0,700.0,Animal_Land_Pattern_Large,68.37411837500986,71.3928393330425,5.0,Animal_Land_Pattern_Large,-9.0,-9.0,1.0,1.1892206250922754,,,,,,,,
encoding,fixation,31,6366561,6367067,6366798.0,6366973.0,176.0,176.0,1859.8,1076.5,1920.0,1080.0,fixation,6.663422791985795,7.169164250022732,6.0,Animal_Land_Pattern_Small,-8.0,,,,,,,,,,,
encoding,fixation,31,6366561,6367067,6366980.0,6367096.0,117.0,87.0,1882.1,1085.1,1920.0,1080.0,fixation,6.663422791985795,7.169164250022732,6.0,Animal_Land_Pattern_Small,-8.0,,,,,,,,,,,
encoding,image,31,6367067,6368080,6367266.0,6367374.0,109.0,109.0,1874.5,1144.6,1591.0,891.0,Object_Sea_Solid_Large,7.1692877089371905,8.182507749996148,6.0,Animal_Land_Pattern_Small,-8.0,,,,,,,,,,,
encoding,image,31,6367067,6368080,6367386.0,6367420.0,35.0,35.0,1857.9,1093.4,1920.0,1080.0,fixation,7.1692877089371905,8.182507749996148,6.0,Animal_Land_Pattern_Small,-8.0,,,,,,,,,,,
encoding,image,31,6367067,6368080,6367455.0,6367585.0,131.0,131.0,1511.8,867.0,1591.0,1269.0,Animal_Land_Pattern_Small,7.1692877089371905,8.182507749996148,6.0,Animal_Land_Pattern_Small,-8.0,,,,,,,,,,,
encoding,image,31,6367067,6368080,6367596.0,6368570.0,975.0,484.0,1596.2,879.4000000000001,1591.0,1269.0,Animal_Land_Pattern_Small,7.1692877089371905,8.182507749996148,6.0,Animal_Land_Pattern_Small,-8.0,,,,,,,,,,,
encoding,value,31,6368081,6374094,6368590.0,6368828.0,239.0,239.0,1579.2,825.5,1591.0,1269.0,Animal_Land_Pattern_Small,8.182689833920449,14.195509291952476,6.0,Animal_Land_Pattern_Small,-8.0,,,,,,,,,,,
encoding,value,31,6368081,6374094,6368841.0,6369326.0,486.0,486.0,1589.2,900.8,1591.0,1269.0,Animal_Land_Pattern_Small,8.182689833920449,14.195509291952476,6.0,Animal_Land_Pattern_Small,-8.0,,,,,,,,,,,
encoding,value,31,6368081,6374094,6369347.0,6369934.0,588.0,588.0,1578.7,797.0,1591.0,1269.0,Animal_Land_Pattern_Small,8.182689833920449,14.195509291952476,6.0,Animal_Land_Pattern_Small,-8.0,,,,,,,,,,,
encoding,value,31,6368081,6374094,6369948.0,6370064.0,117.0,117.0,1556.4,874.7,1591.0,1269.0,Animal_Land_Pattern_Small,8.182689833920449,14.195509291952476,6.0,Animal_Land_Pattern_Small,-8.0,,,,,,,,,,,
encoding,value,31,6368081,6374094,6370276.0,6370507.0,232.0,232.0,1554.9,900.9000000000001,1591.0,1269.0,Animal_Land_Pattern_Small,8.182689833920449,14.195509291952476,6.0,Animal_Land_Pattern_Small,-8.0,,,,,,,,,,,
encoding,value,31,6368081,6374094,6370516.0,6371721.0,1206.0,1206.0,1605.8,899.7,1591.0,1269.0,Animal_Land_Pattern_Small,8.182689833920449,14.195509291952476,6.0,Animal_Land_Pattern_Small,-8.0,,,,,,,,,,,
encoding,value,31,6368081,6374094,6371740.0,6372603.0,864.0,864.0,1579.5,783.8,1591.0,1269.0,Animal_Land_Pattern_Small,8.182689833920449,14.195509291952476,6.0,Animal_Land_Pattern_Small,-8.0,,,,,,,,,,,
encoding,value,31,6368081,6374094,6372626.0,6372808.0,183.0,183.0,1592.2,891.3,1591.0,1269.0,Animal_Land_Pattern_Small,8.182689833920449,14.195509291952476,6.0,Animal_Land_Pattern_Small,-8.0,,,,,,,,,,,
encoding,value,31,6368081,6374094,6373008.0,6373263.0,256.0,256.0,1572.9,912.2,1591.0,1269.0,Animal_Land_Pattern_Small,8.182689833920449,14.195509291952476,6.0,Animal_Land_Pattern_Small,-8.0,,,,,,,,,,,
encoding,value,31,6368081,6374094,6373271.0,6373505.0,235.0,235.0,1573.9,880.0,1591.0,1269.0,Animal_Land_Pattern_Small,8.182689833920449,14.195509291952476,6.0,Animal_Land_Pattern_Small,-8.0,,,,,,,,,,,
encoding,value,31,6368081,6374094,6373521.0,6374373.0,853.0,573.0,1583.9,804.0999999999999,1591.0,1269.0,Animal_Land_Pattern_Small,8.182689833920449,14.195509291952476,6.0,Animal_Land_Pattern_Small,-8.0,,,,,,,,,,,
encoding,attention,31,6374094,6377112,6374402.0,6375079.0,678.0,678.0,1605.2,892.5,1591.0,1269.0,Animal_Land_Pattern_Small,14.195619249949232,17.213123166933656,6.0,Animal_Land_Pattern_Small,-8.0,-8.0,1.0,0.7560431660385802,,,,,,,,
encoding,attention,31,6374094,6377112,6375087.0,6375418.0,332.0,332.0,1584.0,896.0999999999999,1591.0,1269.0,Animal_Land_Pattern_Small,14.195619249949232,17.213123166933656,6.0,Animal_Land_Pattern_Small,-8.0,-8.0,1.0,0.7560431660385802,,,,,,,,
encoding,attention,31,6374094,6377112,6375665.0,6376771.0,1107.0,1107.0,1616.1,905.5999999999999,1591.0,1269.0,Animal_Land_Pattern_Small,14.195619249949232,17.213123166933656,6.0,Animal_Land_Pattern_Small,-8.0,-8.0,1.0,0.7560431660385802,,,,,,,,
encoding,fixation,32,6377112,6377867,6377809.0,6377850.0,42.0,42.0,1674.2,944.7,1591.0,1269.0,Animal_Land_Pattern_Small,17.213355874991976,17.968537708977237,6.0,Animal_Sea_Solid_Small,1.0,,,,,,,,,,,
encoding,image,32,6377867,6378879,6377870.0,6378159.0,290.0,290.0,1580.2,911.2,1591.0,1269.0,Animal_Land_Pattern_Small,17.968640459002927,18.98002625000663,6.0,Animal_Sea_Solid_Small,1.0,,,,,,,,,,,
encoding,image,32,6377867,6378879,6378219.0,6378568.0,350.0,350.0,2210.0,1299.9,2249.0,891.0,Animal_Sea_Solid_Small,17.968640459002927,18.98002625000663,6.0,Animal_Sea_Solid_Small,1.0,,,,,,,,,,,
encoding,image,32,6377867,6378879,6378578.0,6378726.0,149.0,149.0,2156.9,1301.0,2249.0,891.0,Animal_Sea_Solid_Small,17.968640459002927,18.98002625000663,6.0,Animal_Sea_Solid_Small,1.0,,,,,,,,,,,
encoding,image,32,6377867,6378879,6378736.0,6379395.0,660.0,143.0,2211.2,1307.8,2249.0,891.0,Animal_Sea_Solid_Small,17.968640459002927,18.98002625000663,6.0,Animal_Sea_Solid_Small,1.0,,,,,,,,,,,
encoding,value,32,6378879,6384891,6379403.0,6379564.0,162.0,162.0,2227.1,1277.5,2249.0,891.0,Animal_Sea_Solid_Small,18.980225708917715,24.992466249968857,6.0,Animal_Sea_Solid_Small,1.0,,,,,,,,,,,
encoding,value,32,6378879,6384891,6379720.0,6380209.0,490.0,490.0,2227.0,1307.0,2249.0,891.0,Animal_Sea_Solid_Small,18.980225708917715,24.992466249968857,6.0,Animal_Sea_Solid_Small,1.0,,,,,,,,,,,
encoding,value,32,6378879,6384891,6380225.0,6381224.0,1000.0,1000.0,2231.2,1302.5,2249.0,891.0,Animal_Sea_Solid_Small,18.980225708917715,24.992466249968857,6.0,Animal_Sea_Solid_Small,1.0,,,,,,,,,,,
encoding,value,32,6378879,6384891,6381241.0,6381771.0,531.0,531.0,2212.9,1292.2,2249.0,891.0,Animal_Sea_Solid_Small,18.980225708917715,24.992466249968857,6.0,Animal_Sea_Solid_Small,1.0,,,,,,,,,,,
encoding,value,32,6378879,6384891,6381938.0,6382344.0,407.0,407.0,2220.8,1309.8,2249.0,891.0,Animal_Sea_Solid_Small,18.980225708917715,24.992466249968857,6.0,Animal_Sea_Solid_Small,1.0,,,,,,,,,,,
encoding,value,32,6378879,6384891,6382539.0,6383108.0,570.0,570.0,2238.1,1302.2,2249.0,891.0,Animal_Sea_Solid_Small,18.980225708917715,24.992466249968857,6.0,Animal_Sea_Solid_Small,1.0,,,,,,,,,,,
encoding,value,32,6378879,6384891,6383115.0,6383574.0,460.0,460.0,2228.4,1282.7,2249.0,891.0,Animal_Sea_Solid_Small,18.980225708917715,24.992466249968857,6.0,Animal_Sea_Solid_Small,1.0,,,,,,,,,,,
encoding,value,32,6378879,6384891,6383583.0,6384179.0,597.0,597.0,2202.0,1269.3,2249.0,891.0,Animal_Sea_Solid_Small,18.980225708917715,24.992466249968857,6.0,Animal_Sea_Solid_Small,1.0,,,,,,,,,,,
encoding,value,32,6378879,6384891,6384189.0,6384391.0,203.0,203.0,2222.2,1308.0,2249.0,891.0,Animal_Sea_Solid_Small,18.980225708917715,24.992466249968857,6.0,Animal_Sea_Solid_Small,1.0,,,,,,,,,,,
encoding,value,32,6378879,6384891,6384558.0,6385769.0,1212.0,333.0,2217.8,1305.0,2249.0,891.0,Animal_Sea_Solid_Small,18.980225708917715,24.992466249968857,6.0,Animal_Sea_Solid_Small,1.0,,,,,,,,,,,
encoding,attention,32,6384891,6387910,6385928.0,6386283.0,356.0,356.0,2216.0,1297.7,2249.0,891.0,Animal_Sea_Solid_Small,24.99257858400233,28.01088620896917,6.0,Animal_Sea_Solid_Small,1.0,1.0,1.0,2.561315209022723,,,,,,,,
encoding,attention,32,6384891,6387910,6386305.0,6387745.0,1441.0,1441.0,2184.1,1195.8,2249.0,891.0,Animal_Sea_Solid_Small,24.99257858400233,28.01088620896917,6.0,Animal_Sea_Solid_Small,1.0,1.0,1.0,2.561315209022723,,,,,,,,
encoding,fixation,33,6387910,6388415,,,,,,,,,none,28.01102912495844,28.516064249910418,6.0,Object_Sea_Solid_Large,-6.0,,,,,,,,,,,
encoding,image,33,6388415,6389427,6388673.0,6388908.0,236.0,236.0,1616.1,1264.0,1591.0,891.0,Object_Sea_Solid_Large,28.516166166984476,29.528212041943338,6.0,Object_Sea_Solid_Large,-6.0,,,,,,,,,,,
encoding,image,33,6388415,6389427,6388919.0,6389182.0,264.0,264.0,1574.7,1275.7,1591.0,891.0,Object_Sea_Solid_Large,28.516166166984476,29.528212041943338,6.0,Object_Sea_Solid_Large,-6.0,,,,,,,,,,,
encoding,image,33,6388415,6389427,6389190.0,6389589.0,400.0,237.0,1557.4,1266.5,1591.0,891.0,Object_Sea_Solid_Large,28.516166166984476,29.528212041943338,6.0,Object_Sea_Solid_Large,-6.0,,,,,,,,,,,
encoding,value,33,6389427,6395440,6389605.0,6389858.0,254.0,254.0,1610.3,1186.0,1591.0,891.0,Object_Sea_Solid_Large,29.528361208969727,35.54105879191775,6.0,Object_Sea_Solid_Large,-6.0,,,,,,,,,,,
encoding,value,33,6389427,6395440,6390020.0,6390477.0,458.0,458.0,1578.9,1269.2,1591.0,891.0,Object_Sea_Solid_Large,29.528361208969727,35.54105879191775,6.0,Object_Sea_Solid_Large,-6.0,,,,,,,,,,,
encoding,value,33,6389427,6395440,6390671.0,6391329.0,659.0,659.0,1593.6,1228.7,1591.0,891.0,Object_Sea_Solid_Large,29.528361208969727,35.54105879191775,6.0,Object_Sea_Solid_Large,-6.0,,,,,,,,,,,
encoding,value,33,6389427,6395440,6391344.0,6392163.0,820.0,820.0,1589.2,1164.2,1591.0,891.0,Object_Sea_Solid_Large,29.528361208969727,35.54105879191775,6.0,Object_Sea_Solid_Large,-6.0,,,,,,,,,,,
encoding,value,33,6389427,6395440,6392365.0,6392476.0,112.0,112.0,1563.7,1217.7,1591.0,891.0,Object_Sea_Solid_Large,29.528361208969727,35.54105879191775,6.0,Object_Sea_Solid_Large,-6.0,,,,,,,,,,,
encoding,value,33,6389427,6395440,6392488.0,6395765.0,3278.0,2952.0,1583.2,1168.1,1591.0,891.0,Object_Sea_Solid_Large,29.528361208969727,35.54105879191775,6.0,Object_Sea_Solid_Large,-6.0,,,,,,,,,,,
encoding,attention,33,6395440,6398459,6395774.0,6396668.0,895.0,895.0,1531.3,1161.4,1591.0,891.0,Object_Sea_Solid_Large,35.54117712494917,38.559954624972306,6.0,Object_Sea_Solid_Large,-6.0,-6.0,1.0,0.941179999965243,,,,,,,,
encoding,attention,33,6395440,6398459,6396683.0,6396781.0,99.0,99.0,1522.9,1240.6,1591.0,891.0,Object_Sea_Solid_Large,35.54117712494917,38.559954624972306,6.0,Object_Sea_Solid_Large,-6.0,-6.0,1.0,0.941179999965243,,,,,,,,
encoding,attention,33,6395440,6398459,6396997.0,6398250.0,1254.0,1254.0,1561.8,1263.3,1591.0,891.0,Object_Sea_Solid_Large,35.54117712494917,38.559954624972306,6.0,Object_Sea_Solid_Large,-6.0,-6.0,1.0,0.941179999965243,,,,,,,,
encoding,fixation,34,6398459,6399465,6398981.0,6399700.0,720.0,484.0,1887.2,1094.9,1920.0,1080.0,fixation,38.560096084023826,39.56538637494669,6.0,Animal_Sea_Pattern_Large,4.0,,,,,,,,,,,
encoding,image,34,6399465,6400476,6399730.0,6400560.0,831.0,746.0,2166.4,915.0,2249.0,1269.0,Animal_Sea_Pattern_Large,39.56549258402083,40.575984374969266,6.0,Animal_Sea_Pattern_Large,4.0,,,,,,,,,,,
encoding,value,34,6400476,6406487,6400573.0,6400885.0,313.0,313.0,2223.5,887.5999999999999,2249.0,1269.0,Animal_Sea_Pattern_Large,40.57610283396207,46.5877940839855,6.0,Animal_Sea_Pattern_Large,4.0,,,,,,,,,,,
encoding,value,34,6400476,6406487,6400907.0,6401276.0,370.0,370.0,2244.5,813.5,2249.0,1269.0,Animal_Sea_Pattern_Large,40.57610283396207,46.5877940839855,6.0,Animal_Sea_Pattern_Large,4.0,,,,,,,,,,,
encoding,value,34,6400476,6406487,6401294.0,6401748.0,455.0,455.0,2197.7,903.2,2249.0,1269.0,Animal_Sea_Pattern_Large,40.57610283396207,46.5877940839855,6.0,Animal_Sea_Pattern_Large,4.0,,,,,,,,,,,
encoding,value,34,6400476,6406487,6401766.0,6402314.0,549.0,549.0,2203.6,808.7,2249.0,1269.0,Animal_Sea_Pattern_Large,40.57610283396207,46.5877940839855,6.0,Animal_Sea_Pattern_Large,4.0,,,,,,,,,,,
encoding,value,34,6400476,6406487,6402490.0,6403078.0,589.0,589.0,2210.2,894.8,2249.0,1269.0,Animal_Sea_Pattern_Large,40.57610283396207,46.5877940839855,6.0,Animal_Sea_Pattern_Large,4.0,,,,,,,,,,,
encoding,value,34,6400476,6406487,6403086.0,6403795.0,710.0,710.0,2176.7,878.2,2249.0,1269.0,Animal_Sea_Pattern_Large,40.57610283396207,46.5877940839855,6.0,Animal_Sea_Pattern_Large,4.0,,,,,,,,,,,
encoding,value,34,6400476,6406487,6403803.0,6404156.0,354.0,354.0,2221.3,861.2,2249.0,1269.0,Animal_Sea_Pattern_Large,40.57610283396207,46.5877940839855,6.0,Animal_Sea_Pattern_Large,4.0,,,,,,,,,,,
encoding,value,34,6400476,6406487,6404174.0,6405376.0,1203.0,1203.0,2186.1,887.8,2249.0,1269.0,Animal_Sea_Pattern_Large,40.57610283396207,46.5877940839855,6.0,Animal_Sea_Pattern_Large,4.0,,,,,,,,,,,
