phase,event,trial_number,eyetracker_onset,eyetracker_offset,fix_start,fix_end,fix_duration_full,fix_duration_bounded,fix_x,fix_y,roi_x,roi_y,roi_content,onset,offset,game,image,outcome,choice,correct,rt,letter,match,response,option,true_value,true_position,recalled_position,Unnamed: 18
encoding,fixation,1,1774833,1775596,1774922.0,1775079.0,158.0,158.0,1847.2,1215.0,1920.0,700.0,Animal_Land_Pattern_Large,8.338779624999916,9.101534415999822,1.0,Animal_Land_Solid_Large,2.0,,,,,,,,,,,
encoding,fixation,1,1774833,1775596,1775100.0,1775761.0,662.0,496.0,1910.3,1084.2,1920.0,1080.0,fixation,8.338779624999916,9.101534415999822,1.0,Animal_Land_Solid_Large,2.0,,,,,,,,,,,
encoding,image,1,1775596,1776613,1775798.0,1776031.0,234.0,234.0,2228.5,936.5999999999999,2249.0,1269.0,Animal_Land_Solid_Large,9.101656540999784,10.118464415999824,1.0,Animal_Land_Solid_Large,2.0,,,,,,,,,,,
encoding,image,1,1775596,1776613,1776222.0,1776810.0,589.0,391.0,2227.3,884.3,2249.0,1269.0,Animal_Land_Solid_Large,9.101656540999784,10.118464415999824,1.0,Animal_Land_Solid_Large,2.0,,,,,,,,,,,
encoding,value,1,1776613,1782629,1776823.0,1777035.0,213.0,213.0,2241.1,795.5999999999999,2249.0,1269.0,Animal_Land_Solid_Large,10.118567249999842,16.134310832999972,1.0,Animal_Land_Solid_Large,2.0,,,,,,,,,,,
encoding,value,1,1776613,1782629,1777222.0,1777506.0,285.0,285.0,2238.5,895.8,2249.0,1269.0,Animal_Land_Solid_Large,10.118567249999842,16.134310832999972,1.0,Animal_Land_Solid_Large,2.0,,,,,,,,,,,
encoding,value,1,1776613,1782629,1777521.0,1778133.0,613.0,613.0,2231.7,798.4000000000001,2249.0,1269.0,Animal_Land_Solid_Large,10.118567249999842,16.134310832999972,1.0,Animal_Land_Solid_Large,2.0,,,,,,,,,,,
encoding,value,1,1776613,1782629,1778324.0,1778536.0,213.0,213.0,2226.7,889.2,2249.0,1269.0,Animal_Land_Solid_Large,10.118567249999842,16.134310832999972,1.0,Animal_Land_Solid_Large,2.0,,,,,,,,,,,
encoding,value,1,1776613,1782629,1778548.0,1781438.0,2891.0,2891.0,2227.7,808.8,2249.0,1269.0,Animal_Land_Solid_Large,10.118567249999842,16.134310832999972,1.0,Animal_Land_Solid_Large,2.0,,,,,,,,,,,
encoding,value,1,1776613,1782629,1781602.0,1782952.0,1351.0,1027.0,2231.6,819.7,2249.0,1269.0,Animal_Land_Solid_Large,10.118567249999842,16.134310832999972,1.0,Animal_Land_Solid_Large,2.0,,,,,,,,,,,
encoding,attention,1,1782629,1785648,1783155.0,1784216.0,1062.0,1062.0,2178.8,848.0999999999999,2249.0,1269.0,Animal_Land_Solid_Large,16.13442745799989,19.152764165999997,1.0,Animal_Land_Solid_Large,2.0,2.0,1.0,1.331041040999935,,,,,,,,
encoding,attention,1,1782629,1785648,1784436.0,1784567.0,132.0,132.0,2230.7,979.0,2249.0,1269.0,Animal_Land_Solid_Large,16.13442745799989,19.152764165999997,1.0,Animal_Land_Solid_Large,2.0,2.0,1.0,1.331041040999935,,,,,,,,
encoding,attention,1,1782629,1785648,1784819.0,1785000.0,182.0,182.0,2217.8,893.8,2249.0,1269.0,Animal_Land_Solid_Large,16.13442745799989,19.152764165999997,1.0,Animal_Land_Solid_Large,2.0,2.0,1.0,1.331041040999935,,,,,,,,
encoding,fixation,2,1785648,1786654,1785860.0,1786309.0,450.0,450.0,1919.7,1053.3,1920.0,1080.0,fixation,19.15292404099978,20.15901308299999,1.0,Animal_Land_Pattern_Large,5.0,,,,,,,,,,,
encoding,fixation,2,1785648,1786654,1786471.0,1786641.0,171.0,171.0,1927.4,1085.4,1920.0,1080.0,fixation,19.15292404099978,20.15901308299999,1.0,Animal_Land_Pattern_Large,5.0,,,,,,,,,,,
encoding,image,2,1786654,1787665,1786892.0,1787010.0,119.0,119.0,1947.7,1083.6,1920.0,1080.0,fixation,20.159121624999894,21.169856082999782,1.0,Animal_Land_Pattern_Large,5.0,,,,,,,,,,,
encoding,image,2,1786654,1787665,1787048.0,1787398.0,351.0,351.0,1905.1,1395.1,1920.0,700.0,Animal_Land_Pattern_Large,20.159121624999894,21.169856082999782,1.0,Animal_Land_Pattern_Large,5.0,,,,,,,,,,,
encoding,image,2,1786654,1787665,1787422.0,1787698.0,277.0,243.0,1924.7,1226.7,1920.0,700.0,Animal_Land_Pattern_Large,20.159121624999894,21.169856082999782,1.0,Animal_Land_Pattern_Large,5.0,,,,,,,,,,,
encoding,value,2,1787665,1793679,1787707.0,1787893.0,187.0,187.0,1885.0,1253.9,1920.0,700.0,Animal_Land_Pattern_Large,21.16997570799981,27.183453415999793,1.0,Animal_Land_Pattern_Large,5.0,,,,,,,,,,,
encoding,value,2,1787665,1793679,1787914.0,1788072.0,159.0,159.0,1927.7,1363.8,1920.0,700.0,Animal_Land_Pattern_Large,21.16997570799981,27.183453415999793,1.0,Animal_Land_Pattern_Large,5.0,,,,,,,,,,,
encoding,value,2,1787665,1793679,1788249.0,1788289.0,41.0,41.0,1916.9,1458.4,1920.0,700.0,Animal_Land_Pattern_Large,21.16997570799981,27.183453415999793,1.0,Animal_Land_Pattern_Large,5.0,,,,,,,,,,,
encoding,value,2,1787665,1793679,1788472.0,1788643.0,172.0,172.0,1908.1,1481.9,1920.0,700.0,Animal_Land_Pattern_Large,21.16997570799981,27.183453415999793,1.0,Animal_Land_Pattern_Large,5.0,,,,,,,,,,,
encoding,value,2,1787665,1793679,1788655.0,1789246.0,592.0,592.0,1867.2,1490.3,1920.0,700.0,Animal_Land_Pattern_Large,21.16997570799981,27.183453415999793,1.0,Animal_Land_Pattern_Large,5.0,,,,,,,,,,,
encoding,value,2,1787665,1793679,1789267.0,1789447.0,181.0,181.0,1899.8,1377.1,1920.0,700.0,Animal_Land_Pattern_Large,21.16997570799981,27.183453415999793,1.0,Animal_Land_Pattern_Large,5.0,,,,,,,,,,,
encoding,value,2,1787665,1793679,1789463.0,1789688.0,226.0,226.0,1870.3,1454.6,1920.0,700.0,Animal_Land_Pattern_Large,21.16997570799981,27.183453415999793,1.0,Animal_Land_Pattern_Large,5.0,,,,,,,,,,,
encoding,value,2,1787665,1793679,1789825.0,1793020.0,3196.0,3196.0,1895.6,1346.1,1920.0,700.0,Animal_Land_Pattern_Large,21.16997570799981,27.183453415999793,1.0,Animal_Land_Pattern_Large,5.0,,,,,,,,,,,
encoding,value,2,1787665,1793679,1793130.0,1794072.0,943.0,549.0,1885.0,1365.2,1920.0,700.0,Animal_Land_Pattern_Large,21.16997570799981,27.183453415999793,1.0,Animal_Land_Pattern_Large,5.0,,,,,,,,,,,
encoding,attention,2,1793679,1796697,1794086.0,1794653.0,568.0,568.0,1945.3,1367.5,1920.0,700.0,Animal_Land_Pattern_Large,27.1835665829999,30.20142254099983,1.0,Animal_Land_Pattern_Large,5.0,5.0,1.0,0.7414914159999171,,,,,,,,
encoding,attention,2,1793679,1796697,1794797.0,1795428.0,632.0,632.0,1912.9,1380.8,1920.0,700.0,Animal_Land_Pattern_Large,27.1835665829999,30.20142254099983,1.0,Animal_Land_Pattern_Large,5.0,5.0,1.0,0.7414914159999171,,,,,,,,
encoding,attention,2,1793679,1796697,1795605.0,1796376.0,772.0,772.0,1908.3,1368.2,1920.0,700.0,Animal_Land_Pattern_Large,27.1835665829999,30.20142254099983,1.0,Animal_Land_Pattern_Large,5.0,5.0,1.0,0.7414914159999171,,,,,,,,
encoding,fixation,3,1796697,1797203,1796918.0,1797239.0,322.0,285.0,1890.5,1088.7,1920.0,1080.0,fixation,30.20157812499997,30.707207208,1.0,Object_Land_Solid_Small,-8.0,,,,,,,,,,,
encoding,image,3,1797203,1798214,1797278.0,1797440.0,163.0,163.0,1878.0,1347.1,1920.0,700.0,Animal_Land_Pattern_Large,30.707325999999966,31.718941249999943,1.0,Object_Land_Solid_Small,-8.0,,,,,,,,,,,
encoding,image,3,1797203,1798214,1797487.0,1797640.0,154.0,154.0,1610.1,954.0999999999999,1591.0,1269.0,Object_Land_Solid_Small,30.707325999999966,31.718941249999943,1.0,Object_Land_Solid_Small,-8.0,,,,,,,,,,,
encoding,image,3,1797203,1798214,1797649.0,1798391.0,743.0,565.0,1575.4,906.3,1591.0,1269.0,Object_Land_Solid_Small,30.707325999999966,31.718941249999943,1.0,Object_Land_Solid_Small,-8.0,,,,,,,,,,,
encoding,value,3,1798215,1804231,1798409.0,1798556.0,148.0,148.0,1584.8,811.0,1591.0,1269.0,Object_Land_Solid_Small,31.719115957999975,37.73487662499997,1.0,Object_Land_Solid_Small,-8.0,,,,,,,,,,,
encoding,value,3,1798215,1804231,1798842.0,1798953.0,112.0,112.0,1597.7,905.0999999999999,1591.0,1269.0,Object_Land_Solid_Small,31.719115957999975,37.73487662499997,1.0,Object_Land_Solid_Small,-8.0,,,,,,,,,,,
encoding,value,3,1798215,1804231,1798962.0,1800382.0,1421.0,1421.0,1562.3,935.0999999999999,1591.0,1269.0,Object_Land_Solid_Small,31.719115957999975,37.73487662499997,1.0,Object_Land_Solid_Small,-8.0,,,,,,,,,,,
encoding,value,3,1798215,1804231,1800398.0,1802795.0,2398.0,2398.0,1563.4,831.5,1591.0,1269.0,Object_Land_Solid_Small,31.719115957999975,37.73487662499997,1.0,Object_Land_Solid_Small,-8.0,,,,,,,,,,,
encoding,value,3,1798215,1804231,1803834.0,1803921.0,88.0,88.0,1570.2,914.5,1591.0,1269.0,Object_Land_Solid_Small,31.719115957999975,37.73487662499997,1.0,Object_Land_Solid_Small,-8.0,,,,,,,,,,,
encoding,value,3,1798215,1804231,1803943.0,1804072.0,130.0,130.0,1571.1,917.8,1591.0,1269.0,Object_Land_Solid_Small,31.719115957999975,37.73487662499997,1.0,Object_Land_Solid_Small,-8.0,,,,,,,,,,,
encoding,value,3,1798215,1804231,1804116.0,1804153.0,38.0,38.0,1574.1,905.8,1591.0,1269.0,Object_Land_Solid_Small,31.719115957999975,37.73487662499997,1.0,Object_Land_Solid_Small,-8.0,,,,,,,,,,,
encoding,value,3,1798215,1804231,1804177.0,1805190.0,1014.0,54.0,1552.3,865.8,1591.0,1269.0,Object_Land_Solid_Small,31.719115957999975,37.73487662499997,1.0,Object_Land_Solid_Small,-8.0,,,,,,,,,,,
encoding,attention,3,1804231,1807249,,,,,,,,,none,37.735069665999845,40.752604124999834,1.0,Object_Land_Solid_Small,-8.0,-8.0,1.0,0.7279652920001354,,,,,,,,
encoding,fixation,4,1807249,1808254,1807491.0,1808462.0,972.0,763.0,1875.3,1102.1,1920.0,1080.0,fixation,40.752819457999976,41.75801254099997,1.0,Object_Sea_Pattern_Large,-1.0,,,,,,,,,,,
encoding,image,4,1808254,1809265,1808503.0,1808745.0,243.0,243.0,1884.0,703.3,1920.0,1460.0,Object_Sea_Pattern_Large,41.758136165999986,42.76874566599986,1.0,Object_Sea_Pattern_Large,-1.0,,,,,,,,,,,
encoding,image,4,1808254,1809265,1809097.0,1809468.0,372.0,168.0,1878.3,755.9000000000001,1920.0,1460.0,Object_Sea_Pattern_Large,41.758136165999986,42.76874566599986,1.0,Object_Sea_Pattern_Large,-1.0,,,,,,,,,,,
encoding,value,4,1809265,1815277,1809481.0,1809986.0,506.0,506.0,1893.8,663.8,1920.0,1460.0,Object_Sea_Pattern_Large,42.7688596659998,48.780591165999795,1.0,Object_Sea_Pattern_Large,-1.0,,,,,,,,,,,
encoding,value,4,1809265,1815277,1810019.0,1810468.0,450.0,450.0,1902.6,773.5,1920.0,1460.0,Object_Sea_Pattern_Large,42.7688596659998,48.780591165999795,1.0,Object_Sea_Pattern_Large,-1.0,,,,,,,,,,,
encoding,value,4,1809265,1815277,1810807.0,1813217.0,2411.0,2411.0,1883.4,717.0,1920.0,1460.0,Object_Sea_Pattern_Large,42.7688596659998,48.780591165999795,1.0,Object_Sea_Pattern_Large,-1.0,,,,,,,,,,,
encoding,value,4,1809265,1815277,1813224.0,1813960.0,737.0,737.0,1879.6,721.4000000000001,1920.0,1460.0,Object_Sea_Pattern_Large,42.7688596659998,48.780591165999795,1.0,Object_Sea_Pattern_Large,-1.0,,,,,,,,,,,
encoding,value,4,1809265,1815277,1813970.0,1814415.0,446.0,446.0,1882.7,691.4000000000001,1920.0,1460.0,Object_Sea_Pattern_Large,42.7688596659998,48.780591165999795,1.0,Object_Sea_Pattern_Large,-1.0,,,,,,,,,,,
encoding,value,4,1809265,1815277,1814429.0,1815575.0,1147.0,848.0,1860.4,635.0999999999999,1920.0,1460.0,Object_Sea_Pattern_Large,42.7688596659998,48.780591165999795,1.0,Object_Sea_Pattern_Large,-1.0,,,,,,,,,,,
encoding,attention,4,1815277,1818295,1815589.0,1815752.0,164.0,164.0,1921.5,683.2,1920.0,1460.0,Object_Sea_Pattern_Large,48.78070858299998,51.79834737499982,1.0,Object_Sea_Pattern_Large,-1.0,-1.0,1.0,0.8744620410000152,,,,,,,,
encoding,attention,4,1815277,1818295,1816016.0,1816402.0,387.0,387.0,1932.0,717.5999999999999,1920.0,1460.0,Object_Sea_Pattern_Large,48.78070858299998,51.79834737499982,1.0,Object_Sea_Pattern_Large,-1.0,-1.0,1.0,0.8744620410000152,,,,,,,,
encoding,attention,4,1815277,1818295,1817083.0,1817961.0,879.0,879.0,1906.6,746.3,1920.0,1460.0,Object_Sea_Pattern_Large,48.78070858299998,51.79834737499982,1.0,Object_Sea_Pattern_Large,-1.0,-1.0,1.0,0.8744620410000152,,,,,,,,
encoding,fixation,5,1818295,1818800,1818527.0,1819055.0,529.0,273.0,1901.6,1099.0,1920.0,1080.0,fixation,51.79850483299992,52.303869416,1.0,Object_Sea_Solid_Small,8.0,,,,,,,,,,,
encoding,image,5,1818800,1819811,1819091.0,1819692.0,602.0,602.0,2209.9,1262.2,2249.0,891.0,Object_Sea_Solid_Small,52.303984999999784,53.31436166599997,1.0,Object_Sea_Solid_Small,8.0,,,,,,,,,,,
encoding,image,5,1818800,1819811,1819716.0,1819984.0,269.0,95.0,2014.5,1180.1,2249.0,891.0,Object_Sea_Solid_Small,52.303984999999784,53.31436166599997,1.0,Object_Sea_Solid_Small,8.0,,,,,,,,,,,
encoding,value,5,1819811,1825822,1820007.0,1820416.0,410.0,410.0,2213.1,1164.7,2249.0,891.0,Object_Sea_Solid_Small,53.31448445799992,59.32496187499987,1.0,Object_Sea_Solid_Small,8.0,,,,,,,,,,,
encoding,value,5,1819811,1825822,1820567.0,1820705.0,139.0,139.0,2208.6,1278.3,2249.0,891.0,Object_Sea_Solid_Small,53.31448445799992,59.32496187499987,1.0,Object_Sea_Solid_Small,8.0,,,,,,,,,,,
encoding,value,5,1819811,1825822,1820893.0,1823104.0,2212.0,2212.0,2197.8,1256.6,2249.0,891.0,Object_Sea_Solid_Small,53.31448445799992,59.32496187499987,1.0,Object_Sea_Solid_Small,8.0,,,,,,,,,,,
encoding,value,5,1819811,1825822,1823117.0,1823753.0,637.0,637.0,2187.9,1165.1,2249.0,891.0,Object_Sea_Solid_Small,53.31448445799992,59.32496187499987,1.0,Object_Sea_Solid_Small,8.0,,,,,,,,,,,
encoding,value,5,1819811,1825822,1823897.0,1826287.0,2391.0,1925.0,2186.4,1177.8,2249.0,891.0,Object_Sea_Solid_Small,53.31448445799992,59.32496187499987,1.0,Object_Sea_Solid_Small,8.0,,,,,,,,,,,
encoding,attention,5,1825822,1828872,1826302.0,1827039.0,738.0,738.0,2251.4,1177.2,2249.0,891.0,Object_Sea_Solid_Small,59.32508699999994,62.37531091599999,1.0,Object_Sea_Solid_Small,8.0,8.0,1.0,0.9630853749999916,,,,,,,,
encoding,attention,5,1825822,1828872,1827172.0,1827618.0,447.0,447.0,2206.4,1269.5,2249.0,891.0,Object_Sea_Solid_Small,59.32508699999994,62.37531091599999,1.0,Object_Sea_Solid_Small,8.0,8.0,1.0,0.9630853749999916,,,,,,,,
encoding,attention,5,1825822,1828872,1827791.0,1828088.0,298.0,298.0,2197.3,1278.9,2249.0,891.0,Object_Sea_Solid_Small,59.32508699999994,62.37531091599999,1.0,Object_Sea_Solid_Small,8.0,8.0,1.0,0.9630853749999916,,,,,,,,
encoding,attention,5,1825822,1828872,1828270.0,1828767.0,498.0,498.0,2213.3,1258.2,2249.0,891.0,Object_Sea_Solid_Small,59.32508699999994,62.37531091599999,1.0,Object_Sea_Solid_Small,8.0,8.0,1.0,0.9630853749999916,,,,,,,,
encoding,fixation,6,1828872,1830127,1828958.0,1829066.0,109.0,109.0,2168.1,1218.6,2249.0,891.0,Object_Sea_Solid_Small,62.375461290999965,63.63070783299986,1.0,Animal_Sea_Pattern_Small,-5.0,,,,,,,,,,,
encoding,fixation,6,1828872,1830127,1829098.0,1830280.0,1183.0,1029.0,1887.9,1079.1,1920.0,1080.0,fixation,62.375461290999965,63.63070783299986,1.0,Animal_Sea_Pattern_Small,-5.0,,,,,,,,,,,
encoding,image,6,1830128,1831139,1830308.0,1830687.0,380.0,380.0,1571.1,1247.4,1591.0,891.0,Animal_Sea_Pattern_Small,63.63083966599993,64.64213374999986,1.0,Animal_Sea_Pattern_Small,-5.0,,,,,,,,,,,
encoding,image,6,1830128,1831139,1830881.0,1830953.0,73.0,73.0,1572.3,1261.3,1591.0,891.0,Animal_Sea_Pattern_Small,63.63083966599993,64.64213374999986,1.0,Animal_Sea_Pattern_Small,-5.0,,,,,,,,,,,
encoding,image,6,1830128,1831139,1830968.0,1831484.0,517.0,171.0,1587.5,1157.2,1591.0,891.0,Animal_Sea_Pattern_Small,63.63083966599993,64.64213374999986,1.0,Animal_Sea_Pattern_Small,-5.0,,,,,,,,,,,
encoding,value,6,1831139,1837151,1832515.0,1832734.0,220.0,220.0,1588.6,1294.1,1591.0,891.0,Animal_Sea_Pattern_Small,64.64225795799985,70.65422962499997,1.0,Animal_Sea_Pattern_Small,-5.0,,,,,,,,,,,
encoding,value,6,1831139,1837151,1832740.0,1832789.0,50.0,50.0,1573.4,1268.3,1591.0,891.0,Animal_Sea_Pattern_Small,64.64225795799985,70.65422962499997,1.0,Animal_Sea_Pattern_Small,-5.0,,,,,,,,,,,
encoding,value,6,1831139,1837151,1832938.0,1833736.0,799.0,799.0,1569.4,1220.5,1591.0,891.0,Animal_Sea_Pattern_Small,64.64225795799985,70.65422962499997,1.0,Animal_Sea_Pattern_Small,-5.0,,,,,,,,,,,
encoding,value,6,1831139,1837151,1833755.0,1834500.0,746.0,746.0,1561.2,1158.4,1591.0,891.0,Animal_Sea_Pattern_Small,64.64225795799985,70.65422962499997,1.0,Animal_Sea_Pattern_Small,-5.0,,,,,,,,,,,
encoding,value,6,1831139,1837151,1834676.0,1835526.0,851.0,851.0,1571.1,1199.4,1591.0,891.0,Animal_Sea_Pattern_Small,64.64225795799985,70.65422962499997,1.0,Animal_Sea_Pattern_Small,-5.0,,,,,,,,,,,
encoding,value,6,1831139,1837151,1835537.0,1835790.0,254.0,254.0,1578.2,1264.2,1591.0,891.0,Animal_Sea_Pattern_Small,64.64225795799985,70.65422962499997,1.0,Animal_Sea_Pattern_Small,-5.0,,,,,,,,,,,
encoding,value,6,1831139,1837151,1835809.0,1836334.0,526.0,526.0,1562.4,1167.7,1591.0,891.0,Animal_Sea_Pattern_Small,64.64225795799985,70.65422962499997,1.0,Animal_Sea_Pattern_Small,-5.0,,,,,,,,,,,
encoding,value,6,1831139,1837151,1836532.0,1837941.0,1410.0,619.0,1571.1,1189.2,1591.0,891.0,Animal_Sea_Pattern_Small,64.64225795799985,70.65422962499997,1.0,Animal_Sea_Pattern_Small,-5.0,,,,,,,,,,,
encoding,attention,6,1837151,1840173,1838205.0,1838296.0,92.0,92.0,1710.6,1191.0,1591.0,891.0,Animal_Sea_Pattern_Small,70.65435812499982,73.67626983299988,1.0,Animal_Sea_Pattern_Small,-5.0,-5.0,1.0,0.5587370420000752,,,,,,,,
encoding,attention,6,1837151,1840173,1838591.0,1839879.0,1289.0,1289.0,1589.7,1266.9,1591.0,891.0,Animal_Sea_Pattern_Small,70.65435812499982,73.67626983299988,1.0,Animal_Sea_Pattern_Small,-5.0,-5.0,1.0,0.5587370420000752,,,,,,,,
encoding,fixation,7,2179091,2180096,2179391.0,2179417.0,27.0,27.0,1907.1,1161.2,1920.0,700.0,Animal_Land_Pattern_Large,12.005810666999878,13.011625083000126,2.0,Object_Sea_Solid_Small,7.0,,,,,,,,,,,
encoding,fixation,7,2179091,2180096,2179897.0,2180244.0,348.0,199.0,1923.4,1146.6,1920.0,1080.0,fixation,12.005810666999878,13.011625083000126,2.0,Object_Sea_Solid_Small,7.0,,,,,,,,,,,
encoding,image,7,2180096,2181106,2180277.0,2180424.0,148.0,148.0,2186.6,1256.5,2249.0,891.0,Object_Sea_Solid_Small,13.011767208000036,14.021225999999842,2.0,Object_Sea_Solid_Small,7.0,,,,,,,,,,,
encoding,image,7,2180096,2181106,2180432.0,2180953.0,522.0,522.0,2216.8,1273.1,2249.0,891.0,Object_Sea_Solid_Small,13.011767208000036,14.021225999999842,2.0,Object_Sea_Solid_Small,7.0,,,,,,,,,,,
encoding,value,7,2181106,2187118,2181130.0,2181764.0,635.0,635.0,2212.8,1201.7,2249.0,891.0,Object_Sea_Solid_Small,14.021353167000145,20.033006874999955,2.0,Object_Sea_Solid_Small,7.0,,,,,,,,,,,
encoding,value,7,2181106,2187118,2181952.0,2182679.0,728.0,728.0,2218.6,1198.2,2249.0,891.0,Object_Sea_Solid_Small,14.021353167000145,20.033006874999955,2.0,Object_Sea_Solid_Small,7.0,,,,,,,,,,,
encoding,value,7,2181106,2187118,2182901.0,2185978.0,3078.0,3078.0,2206.6,1191.6,2249.0,891.0,Object_Sea_Solid_Small,14.021353167000145,20.033006874999955,2.0,Object_Sea_Solid_Small,7.0,,,,,,,,,,,
encoding,value,7,2181106,2187118,2186151.0,2187401.0,1251.0,967.0,2204.7,1184.5,2249.0,891.0,Object_Sea_Solid_Small,14.021353167000145,20.033006874999955,2.0,Object_Sea_Solid_Small,7.0,,,,,,,,,,,
encoding,attention,7,2187118,2190135,2187590.0,2187898.0,309.0,309.0,2263.0,1203.9,2249.0,891.0,Object_Sea_Solid_Small,20.03313908300015,23.05008166700009,2.0,Object_Sea_Solid_Small,7.0,7.0,1.0,0.564219458000025,,,,,,,,
encoding,attention,7,2187118,2190135,2188083.0,2188315.0,233.0,233.0,2212.3,1210.3,2249.0,891.0,Object_Sea_Solid_Small,20.03313908300015,23.05008166700009,2.0,Object_Sea_Solid_Small,7.0,7.0,1.0,0.564219458000025,,,,,,,,
encoding,attention,7,2187118,2190135,2188329.0,2188739.0,411.0,411.0,2230.9,1271.5,2249.0,891.0,Object_Sea_Solid_Small,20.03313908300015,23.05008166700009,2.0,Object_Sea_Solid_Small,7.0,7.0,1.0,0.564219458000025,,,,,,,,
encoding,attention,7,2187118,2190135,2188927.0,2189110.0,184.0,184.0,2257.6,1224.9,2249.0,891.0,Object_Sea_Solid_Small,20.03313908300015,23.05008166700009,2.0,Object_Sea_Solid_Small,7.0,7.0,1.0,0.564219458000025,,,,,,,,
encoding,attention,7,2187118,2190135,2189123.0,2189694.0,572.0,572.0,2246.1,1273.4,2249.0,891.0,Object_Sea_Solid_Small,20.03313908300015,23.05008166700009,2.0,Object_Sea_Solid_Small,7.0,7.0,1.0,0.564219458000025,,,,,,,,
encoding,fixation,8,2190135,2191141,2190335.0,2190498.0,164.0,164.0,1910.0,1129.2,1920.0,1080.0,fixation,23.050239541999872,24.055641916999775,2.0,Animal_Land_Pattern_Large,1.0,,,,,,,,,,,
encoding,fixation,8,2190135,2191141,2190713.0,2191192.0,480.0,428.0,1905.1,1153.3,1920.0,700.0,Animal_Land_Pattern_Large,23.050239541999872,24.055641916999775,2.0,Animal_Land_Pattern_Large,1.0,,,,,,,,,,,
encoding,image,8,2191141,2192151,2191422.0,2191513.0,92.0,92.0,1912.7,1362.8,1920.0,700.0,Animal_Land_Pattern_Large,24.055756875000043,25.065666708000208,2.0,Animal_Land_Pattern_Large,1.0,,,,,,,,,,,
encoding,image,8,2191141,2192151,2191537.0,2191984.0,448.0,448.0,1913.5,1473.3,1920.0,700.0,Animal_Land_Pattern_Large,24.055756875000043,25.065666708000208,2.0,Animal_Land_Pattern_Large,1.0,,,,,,,,,,,
encoding,image,8,2191141,2192151,2192009.0,2192346.0,338.0,142.0,1886.5,1267.5,1920.0,700.0,Animal_Land_Pattern_Large,24.055756875000043,25.065666708000208,2.0,Animal_Land_Pattern_Large,1.0,,,,,,,,,,,
encoding,value,8,2192151,2198164,2192364.0,2192628.0,265.0,265.0,1894.7,1362.1,1920.0,700.0,Animal_Land_Pattern_Large,25.065770832999988,31.078404166999917,2.0,Animal_Land_Pattern_Large,1.0,,,,,,,,,,,
encoding,value,8,2192151,2198164,2192800.0,2193248.0,449.0,449.0,1887.4,1391.4,1920.0,700.0,Animal_Land_Pattern_Large,25.065770832999988,31.078404166999917,2.0,Animal_Land_Pattern_Large,1.0,,,,,,,,,,,
encoding,value,8,2192151,2198164,2193481.0,2193600.0,120.0,120.0,1895.5,1448.5,1920.0,700.0,Animal_Land_Pattern_Large,25.065770832999988,31.078404166999917,2.0,Animal_Land_Pattern_Large,1.0,,,,,,,,,,,
encoding,value,8,2192151,2198164,2193616.0,2193985.0,370.0,370.0,1880.5,1500.6,1920.0,700.0,Animal_Land_Pattern_Large,25.065770832999988,31.078404166999917,2.0,Animal_Land_Pattern_Large,1.0,,,,,,,,,,,
encoding,value,8,2192151,2198164,2194005.0,2194426.0,422.0,422.0,1904.7,1371.2,1920.0,700.0,Animal_Land_Pattern_Large,25.065770832999988,31.078404166999917,2.0,Animal_Land_Pattern_Large,1.0,,,,,,,,,,,
encoding,value,8,2192151,2198164,2194600.0,2195746.0,1147.0,1147.0,1903.2,1376.2,1920.0,700.0,Animal_Land_Pattern_Large,25.065770832999988,31.078404166999917,2.0,Animal_Land_Pattern_Large,1.0,,,,,,,,,,,
encoding,value,8,2192151,2198164,2195921.0,2197548.0,1628.0,1628.0,1898.0,1380.6,1920.0,700.0,Animal_Land_Pattern_Large,25.065770832999988,31.078404166999917,2.0,Animal_Land_Pattern_Large,1.0,,,,,,,,,,,
encoding,value,8,2192151,2198164,2197712.0,2198469.0,758.0,452.0,1902.4,1379.3,1920.0,700.0,Animal_Land_Pattern_Large,25.065770832999988,31.078404166999917,2.0,Animal_Land_Pattern_Large,1.0,,,,,,,,,,,
encoding,attention,8,2198164,2201181,2198478.0,2198975.0,498.0,498.0,1951.8,1376.5,1920.0,700.0,Animal_Land_Pattern_Large,31.078519208000216,34.09548562500004,2.0,Animal_Land_Pattern_Large,1.0,1.0,1.0,0.5867387499997676,,,,,,,,
encoding,attention,8,2198164,2201181,2199422.0,2200068.0,647.0,647.0,1921.8,1513.6,1920.0,700.0,Animal_Land_Pattern_Large,31.078519208000216,34.09548562500004,2.0,Animal_Land_Pattern_Large,1.0,1.0,1.0,0.5867387499997676,,,,,,,,
encoding,attention,8,2198164,2201181,2200254.0,2200462.0,209.0,209.0,1939.1,1431.4,1920.0,700.0,Animal_Land_Pattern_Large,31.078519208000216,34.09548562500004,2.0,Animal_Land_Pattern_Large,1.0,1.0,1.0,0.5867387499997676,,,,,,,,
encoding,attention,8,2198164,2201181,2200469.0,2201010.0,542.0,542.0,1925.3,1467.2,1920.0,700.0,Animal_Land_Pattern_Large,31.078519208000216,34.09548562500004,2.0,Animal_Land_Pattern_Large,1.0,1.0,1.0,0.5867387499997676,,,,,,,,
encoding,fixation,9,2201181,2201937,2201227.0,2201381.0,155.0,155.0,1961.6,1373.3,1920.0,700.0,Animal_Land_Pattern_Large,34.09564316700016,34.8508938330001,2.0,Object_Sea_Solid_Large,-2.0,,,,,,,,,,,
encoding,fixation,9,2201181,2201937,2201661.0,2202138.0,478.0,276.0,1915.3,1122.8,1920.0,1080.0,fixation,34.09564316700016,34.8508938330001,2.0,Object_Sea_Solid_Large,-2.0,,,,,,,,,,,
encoding,image,9,2201937,2202948,2202165.0,2202372.0,208.0,208.0,1611.5,978.0,1591.0,1269.0,Object_Sea_Solid_Large,34.85101600000007,35.86255079200009,2.0,Object_Sea_Solid_Large,-2.0,,,,,,,,,,,
encoding,image,9,2201937,2202948,2202379.0,2202453.0,75.0,75.0,1564.6,952.5,1591.0,1269.0,Object_Sea_Solid_Large,34.85101600000007,35.86255079200009,2.0,Object_Sea_Solid_Large,-2.0,,,,,,,,,,,
encoding,value,9,2202948,2208963,2203038.0,2203170.0,133.0,133.0,1556.7,948.3,1591.0,1269.0,Object_Sea_Solid_Large,35.862717791999785,41.876846916999966,2.0,Object_Sea_Solid_Large,-2.0,,,,,,,,,,,
encoding,value,9,2202948,2208963,2203183.0,2203723.0,541.0,541.0,1605.7,881.7,1591.0,1269.0,Object_Sea_Solid_Large,35.862717791999785,41.876846916999966,2.0,Object_Sea_Solid_Large,-2.0,,,,,,,,,,,
encoding,value,9,2202948,2208963,2204412.0,2205318.0,907.0,907.0,1585.8,964.0999999999999,1591.0,1269.0,Object_Sea_Solid_Large,35.862717791999785,41.876846916999966,2.0,Object_Sea_Solid_Large,-2.0,,,,,,,,,,,
encoding,value,9,2202948,2208963,2205625.0,2206227.0,603.0,603.0,1588.6,947.0,1591.0,1269.0,Object_Sea_Solid_Large,35.862717791999785,41.876846916999966,2.0,Object_Sea_Solid_Large,-2.0,,,,,,,,,,,
encoding,value,9,2202948,2208963,2206245.0,2206400.0,156.0,156.0,1595.7,855.5999999999999,1591.0,1269.0,Object_Sea_Solid_Large,35.862717791999785,41.876846916999966,2.0,Object_Sea_Solid_Large,-2.0,,,,,,,,,,,
encoding,value,9,2202948,2208963,2206679.0,2206789.0,111.0,111.0,1586.4,965.5999999999999,1591.0,1269.0,Object_Sea_Solid_Large,35.862717791999785,41.876846916999966,2.0,Object_Sea_Solid_Large,-2.0,,,,,,,,,,,
encoding,value,9,2202948,2208963,2206795.0,2209178.0,2384.0,2168.0,1598.6,905.2,1591.0,1269.0,Object_Sea_Solid_Large,35.862717791999785,41.876846916999966,2.0,Object_Sea_Solid_Large,-2.0,,,,,,,,,,,
encoding,attention,9,2208963,2211980,2209861.0,2209899.0,39.0,39.0,1662.5,917.4000000000001,1591.0,1269.0,Object_Sea_Solid_Large,41.87695325000004,44.89432058300008,2.0,Object_Sea_Solid_Large,-2.0,-2.0,1.0,0.6861318749997736,,,,,,,,
encoding,attention,9,2208963,2211980,2210111.0,2210236.0,126.0,126.0,1892.4,1202.1,1920.0,700.0,Animal_Land_Pattern_Large,41.87695325000004,44.89432058300008,2.0,Object_Sea_Solid_Large,-2.0,-2.0,1.0,0.6861318749997736,,,,,,,,
encoding,attention,9,2208963,2211980,2210266.0,2210567.0,302.0,302.0,2014.3,1340.3,1920.0,700.0,Animal_Land_Pattern_Large,41.87695325000004,44.89432058300008,2.0,Object_Sea_Solid_Large,-2.0,-2.0,1.0,0.6861318749997736,,,,,,,,
encoding,attention,9,2208963,2211980,2210589.0,2211108.0,520.0,520.0,1853.3,1339.8,1920.0,700.0,Animal_Land_Pattern_Large,41.87695325000004,44.89432058300008,2.0,Object_Sea_Solid_Large,-2.0,-2.0,1.0,0.6861318749997736,,,,,,,,
encoding,attention,9,2208963,2211980,2211169.0,2211313.0,145.0,145.0,1575.1,788.2,1591.0,1269.0,Object_Sea_Solid_Large,41.87695325000004,44.89432058300008,2.0,Object_Sea_Solid_Large,-2.0,-2.0,1.0,0.6861318749997736,,,,,,,,
encoding,attention,9,2208963,2211980,2211325.0,2211582.0,258.0,258.0,1639.3,836.0,1591.0,1269.0,Object_Sea_Solid_Large,41.87695325000004,44.89432058300008,2.0,Object_Sea_Solid_Large,-2.0,-2.0,1.0,0.6861318749997736,,,,,,,,
encoding,attention,9,2208963,2211980,2211603.0,2211823.0,221.0,221.0,1606.7,942.3,1591.0,1269.0,Object_Sea_Solid_Large,41.87695325000004,44.89432058300008,2.0,Object_Sea_Solid_Large,-2.0,-2.0,1.0,0.6861318749997736,,,,,,,,
encoding,fixation,10,2211980,2212736,2212052.0,2212154.0,103.0,103.0,1635.6,994.4000000000001,1591.0,1269.0,Object_Sea_Solid_Large,44.894492291999995,45.649743082999976,2.0,Animal_Sea_Pattern_Small,-9.0,,,,,,,,,,,
encoding,fixation,10,2211980,2212736,2212191.0,2212570.0,380.0,380.0,1880.9,1152.4,1920.0,700.0,Animal_Land_Pattern_Large,44.894492291999995,45.649743082999976,2.0,Animal_Sea_Pattern_Small,-9.0,,,,,,,,,,,
encoding,image,10,2212736,2213747,2212779.0,2212948.0,170.0,170.0,1850.9,1110.5,1591.0,891.0,Animal_Sea_Pattern_Small,45.64986249999993,46.66068020800003,2.0,Animal_Sea_Pattern_Small,-9.0,,,,,,,,,,,
encoding,image,10,2212736,2213747,2212963.0,2212996.0,34.0,34.0,1862.4,1176.4,1591.0,891.0,Animal_Sea_Pattern_Small,45.64986249999993,46.66068020800003,2.0,Animal_Sea_Pattern_Small,-9.0,,,,,,,,,,,
encoding,image,10,2212736,2213747,2213029.0,2213238.0,210.0,210.0,1599.6,1294.1,1591.0,891.0,Animal_Sea_Pattern_Small,45.64986249999993,46.66068020800003,2.0,Animal_Sea_Pattern_Small,-9.0,,,,,,,,,,,
encoding,image,10,2212736,2213747,2213430.0,2213526.0,97.0,97.0,1614.4,1313.2,1591.0,891.0,Animal_Sea_Pattern_Small,45.64986249999993,46.66068020800003,2.0,Animal_Sea_Pattern_Small,-9.0,,,,,,,,,,,
encoding,value,10,2213747,2219760,2213766.0,2213869.0,104.0,104.0,1752.9,1295.9,1591.0,891.0,Animal_Sea_Pattern_Small,46.66080145800015,52.67335537500003,2.0,Animal_Sea_Pattern_Small,-9.0,,,,,,,,,,,
encoding,value,10,2213747,2219760,2213892.0,2214045.0,154.0,154.0,1973.0,1278.7,1920.0,700.0,Animal_Land_Pattern_Large,46.66080145800015,52.67335537500003,2.0,Animal_Sea_Pattern_Small,-9.0,,,,,,,,,,,
encoding,value,10,2213747,2219760,2214082.0,2214411.0,330.0,330.0,1594.8,1219.0,1591.0,891.0,Animal_Sea_Pattern_Small,46.66080145800015,52.67335537500003,2.0,Animal_Sea_Pattern_Small,-9.0,,,,,,,,,,,
encoding,value,10,2213747,2219760,2214615.0,2214751.0,137.0,137.0,1581.6,1283.9,1591.0,891.0,Animal_Sea_Pattern_Small,46.66080145800015,52.67335537500003,2.0,Animal_Sea_Pattern_Small,-9.0,,,,,,,,,,,
encoding,value,10,2213747,2219760,2214759.0,2214934.0,176.0,176.0,1592.9,1313.4,1591.0,891.0,Animal_Sea_Pattern_Small,46.66080145800015,52.67335537500003,2.0,Animal_Sea_Pattern_Small,-9.0,,,,,,,,,,,
encoding,value,10,2213747,2219760,2215130.0,2215305.0,176.0,176.0,1613.1,1326.3,1591.0,891.0,Animal_Sea_Pattern_Small,46.66080145800015,52.67335537500003,2.0,Animal_Sea_Pattern_Small,-9.0,,,,,,,,,,,
encoding,value,10,2213747,2219760,2215324.0,2215590.0,267.0,267.0,1587.5,1222.4,1591.0,891.0,Animal_Sea_Pattern_Small,46.66080145800015,52.67335537500003,2.0,Animal_Sea_Pattern_Small,-9.0,,,,,,,,,,,
encoding,value,10,2213747,2219760,2215774.0,2216513.0,740.0,740.0,1580.4,1223.3,1591.0,891.0,Animal_Sea_Pattern_Small,46.66080145800015,52.67335537500003,2.0,Animal_Sea_Pattern_Small,-9.0,,,,,,,,,,,
encoding,value,10,2213747,2219760,2216677.0,2219313.0,2637.0,2637.0,1579.3,1196.6,1591.0,891.0,Animal_Sea_Pattern_Small,46.66080145800015,52.67335537500003,2.0,Animal_Sea_Pattern_Small,-9.0,,,,,,,,,,,
encoding,value,10,2213747,2219760,2219510.0,2220225.0,716.0,250.0,1587.7,1203.0,1591.0,891.0,Animal_Sea_Pattern_Small,46.66080145800015,52.67335537500003,2.0,Animal_Sea_Pattern_Small,-9.0,,,,,,,,,,,
encoding,attention,10,2219760,2222777,2220236.0,2220544.0,309.0,309.0,1546.3,1202.8,1591.0,891.0,Animal_Sea_Pattern_Small,52.673470499999894,55.69053787499979,2.0,Animal_Sea_Pattern_Small,-9.0,-9.0,1.0,0.5606462499999907,,,,,,,,
encoding,attention,10,2219760,2222777,2220989.0,2221107.0,119.0,119.0,1651.4,1255.6,1591.0,891.0,Animal_Sea_Pattern_Small,52.673470499999894,55.69053787499979,2.0,Animal_Sea_Pattern_Small,-9.0,-9.0,1.0,0.5606462499999907,,,,,,,,
encoding,attention,10,2219760,2222777,2221118.0,2221235.0,118.0,118.0,1599.3,1208.4,1591.0,891.0,Animal_Sea_Pattern_Small,52.673470499999894,55.69053787499979,2.0,Animal_Sea_Pattern_Small,-9.0,-9.0,1.0,0.5606462499999907,,,,,,,,
encoding,attention,10,2219760,2222777,2221441.0,2221567.0,127.0,127.0,1762.8,1178.4,1591.0,891.0,Animal_Sea_Pattern_Small,52.673470499999894,55.69053787499979,2.0,Animal_Sea_Pattern_Small,-9.0,-9.0,1.0,0.5606462499999907,,,,,,,,
encoding,attention,10,2219760,2222777,2221587.0,2221838.0,252.0,252.0,1916.6,1129.7,1920.0,1080.0,fixation,52.673470499999894,55.69053787499979,2.0,Animal_Sea_Pattern_Small,-9.0,-9.0,1.0,0.5606462499999907,,,,,,,,
encoding,attention,10,2219760,2222777,2222040.0,2222459.0,420.0,420.0,1967.4,1243.8,1920.0,700.0,Animal_Land_Pattern_Large,52.673470499999894,55.69053787499979,2.0,Animal_Sea_Pattern_Small,-9.0,-9.0,1.0,0.5606462499999907,,,,,,,,
encoding,attention,10,2219760,2222777,2222478.0,2222704.0,227.0,227.0,1839.8,1249.0,1920.0,700.0,Animal_Land_Pattern_Large,52.673470499999894,55.69053787499979,2.0,Animal_Sea_Pattern_Small,-9.0,-9.0,1.0,0.5606462499999907,,,,,,,,
encoding,fixation,11,2222777,2224033,2222909.0,2223039.0,131.0,131.0,1560.4,1199.8,1591.0,891.0,Animal_Sea_Pattern_Small,55.69069808299992,56.94590791700011,2.0,Object_Land_Solid_Large,-4.0,,,,,,,,,,,
encoding,fixation,11,2222777,2224033,2223072.0,2223462.0,391.0,391.0,1871.5,1152.5,1591.0,891.0,Animal_Sea_Pattern_Small,55.69069808299992,56.94590791700011,2.0,Object_Land_Solid_Large,-4.0,,,,,,,,,,,
encoding,fixation,11,2222777,2224033,2223639.0,2224241.0,603.0,394.0,1867.8,1136.0,1591.0,891.0,Animal_Sea_Pattern_Small,55.69069808299992,56.94590791700011,2.0,Object_Land_Solid_Large,-4.0,,,,,,,,,,,
encoding,image,11,2224033,2225043,2224324.0,2224352.0,29.0,29.0,2173.6,928.0,2249.0,1269.0,Object_Land_Solid_Large,56.9460371250002,57.95634320799991,2.0,Object_Land_Solid_Large,-4.0,,,,,,,,,,,
encoding,image,11,2224033,2225043,2224567.0,2224681.0,115.0,115.0,2057.8,1035.9,2249.0,1269.0,Object_Land_Solid_Large,56.9460371250002,57.95634320799991,2.0,Object_Land_Solid_Large,-4.0,,,,,,,,,,,
encoding,image,11,2224033,2225043,2224704.0,2225138.0,435.0,339.0,1902.0,1122.8,1920.0,1080.0,fixation,56.9460371250002,57.95634320799991,2.0,Object_Land_Solid_Large,-4.0,,,,,,,,,,,
encoding,value,11,2225043,2231054,2225340.0,2225412.0,73.0,73.0,2177.8,934.9000000000001,2249.0,1269.0,Object_Land_Solid_Large,57.956481207999786,63.967422833,2.0,Object_Land_Solid_Large,-4.0,,,,,,,,,,,
encoding,value,11,2225043,2231054,2225426.0,2225598.0,173.0,173.0,2218.2,876.4000000000001,2249.0,1269.0,Object_Land_Solid_Large,57.956481207999786,63.967422833,2.0,Object_Land_Solid_Large,-4.0,,,,,,,,,,,
encoding,value,11,2225043,2231054,2226234.0,2226340.0,107.0,107.0,2018.7,1051.2,2249.0,1269.0,Object_Land_Solid_Large,57.956481207999786,63.967422833,2.0,Object_Land_Solid_Large,-4.0,,,,,,,,,,,
encoding,value,11,2225043,2231054,2226362.0,2226630.0,269.0,269.0,2209.7,943.3,2249.0,1269.0,Object_Land_Solid_Large,57.956481207999786,63.967422833,2.0,Object_Land_Solid_Large,-4.0,,,,,,,,,,,
encoding,value,11,2225043,2231054,2226679.0,2226869.0,191.0,191.0,1625.7,1134.4,1591.0,891.0,Animal_Sea_Pattern_Small,57.956481207999786,63.967422833,2.0,Object_Land_Solid_Large,-4.0,,,,,,,,,,,
encoding,value,11,2225043,2231054,2227105.0,2227195.0,91.0,91.0,2151.6,940.4000000000001,2249.0,1269.0,Object_Land_Solid_Large,57.956481207999786,63.967422833,2.0,Object_Land_Solid_Large,-4.0,,,,,,,,,,,
encoding,value,11,2225043,2231054,2227209.0,2227393.0,185.0,185.0,2235.9,916.3,2249.0,1269.0,Object_Land_Solid_Large,57.956481207999786,63.967422833,2.0,Object_Land_Solid_Large,-4.0,,,,,,,,,,,
encoding,value,11,2225043,2231054,2227409.0,2227804.0,396.0,396.0,2239.0,836.7,2249.0,1269.0,Object_Land_Solid_Large,57.956481207999786,63.967422833,2.0,Object_Land_Solid_Large,-4.0,,,,,,,,,,,
encoding,value,11,2225043,2231054,2228081.0,2228482.0,402.0,402.0,2181.9,963.8,2249.0,1269.0,Object_Land_Solid_Large,57.956481207999786,63.967422833,2.0,Object_Land_Solid_Large,-4.0,,,,,,,,,,,
encoding,value,11,2225043,2231054,2228502.0,2229972.0,1471.0,1471.0,2220.0,851.2,2249.0,1269.0,Object_Land_Solid_Large,57.956481207999786,63.967422833,2.0,Object_Land_Solid_Large,-4.0,,,,,,,,,,,
encoding,value,11,2225043,2231054,2230217.0,2232148.0,1932.0,837.0,2231.0,884.8,2249.0,1269.0,Object_Land_Solid_Large,57.956481207999786,63.967422833,2.0,Object_Land_Solid_Large,-4.0,,,,,,,,,,,
encoding,attention,11,2231055,2234071,2232343.0,2232583.0,241.0,241.0,2259.0,924.7,2249.0,1269.0,Object_Land_Solid_Large,63.96754266700009,66.98422845799996,2.0,Object_Land_Solid_Large,-4.0,-4.0,1.0,1.2992560829998183,,,,,,,,
encoding,attention,11,2231055,2234071,2233834.0,2234014.0,181.0,181.0,1908.8,1193.6,1920.0,700.0,Animal_Land_Pattern_Large,63.96754266700009,66.98422845799996,2.0,Object_Land_Solid_Large,-4.0,-4.0,1.0,1.2992560829998183,,,,,,,,
encoding,fixation,12,2234072,2235577,2234221.0,2234864.0,644.0,644.0,1906.5,1106.2,1920.0,1080.0,fixation,66.98440404199982,68.48944820799989,2.0,Animal_Land_Pattern_Small,4.0,,,,,,,,,,,
encoding,image,12,2235577,2236588,2235657.0,2235762.0,106.0,106.0,1904.3,1140.7,1920.0,1080.0,fixation,68.4895673750002,69.50047316700011,2.0,Animal_Land_Pattern_Small,4.0,,,,,,,,,,,
encoding,image,12,2235577,2236588,2235805.0,2236102.0,298.0,298.0,1890.6,801.5,1920.0,1460.0,Animal_Land_Pattern_Small,68.4895673750002,69.50047316700011,2.0,Animal_Land_Pattern_Small,4.0,,,,,,,,,,,
encoding,image,12,2235577,2236588,2236506.0,2236683.0,178.0,82.0,2047.7,1068.8,2249.0,1269.0,Object_Land_Solid_Large,68.4895673750002,69.50047316700011,2.0,Animal_Land_Pattern_Small,4.0,,,,,,,,,,,
encoding,value,12,2236588,2242599,2236704.0,2236843.0,140.0,140.0,1905.2,1117.8,1920.0,1080.0,fixation,69.500581667,75.51150537500007,2.0,Animal_Land_Pattern_Small,4.0,,,,,,,,,,,
encoding,value,12,2236588,2242599,2236898.0,2237114.0,217.0,217.0,1903.0,716.7,1920.0,1460.0,Animal_Land_Pattern_Small,69.500581667,75.51150537500007,2.0,Animal_Land_Pattern_Small,4.0,,,,,,,,,,,
encoding,value,12,2236588,2242599,2237456.0,2237864.0,409.0,409.0,1915.4,827.3,1920.0,1460.0,Animal_Land_Pattern_Small,69.500581667,75.51150537500007,2.0,Animal_Land_Pattern_Small,4.0,,,,,,,,,,,
encoding,value,12,2236588,2242599,2238160.0,2238537.0,378.0,378.0,1895.6,852.0,1920.0,1460.0,Animal_Land_Pattern_Small,69.500581667,75.51150537500007,2.0,Animal_Land_Pattern_Small,4.0,,,,,,,,,,,
encoding,value,12,2236588,2242599,2238891.0,2239266.0,376.0,376.0,1919.8,840.0,1920.0,1460.0,Animal_Land_Pattern_Small,69.500581667,75.51150537500007,2.0,Animal_Land_Pattern_Small,4.0,,,,,,,,,,,
encoding,value,12,2236588,2242599,2239708.0,2240281.0,574.0,574.0,1894.2,827.8,1920.0,1460.0,Animal_Land_Pattern_Small,69.500581667,75.51150537500007,2.0,Animal_Land_Pattern_Small,4.0,,,,,,,,,,,
encoding,value,12,2236588,2242599,2240653.0,2240949.0,297.0,297.0,1899.8,819.7,1920.0,1460.0,Animal_Land_Pattern_Small,69.500581667,75.51150537500007,2.0,Animal_Land_Pattern_Small,4.0,,,,,,,,,,,
encoding,value,12,2236588,2242599,2240960.0,2241165.0,206.0,206.0,1895.6,734.5999999999999,1920.0,1460.0,Animal_Land_Pattern_Small,69.500581667,75.51150537500007,2.0,Animal_Land_Pattern_Small,4.0,,,,,,,,,,,
encoding,value,12,2236588,2242599,2241186.0,2241355.0,170.0,170.0,1896.1,828.7,1920.0,1460.0,Animal_Land_Pattern_Small,69.500581667,75.51150537500007,2.0,Animal_Land_Pattern_Small,4.0,,,,,,,,,,,
encoding,value,12,2236588,2242599,2241712.0,2241938.0,227.0,227.0,1889.3,828.7,1920.0,1460.0,Animal_Land_Pattern_Small,69.500581667,75.51150537500007,2.0,Animal_Land_Pattern_Small,4.0,,,,,,,,,,,
encoding,value,12,2236588,2242599,2241954.0,2243034.0,1081.0,645.0,1885.7,739.4000000000001,1920.0,1460.0,Animal_Land_Pattern_Small,69.500581667,75.51150537500007,2.0,Animal_Land_Pattern_Small,4.0,,,,,,,,,,,
encoding,attention,12,2242599,2245616,2243742.0,2244724.0,983.0,983.0,1890.3,842.4000000000001,1920.0,1460.0,Animal_Land_Pattern_Small,75.51162841699988,78.52862816700008,2.0,Animal_Land_Pattern_Small,4.0,4.0,1.0,0.8099705829999948,,,,,,,,
encoding,fixation,13,2507210,2508716,2507232.0,2507412.0,181.0,181.0,1821.7,992.2,1591.0,1269.0,Object_Land_Solid_Small,6.915677750000214,8.42152249999981,3.0,Animal_Sea_Pattern_Large,-8.0,,,,,,,,,,,
encoding,fixation,13,2507210,2508716,2507442.0,2507568.0,127.0,127.0,1887.3,1182.5,1920.0,700.0,Animal_Sea_Pattern_Large,6.915677750000214,8.42152249999981,3.0,Animal_Sea_Pattern_Large,-8.0,,,,,,,,,,,
encoding,fixation,13,2507210,2508716,2507752.0,2508521.0,770.0,770.0,1902.4,1122.9,1920.0,1080.0,fixation,6.915677750000214,8.42152249999981,3.0,Animal_Sea_Pattern_Large,-8.0,,,,,,,,,,,
encoding,fixation,13,2507210,2508716,2508697.0,2508889.0,193.0,19.0,1932.1,1236.8,1920.0,700.0,Animal_Sea_Pattern_Large,6.915677750000214,8.42152249999981,3.0,Animal_Sea_Pattern_Large,-8.0,,,,,,,,,,,
encoding,image,13,2508716,2509726,2508920.0,2509141.0,222.0,222.0,1906.1,1478.1,1920.0,700.0,Animal_Sea_Pattern_Large,8.421629708000182,9.432141000000229,3.0,Animal_Sea_Pattern_Large,-8.0,,,,,,,,,,,
encoding,image,13,2508716,2509726,2509150.0,2509244.0,95.0,95.0,1875.9,1509.2,1920.0,700.0,Animal_Sea_Pattern_Large,8.421629708000182,9.432141000000229,3.0,Animal_Sea_Pattern_Large,-8.0,,,,,,,,,,,
encoding,image,13,2508716,2509726,2509432.0,2509574.0,143.0,143.0,1875.8,1278.7,1920.0,700.0,Animal_Sea_Pattern_Large,8.421629708000182,9.432141000000229,3.0,Animal_Sea_Pattern_Large,-8.0,,,,,,,,,,,
encoding,image,13,2508716,2509726,2509605.0,2509819.0,215.0,121.0,1891.8,1433.1,1920.0,700.0,Animal_Sea_Pattern_Large,8.421629708000182,9.432141000000229,3.0,Animal_Sea_Pattern_Large,-8.0,,,,,,,,,,,
encoding,value,13,2509727,2515739,2509839.0,2509997.0,159.0,159.0,1885.0,1292.6,1920.0,700.0,Animal_Sea_Pattern_Large,9.432319250000091,15.444741082999826,3.0,Animal_Sea_Pattern_Large,-8.0,,,,,,,,,,,
encoding,value,13,2509727,2515739,2510016.0,2510167.0,152.0,152.0,1898.9,1375.5,1920.0,700.0,Animal_Sea_Pattern_Large,9.432319250000091,15.444741082999826,3.0,Animal_Sea_Pattern_Large,-8.0,,,,,,,,,,,
encoding,value,13,2509727,2515739,2510333.0,2510462.0,130.0,130.0,1898.5,1439.1,1920.0,700.0,Animal_Sea_Pattern_Large,9.432319250000091,15.444741082999826,3.0,Animal_Sea_Pattern_Large,-8.0,,,,,,,,,,,
encoding,value,13,2509727,2515739,2510659.0,2512989.0,2331.0,2331.0,1899.2,1394.4,1920.0,700.0,Animal_Sea_Pattern_Large,9.432319250000091,15.444741082999826,3.0,Animal_Sea_Pattern_Large,-8.0,,,,,,,,,,,
encoding,value,13,2509727,2515739,2513154.0,2514480.0,1327.0,1327.0,1906.1,1392.0,1920.0,700.0,Animal_Sea_Pattern_Large,9.432319250000091,15.444741082999826,3.0,Animal_Sea_Pattern_Large,-8.0,,,,,,,,,,,
encoding,value,13,2509727,2515739,2514679.0,2514880.0,202.0,202.0,1914.3,1435.7,1920.0,700.0,Animal_Sea_Pattern_Large,9.432319250000091,15.444741082999826,3.0,Animal_Sea_Pattern_Large,-8.0,,,,,,,,,,,
encoding,value,13,2509727,2515739,2514895.0,2515068.0,174.0,174.0,1896.7,1481.8,1920.0,700.0,Animal_Sea_Pattern_Large,9.432319250000091,15.444741082999826,3.0,Animal_Sea_Pattern_Large,-8.0,,,,,,,,,,,
encoding,value,13,2509727,2515739,2515083.0,2515713.0,631.0,631.0,1914.2,1404.1,1920.0,700.0,Animal_Sea_Pattern_Large,9.432319250000091,15.444741082999826,3.0,Animal_Sea_Pattern_Large,-8.0,,,,,,,,,,,
encoding,attention,13,2515739,2518757,2515909.0,2516318.0,410.0,410.0,1928.3,1426.0,1920.0,700.0,Animal_Sea_Pattern_Large,15.444853292000062,18.46183937500018,3.0,Animal_Sea_Pattern_Large,-8.0,-8.0,1.0,0.8419130829997812,,,,,,,,
encoding,attention,13,2515739,2518757,2516330.0,2516798.0,469.0,469.0,1874.8,1425.1,1920.0,700.0,Animal_Sea_Pattern_Large,15.444853292000062,18.46183937500018,3.0,Animal_Sea_Pattern_Large,-8.0,-8.0,1.0,0.8419130829997812,,,,,,,,
encoding,attention,13,2515739,2518757,2517013.0,2517313.0,301.0,301.0,1919.6,1515.8,1920.0,700.0,Animal_Sea_Pattern_Large,15.444853292000062,18.46183937500018,3.0,Animal_Sea_Pattern_Large,-8.0,-8.0,1.0,0.8419130829997812,,,,,,,,
encoding,attention,13,2515739,2518757,2517496.0,2517717.0,222.0,222.0,1883.0,1501.8,1920.0,700.0,Animal_Sea_Pattern_Large,15.444853292000062,18.46183937500018,3.0,Animal_Sea_Pattern_Large,-8.0,-8.0,1.0,0.8419130829997812,,,,,,,,
encoding,attention,13,2515739,2518757,2517726.0,2517874.0,149.0,149.0,1867.1,1529.1,1920.0,700.0,Animal_Sea_Pattern_Large,15.444853292000062,18.46183937500018,3.0,Animal_Sea_Pattern_Large,-8.0,-8.0,1.0,0.8419130829997812,,,,,,,,
encoding,attention,13,2515739,2518757,2517895.0,2518097.0,203.0,203.0,1861.6,1413.3,1920.0,700.0,Animal_Sea_Pattern_Large,15.444853292000062,18.46183937500018,3.0,Animal_Sea_Pattern_Large,-8.0,-8.0,1.0,0.8419130829997812,,,,,,,,
encoding,attention,13,2515739,2518757,2518116.0,2518367.0,252.0,252.0,1882.5,1520.2,1920.0,700.0,Animal_Sea_Pattern_Large,15.444853292000062,18.46183937500018,3.0,Animal_Sea_Pattern_Large,-8.0,-8.0,1.0,0.8419130829997812,,,,,,,,
encoding,attention,13,2515739,2518757,2518561.0,2518682.0,122.0,122.0,1881.6,1475.4,1920.0,700.0,Animal_Sea_Pattern_Large,15.444853292000062,18.46183937500018,3.0,Animal_Sea_Pattern_Large,-8.0,-8.0,1.0,0.8419130829997812,,,,,,,,
encoding,fixation,14,2518757,2519512,2519004.0,2519142.0,139.0,139.0,1904.8,1143.7,1920.0,1080.0,fixation,18.46200545800002,19.21725666700013,3.0,Animal_Sea_Solid_Large,6.0,,,,,,,,,,,
encoding,fixation,14,2518757,2519512,2519359.0,2519742.0,384.0,153.0,1922.8,1354.0,1920.0,700.0,Animal_Sea_Pattern_Large,18.46200545800002,19.21725666700013,3.0,Animal_Sea_Solid_Large,6.0,,,,,,,,,,,
encoding,image,14,2519512,2520523,2519791.0,2519974.0,184.0,184.0,2209.1,974.5,2249.0,1269.0,Animal_Sea_Solid_Large,19.21736262500008,20.228056542000104,3.0,Animal_Sea_Solid_Large,6.0,,,,,,,,,,,
encoding,image,14,2519512,2520523,2520168.0,2520731.0,564.0,355.0,2222.6,1005.0,2249.0,1269.0,Animal_Sea_Solid_Large,19.21736262500008,20.228056542000104,3.0,Animal_Sea_Solid_Large,6.0,,,,,,,,,,,
encoding,value,14,2520523,2526536,2520750.0,2520870.0,121.0,121.0,2226.8,904.9000000000001,2249.0,1269.0,Animal_Sea_Solid_Large,20.22819350000009,26.241076041999804,3.0,Animal_Sea_Solid_Large,6.0,,,,,,,,,,,
encoding,value,14,2520523,2526536,2521100.0,2521282.0,183.0,183.0,2223.2,913.7,2249.0,1269.0,Animal_Sea_Solid_Large,20.22819350000009,26.241076041999804,3.0,Animal_Sea_Solid_Large,6.0,,,,,,,,,,,
encoding,value,14,2520523,2526536,2521297.0,2521491.0,195.0,195.0,2222.7,989.0999999999999,2249.0,1269.0,Animal_Sea_Solid_Large,20.22819350000009,26.241076041999804,3.0,Animal_Sea_Solid_Large,6.0,,,,,,,,,,,
encoding,value,14,2520523,2526536,2521697.0,2522098.0,402.0,402.0,2230.7,991.5999999999999,2249.0,1269.0,Animal_Sea_Solid_Large,20.22819350000009,26.241076041999804,3.0,Animal_Sea_Solid_Large,6.0,,,,,,,,,,,
encoding,value,14,2520523,2526536,2522307.0,2522562.0,256.0,256.0,2230.5,1000.8,2249.0,1269.0,Animal_Sea_Solid_Large,20.22819350000009,26.241076041999804,3.0,Animal_Sea_Solid_Large,6.0,,,,,,,,,,,
encoding,value,14,2520523,2526536,2522581.0,2523027.0,447.0,447.0,2225.8,924.4000000000001,2249.0,1269.0,Animal_Sea_Solid_Large,20.22819350000009,26.241076041999804,3.0,Animal_Sea_Solid_Large,6.0,,,,,,,,,,,
encoding,value,14,2520523,2526536,2523249.0,2523421.0,173.0,173.0,2214.8,961.5,2249.0,1269.0,Animal_Sea_Solid_Large,20.22819350000009,26.241076041999804,3.0,Animal_Sea_Solid_Large,6.0,,,,,,,,,,,
encoding,value,14,2520523,2526536,2523437.0,2524824.0,1388.0,1388.0,2228.3,876.7,2249.0,1269.0,Animal_Sea_Solid_Large,20.22819350000009,26.241076041999804,3.0,Animal_Sea_Solid_Large,6.0,,,,,,,,,,,
encoding,value,14,2520523,2526536,2524847.0,2524873.0,27.0,27.0,2162.4,683.5999999999999,2249.0,1269.0,Animal_Sea_Solid_Large,20.22819350000009,26.241076041999804,3.0,Animal_Sea_Solid_Large,6.0,,,,,,,,,,,
encoding,value,14,2520523,2526536,2525101.0,2526173.0,1073.0,1073.0,2217.3,891.0999999999999,2249.0,1269.0,Animal_Sea_Solid_Large,20.22819350000009,26.241076041999804,3.0,Animal_Sea_Solid_Large,6.0,,,,,,,,,,,
encoding,value,14,2520523,2526536,2526412.0,2526931.0,520.0,124.0,2214.1,907.9000000000001,2249.0,1269.0,Animal_Sea_Solid_Large,20.22819350000009,26.241076041999804,3.0,Animal_Sea_Solid_Large,6.0,,,,,,,,,,,
encoding,attention,14,2526536,2529553,2526946.0,2527404.0,459.0,459.0,2302.5,901.5999999999999,2249.0,1269.0,Animal_Sea_Solid_Large,26.241197708000072,29.258187875000203,3.0,Animal_Sea_Solid_Large,6.0,6.0,1.0,0.6469171660000939,,,,,,,,
encoding,attention,14,2526536,2529553,2527630.0,2527789.0,160.0,160.0,2147.9,1061.0,2249.0,1269.0,Animal_Sea_Solid_Large,26.241197708000072,29.258187875000203,3.0,Animal_Sea_Solid_Large,6.0,6.0,1.0,0.6469171660000939,,,,,,,,
encoding,attention,14,2526536,2529553,2527809.0,2528301.0,493.0,493.0,2226.2,990.4000000000001,2249.0,1269.0,Animal_Sea_Solid_Large,26.241197708000072,29.258187875000203,3.0,Animal_Sea_Solid_Large,6.0,6.0,1.0,0.6469171660000939,,,,,,,,
encoding,attention,14,2526536,2529553,2528323.0,2528467.0,145.0,145.0,2258.1,900.7,2249.0,1269.0,Animal_Sea_Solid_Large,26.241197708000072,29.258187875000203,3.0,Animal_Sea_Solid_Large,6.0,6.0,1.0,0.6469171660000939,,,,,,,,
encoding,attention,14,2526536,2529553,2528725.0,2529329.0,605.0,605.0,2233.4,1009.5,2249.0,1269.0,Animal_Sea_Solid_Large,26.241197708000072,29.258187875000203,3.0,Animal_Sea_Solid_Large,6.0,6.0,1.0,0.6469171660000939,,,,,,,,
encoding,attention,14,2526536,2529553,2529350.0,2529533.0,184.0,184.0,2279.9,882.0999999999999,2249.0,1269.0,Animal_Sea_Solid_Large,26.241197708000072,29.258187875000203,3.0,Animal_Sea_Solid_Large,6.0,6.0,1.0,0.6469171660000939,,,,,,,,
encoding,fixation,15,2529553,2530562,2529718.0,2529821.0,104.0,104.0,2111.0,1099.0,2249.0,891.0,Object_Land_Pattern_Small,29.258341582999947,30.26672366699995,3.0,Object_Land_Pattern_Large,8.0,,,,,,,,,,,
encoding,fixation,15,2529553,2530562,2529847.0,2530237.0,391.0,391.0,1895.5,1155.9,1920.0,700.0,Animal_Sea_Pattern_Large,29.258341582999947,30.26672366699995,3.0,Object_Land_Pattern_Large,8.0,,,,,,,,,,,
encoding,fixation,15,2529553,2530562,2530435.0,2530619.0,185.0,127.0,1897.3,1262.8,1920.0,700.0,Animal_Sea_Pattern_Large,29.258341582999947,30.26672366699995,3.0,Object_Land_Pattern_Large,8.0,,,,,,,,,,,
encoding,image,15,2530562,2531574,2530636.0,2530745.0,110.0,110.0,1889.1,1175.6,1920.0,700.0,Animal_Sea_Pattern_Large,30.266831333000027,31.27855295800009,3.0,Object_Land_Pattern_Large,8.0,,,,,,,,,,,
encoding,image,15,2530562,2531574,2530773.0,2531147.0,375.0,375.0,1585.0,1309.4,1591.0,891.0,Object_Land_Pattern_Large,30.266831333000027,31.27855295800009,3.0,Object_Land_Pattern_Large,8.0,,,,,,,,,,,
encoding,image,15,2530562,2531574,2531368.0,2531585.0,218.0,206.0,1571.2,1283.8,1591.0,891.0,Object_Land_Pattern_Large,30.266831333000027,31.27855295800009,3.0,Object_Land_Pattern_Large,8.0,,,,,,,,,,,
encoding,value,15,2531574,2537587,2531597.0,2531945.0,349.0,349.0,1563.9,1220.0,1591.0,891.0,Object_Land_Pattern_Large,31.278674250000225,37.29101970800002,3.0,Object_Land_Pattern_Large,8.0,,,,,,,,,,,
encoding,value,15,2531574,2537587,2532153.0,2532445.0,293.0,293.0,1595.0,1272.4,1591.0,891.0,Object_Land_Pattern_Large,31.278674250000225,37.29101970800002,3.0,Object_Land_Pattern_Large,8.0,,,,,,,,,,,
encoding,value,15,2531574,2537587,2532453.0,2532963.0,511.0,511.0,1569.2,1293.8,1591.0,891.0,Object_Land_Pattern_Large,31.278674250000225,37.29101970800002,3.0,Object_Land_Pattern_Large,8.0,,,,,,,,,,,
encoding,value,15,2531574,2537587,2533158.0,2533380.0,223.0,223.0,1586.8,1267.7,1591.0,891.0,Object_Land_Pattern_Large,31.278674250000225,37.29101970800002,3.0,Object_Land_Pattern_Large,8.0,,,,,,,,,,,
encoding,value,15,2531574,2537587,2533400.0,2533713.0,314.0,314.0,1742.0,1292.8,1591.0,891.0,Object_Land_Pattern_Large,31.278674250000225,37.29101970800002,3.0,Object_Land_Pattern_Large,8.0,,,,,,,,,,,
encoding,value,15,2531574,2537587,2533734.0,2534108.0,375.0,375.0,1597.3,1226.0,1591.0,891.0,Object_Land_Pattern_Large,31.278674250000225,37.29101970800002,3.0,Object_Land_Pattern_Large,8.0,,,,,,,,,,,
encoding,value,15,2531574,2537587,2534327.0,2534505.0,179.0,179.0,1595.9,1256.2,1591.0,891.0,Object_Land_Pattern_Large,31.278674250000225,37.29101970800002,3.0,Object_Land_Pattern_Large,8.0,,,,,,,,,,,
encoding,value,15,2531574,2537587,2534518.0,2534747.0,230.0,230.0,1592.2,1309.9,1591.0,891.0,Object_Land_Pattern_Large,31.278674250000225,37.29101970800002,3.0,Object_Land_Pattern_Large,8.0,,,,,,,,,,,
encoding,value,15,2531574,2537587,2534764.0,2535329.0,566.0,566.0,1593.3,1220.7,1591.0,891.0,Object_Land_Pattern_Large,31.278674250000225,37.29101970800002,3.0,Object_Land_Pattern_Large,8.0,,,,,,,,,,,
encoding,value,15,2531574,2537587,2535555.0,2536528.0,974.0,974.0,1591.4,1228.0,1591.0,891.0,Object_Land_Pattern_Large,31.278674250000225,37.29101970800002,3.0,Object_Land_Pattern_Large,8.0,,,,,,,,,,,
encoding,value,15,2531574,2537587,2536743.0,2537382.0,640.0,640.0,1588.7,1233.4,1591.0,891.0,Object_Land_Pattern_Large,31.278674250000225,37.29101970800002,3.0,Object_Land_Pattern_Large,8.0,,,,,,,,,,,
encoding,attention,15,2537587,2540605,2537617.0,2537959.0,343.0,343.0,1582.7,1240.8,1591.0,891.0,Object_Land_Pattern_Large,37.29121045800002,40.30900620800003,3.0,Object_Land_Pattern_Large,8.0,8.0,1.0,0.5960363330000291,,,,,,,,
encoding,attention,15,2537587,2540605,2537969.0,2538370.0,402.0,402.0,1635.2,1236.8,1591.0,891.0,Object_Land_Pattern_Large,37.29121045800002,40.30900620800003,3.0,Object_Land_Pattern_Large,8.0,8.0,1.0,0.5960363330000291,,,,,,,,
encoding,attention,15,2537587,2540605,2538626.0,2538714.0,89.0,89.0,1692.1,1324.5,1591.0,891.0,Object_Land_Pattern_Large,37.29121045800002,40.30900620800003,3.0,Object_Land_Pattern_Large,8.0,8.0,1.0,0.5960363330000291,,,,,,,,
encoding,attention,15,2537587,2540605,2538729.0,2539266.0,538.0,538.0,1610.3,1345.9,1591.0,891.0,Object_Land_Pattern_Large,37.29121045800002,40.30900620800003,3.0,Object_Land_Pattern_Large,8.0,8.0,1.0,0.5960363330000291,,,,,,,,
encoding,attention,15,2537587,2540605,2539413.0,2539557.0,145.0,145.0,1646.3,1218.9,1591.0,891.0,Object_Land_Pattern_Large,37.29121045800002,40.30900620800003,3.0,Object_Land_Pattern_Large,8.0,8.0,1.0,0.5960363330000291,,,,,,,,
encoding,attention,15,2537587,2540605,2540069.0,2540246.0,178.0,178.0,1899.3,1381.1,1920.0,700.0,Animal_Sea_Pattern_Large,37.29121045800002,40.30900620800003,3.0,Object_Land_Pattern_Large,8.0,8.0,1.0,0.5960363330000291,,,,,,,,
encoding,fixation,16,2540605,2542112,2540951.0,2541579.0,629.0,629.0,1917.4,1146.6,1920.0,1080.0,fixation,40.30916104200014,41.815858625000146,3.0,Object_Land_Solid_Small,-1.0,,,,,,,,,,,
encoding,fixation,16,2540605,2542112,2541793.0,2542312.0,520.0,319.0,1912.4,1163.6,1920.0,700.0,Animal_Sea_Pattern_Large,40.30916104200014,41.815858625000146,3.0,Object_Land_Solid_Small,-1.0,,,,,,,,,,,
encoding,image,16,2542112,2543123,2542338.0,2542529.0,192.0,192.0,1690.0,1074.1,1591.0,1269.0,Object_Land_Solid_Small,41.8159879169998,42.82750512499979,3.0,Object_Land_Solid_Small,-1.0,,,,,,,,,,,
encoding,image,16,2542112,2543123,2543028.0,2543323.0,296.0,95.0,1568.5,1018.3,1591.0,1269.0,Object_Land_Solid_Small,41.8159879169998,42.82750512499979,3.0,Object_Land_Solid_Small,-1.0,,,,,,,,,,,
encoding,value,16,2543123,2549136,2543340.0,2543706.0,367.0,367.0,1572.1,925.0999999999999,1591.0,1269.0,Object_Land_Solid_Small,42.82764579200011,48.8397007919998,3.0,Object_Land_Solid_Small,-1.0,,,,,,,,,,,
encoding,value,16,2543123,2549136,2544826.0,2544854.0,29.0,29.0,1575.8,915.3,1591.0,1269.0,Object_Land_Solid_Small,42.82764579200011,48.8397007919998,3.0,Object_Land_Solid_Small,-1.0,,,,,,,,,,,
encoding,value,16,2543123,2549136,2544930.0,2545005.0,76.0,76.0,1577.9,927.2,1591.0,1269.0,Object_Land_Solid_Small,42.82764579200011,48.8397007919998,3.0,Object_Land_Solid_Small,-1.0,,,,,,,,,,,
encoding,value,16,2543123,2549136,2545368.0,2545917.0,550.0,550.0,2203.4,1238.9,2249.0,891.0,Object_Land_Pattern_Small,42.82764579200011,48.8397007919998,3.0,Object_Land_Solid_Small,-1.0,,,,,,,,,,,
encoding,value,16,2543123,2549136,2546234.0,2546604.0,371.0,371.0,1575.4,1007.5,1591.0,1269.0,Object_Land_Solid_Small,42.82764579200011,48.8397007919998,3.0,Object_Land_Solid_Small,-1.0,,,,,,,,,,,
encoding,value,16,2543123,2549136,2546621.0,2549477.0,2857.0,2515.0,1586.5,899.5999999999999,1591.0,1269.0,Object_Land_Solid_Small,42.82764579200011,48.8397007919998,3.0,Object_Land_Solid_Small,-1.0,,,,,,,,,,,
encoding,attention,16,2549136,2552153,2550137.0,2550268.0,132.0,132.0,1551.8,926.2,1591.0,1269.0,Object_Land_Solid_Small,48.8398158330001,51.85661995800001,3.0,Object_Land_Solid_Small,-1.0,-1.0,1.0,0.9277971669998806,,,,,,,,
encoding,attention,16,2549136,2552153,2550787.0,2550957.0,171.0,171.0,1908.5,1305.1,1920.0,700.0,Animal_Sea_Pattern_Large,48.8398158330001,51.85661995800001,3.0,Object_Land_Solid_Small,-1.0,-1.0,1.0,0.9277971669998806,,,,,,,,
encoding,attention,16,2549136,2552153,2551219.0,2551609.0,391.0,391.0,1891.6,1303.7,1920.0,700.0,Animal_Sea_Pattern_Large,48.8398158330001,51.85661995800001,3.0,Object_Land_Solid_Small,-1.0,-1.0,1.0,0.9277971669998806,,,,,,,,
encoding,attention,16,2549136,2552153,2551648.0,2552083.0,436.0,436.0,1989.0,1036.8,2249.0,1269.0,Animal_Sea_Solid_Large,48.8398158330001,51.85661995800001,3.0,Object_Land_Solid_Small,-1.0,-1.0,1.0,0.9277971669998806,,,,,,,,
encoding,fixation,17,2552153,2553408,2552494.0,2552974.0,481.0,481.0,1938.7,1078.8,1920.0,1080.0,fixation,51.856801583000106,53.11179674999994,3.0,Animal_Sea_Solid_Small,5.0,,,,,,,,,,,
encoding,fixation,17,2552153,2553408,2552989.0,2553363.0,375.0,375.0,1862.5,1127.8,1591.0,891.0,Object_Land_Pattern_Large,51.856801583000106,53.11179674999994,3.0,Animal_Sea_Solid_Small,5.0,,,,,,,,,,,
encoding,image,17,2553408,2554419,2553594.0,2553709.0,116.0,116.0,1757.4,1175.1,1591.0,891.0,Object_Land_Pattern_Large,53.11192345800009,54.12280054199982,3.0,Animal_Sea_Solid_Small,5.0,,,,,,,,,,,
encoding,image,17,2553408,2554419,2553745.0,2554079.0,335.0,335.0,1866.2,920.9000000000001,1920.0,1460.0,Animal_Sea_Solid_Small,53.11192345800009,54.12280054199982,3.0,Animal_Sea_Solid_Small,5.0,,,,,,,,,,,
encoding,image,17,2553408,2554419,2554095.0,2554518.0,424.0,324.0,1895.7,794.5999999999999,1920.0,1460.0,Animal_Sea_Solid_Small,53.11192345800009,54.12280054199982,3.0,Animal_Sea_Solid_Small,5.0,,,,,,,,,,,
encoding,value,17,2554419,2560430,2554540.0,2554734.0,195.0,195.0,2049.1,904.9000000000001,2249.0,1269.0,Animal_Sea_Solid_Large,54.122922666999784,60.13400283300007,3.0,Animal_Sea_Solid_Small,5.0,,,,,,,,,,,
encoding,value,17,2554419,2560430,2554764.0,2554920.0,157.0,157.0,1921.3,741.5999999999999,1920.0,1460.0,Animal_Sea_Solid_Small,54.122922666999784,60.13400283300007,3.0,Animal_Sea_Solid_Small,5.0,,,,,,,,,,,
encoding,value,17,2554419,2560430,2555509.0,2556185.0,677.0,677.0,1882.2,812.8,1920.0,1460.0,Animal_Sea_Solid_Small,54.122922666999784,60.13400283300007,3.0,Animal_Sea_Solid_Small,5.0,,,,,,,,,,,
encoding,value,17,2554419,2560430,2556658.0,2556755.0,98.0,98.0,1903.0,832.9000000000001,1920.0,1460.0,Animal_Sea_Solid_Small,54.122922666999784,60.13400283300007,3.0,Animal_Sea_Solid_Small,5.0,,,,,,,,,,,
encoding,value,17,2554419,2560430,2556882.0,2557632.0,751.0,751.0,1898.4,721.5,1920.0,1460.0,Animal_Sea_Solid_Small,54.122922666999784,60.13400283300007,3.0,Animal_Sea_Solid_Small,5.0,,,,,,,,,,,
encoding,value,17,2554419,2560430,2558521.0,2558587.0,67.0,67.0,1913.1,737.8,1920.0,1460.0,Animal_Sea_Solid_Small,54.122922666999784,60.13400283300007,3.0,Animal_Sea_Solid_Small,5.0,,,,,,,,,,,
encoding,value,17,2554419,2560430,2558818.0,2558939.0,122.0,122.0,1896.9,736.8,1920.0,1460.0,Animal_Sea_Solid_Small,54.122922666999784,60.13400283300007,3.0,Animal_Sea_Solid_Small,5.0,,,,,,,,,,,
encoding,value,17,2554419,2560430,2558963.0,2559092.0,130.0,130.0,1897.6,733.0,1920.0,1460.0,Animal_Sea_Solid_Small,54.122922666999784,60.13400283300007,3.0,Animal_Sea_Solid_Small,5.0,,,,,,,,,,,
encoding,value,17,2554419,2560430,2559203.0,2559334.0,132.0,132.0,1911.1,736.4000000000001,1920.0,1460.0,Animal_Sea_Solid_Small,54.122922666999784,60.13400283300007,3.0,Animal_Sea_Solid_Small,5.0,,,,,,,,,,,
encoding,value,17,2554419,2560430,2559357.0,2559565.0,209.0,209.0,1920.5,736.7,1920.0,1460.0,Animal_Sea_Solid_Small,54.122922666999784,60.13400283300007,3.0,Animal_Sea_Solid_Small,5.0,,,,,,,,,,,
encoding,value,17,2554419,2560430,2559618.0,2559907.0,290.0,290.0,1913.7,730.7,1920.0,1460.0,Animal_Sea_Solid_Small,54.122922666999784,60.13400283300007,3.0,Animal_Sea_Solid_Small,5.0,,,,,,,,,,,
encoding,attention,17,2560431,2563449,2561560.0,2561629.0,70.0,70.0,1945.6,1050.9,1920.0,1080.0,fixation,60.134110874999806,63.15185645800011,3.0,Animal_Sea_Solid_Small,5.0,5.0,1.0,0.6972952080000141,,,,,,,,
encoding,attention,17,2560431,2563449,2561848.0,2562181.0,334.0,334.0,1916.2,1206.0,1920.0,700.0,Animal_Sea_Pattern_Large,60.134110874999806,63.15185645800011,3.0,Animal_Sea_Solid_Small,5.0,5.0,1.0,0.6972952080000141,,,,,,,,
encoding,attention,17,2560431,2563449,2562230.0,2562483.0,254.0,254.0,1854.2,750.5,1920.0,1460.0,Animal_Sea_Solid_Small,60.134110874999806,63.15185645800011,3.0,Animal_Sea_Solid_Small,5.0,5.0,1.0,0.6972952080000141,,,,,,,,
encoding,attention,17,2560431,2563449,2562856.0,2562895.0,40.0,40.0,1933.0,876.4000000000001,1920.0,1460.0,Animal_Sea_Solid_Small,60.134110874999806,63.15185645800011,3.0,Animal_Sea_Solid_Small,5.0,5.0,1.0,0.6972952080000141,,,,,,,,
encoding,attention,17,2560431,2563449,2562981.0,2563195.0,215.0,215.0,1882.8,781.9000000000001,1920.0,1460.0,Animal_Sea_Solid_Small,60.134110874999806,63.15185645800011,3.0,Animal_Sea_Solid_Small,5.0,5.0,1.0,0.6972952080000141,,,,,,,,
encoding,fixation,18,2563449,2564954,2563859.0,2563895.0,37.0,37.0,2050.5,761.0999999999999,1920.0,1460.0,Animal_Sea_Solid_Small,63.1520439169999,64.6570307500001,3.0,Object_Land_Pattern_Small,-1.0,,,,,,,,,,,
encoding,fixation,18,2563449,2564954,2563908.0,2563961.0,54.0,54.0,2048.9,795.0999999999999,1920.0,1460.0,Animal_Sea_Solid_Small,63.1520439169999,64.6570307500001,3.0,Object_Land_Pattern_Small,-1.0,,,,,,,,,,,
encoding,fixation,18,2563449,2564954,2563979.0,2564078.0,100.0,100.0,2050.8,817.3,1920.0,1460.0,Animal_Sea_Solid_Small,63.1520439169999,64.6570307500001,3.0,Object_Land_Pattern_Small,-1.0,,,,,,,,,,,
encoding,fixation,18,2563449,2564954,2564089.0,2564565.0,477.0,477.0,2126.8,812.0999999999999,2249.0,1269.0,Animal_Sea_Solid_Large,63.1520439169999,64.6570307500001,3.0,Object_Land_Pattern_Small,-1.0,,,,,,,,,,,
encoding,fixation,18,2563449,2564954,2564589.0,2564854.0,266.0,266.0,1891.7,894.0999999999999,1920.0,1460.0,Animal_Sea_Solid_Small,63.1520439169999,64.6570307500001,3.0,Object_Land_Pattern_Small,-1.0,,,,,,,,,,,
encoding,fixation,18,2563449,2564954,2564876.0,2565142.0,267.0,78.0,1708.4,989.9000000000001,1591.0,1269.0,Object_Land_Solid_Small,63.1520439169999,64.6570307500001,3.0,Object_Land_Pattern_Small,-1.0,,,,,,,,,,,
encoding,image,18,2564954,2565965,2565365.0,2565470.0,106.0,106.0,1940.3,1132.9,1920.0,1080.0,fixation,64.6571502920001,65.66828012499991,3.0,Object_Land_Pattern_Small,-1.0,,,,,,,,,,,
encoding,image,18,2564954,2565965,2565497.0,2566319.0,823.0,468.0,2193.6,1261.3,2249.0,891.0,Object_Land_Pattern_Small,64.6571502920001,65.66828012499991,3.0,Object_Land_Pattern_Small,-1.0,,,,,,,,,,,
encoding,value,18,2565965,2571979,2566562.0,2566957.0,396.0,396.0,2213.5,1248.3,2249.0,891.0,Object_Land_Pattern_Small,65.66838470799985,71.68149666699992,3.0,Object_Land_Pattern_Small,-1.0,,,,,,,,,,,
encoding,value,18,2565965,2571979,2567130.0,2567183.0,54.0,54.0,2177.0,1036.4,2249.0,1269.0,Animal_Sea_Solid_Large,65.66838470799985,71.68149666699992,3.0,Object_Land_Pattern_Small,-1.0,,,,,,,,,,,
encoding,value,18,2565965,2571979,2567448.0,2568086.0,639.0,639.0,2173.3,1237.1,2249.0,891.0,Object_Land_Pattern_Small,65.66838470799985,71.68149666699992,3.0,Object_Land_Pattern_Small,-1.0,,,,,,,,,,,
encoding,value,18,2565965,2571979,2568299.0,2568528.0,230.0,230.0,2209.6,1230.0,2249.0,891.0,Object_Land_Pattern_Small,65.66838470799985,71.68149666699992,3.0,Object_Land_Pattern_Small,-1.0,,,,,,,,,,,
encoding,value,18,2565965,2571979,2569413.0,2570264.0,852.0,852.0,2213.9,1207.9,2249.0,891.0,Object_Land_Pattern_Small,65.66838470799985,71.68149666699992,3.0,Object_Land_Pattern_Small,-1.0,,,,,,,,,,,
encoding,value,18,2565965,2571979,2570484.0,2571940.0,1457.0,1457.0,2210.2,1239.5,2249.0,891.0,Object_Land_Pattern_Small,65.66838470799985,71.68149666699992,3.0,Object_Land_Pattern_Small,-1.0,,,,,,,,,,,
encoding,attention,18,2571979,2574996,2572154.0,2573011.0,858.0,858.0,2171.4,1232.9,2249.0,891.0,Object_Land_Pattern_Small,71.68163545800007,74.69868391699993,3.0,Object_Land_Pattern_Small,-1.0,-1.0,1.0,0.8118828329997996,,,,,,,,
encoding,attention,18,2571979,2574996,2573273.0,2573355.0,83.0,83.0,1853.5,1000.0999999999999,1591.0,1269.0,Object_Land_Solid_Small,71.68163545800007,74.69868391699993,3.0,Object_Land_Pattern_Small,-1.0,-1.0,1.0,0.8118828329997996,,,,,,,,
encoding,attention,18,2571979,2574996,2573371.0,2573563.0,193.0,193.0,1908.4,1171.3,1920.0,700.0,Animal_Sea_Pattern_Large,71.68163545800007,74.69868391699993,3.0,Object_Land_Pattern_Small,-1.0,-1.0,1.0,0.8118828329997996,,,,,,,,
encoding,attention,18,2571979,2574996,2573588.0,2573947.0,360.0,360.0,2113.9,1249.6,2249.0,891.0,Object_Land_Pattern_Small,71.68163545800007,74.69868391699993,3.0,Object_Land_Pattern_Small,-1.0,-1.0,1.0,0.8118828329997996,,,,,,,,
encoding,attention,18,2571979,2574996,2573955.0,2574394.0,440.0,440.0,2182.4,1255.7,2249.0,891.0,Object_Land_Pattern_Small,71.68163545800007,74.69868391699993,3.0,Object_Land_Pattern_Small,-1.0,-1.0,1.0,0.8118828329997996,,,,,,,,
encoding,attention,18,2571979,2574996,2574617.0,2574779.0,163.0,163.0,2178.5,1270.5,2249.0,891.0,Object_Land_Pattern_Small,71.68163545800007,74.69868391699993,3.0,Object_Land_Pattern_Small,-1.0,-1.0,1.0,0.8118828329997996,,,,,,,,
encoding,fixation,19,2830443,2831198,2830763.0,2830799.0,37.0,37.0,1902.4,1275.3,1920.0,700.0,Animal_Land_Pattern_Large,5.2917997090003155,6.047733625000092,4.0,Animal_Land_Pattern_Large,9.0,,,,,,,,,,,
encoding,fixation,19,2830443,2831198,2831003.0,2831375.0,373.0,195.0,1950.7,1096.9,1920.0,1080.0,fixation,5.2917997090003155,6.047733625000092,4.0,Animal_Land_Pattern_Large,9.0,,,,,,,,,,,
encoding,image,19,2831199,2832209,2831417.0,2831737.0,321.0,321.0,1897.3,1465.9,1920.0,700.0,Animal_Land_Pattern_Large,6.047845000000052,7.058746209000219,4.0,Animal_Land_Pattern_Large,9.0,,,,,,,,,,,
encoding,image,19,2831199,2832209,2831877.0,2832043.0,167.0,167.0,1885.8,1401.3,1920.0,700.0,Animal_Land_Pattern_Large,6.047845000000052,7.058746209000219,4.0,Animal_Land_Pattern_Large,9.0,,,,,,,,,,,
encoding,image,19,2831199,2832209,2832065.0,2832393.0,329.0,144.0,1898.0,1229.9,1920.0,700.0,Animal_Land_Pattern_Large,6.047845000000052,7.058746209000219,4.0,Animal_Land_Pattern_Large,9.0,,,,,,,,,,,
encoding,value,19,2832210,2838225,2832413.0,2832626.0,214.0,214.0,1898.9,1367.0,1920.0,700.0,Animal_Land_Pattern_Large,7.058851917000084,13.073508041999958,4.0,Animal_Land_Pattern_Large,9.0,,,,,,,,,,,
encoding,value,19,2832210,2838225,2832782.0,2832986.0,205.0,205.0,1895.9,1374.9,1920.0,700.0,Animal_Land_Pattern_Large,7.058851917000084,13.073508041999958,4.0,Animal_Land_Pattern_Large,9.0,,,,,,,,,,,
encoding,value,19,2832210,2838225,2833008.0,2833616.0,609.0,609.0,1879.8,1514.3,1920.0,700.0,Animal_Land_Pattern_Large,7.058851917000084,13.073508041999958,4.0,Animal_Land_Pattern_Large,9.0,,,,,,,,,,,
encoding,value,19,2832210,2838225,2833639.0,2833791.0,153.0,153.0,1909.2,1384.4,1920.0,700.0,Animal_Land_Pattern_Large,7.058851917000084,13.073508041999958,4.0,Animal_Land_Pattern_Large,9.0,,,,,,,,,,,
encoding,value,19,2832210,2838225,2833951.0,2835236.0,1286.0,1286.0,1907.6,1374.7,1920.0,700.0,Animal_Land_Pattern_Large,7.058851917000084,13.073508041999958,4.0,Animal_Land_Pattern_Large,9.0,,,,,,,,,,,
encoding,value,19,2832210,2838225,2835390.0,2836431.0,1042.0,1042.0,1903.4,1381.1,1920.0,700.0,Animal_Land_Pattern_Large,7.058851917000084,13.073508041999958,4.0,Animal_Land_Pattern_Large,9.0,,,,,,,,,,,
encoding,value,19,2832210,2838225,2836606.0,2837950.0,1345.0,1345.0,1909.1,1384.7,1920.0,700.0,Animal_Land_Pattern_Large,7.058851917000084,13.073508041999958,4.0,Animal_Land_Pattern_Large,9.0,,,,,,,,,,,
encoding,value,19,2832210,2838225,2837961.0,2838145.0,185.0,185.0,1903.1,1300.9,1920.0,700.0,Animal_Land_Pattern_Large,7.058851917000084,13.073508041999958,4.0,Animal_Land_Pattern_Large,9.0,,,,,,,,,,,
encoding,value,19,2832210,2838225,2838160.0,2839062.0,903.0,65.0,1881.1,1387.5,1920.0,700.0,Animal_Land_Pattern_Large,7.058851917000084,13.073508041999958,4.0,Animal_Land_Pattern_Large,9.0,,,,,,,,,,,
encoding,attention,19,2838225,2841244,2839246.0,2839457.0,212.0,212.0,1855.2,1413.4,1920.0,700.0,Animal_Land_Pattern_Large,13.073624500000278,16.092425792000085,4.0,Animal_Land_Pattern_Large,9.0,9.0,1.0,0.9307667079997372,,,,,,,,
encoding,attention,19,2838225,2841244,2839636.0,2839822.0,187.0,187.0,1911.1,1464.2,1920.0,700.0,Animal_Land_Pattern_Large,13.073624500000278,16.092425792000085,4.0,Animal_Land_Pattern_Large,9.0,9.0,1.0,0.9307667079997372,,,,,,,,
encoding,attention,19,2838225,2841244,2839835.0,2840157.0,323.0,323.0,1894.1,1504.6,1920.0,700.0,Animal_Land_Pattern_Large,13.073624500000278,16.092425792000085,4.0,Animal_Land_Pattern_Large,9.0,9.0,1.0,0.9307667079997372,,,,,,,,
encoding,attention,19,2838225,2841244,2840316.0,2840515.0,200.0,200.0,1880.1,1421.9,1920.0,700.0,Animal_Land_Pattern_Large,13.073624500000278,16.092425792000085,4.0,Animal_Land_Pattern_Large,9.0,9.0,1.0,0.9307667079997372,,,,,,,,
encoding,attention,19,2838225,2841244,2840531.0,2840770.0,240.0,240.0,1899.0,1483.0,1920.0,700.0,Animal_Land_Pattern_Large,13.073624500000278,16.092425792000085,4.0,Animal_Land_Pattern_Large,9.0,9.0,1.0,0.9307667079997372,,,,,,,,
encoding,attention,19,2838225,2841244,2840777.0,2841001.0,225.0,225.0,1889.9,1526.8,1920.0,700.0,Animal_Land_Pattern_Large,13.073624500000278,16.092425792000085,4.0,Animal_Land_Pattern_Large,9.0,9.0,1.0,0.9307667079997372,,,,,,,,
encoding,fixation,20,2841244,2842499,2841464.0,2842085.0,622.0,622.0,1905.1,1101.8,1920.0,1080.0,fixation,16.092583625000316,17.347909792000337,4.0,Object_Sea_Solid_Small,1.0,,,,,,,,,,,
encoding,fixation,20,2841244,2842499,2842117.0,2842652.0,536.0,382.0,1908.1,1390.0,1920.0,700.0,Animal_Land_Pattern_Large,16.092583625000316,17.347909792000337,4.0,Object_Sea_Solid_Small,1.0,,,,,,,,,,,
encoding,image,20,2842499,2843510,2842686.0,2843700.0,1015.0,824.0,2188.3,1301.8,2249.0,891.0,Object_Sea_Solid_Small,17.34802958399996,18.358181417000196,4.0,Object_Sea_Solid_Small,1.0,,,,,,,,,,,
encoding,value,20,2843510,2849521,2843716.0,2843859.0,144.0,144.0,2198.5,1202.7,2249.0,891.0,Object_Sea_Solid_Small,18.35836695900025,24.36953633400026,4.0,Object_Sea_Solid_Small,1.0,,,,,,,,,,,
encoding,value,20,2843510,2849521,2844029.0,2844343.0,315.0,315.0,2166.7,1239.9,2249.0,891.0,Object_Sea_Solid_Small,18.35836695900025,24.36953633400026,4.0,Object_Sea_Solid_Small,1.0,,,,,,,,,,,
encoding,value,20,2843510,2849521,2844351.0,2844613.0,263.0,263.0,2212.2,1201.1,2249.0,891.0,Object_Sea_Solid_Small,18.35836695900025,24.36953633400026,4.0,Object_Sea_Solid_Small,1.0,,,,,,,,,,,
encoding,value,20,2843510,2849521,2844801.0,2845560.0,760.0,760.0,2196.6,1208.0,2249.0,891.0,Object_Sea_Solid_Small,18.35836695900025,24.36953633400026,4.0,Object_Sea_Solid_Small,1.0,,,,,,,,,,,
encoding,value,20,2843510,2849521,2845771.0,2846558.0,788.0,788.0,2198.0,1204.3,2249.0,891.0,Object_Sea_Solid_Small,18.35836695900025,24.36953633400026,4.0,Object_Sea_Solid_Small,1.0,,,,,,,,,,,
encoding,value,20,2843510,2849521,2846743.0,2847579.0,837.0,837.0,2191.9,1203.8,2249.0,891.0,Object_Sea_Solid_Small,18.35836695900025,24.36953633400026,4.0,Object_Sea_Solid_Small,1.0,,,,,,,,,,,
encoding,value,20,2843510,2849521,2847796.0,2848692.0,897.0,897.0,2192.1,1214.3,2249.0,891.0,Object_Sea_Solid_Small,18.35836695900025,24.36953633400026,4.0,Object_Sea_Solid_Small,1.0,,,,,,,,,,,
encoding,value,20,2843510,2849521,2848880.0,2849220.0,341.0,341.0,2192.5,1216.3,2249.0,891.0,Object_Sea_Solid_Small,18.35836695900025,24.36953633400026,4.0,Object_Sea_Solid_Small,1.0,,,,,,,,,,,
encoding,value,20,2843510,2849521,2849427.0,2850419.0,993.0,94.0,2186.4,1187.9,2249.0,891.0,Object_Sea_Solid_Small,18.35836695900025,24.36953633400026,4.0,Object_Sea_Solid_Small,1.0,,,,,,,,,,,
encoding,attention,20,2849521,2852538,2850607.0,2851342.0,736.0,736.0,1936.7,1396.1,1920.0,700.0,Animal_Land_Pattern_Large,24.369647959000304,27.38598554200007,4.0,Object_Sea_Solid_Small,1.0,1.0,1.0,0.6832706670002153,,,,,,,,
encoding,attention,20,2849521,2852538,2851565.0,2851944.0,380.0,380.0,2224.3,1209.3,2249.0,891.0,Object_Sea_Solid_Small,24.369647959000304,27.38598554200007,4.0,Object_Sea_Solid_Small,1.0,1.0,1.0,0.6832706670002153,,,,,,,,
encoding,attention,20,2849521,2852538,2851967.0,2852039.0,73.0,73.0,2105.1,1297.2,2249.0,891.0,Object_Sea_Solid_Small,24.369647959000304,27.38598554200007,4.0,Object_Sea_Solid_Small,1.0,1.0,1.0,0.6832706670002153,,,,,,,,
encoding,attention,20,2849521,2852538,2852063.0,2852182.0,120.0,120.0,1863.6,1353.0,1920.0,700.0,Animal_Land_Pattern_Large,24.369647959000304,27.38598554200007,4.0,Object_Sea_Solid_Small,1.0,1.0,1.0,0.6832706670002153,,,,,,,,
encoding,attention,20,2849521,2852538,2852437.0,2852536.0,100.0,100.0,1930.0,1376.5,1920.0,700.0,Animal_Land_Pattern_Large,24.369647959000304,27.38598554200007,4.0,Object_Sea_Solid_Small,1.0,1.0,1.0,0.6832706670002153,,,,,,,,
encoding,fixation,21,2852538,2853793,2852809.0,2852947.0,139.0,139.0,2174.9,1221.0,2249.0,891.0,Object_Sea_Solid_Small,27.386138333999952,28.641221875000156,4.0,Animal_Sea_Pattern_Small,-6.0,,,,,,,,,,,
encoding,fixation,21,2852538,2853793,2852972.0,2853199.0,228.0,228.0,1933.3,1133.3,1920.0,1080.0,fixation,27.386138333999952,28.641221875000156,4.0,Animal_Sea_Pattern_Small,-6.0,,,,,,,,,,,
encoding,fixation,21,2852538,2853793,2853415.0,2853731.0,317.0,317.0,1905.4,1115.6,1920.0,1080.0,fixation,27.386138333999952,28.641221875000156,4.0,Animal_Sea_Pattern_Small,-6.0,,,,,,,,,,,
encoding,image,21,2853793,2854804,2853925.0,2854058.0,134.0,134.0,2062.4,1193.3,2249.0,891.0,Object_Sea_Solid_Small,28.641349167000044,29.652619959000276,4.0,Animal_Sea_Pattern_Small,-6.0,,,,,,,,,,,
encoding,image,21,2853793,2854804,2854097.0,2854250.0,154.0,154.0,1650.5,1290.5,1591.0,891.0,Animal_Sea_Pattern_Small,28.641349167000044,29.652619959000276,4.0,Animal_Sea_Pattern_Small,-6.0,,,,,,,,,,,
encoding,image,21,2853793,2854804,2854262.0,2854414.0,153.0,153.0,1579.1,1306.3,1591.0,891.0,Animal_Sea_Pattern_Small,28.641349167000044,29.652619959000276,4.0,Animal_Sea_Pattern_Small,-6.0,,,,,,,,,,,
encoding,image,21,2853793,2854804,2854456.0,2854642.0,187.0,187.0,2007.0,1092.2,2249.0,891.0,Object_Sea_Solid_Small,28.641349167000044,29.652619959000276,4.0,Animal_Sea_Pattern_Small,-6.0,,,,,,,,,,,
encoding,value,21,2854804,2860818,2854844.0,2855013.0,170.0,170.0,2124.2,1094.5,2249.0,891.0,Object_Sea_Solid_Small,29.65273416700029,35.665682584000024,4.0,Animal_Sea_Pattern_Small,-6.0,,,,,,,,,,,
encoding,value,21,2854804,2860818,2855059.0,2855190.0,132.0,132.0,1613.9,1182.2,1591.0,891.0,Animal_Sea_Pattern_Small,29.65273416700029,35.665682584000024,4.0,Animal_Sea_Pattern_Small,-6.0,,,,,,,,,,,
encoding,value,21,2854804,2860818,2855197.0,2855366.0,170.0,170.0,1574.8,1203.0,1591.0,891.0,Animal_Sea_Pattern_Small,29.65273416700029,35.665682584000024,4.0,Animal_Sea_Pattern_Small,-6.0,,,,,,,,,,,
encoding,value,21,2854804,2860818,2855628.0,2855938.0,311.0,311.0,1957.1,1166.0,1920.0,700.0,Animal_Land_Pattern_Large,29.65273416700029,35.665682584000024,4.0,Animal_Sea_Pattern_Small,-6.0,,,,,,,,,,,
encoding,value,21,2854804,2860818,2856106.0,2856715.0,610.0,610.0,2005.6,1275.3,1920.0,700.0,Animal_Land_Pattern_Large,29.65273416700029,35.665682584000024,4.0,Animal_Sea_Pattern_Small,-6.0,,,,,,,,,,,
encoding,value,21,2854804,2860818,2856756.0,2857221.0,466.0,466.0,1575.5,1212.2,1591.0,891.0,Animal_Sea_Pattern_Small,29.65273416700029,35.665682584000024,4.0,Animal_Sea_Pattern_Small,-6.0,,,,,,,,,,,
encoding,value,21,2854804,2860818,2857442.0,2857701.0,260.0,260.0,1576.4,1233.6,1591.0,891.0,Animal_Sea_Pattern_Small,29.65273416700029,35.665682584000024,4.0,Animal_Sea_Pattern_Small,-6.0,,,,,,,,,,,
encoding,value,21,2854804,2860818,2857720.0,2858110.0,391.0,391.0,1602.0,1314.2,1591.0,891.0,Animal_Sea_Pattern_Small,29.65273416700029,35.665682584000024,4.0,Animal_Sea_Pattern_Small,-6.0,,,,,,,,,,,
encoding,value,21,2854804,2860818,2858128.0,2858253.0,126.0,126.0,1563.4,1225.0,1591.0,891.0,Animal_Sea_Pattern_Small,29.65273416700029,35.665682584000024,4.0,Animal_Sea_Pattern_Small,-6.0,,,,,,,,,,,
encoding,value,21,2854804,2860818,2858503.0,2858764.0,262.0,262.0,1584.9,1235.0,1591.0,891.0,Animal_Sea_Pattern_Small,29.65273416700029,35.665682584000024,4.0,Animal_Sea_Pattern_Small,-6.0,,,,,,,,,,,
encoding,value,21,2854804,2860818,2858788.0,2859002.0,215.0,215.0,1796.2,1237.7,1591.0,891.0,Animal_Sea_Pattern_Small,29.65273416700029,35.665682584000024,4.0,Animal_Sea_Pattern_Small,-6.0,,,,,,,,,,,
encoding,value,21,2854804,2860818,2859025.0,2859179.0,155.0,155.0,1589.5,1235.5,1591.0,891.0,Animal_Sea_Pattern_Small,29.65273416700029,35.665682584000024,4.0,Animal_Sea_Pattern_Small,-6.0,,,,,,,,,,,
encoding,value,21,2854804,2860818,2859397.0,2859550.0,154.0,154.0,1686.4,1251.9,1591.0,891.0,Animal_Sea_Pattern_Small,29.65273416700029,35.665682584000024,4.0,Animal_Sea_Pattern_Small,-6.0,,,,,,,,,,,
encoding,value,21,2854804,2860818,2859569.0,2860409.0,841.0,841.0,1566.4,1223.7,1591.0,891.0,Animal_Sea_Pattern_Small,29.65273416700029,35.665682584000024,4.0,Animal_Sea_Pattern_Small,-6.0,,,,,,,,,,,
encoding,value,21,2854804,2860818,2860632.0,2861181.0,550.0,186.0,1575.2,1242.1,1591.0,891.0,Animal_Sea_Pattern_Small,29.65273416700029,35.665682584000024,4.0,Animal_Sea_Pattern_Small,-6.0,,,,,,,,,,,
encoding,attention,21,2860818,2863837,2861192.0,2861360.0,169.0,169.0,1523.6,1224.5,1591.0,891.0,Animal_Sea_Pattern_Small,35.66580075000002,38.68442683400008,4.0,Animal_Sea_Pattern_Small,-6.0,-6.0,1.0,1.6333739159999825,,,,,,,,
encoding,attention,21,2860818,2863837,2861566.0,2861972.0,407.0,407.0,1530.3,1229.0,1591.0,891.0,Animal_Sea_Pattern_Small,35.66580075000002,38.68442683400008,4.0,Animal_Sea_Pattern_Small,-6.0,-6.0,1.0,1.6333739159999825,,,,,,,,
encoding,attention,21,2860818,2863837,2862186.0,2862692.0,507.0,507.0,1526.2,1232.0,1591.0,891.0,Animal_Sea_Pattern_Small,35.66580075000002,38.68442683400008,4.0,Animal_Sea_Pattern_Small,-6.0,-6.0,1.0,1.6333739159999825,,,,,,,,
encoding,attention,21,2860818,2863837,2862983.0,2863279.0,297.0,297.0,1786.0,1305.4,1591.0,891.0,Animal_Sea_Pattern_Small,35.66580075000002,38.68442683400008,4.0,Animal_Sea_Pattern_Small,-6.0,-6.0,1.0,1.6333739159999825,,,,,,,,
encoding,attention,21,2860818,2863837,2863459.0,2863625.0,167.0,167.0,1780.0,1305.6,1591.0,891.0,Animal_Sea_Pattern_Small,35.66580075000002,38.68442683400008,4.0,Animal_Sea_Pattern_Small,-6.0,-6.0,1.0,1.6333739159999825,,,,,,,,
encoding,fixation,22,2863837,2864592,2864080.0,2864173.0,94.0,94.0,1959.7,1280.9,1920.0,700.0,Animal_Land_Pattern_Large,38.68458774999999,39.43955854200021,4.0,Object_Land_Solid_Small,2.0,,,,,,,,,,,
encoding,image,22,2864592,2865603,2864718.0,2864869.0,152.0,152.0,1900.0,1254.9,1920.0,700.0,Animal_Land_Pattern_Large,39.43967575000033,40.45100687500008,4.0,Object_Land_Solid_Small,2.0,,,,,,,,,,,
encoding,image,22,2864592,2865603,2864893.0,2865046.0,154.0,154.0,1700.6,1080.6,1591.0,891.0,Animal_Sea_Pattern_Small,39.43967575000033,40.45100687500008,4.0,Object_Land_Solid_Small,2.0,,,,,,,,,,,
encoding,image,22,2864592,2865603,2865071.0,2865133.0,63.0,63.0,1935.9,1166.3,1920.0,700.0,Animal_Land_Pattern_Large,39.43967575000033,40.45100687500008,4.0,Object_Land_Solid_Small,2.0,,,,,,,,,,,
encoding,image,22,2864592,2865603,2865346.0,2865791.0,446.0,257.0,2095.2,1209.5,2249.0,891.0,Object_Sea_Solid_Small,39.43967575000033,40.45100687500008,4.0,Object_Land_Solid_Small,2.0,,,,,,,,,,,
encoding,value,22,2865603,2871616,2865848.0,2866064.0,217.0,217.0,1591.5,846.8,1591.0,1269.0,Object_Land_Solid_Small,40.45112916700009,46.46316816700027,4.0,Object_Land_Solid_Small,2.0,,,,,,,,,,,
encoding,value,22,2865603,2871616,2866303.0,2866334.0,32.0,32.0,1563.7,778.2,1591.0,1269.0,Object_Land_Solid_Small,40.45112916700009,46.46316816700027,4.0,Object_Land_Solid_Small,2.0,,,,,,,,,,,
encoding,value,22,2865603,2871616,2866583.0,2866657.0,75.0,75.0,1678.8,1022.5999999999999,1591.0,1269.0,Object_Land_Solid_Small,40.45112916700009,46.46316816700027,4.0,Object_Land_Solid_Small,2.0,,,,,,,,,,,
encoding,value,22,2865603,2871616,2866680.0,2868294.0,1615.0,1615.0,1580.0,879.4000000000001,1591.0,1269.0,Object_Land_Solid_Small,40.45112916700009,46.46316816700027,4.0,Object_Land_Solid_Small,2.0,,,,,,,,,,,
encoding,value,22,2865603,2871616,2868566.0,2869655.0,1090.0,1090.0,1565.7,877.9000000000001,1591.0,1269.0,Object_Land_Solid_Small,40.45112916700009,46.46316816700027,4.0,Object_Land_Solid_Small,2.0,,,,,,,,,,,
encoding,value,22,2865603,2871616,2869896.0,2872003.0,2108.0,1720.0,1577.4,907.4000000000001,1591.0,1269.0,Object_Land_Solid_Small,40.45112916700009,46.46316816700027,4.0,Object_Land_Solid_Small,2.0,,,,,,,,,,,
encoding,attention,22,2871616,2874633,2872286.0,2872379.0,94.0,94.0,1611.6,900.0,1591.0,1269.0,Object_Land_Solid_Small,46.463286167000206,49.480760084000394,4.0,Object_Land_Solid_Small,2.0,2.0,1.0,1.7097981249999066,,,,,,,,
encoding,attention,22,2871616,2874633,2872491.0,2873650.0,1160.0,1160.0,1606.9,886.5999999999999,1591.0,1269.0,Object_Land_Solid_Small,46.463286167000206,49.480760084000394,4.0,Object_Land_Solid_Small,2.0,2.0,1.0,1.7097981249999066,,,,,,,,
encoding,fixation,23,2874634,2876139,2874893.0,2875086.0,194.0,194.0,1730.5,1240.5,1591.0,891.0,Animal_Sea_Pattern_Small,49.48091266700021,50.986056792,4.0,Animal_Land_Solid_Large,-6.0,,,,,,,,,,,
encoding,fixation,23,2874634,2876139,2875109.0,2875334.0,226.0,226.0,1919.4,1212.6,1920.0,700.0,Animal_Land_Pattern_Large,49.48091266700021,50.986056792,4.0,Animal_Land_Solid_Large,-6.0,,,,,,,,,,,
encoding,fixation,23,2874634,2876139,2875530.0,2875817.0,288.0,288.0,2074.9,1203.6,2249.0,891.0,Object_Sea_Solid_Small,49.48091266700021,50.986056792,4.0,Animal_Land_Solid_Large,-6.0,,,,,,,,,,,
encoding,fixation,23,2874634,2876139,2875855.0,2875974.0,120.0,120.0,1817.5,1068.3,1591.0,1269.0,Object_Land_Solid_Small,49.48091266700021,50.986056792,4.0,Animal_Land_Solid_Large,-6.0,,,,,,,,,,,
encoding,image,23,2876139,2877151,2876206.0,2876534.0,329.0,329.0,1751.7,1236.9,1591.0,891.0,Animal_Sea_Pattern_Small,50.98617137500014,51.9977022500002,4.0,Animal_Land_Solid_Large,-6.0,,,,,,,,,,,
encoding,image,23,2876139,2877151,2876554.0,2876862.0,309.0,309.0,1605.0,1260.4,1591.0,891.0,Animal_Sea_Pattern_Small,50.98617137500014,51.9977022500002,4.0,Animal_Land_Solid_Large,-6.0,,,,,,,,,,,
encoding,image,23,2876139,2877151,2876886.0,2877097.0,212.0,212.0,1809.8,1308.6,1920.0,700.0,Animal_Land_Pattern_Large,50.98617137500014,51.9977022500002,4.0,Animal_Land_Solid_Large,-6.0,,,,,,,,,,,
encoding,image,23,2876139,2877151,2877120.0,2877392.0,273.0,31.0,1974.6,1250.0,1920.0,700.0,Animal_Land_Pattern_Large,50.98617137500014,51.9977022500002,4.0,Animal_Land_Solid_Large,-6.0,,,,,,,,,,,
encoding,value,23,2877151,2883163,2877436.0,2877720.0,285.0,285.0,2219.1,871.5999999999999,2249.0,1269.0,Animal_Land_Solid_Large,51.9978986670003,58.00941958400017,4.0,Animal_Land_Solid_Large,-6.0,,,,,,,,,,,
encoding,value,23,2877151,2883163,2878194.0,2878854.0,661.0,661.0,1740.3,1331.8,1591.0,891.0,Animal_Sea_Pattern_Small,51.9978986670003,58.00941958400017,4.0,Animal_Land_Solid_Large,-6.0,,,,,,,,,,,
encoding,value,23,2877151,2883163,2878873.0,2879115.0,243.0,243.0,1888.5,1334.0,1920.0,700.0,Animal_Land_Pattern_Large,51.9978986670003,58.00941958400017,4.0,Animal_Land_Solid_Large,-6.0,,,,,,,,,,,
encoding,value,23,2877151,2883163,2879138.0,2879160.0,23.0,23.0,2025.4,1207.5,2249.0,891.0,Object_Sea_Solid_Small,51.9978986670003,58.00941958400017,4.0,Animal_Land_Solid_Large,-6.0,,,,,,,,,,,
encoding,value,23,2877151,2883163,2879424.0,2879569.0,146.0,146.0,2214.7,930.5,2249.0,1269.0,Animal_Land_Solid_Large,51.9978986670003,58.00941958400017,4.0,Animal_Land_Solid_Large,-6.0,,,,,,,,,,,
encoding,value,23,2877151,2883163,2879582.0,2880210.0,629.0,629.0,2228.0,848.2,2249.0,1269.0,Animal_Land_Solid_Large,51.9978986670003,58.00941958400017,4.0,Animal_Land_Solid_Large,-6.0,,,,,,,,,,,
encoding,value,23,2877151,2883163,2880440.0,2881367.0,928.0,928.0,2213.1,866.3,2249.0,1269.0,Animal_Land_Solid_Large,51.9978986670003,58.00941958400017,4.0,Animal_Land_Solid_Large,-6.0,,,,,,,,,,,
encoding,value,23,2877151,2883163,2881597.0,2882897.0,1301.0,1301.0,2215.9,877.0999999999999,2249.0,1269.0,Animal_Land_Solid_Large,51.9978986670003,58.00941958400017,4.0,Animal_Land_Solid_Large,-6.0,,,,,,,,,,,
encoding,value,23,2877151,2883163,2883133.0,2883266.0,134.0,30.0,2229.4,916.5999999999999,2249.0,1269.0,Animal_Land_Solid_Large,51.9978986670003,58.00941958400017,4.0,Animal_Land_Solid_Large,-6.0,,,,,,,,,,,
encoding,attention,23,2883163,2886182,2883282.0,2883437.0,156.0,156.0,2232.2,985.2,2249.0,1269.0,Animal_Land_Solid_Large,58.00952095900038,61.02836662500022,4.0,Animal_Land_Solid_Large,-6.0,-6.0,1.0,0.7677941249999094,,,,,,,,
encoding,attention,23,2883163,2886182,2883456.0,2884154.0,699.0,699.0,2185.8,846.5999999999999,2249.0,1269.0,Animal_Land_Solid_Large,58.00952095900038,61.02836662500022,4.0,Animal_Land_Solid_Large,-6.0,-6.0,1.0,0.7677941249999094,,,,,,,,
encoding,attention,23,2883163,2886182,2884348.0,2885144.0,797.0,797.0,2253.0,965.0999999999999,2249.0,1269.0,Animal_Land_Solid_Large,58.00952095900038,61.02836662500022,4.0,Animal_Land_Solid_Large,-6.0,-6.0,1.0,0.7677941249999094,,,,,,,,
encoding,attention,23,2883163,2886182,2885345.0,2885493.0,149.0,149.0,2248.4,1015.5999999999999,2249.0,1269.0,Animal_Land_Solid_Large,58.00952095900038,61.02836662500022,4.0,Animal_Land_Solid_Large,-6.0,-6.0,1.0,0.7677941249999094,,,,,,,,
encoding,attention,23,2883163,2886182,2885511.0,2885689.0,179.0,179.0,2201.3,908.8,2249.0,1269.0,Animal_Land_Solid_Large,58.00952095900038,61.02836662500022,4.0,Animal_Land_Solid_Large,-6.0,-6.0,1.0,0.7677941249999094,,,,,,,,
encoding,attention,23,2883163,2886182,2885938.0,2886128.0,191.0,191.0,2136.6,1119.2,2249.0,891.0,Object_Sea_Solid_Small,58.00952095900038,61.02836662500022,4.0,Animal_Land_Solid_Large,-6.0,-6.0,1.0,0.7677941249999094,,,,,,,,
encoding,fixation,24,2886182,2886687,2886444.0,2886483.0,40.0,40.0,2199.6,1003.4000000000001,2249.0,1269.0,Animal_Land_Solid_Large,61.02851879200034,61.53378195899995,4.0,Object_Sea_Pattern_Large,-6.0,,,,,,,,,,,
encoding,fixation,24,2886182,2886687,2886522.0,2886719.0,198.0,165.0,1905.3,1155.5,1920.0,700.0,Animal_Land_Pattern_Large,61.02851879200034,61.53378195899995,4.0,Object_Sea_Pattern_Large,-6.0,,,,,,,,,,,
encoding,image,24,2886687,2887698,2886938.0,2887019.0,82.0,82.0,1822.0,1195.2,1591.0,891.0,Animal_Sea_Pattern_Small,61.53389370900004,62.54510391700023,4.0,Object_Sea_Pattern_Large,-6.0,,,,,,,,,,,
encoding,image,24,2886687,2887698,2887064.0,2887310.0,247.0,247.0,1938.9,780.5999999999999,1920.0,1460.0,Object_Sea_Pattern_Large,61.53389370900004,62.54510391700023,4.0,Object_Sea_Pattern_Large,-6.0,,,,,,,,,,,
encoding,image,24,2886687,2887698,2887318.0,2887466.0,149.0,149.0,1895.7,747.5,1920.0,1460.0,Object_Sea_Pattern_Large,61.53389370900004,62.54510391700023,4.0,Object_Sea_Pattern_Large,-6.0,,,,,,,,,,,
encoding,value,24,2887699,2893711,2887955.0,2888070.0,116.0,116.0,1912.6,826.7,1920.0,1460.0,Object_Sea_Pattern_Large,62.54523712500031,68.55714529200031,4.0,Object_Sea_Pattern_Large,-6.0,,,,,,,,,,,
encoding,value,24,2887699,2893711,2888090.0,2888320.0,231.0,231.0,1896.4,723.0999999999999,1920.0,1460.0,Object_Sea_Pattern_Large,62.54523712500031,68.55714529200031,4.0,Object_Sea_Pattern_Large,-6.0,,,,,,,,,,,
encoding,value,24,2887699,2893711,2888598.0,2888705.0,108.0,108.0,1932.4,730.2,1920.0,1460.0,Object_Sea_Pattern_Large,62.54523712500031,68.55714529200031,4.0,Object_Sea_Pattern_Large,-6.0,,,,,,,,,,,
encoding,value,24,2887699,2893711,2888758.0,2888847.0,90.0,90.0,1889.9,678.9000000000001,1920.0,1460.0,Object_Sea_Pattern_Large,62.54523712500031,68.55714529200031,4.0,Object_Sea_Pattern_Large,-6.0,,,,,,,,,,,
encoding,value,24,2887699,2893711,2889133.0,2889304.0,172.0,172.0,1900.7,808.2,1920.0,1460.0,Object_Sea_Pattern_Large,62.54523712500031,68.55714529200031,4.0,Object_Sea_Pattern_Large,-6.0,,,,,,,,,,,
encoding,value,24,2887699,2893711,2889319.0,2889793.0,475.0,475.0,1902.1,774.5,1920.0,1460.0,Object_Sea_Pattern_Large,62.54523712500031,68.55714529200031,4.0,Object_Sea_Pattern_Large,-6.0,,,,,,,,,,,
encoding,value,24,2887699,2893711,2890053.0,2890183.0,131.0,131.0,1896.9,618.0,1920.0,1460.0,Object_Sea_Pattern_Large,62.54523712500031,68.55714529200031,4.0,Object_Sea_Pattern_Large,-6.0,,,,,,,,,,,
encoding,value,24,2887699,2893711,2890203.0,2890932.0,730.0,730.0,1895.9,730.5999999999999,1920.0,1460.0,Object_Sea_Pattern_Large,62.54523712500031,68.55714529200031,4.0,Object_Sea_Pattern_Large,-6.0,,,,,,,,,,,
encoding,value,24,2887699,2893711,2891229.0,2891945.0,717.0,717.0,1886.9,715.2,1920.0,1460.0,Object_Sea_Pattern_Large,62.54523712500031,68.55714529200031,4.0,Object_Sea_Pattern_Large,-6.0,,,,,,,,,,,
encoding,value,24,2887699,2893711,2892186.0,2892532.0,347.0,347.0,1867.7,742.5999999999999,1920.0,1460.0,Object_Sea_Pattern_Large,62.54523712500031,68.55714529200031,4.0,Object_Sea_Pattern_Large,-6.0,,,,,,,,,,,
encoding,value,24,2887699,2893711,2892581.0,2892647.0,67.0,67.0,1792.3,1100.1,1591.0,891.0,Animal_Sea_Pattern_Small,62.54523712500031,68.55714529200031,4.0,Object_Sea_Pattern_Large,-6.0,,,,,,,,,,,
encoding,value,24,2887699,2893711,2892674.0,2892904.0,231.0,231.0,1670.8,1279.8,1591.0,891.0,Animal_Sea_Pattern_Small,62.54523712500031,68.55714529200031,4.0,Object_Sea_Pattern_Large,-6.0,,,,,,,,,,,
encoding,value,24,2887699,2893711,2892927.0,2893122.0,196.0,196.0,1861.4,1169.2,1591.0,891.0,Animal_Sea_Pattern_Small,62.54523712500031,68.55714529200031,4.0,Object_Sea_Pattern_Large,-6.0,,,,,,,,,,,
encoding,value,24,2887699,2893711,2893145.0,2893458.0,314.0,314.0,1981.6,1006.2,2249.0,1269.0,Animal_Land_Solid_Large,62.54523712500031,68.55714529200031,4.0,Object_Sea_Pattern_Large,-6.0,,,,,,,,,,,
encoding,value,24,2887699,2893711,2893496.0,2893677.0,182.0,182.0,1913.6,743.3,1920.0,1460.0,Object_Sea_Pattern_Large,62.54523712500031,68.55714529200031,4.0,Object_Sea_Pattern_Large,-6.0,,,,,,,,,,,
encoding,attention,24,2893711,2896730,2893900.0,2894029.0,130.0,130.0,1891.5,776.5999999999999,1920.0,1460.0,Object_Sea_Pattern_Large,68.55727683400028,71.57598695900015,4.0,Object_Sea_Pattern_Large,-6.0,-6.0,1.0,0.8307408330001635,,,,,,,,
encoding,attention,24,2893711,2896730,2894037.0,2894215.0,179.0,179.0,1860.0,742.5999999999999,1920.0,1460.0,Object_Sea_Pattern_Large,68.55727683400028,71.57598695900015,4.0,Object_Sea_Pattern_Large,-6.0,-6.0,1.0,0.8307408330001635,,,,,,,,
encoding,attention,24,2893711,2896730,2894298.0,2894323.0,26.0,26.0,1925.3,705.4000000000001,1920.0,1460.0,Object_Sea_Pattern_Large,68.55727683400028,71.57598695900015,4.0,Object_Sea_Pattern_Large,-6.0,-6.0,1.0,0.8307408330001635,,,,,,,,
encoding,attention,24,2893711,2896730,2894359.0,2894386.0,28.0,28.0,1923.2,734.9000000000001,1920.0,1460.0,Object_Sea_Pattern_Large,68.55727683400028,71.57598695900015,4.0,Object_Sea_Pattern_Large,-6.0,-6.0,1.0,0.8307408330001635,,,,,,,,
encoding,attention,24,2893711,2896730,2894437.0,2894467.0,31.0,31.0,1921.1,729.0,1920.0,1460.0,Object_Sea_Pattern_Large,68.55727683400028,71.57598695900015,4.0,Object_Sea_Pattern_Large,-6.0,-6.0,1.0,0.8307408330001635,,,,,,,,
encoding,attention,24,2893711,2896730,2894563.0,2894749.0,187.0,187.0,1922.7,709.4000000000001,1920.0,1460.0,Object_Sea_Pattern_Large,68.55727683400028,71.57598695900015,4.0,Object_Sea_Pattern_Large,-6.0,-6.0,1.0,0.8307408330001635,,,,,,,,
encoding,attention,24,2893711,2896730,2894942.0,2895095.0,154.0,154.0,1825.2,1215.6,1591.0,891.0,Animal_Sea_Pattern_Small,68.55727683400028,71.57598695900015,4.0,Object_Sea_Pattern_Large,-6.0,-6.0,1.0,0.8307408330001635,,,,,,,,
encoding,attention,24,2893711,2896730,2895116.0,2895377.0,262.0,262.0,1903.2,1117.9,1920.0,1080.0,fixation,68.55727683400028,71.57598695900015,4.0,Object_Sea_Pattern_Large,-6.0,-6.0,1.0,0.8307408330001635,,,,,,,,
encoding,attention,24,2893711,2896730,2895400.0,2895740.0,341.0,341.0,1734.7,1189.2,1591.0,891.0,Animal_Sea_Pattern_Small,68.55727683400028,71.57598695900015,4.0,Object_Sea_Pattern_Large,-6.0,-6.0,1.0,0.8307408330001635,,,,,,,,
encoding,attention,24,2893711,2896730,2895942.0,2896211.0,270.0,270.0,1876.9,1187.5,1920.0,700.0,Animal_Land_Pattern_Large,68.55727683400028,71.57598695900015,4.0,Object_Sea_Pattern_Large,-6.0,-6.0,1.0,0.8307408330001635,,,,,,,,
encoding,attention,24,2893711,2896730,2896221.0,2896559.0,339.0,339.0,1945.7,1182.2,1920.0,700.0,Animal_Land_Pattern_Large,68.55727683400028,71.57598695900015,4.0,Object_Sea_Pattern_Large,-6.0,-6.0,1.0,0.8307408330001635,,,,,,,,
encoding,fixation,25,3130947,3131953,3131167.0,3131266.0,100.0,100.0,1878.4,1118.4,1920.0,1080.0,fixation,4.79726620800011,5.803987666000012,5.0,Object_Sea_Solid_Large,-3.0,,,,,,,,,,,
encoding,fixation,25,3130947,3131953,3131440.0,3132070.0,631.0,513.0,1874.2,1140.0,1591.0,891.0,Animal_Sea_Pattern_Small,4.79726620800011,5.803987666000012,5.0,Object_Sea_Solid_Large,-3.0,,,,,,,,,,,
encoding,image,25,3131953,3132965,3132253.0,3133135.0,883.0,712.0,1535.0,898.0999999999999,1591.0,1269.0,Object_Sea_Solid_Large,5.804110916000354,6.81601025000009,5.0,Object_Sea_Solid_Large,-3.0,,,,,,,,,,,
encoding,value,25,3132965,3138980,3133152.0,3133375.0,224.0,224.0,1568.4,810.2,1591.0,1269.0,Object_Sea_Solid_Large,6.816133041000285,12.829922083000383,5.0,Object_Sea_Solid_Large,-3.0,,,,,,,,,,,
encoding,value,25,3132965,3138980,3133575.0,3133961.0,387.0,387.0,1579.2,871.0999999999999,1591.0,1269.0,Object_Sea_Solid_Large,6.816133041000285,12.829922083000383,5.0,Object_Sea_Solid_Large,-3.0,,,,,,,,,,,
encoding,value,25,3132965,3138980,3133973.0,3134223.0,251.0,251.0,1583.9,916.9000000000001,1591.0,1269.0,Object_Sea_Solid_Large,6.816133041000285,12.829922083000383,5.0,Object_Sea_Solid_Large,-3.0,,,,,,,,,,,
encoding,value,25,3132965,3138980,3134239.0,3134342.0,104.0,104.0,1580.3,814.0999999999999,1591.0,1269.0,Object_Sea_Solid_Large,6.816133041000285,12.829922083000383,5.0,Object_Sea_Solid_Large,-3.0,,,,,,,,,,,
encoding,value,25,3132965,3138980,3134541.0,3134733.0,193.0,193.0,1580.4,867.7,1591.0,1269.0,Object_Sea_Solid_Large,6.816133041000285,12.829922083000383,5.0,Object_Sea_Solid_Large,-3.0,,,,,,,,,,,
encoding,value,25,3132965,3138980,3134741.0,3135240.0,500.0,500.0,1583.9,820.4000000000001,1591.0,1269.0,Object_Sea_Solid_Large,6.816133041000285,12.829922083000383,5.0,Object_Sea_Solid_Large,-3.0,,,,,,,,,,,
encoding,value,25,3132965,3138980,3135413.0,3136634.0,1222.0,1222.0,1568.5,834.5,1591.0,1269.0,Object_Sea_Solid_Large,6.816133041000285,12.829922083000383,5.0,Object_Sea_Solid_Large,-3.0,,,,,,,,,,,
encoding,value,25,3132965,3138980,3136854.0,3138341.0,1488.0,1488.0,1574.2,852.0999999999999,1591.0,1269.0,Object_Sea_Solid_Large,6.816133041000285,12.829922083000383,5.0,Object_Sea_Solid_Large,-3.0,,,,,,,,,,,
encoding,value,25,3132965,3138980,3138586.0,3138624.0,39.0,39.0,1552.6,808.7,1591.0,1269.0,Object_Sea_Solid_Large,6.816133041000285,12.829922083000383,5.0,Object_Sea_Solid_Large,-3.0,,,,,,,,,,,
encoding,value,25,3132965,3138980,3138632.0,3139345.0,714.0,348.0,1562.7,872.5999999999999,1591.0,1269.0,Object_Sea_Solid_Large,6.816133041000285,12.829922083000383,5.0,Object_Sea_Solid_Large,-3.0,,,,,,,,,,,
encoding,attention,25,3138980,3141997,3139359.0,3139817.0,459.0,459.0,1623.2,856.0,1591.0,1269.0,Object_Sea_Solid_Large,12.83003808300009,15.847647666000285,5.0,Object_Sea_Solid_Large,-3.0,-3.0,1.0,0.5965431250001529,,,,,,,,
encoding,attention,25,3138980,3141997,3140022.0,3140267.0,246.0,246.0,1553.3,871.3,1591.0,1269.0,Object_Sea_Solid_Large,12.83003808300009,15.847647666000285,5.0,Object_Sea_Solid_Large,-3.0,-3.0,1.0,0.5965431250001529,,,,,,,,
encoding,attention,25,3138980,3141997,3140464.0,3140620.0,157.0,157.0,1582.5,967.2,1591.0,1269.0,Object_Sea_Solid_Large,12.83003808300009,15.847647666000285,5.0,Object_Sea_Solid_Large,-3.0,-3.0,1.0,0.5965431250001529,,,,,,,,
encoding,attention,25,3138980,3141997,3140796.0,3140942.0,147.0,147.0,1604.9,933.0999999999999,1591.0,1269.0,Object_Sea_Solid_Large,12.83003808300009,15.847647666000285,5.0,Object_Sea_Solid_Large,-3.0,-3.0,1.0,0.5965431250001529,,,,,,,,
encoding,attention,25,3138980,3141997,3141167.0,3141231.0,65.0,65.0,1614.1,946.7,1591.0,1269.0,Object_Sea_Solid_Large,12.83003808300009,15.847647666000285,5.0,Object_Sea_Solid_Large,-3.0,-3.0,1.0,0.5965431250001529,,,,,,,,
encoding,attention,25,3138980,3141997,3141495.0,3141604.0,110.0,110.0,1652.3,988.9000000000001,1591.0,1269.0,Object_Sea_Solid_Large,12.83003808300009,15.847647666000285,5.0,Object_Sea_Solid_Large,-3.0,-3.0,1.0,0.5965431250001529,,,,,,,,
encoding,fixation,26,3141997,3142753,3142240.0,3142431.0,192.0,192.0,1872.5,1142.7,1591.0,891.0,Animal_Sea_Pattern_Small,15.84780066600024,16.60361687500017,5.0,Animal_Land_Pattern_Large,9.0,,,,,,,,,,,
encoding,fixation,26,3141997,3142753,3142620.0,3142809.0,190.0,133.0,1843.1,1083.7,1591.0,891.0,Animal_Sea_Pattern_Small,15.84780066600024,16.60361687500017,5.0,Animal_Land_Pattern_Large,9.0,,,,,,,,,,,
encoding,image,26,3142754,3143764,3142830.0,3142964.0,135.0,135.0,1773.8,969.5999999999999,1591.0,1269.0,Object_Sea_Solid_Large,16.60372229099994,17.61443625000038,5.0,Animal_Land_Pattern_Large,9.0,,,,,,,,,,,
encoding,image,26,3142754,3143764,3143014.0,3143257.0,244.0,244.0,1867.5,1453.1,1920.0,700.0,Animal_Land_Pattern_Large,16.60372229099994,17.61443625000038,5.0,Animal_Land_Pattern_Large,9.0,,,,,,,,,,,
encoding,image,26,3142754,3143764,3143269.0,3143770.0,502.0,495.0,1863.6,1492.4,1920.0,700.0,Animal_Land_Pattern_Large,16.60372229099994,17.61443625000038,5.0,Animal_Land_Pattern_Large,9.0,,,,,,,,,,,
encoding,value,26,3143765,3149777,3143793.0,3143920.0,128.0,128.0,1868.6,1332.4,1920.0,700.0,Animal_Land_Pattern_Large,17.61458041600008,23.62721341600036,5.0,Animal_Land_Pattern_Large,9.0,,,,,,,,,,,
encoding,value,26,3143765,3149777,3144082.0,3144577.0,496.0,496.0,1895.2,1366.2,1920.0,700.0,Animal_Land_Pattern_Large,17.61458041600008,23.62721341600036,5.0,Animal_Land_Pattern_Large,9.0,,,,,,,,,,,
encoding,value,26,3143765,3149777,3144733.0,3145755.0,1023.0,1023.0,1878.8,1345.5,1920.0,700.0,Animal_Land_Pattern_Large,17.61458041600008,23.62721341600036,5.0,Animal_Land_Pattern_Large,9.0,,,,,,,,,,,
encoding,value,26,3143765,3149777,3145890.0,3146606.0,717.0,717.0,1884.2,1338.3,1920.0,700.0,Animal_Land_Pattern_Large,17.61458041600008,23.62721341600036,5.0,Animal_Land_Pattern_Large,9.0,,,,,,,,,,,
encoding,value,26,3143765,3149777,3146619.0,3146834.0,216.0,216.0,1871.5,1259.8,1920.0,700.0,Animal_Land_Pattern_Large,17.61458041600008,23.62721341600036,5.0,Animal_Land_Pattern_Large,9.0,,,,,,,,,,,
encoding,value,26,3143765,3149777,3146969.0,3147278.0,310.0,310.0,1876.3,1337.4,1920.0,700.0,Animal_Land_Pattern_Large,17.61458041600008,23.62721341600036,5.0,Animal_Land_Pattern_Large,9.0,,,,,,,,,,,
encoding,value,26,3143765,3149777,3147477.0,3147940.0,464.0,464.0,1886.3,1356.6,1920.0,700.0,Animal_Land_Pattern_Large,17.61458041600008,23.62721341600036,5.0,Animal_Land_Pattern_Large,9.0,,,,,,,,,,,
encoding,value,26,3143765,3149777,3147954.0,3148354.0,401.0,401.0,1873.9,1270.2,1920.0,700.0,Animal_Land_Pattern_Large,17.61458041600008,23.62721341600036,5.0,Animal_Land_Pattern_Large,9.0,,,,,,,,,,,
encoding,value,26,3143765,3149777,3148551.0,3148783.0,233.0,233.0,1883.1,1342.4,1920.0,700.0,Animal_Land_Pattern_Large,17.61458041600008,23.62721341600036,5.0,Animal_Land_Pattern_Large,9.0,,,,,,,,,,,
encoding,value,26,3143765,3149777,3148798.0,3149338.0,541.0,541.0,1884.5,1377.9,1920.0,700.0,Animal_Land_Pattern_Large,17.61458041600008,23.62721341600036,5.0,Animal_Land_Pattern_Large,9.0,,,,,,,,,,,
encoding,value,26,3143765,3149777,3149359.0,3149617.0,259.0,259.0,1872.4,1262.6,1920.0,700.0,Animal_Land_Pattern_Large,17.61458041600008,23.62721341600036,5.0,Animal_Land_Pattern_Large,9.0,,,,,,,,,,,
encoding,value,26,3143765,3149777,3149637.0,3149749.0,113.0,113.0,1886.4,1379.3,1920.0,700.0,Animal_Land_Pattern_Large,17.61458041600008,23.62721341600036,5.0,Animal_Land_Pattern_Large,9.0,,,,,,,,,,,
encoding,attention,26,3149778,3152795,3149943.0,3150121.0,179.0,179.0,1890.7,1363.3,1920.0,700.0,Animal_Land_Pattern_Large,23.6273523750001,26.644295958000384,5.0,Animal_Land_Pattern_Large,9.0,9.0,1.0,0.6309065000000373,,,,,,,,
encoding,attention,26,3149778,3152795,3150129.0,3150627.0,499.0,499.0,1857.7,1385.8,1920.0,700.0,Animal_Land_Pattern_Large,23.6273523750001,26.644295958000384,5.0,Animal_Land_Pattern_Large,9.0,9.0,1.0,0.6309065000000373,,,,,,,,
encoding,attention,26,3149778,3152795,3150873.0,3150966.0,94.0,94.0,1913.8,1460.9,1920.0,700.0,Animal_Land_Pattern_Large,23.6273523750001,26.644295958000384,5.0,Animal_Land_Pattern_Large,9.0,9.0,1.0,0.6309065000000373,,,,,,,,
encoding,attention,26,3149778,3152795,3151197.0,3151364.0,168.0,168.0,1783.1,1077.5,1591.0,1269.0,Object_Sea_Solid_Large,23.6273523750001,26.644295958000384,5.0,Animal_Land_Pattern_Large,9.0,9.0,1.0,0.6309065000000373,,,,,,,,
encoding,attention,26,3149778,3152795,3151383.0,3151908.0,526.0,526.0,1871.9,1146.6,1591.0,891.0,Animal_Sea_Pattern_Small,23.6273523750001,26.644295958000384,5.0,Animal_Land_Pattern_Large,9.0,9.0,1.0,0.6309065000000373,,,,,,,,
