phase,event,onset,offset,trial_number,game,image,outcome,choice,correct,rt,letter,match,response,option,true_value,true_position,recalled_position,
encoding,fixation,8.338779624999916,9.101534415999822,1,1,Animal_Land_Solid_Large,2,,,,,,,,,,,
encoding,image,9.101656540999784,10.118464415999824,1,1,Animal_Land_Solid_Large,2,,,,,,,,,,,
encoding,value,10.118567249999842,16.134310832999972,1,1,Animal_Land_Solid_Large,2,,,,,,,,,,,
encoding,attention,16.13442745799989,19.152764165999997,1,1,Animal_Land_Solid_Large,2,+2,1,1.331041040999935,,,,,,,,
encoding,fixation,19.15292404099978,20.15901308299999,2,1,Animal_Land_Pattern_Large,5,,,,,,,,,,,
encoding,image,20.159121624999898,21.169856082999786,2,1,Animal_Land_Pattern_Large,5,,,,,,,,,,,
encoding,value,21.16997570799981,27.183453415999793,2,1,Animal_Land_Pattern_Large,5,,,,,,,,,,,
encoding,attention,27.1835665829999,30.20142254099983,2,1,Animal_Land_Pattern_Large,5,+5,1,0.7414914159999171,,,,,,,,
encoding,fixation,30.20157812499997,30.707207208,3,1,Object_Land_Solid_Small,-8,,,,,,,,,,,
encoding,image,30.707325999999966,31.718941249999943,3,1,Object_Land_Solid_Small,-8,,,,,,,,,,,
encoding,value,31.719115957999975,37.73487662499997,3,1,Object_Land_Solid_Small,-8,,,,,,,,,,,
encoding,attention,37.735069665999845,40.752604124999834,3,1,Object_Land_Solid_Small,-8,-8,1,0.7279652920001354,,,,,,,,
encoding,fixation,40.752819457999976,41.75801254099997,4,1,Object_Sea_Pattern_Large,-1,,,,,,,,,,,
encoding,image,41.758136165999986,42.76874566599986,4,1,Object_Sea_Pattern_Large,-1,,,,,,,,,,,
encoding,value,42.7688596659998,48.780591165999795,4,1,Object_Sea_Pattern_Large,-1,,,,,,,,,,,
encoding,attention,48.78070858299998,51.79834737499982,4,1,Object_Sea_Pattern_Large,-1,-1,1,0.8744620410000152,,,,,,,,
encoding,fixation,51.798504832999924,52.303869416,5,1,Object_Sea_Solid_Small,8,,,,,,,,,,,
encoding,image,52.303984999999784,53.31436166599997,5,1,Object_Sea_Solid_Small,8,,,,,,,,,,,
encoding,value,53.314484457999924,59.32496187499987,5,1,Object_Sea_Solid_Small,8,,,,,,,,,,,
encoding,attention,59.32508699999994,62.37531091599999,5,1,Object_Sea_Solid_Small,8,+8,1,0.9630853749999915,,,,,,,,
encoding,fixation,62.375461290999965,63.63070783299986,6,1,Animal_Sea_Pattern_Small,-5,,,,,,,,,,,
encoding,image,63.63083966599993,64.64213374999986,6,1,Animal_Sea_Pattern_Small,-5,,,,,,,,,,,
encoding,value,64.64225795799985,70.65422962499997,6,1,Animal_Sea_Pattern_Small,-5,,,,,,,,,,,
encoding,attention,70.65435812499982,73.67626983299988,6,1,Animal_Sea_Pattern_Small,-5,-5,1,0.5587370420000752,,,,,,,,
n-back,,,,1,1,,,,0,None,C,True,None,,,,,
n-back,,,,2,1,,,,1,None,B,False,None,,,,,
n-back,,,,3,1,,,,1,0.40412308400004804,C,True,1,,,,,
n-back,,,,4,1,,,,1,None,Z,False,None,,,,,
n-back,,,,5,1,,,,1,None,N,False,None,,,,,
n-back,,,,6,1,,,,1,None,X,False,None,,,,,
n-back,,,,7,1,,,,1,None,V,False,None,,,,,
n-back,,,,8,1,,,,1,0.41372487499984345,X,True,1,,,,,
n-back,,,,9,1,,,,1,None,Z,False,None,,,,,
n-back,,,,10,1,,,,1,None,B,False,None,,,,,
n-back,,,,11,1,,,,1,None,V,False,None,,,,,
n-back,,,,12,1,,,,1,0.40930087499987167,B,True,1,,,,,
n-back,,,,13,1,,,,1,None,Z,False,None,,,,,
n-back,,,,14,1,,,,0,None,B,True,None,,,,,
n-back,,,,15,1,,,,1,None,X,False,None,,,,,
n-back,,,,16,1,,,,1,None,N,False,None,,,,,
n-back,,,,17,1,,,,1,None,N,False,None,,,,,
n-back,,,,18,1,,,,1,0.40488299999992705,N,True,1,,,,,
n-back,,,,19,1,,,,0,None,N,True,None,,,,,
n-back,,,,20,1,,,,1,None,B,False,None,,,,,
n-back,,,,21,1,,,,1,None,X,False,None,,,,,
n-back,,,,22,1,,,,1,None,V,False,None,,,,,
n-back,,,,23,1,,,,1,0.36066279100009524,X,True,1,,,,,
n-back,,,,24,1,,,,1,None,X,False,None,,,,,
n-back,,,,25,1,,,,1,None,Z,False,None,,,,,
n-back,,,,26,1,,,,1,None,V,False,None,,,,,
n-back,,,,27,1,,,,1,None,N,False,None,,,,,
n-back,,,,28,1,,,,1,0.4570180419998451,V,True,1,,,,,
n-back,,,,29,1,,,,0,None,N,True,None,,,,,
n-back,,,,30,1,,,,1,None,Z,False,None,,,,,
choice,fixation,157.26730133299998,158.5235150829999,1,1,,,,,,,,,Small,,,,
choice,option,158.53293891599992,159.63820191599984,1,1,,,,,,,,,Small,,,,
choice,choice,159.6383213749998,163.28954487499982,1,1,,,1,0,2.6414008330000343,,,,Small,,,,
choice,fixation,163.28968337499987,164.29456379099997,2,1,,,,,,,,,Solid,,,,
choice,option,164.30402725,165.33391699999993,2,1,,,,,,,,,Solid,,,,
choice,choice,165.33404983299988,166.88056737499983,2,1,,,1,1,0.5371443330000147,,,,Solid,,,,
choice,fixation,166.88068891599983,168.13561074999984,3,1,,,,,,,,,Animal,,,,
choice,option,168.14518945799978,169.17149595799992,3,1,,,,,,,,,Animal,,,,
choice,choice,169.1716111249998,170.76680954099993,3,1,,,2,0,0.5857326660000126,,,,Animal,,,,
choice,fixation,170.7669343749999,172.27190137499997,4,1,,,,,,,,,Object,,,,
choice,option,172.28147549999994,173.3075859579999,4,1,,,,,,,,,Object,,,,
choice,choice,173.30775112499987,174.8794845829998,4,1,,,1,0,0.5621063749999848,,,,Object,,,,
choice,fixation,174.87960329099997,175.63441545799992,5,1,,,,,,,,,Land,,,,
choice,option,175.64298629099994,176.6700155829999,5,1,,,,,,,,,Land,,,,
choice,choice,176.67014137499996,178.0388261659998,5,1,,,2,1,0.35906741700000566,,,,Land,,,,
choice,fixation,178.0389587499999,178.794005041,6,1,,,,,,,,,Pattern,,,,
choice,option,178.80335079099996,179.82993529099986,6,1,,,,,,,,,Pattern,,,,
choice,choice,179.83005745799983,181.58411087499985,6,1,,,2,1,0.7448807089999718,,,,Pattern,,,,
choice,fixation,181.58423508299984,182.0890649999999,7,1,,,,,,,,,Sea,,,,
choice,option,182.09761683299985,183.1242807499998,7,1,,,,,,,,,Sea,,,,
choice,choice,183.12440604099993,184.85536829099988,7,1,,,1,1,0.7214069169999675,,,,Sea,,,,
choice,fixation,184.85552291599993,185.86094274999982,8,1,,,,,,,,,Large,,,,
choice,option,185.87004599999977,186.89649362499995,8,1,,,,,,,,,Large,,,,
choice,choice,186.8966234999998,189.4239587909999,8,1,,,1,1,1.517812499999991,,,,Large,,,,
memory,free_recall,235.68483720799986,267.209463916,0,1,,,,,,,,,,,,,
memory,value_recall,309.0417081659998,313.53403066600004,1,1,Object_Sea_Pattern_Large,,,,4.488376874999631,,,,,-1,,,
memory,value_recall,314.8299832079997,317.9860181250001,2,1,Animal_Sea_Pattern_Small,,,,3.1518895829999565,,,,,-5,,,
memory,value_recall,319.0309515409999,321.9214795409998,3,1,Animal_Land_Pattern_Large,,,,2.8874064169999656,,,,,5,,,
memory,value_recall,322.96748416599985,325.8418522500001,4,1,Object_Land_Solid_Small,,,,2.871826707999844,,,,,-8,,,
memory,value_recall,326.887712791,329.3343031659997,5,1,Object_Sea_Solid_Small,,,,2.443974750000052,,,,,8,,,
memory,value_recall,331.3802231659997,334.6102272909998,6,1,Animal_Land_Solid_Large,,,,3.2259307080003055,,,,,2,,,
memory,spatial_recall,354.9090819160001,359.21762091599976,6,1,Animal_Sea_Pattern_Small,,,1,4.304404708999755,,,,,,"[-329, 190]","[-329, 190]",
memory,spatial_recall,360.52220450000004,363.41921816600006,6,1,Object_Sea_Pattern_Large,,,1,2.8930957080001463,,,,,,"[0, -380]","[0, -380]",
memory,spatial_recall,364.47014554099997,366.41207962499993,6,1,Object_Sea_Solid_Small,,,1,1.9393898329999502,,,,,,"[329, 189]","[329, 189]",
memory,spatial_recall,368.2185871249999,373.8008434159997,6,1,Animal_Land_Pattern_Large,,,1,5.5782979169998725,,,,,,"[0, 380]","[0, 380]",
memory,spatial_recall,375.35582399999976,379.68377491599995,6,1,Object_Land_Solid_Small,,,1,4.323352459000034,,,,,,"[-329, -190]","[-329, -190]",
memory,spatial_recall,381.49100233299987,383.1035031659999,6,1,Animal_Land_Solid_Large,,,1,1.6085387079997417,,,,,,"[329, -190]","[329, -190]",
encoding,fixation,12.005810666999878,13.011625083000126,7,2,Object_Sea_Solid_Small,7,,,,,,,,,,,
encoding,image,13.011767208000037,14.021225999999842,7,2,Object_Sea_Solid_Small,7,,,,,,,,,,,
encoding,value,14.021353167000143,20.033006874999955,7,2,Object_Sea_Solid_Small,7,,,,,,,,,,,
encoding,attention,20.03313908300015,23.050081667000086,7,2,Object_Sea_Solid_Small,7,+7,1,0.564219458000025,,,,,,,,
encoding,fixation,23.050239541999872,24.055641916999775,8,2,Animal_Land_Pattern_Large,1,,,,,,,,,,,
encoding,image,24.055756875000043,25.065666708000208,8,2,Animal_Land_Pattern_Large,1,,,,,,,,,,,
encoding,value,25.065770832999988,31.078404166999917,8,2,Animal_Land_Pattern_Large,1,,,,,,,,,,,
encoding,attention,31.078519208000216,34.09548562500004,8,2,Animal_Land_Pattern_Large,1,+1,1,0.5867387499997676,,,,,,,,
encoding,fixation,34.09564316700016,34.8508938330001,9,2,Object_Sea_Solid_Large,-2,,,,,,,,,,,
encoding,image,34.85101600000007,35.86255079200009,9,2,Object_Sea_Solid_Large,-2,,,,,,,,,,,
encoding,value,35.862717791999785,41.876846916999966,9,2,Object_Sea_Solid_Large,-2,,,,,,,,,,,
encoding,attention,41.87695325000004,44.89432058300008,9,2,Object_Sea_Solid_Large,-2,-2,1,0.6861318749997736,,,,,,,,
encoding,fixation,44.894492291999995,45.649743082999976,10,2,Animal_Sea_Pattern_Small,-9,,,,,,,,,,,
encoding,image,45.64986249999993,46.66068020800003,10,2,Animal_Sea_Pattern_Small,-9,,,,,,,,,,,
encoding,value,46.66080145800015,52.67335537500003,10,2,Animal_Sea_Pattern_Small,-9,,,,,,,,,,,
encoding,attention,52.673470499999894,55.69053787499979,10,2,Animal_Sea_Pattern_Small,-9,-9,1,0.5606462499999907,,,,,,,,
encoding,fixation,55.690698082999916,56.94590791700011,11,2,Object_Land_Solid_Large,-4,,,,,,,,,,,
encoding,image,56.9460371250002,57.95634320799991,11,2,Object_Land_Solid_Large,-4,,,,,,,,,,,
encoding,value,57.956481207999786,63.967422833,11,2,Object_Land_Solid_Large,-4,,,,,,,,,,,
encoding,attention,63.96754266700009,66.98422845799996,11,2,Object_Land_Solid_Large,-4,-4,1,1.2992560829998183,,,,,,,,
encoding,fixation,66.98440404199982,68.48944820799989,12,2,Animal_Land_Pattern_Small,4,,,,,,,,,,,
encoding,image,68.4895673750002,69.50047316700011,12,2,Animal_Land_Pattern_Small,4,,,,,,,,,,,
encoding,value,69.500581667,75.51150537500007,12,2,Animal_Land_Pattern_Small,4,,,,,,,,,,,
encoding,attention,75.51162841699988,78.52862816700008,12,2,Animal_Land_Pattern_Small,4,+4,1,0.8099705829999948,,,,,,,,
n-back,,,,31,2,,,,1,None,V,False,None,,,,,
n-back,,,,32,2,,,,1,None,X,False,None,,,,,
n-back,,,,33,2,,,,1,None,B,False,None,,,,,
n-back,,,,34,2,,,,1,None,C,False,None,,,,,
n-back,,,,35,2,,,,1,0.4301264169998831,B,True,1,,,,,
n-back,,,,36,2,,,,1,None,B,False,None,,,,,
n-back,,,,37,2,,,,1,None,V,False,None,,,,,
n-back,,,,38,2,,,,1,0.3421674589999384,B,True,1,,,,,
n-back,,,,39,2,,,,0,None,V,True,None,,,,,
n-back,,,,40,2,,,,0,None,B,True,None,,,,,
n-back,,,,41,2,,,,1,None,Z,False,None,,,,,
n-back,,,,42,2,,,,1,None,V,False,None,,,,,
n-back,,,,43,2,,,,1,None,B,False,None,,,,,
n-back,,,,44,2,,,,1,None,B,False,None,,,,,
n-back,,,,45,2,,,,0,0.336969415999647,V,False,1,,,,,
n-back,,,,46,2,,,,0,None,B,True,None,,,,,
n-back,,,,47,2,,,,0,None,V,True,None,,,,,
n-back,,,,48,2,,,,1,None,V,False,None,,,,,
n-back,,,,49,2,,,,1,0.39404454199984684,V,True,1,,,,,
n-back,,,,50,2,,,,0,None,V,True,None,,,,,
n-back,,,,51,2,,,,0,None,V,True,None,,,,,
n-back,,,,52,2,,,,1,None,X,False,None,,,,,
n-back,,,,53,2,,,,1,None,X,False,None,,,,,
n-back,,,,54,2,,,,1,None,C,False,None,,,,,
n-back,,,,55,2,,,,1,None,N,False,None,,,,,
n-back,,,,56,2,,,,1,0.3695932499999799,C,True,1,,,,,
n-back,,,,57,2,,,,1,None,V,False,None,,,,,
n-back,,,,58,2,,,,1,None,V,False,None,,,,,
n-back,,,,59,2,,,,1,None,B,False,None,,,,,
n-back,,,,60,2,,,,1,None,X,False,None,,,,,
choice,fixation,147.785934,148.54109666700015,9,2,,,,,,,,,Small,,,,
choice,option,148.55010983300008,149.5762594580001,9,2,,,,,,,,,Small,,,,
choice,choice,149.57637049999994,160.02776470800018,9,2,,,1,1,9.440499833000104,,,,Small,,,,
choice,fixation,160.0279372079999,161.282917,10,2,,,,,,,,,Large,,,,
choice,option,161.2917779999998,162.3173427920001,10,2,,,,,,,,,Large,,,,
choice,choice,162.31745958300007,165.7979095830001,10,2,,,2,1,2.470868833000168,,,,Large,,,,
choice,fixation,165.79804416700017,167.30290058299988,11,2,,,,,,,,,Solid,,,,
choice,option,167.31259916699992,168.33864004199995,11,2,,,,,,,,,Solid,,,,
choice,choice,168.33876474999988,173.42800824999995,11,2,,,2,0,4.077915500000017,,,,Solid,,,,
choice,fixation,173.42813475000003,174.43303425000022,12,2,,,,,,,,,Object,,,,
choice,option,174.44258587500008,175.468700292,12,2,,,,,,,,,Object,,,,
choice,choice,175.46891420800011,182.9486217079998,12,2,,,1,1,6.469619125000008,,,,Object,,,,
choice,fixation,182.94875108299993,184.45370716700018,13,2,,,,,,,,,Pattern,,,,
choice,option,184.46313804200008,185.48994008299996,13,2,,,,,,,,,Pattern,,,,
choice,choice,185.49007654199977,186.61066862500002,13,2,,,1,0,0.11236766699994405,,,,Pattern,,,,
choice,fixation,186.61080249999986,187.6142530000002,14,2,,,,,,,,,Animal,,,,
choice,option,187.62381670800005,188.65084291699986,14,2,,,,,,,,,Animal,,,,
choice,choice,188.6509808750002,195.3948824580002,14,2,,,2,1,5.733627333000186,,,,Animal,,,,
choice,fixation,195.3950357079998,196.9000228330001,15,2,,,,,,,,,Land,,,,
choice,option,196.90921549999985,197.93535337499998,15,2,,,,,,,,,Land,,,,
choice,choice,197.93547399999989,204.47585041699995,15,2,,,1,1,5.530893749999905,,,,Land,,,,
choice,fixation,204.47596941700021,205.2310930829999,16,2,,,,,,,,,Sea,,,,
choice,option,205.23964070800002,206.2653674170001,16,2,,,,,,,,,Sea,,,,
choice,choice,206.26548841700014,207.64539166699979,16,2,,,1,0,0.3675399590001689,,,,Sea,,,,
memory,free_recall,225.49487850000014,238.93281816699982,6,2,,,,,,,,,,,,,
memory,value_recall,247.70484404199988,252.02119274999995,7,2,Animal_Sea_Pattern_Small,,,,4.310981291999724,,,,,-9,,,
memory,value_recall,254.06762741700004,256.392862958,8,2,Animal_Land_Pattern_Small,,,,2.3212116670001706,,,,,4,,,
memory,value_recall,257.4378245419998,259.66989220799996,9,2,Object_Land_Solid_Large,,,,2.226269833999595,,,,,-4,,,
memory,value_recall,261.7168220419999,263.70088774999977,10,2,Object_Sea_Solid_Small,,,,1.9796954169996752,,,,,7,,,
memory,value_recall,264.7467992920001,267.2146223330001,11,2,Object_Sea_Solid_Large,,,,2.463763208000273,,,,,-2,,,
memory,value_recall,268.51082612499977,270.8385762920002,12,2,Animal_Land_Pattern_Large,,,,2.323695583999779,,,,,1,,,
memory,spatial_recall,275.0639781250002,279.1452453329998,12,2,Object_Land_Solid_Large,,,1,4.077996208000059,,,,,,"[329, -190]","[329, -190]",
memory,spatial_recall,280.71045354199987,284.51208662499994,12,2,Animal_Land_Pattern_Small,,,1,3.7976549999998497,,,,,,"[0, -380]","[0, -380]",
memory,spatial_recall,286.06687012500015,289.662657375,12,2,Animal_Land_Pattern_Large,,,1,3.5918059159998847,,,,,,"[0, 380]","[0, 380]",
memory,spatial_recall,291.467228,299.49436804200013,12,2,Animal_Sea_Pattern_Small,,,1,8.022995457999968,,,,,,"[-329, 190]","[-329, 190]",
memory,spatial_recall,300.545010458,304.0559682920002,12,2,Object_Sea_Solid_Small,,,1,3.508531416999631,,,,,,"[329, 189]","[329, 189]",
memory,spatial_recall,305.6116914999998,308.8806251249998,12,2,Object_Sea_Solid_Large,,,1,3.26492508299998,,,,,,"[-329, -190]","[-329, -190]",
encoding,fixation,6.915677750000214,8.42152249999981,13,3,Animal_Sea_Pattern_Large,-8,,,,,,,,,,,
encoding,image,8.421629708000182,9.432141000000229,13,3,Animal_Sea_Pattern_Large,-8,,,,,,,,,,,
encoding,value,9.432319250000091,15.444741082999826,13,3,Animal_Sea_Pattern_Large,-8,,,,,,,,,,,
encoding,attention,15.444853292000062,18.46183937500018,13,3,Animal_Sea_Pattern_Large,-8,-8,1,0.8419130829997812,,,,,,,,
encoding,fixation,18.46200545800002,19.21725666700013,14,3,Animal_Sea_Solid_Large,6,,,,,,,,,,,
encoding,image,19.217362625000078,20.228056542000104,14,3,Animal_Sea_Solid_Large,6,,,,,,,,,,,
encoding,value,20.22819350000009,26.241076041999804,14,3,Animal_Sea_Solid_Large,6,,,,,,,,,,,
encoding,attention,26.241197708000072,29.258187875000203,14,3,Animal_Sea_Solid_Large,6,+6,1,0.6469171660000939,,,,,,,,
encoding,fixation,29.258341582999947,30.26672366699995,15,3,Object_Land_Pattern_Large,8,,,,,,,,,,,
encoding,image,30.266831333000027,31.27855295800009,15,3,Object_Land_Pattern_Large,8,,,,,,,,,,,
encoding,value,31.278674250000222,37.29101970800002,15,3,Object_Land_Pattern_Large,8,,,,,,,,,,,
encoding,attention,37.29121045800002,40.30900620800003,15,3,Object_Land_Pattern_Large,8,+8,1,0.5960363330000291,,,,,,,,
encoding,fixation,40.30916104200014,41.815858625000146,16,3,Object_Land_Solid_Small,-1,,,,,,,,,,,
encoding,image,41.8159879169998,42.82750512499979,16,3,Object_Land_Solid_Small,-1,,,,,,,,,,,
encoding,value,42.82764579200011,48.8397007919998,16,3,Object_Land_Solid_Small,-1,,,,,,,,,,,
encoding,attention,48.8398158330001,51.85661995800001,16,3,Object_Land_Solid_Small,-1,-1,1,0.9277971669998806,,,,,,,,
encoding,fixation,51.856801583000106,53.11179674999994,17,3,Animal_Sea_Solid_Small,5,,,,,,,,,,,
encoding,image,53.11192345800009,54.12280054199982,17,3,Animal_Sea_Solid_Small,5,,,,,,,,,,,
encoding,value,54.122922666999784,60.13400283300007,17,3,Animal_Sea_Solid_Small,5,,,,,,,,,,,
encoding,attention,60.134110874999806,63.15185645800011,17,3,Animal_Sea_Solid_Small,5,+5,1,0.6972952080000141,,,,,,,,
encoding,fixation,63.1520439169999,64.6570307500001,18,3,Object_Land_Pattern_Small,-1,,,,,,,,,,,
encoding,image,64.6571502920001,65.66828012499991,18,3,Object_Land_Pattern_Small,-1,,,,,,,,,,,
encoding,value,65.66838470799985,71.68149666699992,18,3,Object_Land_Pattern_Small,-1,,,,,,,,,,,
encoding,attention,71.68163545800007,74.69868391699993,18,3,Object_Land_Pattern_Small,-1,-1,1,0.8118828329997996,,,,,,,,
n-back,,,,61,3,,,,1,None,B,False,None,,,,,
n-back,,,,62,3,,,,0,None,V,True,None,,,,,
n-back,,,,63,3,,,,1,0.36758341599988853,B,True,1,,,,,
n-back,,,,64,3,,,,1,None,X,False,None,,,,,
n-back,,,,65,3,,,,1,None,X,False,None,,,,,
n-back,,,,66,3,,,,1,None,C,False,None,,,,,
n-back,,,,67,3,,,,1,None,V,False,None,,,,,
n-back,,,,68,3,,,,1,0.3337248749999162,C,True,1,,,,,
n-back,,,,69,3,,,,0,None,V,True,None,,,,,
n-back,,,,70,3,,,,0,None,C,True,None,,,,,
n-back,,,,71,3,,,,1,0.35730475000036677,V,True,1,,,,,
n-back,,,,72,3,,,,1,None,X,False,None,,,,,
n-back,,,,73,3,,,,0,None,V,True,None,,,,,
n-back,,,,74,3,,,,1,0.6360410000002048,X,True,1,,,,,
n-back,,,,75,3,,,,1,None,Z,False,None,,,,,
n-back,,,,76,3,,,,1,None,Z,False,None,,,,,
n-back,,,,77,3,,,,1,None,X,False,None,,,,,
n-back,,,,78,3,,,,1,None,C,False,None,,,,,
n-back,,,,79,3,,,,1,None,Z,False,None,,,,,
n-back,,,,80,3,,,,0,0.5933856249998826,Z,False,1,,,,,
n-back,,,,81,3,,,,1,None,C,False,None,,,,,
n-back,,,,82,3,,,,1,None,V,False,None,,,,,
n-back,,,,83,3,,,,1,0.32960812500004977,C,True,1,,,,,
n-back,,,,84,3,,,,1,None,C,False,None,,,,,
n-back,,,,85,3,,,,1,None,N,False,None,,,,,
n-back,,,,86,3,,,,1,None,B,False,None,,,,,
n-back,,,,87,3,,,,1,None,B,False,None,,,,,
n-back,,,,88,3,,,,1,0.35762183300039396,B,True,1,,,,,
n-back,,,,89,3,,,,1,None,X,False,None,,,,,
n-back,,,,90,3,,,,1,None,V,False,None,,,,,
choice,fixation,145.9439120830002,147.20022608299996,17,3,,,,,,,,,Large,,,,
choice,option,147.20834700000023,148.23391916699984,17,3,,,,,,,,,Large,,,,
choice,choice,148.2340421250001,161.0561079170002,17,3,,,2,0,11.81124204200023,,,,Large,,,,
choice,fixation,161.05625116700003,162.56169308300014,18,3,,,,,,,,,Small,,,,
choice,option,162.57108420800023,163.59968095800014,18,3,,,,,,,,,Small,,,,
choice,choice,163.59979833299985,168.55343733300015,18,3,,,1,1,3.9441953749997083,,,,Small,,,,
choice,fixation,168.5535620830001,169.30854791699994,19,3,,,,,,,,,Object,,,,
choice,option,169.317421792,170.34341770799983,19,3,,,,,,,,,Object,,,,
choice,choice,170.343525667,173.80297125000016,19,3,,,1,1,2.44825287499998,,,,Object,,,,
choice,fixation,173.80315770800007,174.308044375,20,3,,,,,,,,,Land,,,,
choice,option,174.3171292080001,175.34355199999982,20,3,,,,,,,,,Land,,,,
choice,choice,175.3436576250001,179.67205045799983,20,3,,,1,1,3.3184458750001795,,,,Land,,,,
choice,fixation,179.67217979199995,180.4276306249999,21,3,,,,,,,,,Solid,,,,
choice,option,180.43703125000002,181.46324145800008,21,3,,,,,,,,,Solid,,,,
choice,choice,181.46336758300004,187.0818233750001,21,3,,,1,1,4.607186708999961,,,,Solid,,,,
choice,fixation,187.08194208299983,188.08700687500004,22,3,,,,,,,,,Sea,,,,
choice,option,188.0950725419998,189.1210890829998,22,3,,,,,,,,,Sea,,,,
choice,choice,189.12120129200002,193.61824245800017,22,3,,,1,1,3.487195249999786,,,,Sea,,,,
choice,fixation,193.6183663329998,194.62329487499983,23,3,,,,,,,,,Pattern,,,,
choice,option,194.6329511670001,195.65902529200002,23,3,,,,,,,,,Pattern,,,,
choice,choice,195.6591571250001,197.05491725000002,23,3,,,2,1,0.38370429200040235,,,,Pattern,,,,
choice,fixation,197.05513320799992,197.81038975,24,3,,,,,,,,,Animal,,,,
choice,option,197.8200714579998,198.84660424999993,24,3,,,,,,,,,Animal,,,,
choice,choice,198.846729375,204.97689883300018,24,3,,,1,1,5.120489375000034,,,,Animal,,,,
memory,free_recall,214.90630279200013,232.21116870800006,12,3,,,,,,,,,,,,,
memory,value_recall,238.83332433299984,241.58729145799998,13,3,Object_Land_Pattern_Small,,,,2.7508734589996493,,,,,-1,,,
memory,value_recall,243.6325019169999,246.5152209580001,14,3,Object_Land_Solid_Small,,,,2.878647292000096,,,,,-1,,,
memory,value_recall,247.8107983330001,250.44344754199983,15,3,Animal_Sea_Solid_Small,,,,2.6286634160001086,,,,,5,,,
memory,value_recall,252.23940916699985,254.08188254200013,16,3,Animal_Sea_Pattern_Large,,,,1.8383634169999823,,,,,-8,,,
memory,value_recall,256.12783383299984,258.3071934999998,17,3,Animal_Sea_Solid_Large,,,,2.1753144999997858,,,,,6,,,
memory,value_recall,260.1030206250002,262.8504521250002,18,3,Object_Land_Pattern_Large,,,,2.7434201249998296,,,,,8,,,
memory,spatial_recall,267.27094083300017,270.1668814579998,18,3,Object_Land_Solid_Small,,,1,2.8917719169999145,,,,,,"[-329, -190]","[-329, -190]",
memory,spatial_recall,271.9735390000001,276.58447133300024,18,3,Animal_Sea_Pattern_Large,,,1,4.606937624999773,,,,,,"[0, 380]","[0, 380]",
memory,spatial_recall,278.39903141700006,280.76571183299984,18,3,Animal_Sea_Solid_Large,,,1,2.362694625000131,,,,,,"[329, -190]","[329, -190]",
memory,spatial_recall,282.57500437499993,286.8274955830002,18,3,Object_Land_Pattern_Large,,,1,4.246403042000111,,,,,,"[-329, 190]","[-329, 190]",
memory,spatial_recall,288.38624408299984,289.73292383299986,18,3,Object_Land_Pattern_Small,,,1,1.3423760000000584,,,,,,"[329, 189]","[329, 189]",
memory,spatial_recall,290.78409058299985,295.9271008750002,18,3,Animal_Sea_Solid_Small,,,1,5.1405458750000435,,,,,,"[0, -380]","[0, -380]",
encoding,fixation,5.2917997090003155,6.047733625000092,19,4,Animal_Land_Pattern_Large,9,,,,,,,,,,,
encoding,image,6.047845000000052,7.058746209000219,19,4,Animal_Land_Pattern_Large,9,,,,,,,,,,,
encoding,value,7.058851917000084,13.073508041999958,19,4,Animal_Land_Pattern_Large,9,,,,,,,,,,,
encoding,attention,13.073624500000278,16.092425792000085,19,4,Animal_Land_Pattern_Large,9,+9,1,0.9307667079997373,,,,,,,,
encoding,fixation,16.092583625000316,17.347909792000337,20,4,Object_Sea_Solid_Small,1,,,,,,,,,,,
encoding,image,17.34802958399996,18.358181417000196,20,4,Object_Sea_Solid_Small,1,,,,,,,,,,,
encoding,value,18.35836695900025,24.36953633400026,20,4,Object_Sea_Solid_Small,1,,,,,,,,,,,
encoding,attention,24.369647959000304,27.38598554200007,20,4,Object_Sea_Solid_Small,1,+1,1,0.6832706670002153,,,,,,,,
encoding,fixation,27.386138333999952,28.641221875000156,21,4,Animal_Sea_Pattern_Small,-6,,,,,,,,,,,
encoding,image,28.641349167000044,29.652619959000276,21,4,Animal_Sea_Pattern_Small,-6,,,,,,,,,,,
encoding,value,29.65273416700029,35.665682584000024,21,4,Animal_Sea_Pattern_Small,-6,,,,,,,,,,,
encoding,attention,35.66580075000002,38.68442683400008,21,4,Animal_Sea_Pattern_Small,-6,-6,1,1.6333739159999823,,,,,,,,
encoding,fixation,38.68458774999999,39.43955854200021,22,4,Object_Land_Solid_Small,2,,,,,,,,,,,
encoding,image,39.43967575000033,40.451006875000076,22,4,Object_Land_Solid_Small,2,,,,,,,,,,,
encoding,value,40.45112916700009,46.463168167000276,22,4,Object_Land_Solid_Small,2,,,,,,,,,,,
encoding,attention,46.463286167000206,49.480760084000394,22,4,Object_Land_Solid_Small,2,+2,1,1.7097981249999066,,,,,,,,
encoding,fixation,49.48091266700021,50.986056792,23,4,Animal_Land_Solid_Large,-6,,,,,,,,,,,
encoding,image,50.98617137500014,51.9977022500002,23,4,Animal_Land_Solid_Large,-6,,,,,,,,,,,
encoding,value,51.9978986670003,58.00941958400017,23,4,Animal_Land_Solid_Large,-6,,,,,,,,,,,
encoding,attention,58.00952095900038,61.02836662500022,23,4,Animal_Land_Solid_Large,-6,-6,1,0.7677941249999094,,,,,,,,
encoding,fixation,61.02851879200034,61.53378195899995,24,4,Object_Sea_Pattern_Large,-6,,,,,,,,,,,
encoding,image,61.53389370900004,62.54510391700023,24,4,Object_Sea_Pattern_Large,-6,,,,,,,,,,,
encoding,value,62.54523712500031,68.55714529200031,24,4,Object_Sea_Pattern_Large,-6,,,,,,,,,,,
encoding,attention,68.55727683400028,71.57598695900015,24,4,Object_Sea_Pattern_Large,-6,-6,1,0.8307408330001635,,,,,,,,
n-back,,,,91,4,,,,1,None,Z,False,None,,,,,
n-back,,,,92,4,,,,1,None,B,False,None,,,,,
n-back,,,,93,4,,,,1,None,B,False,None,,,,,
n-back,,,,94,4,,,,1,None,C,False,None,,,,,
n-back,,,,95,4,,,,1,None,N,False,None,,,,,
n-back,,,,96,4,,,,1,None,V,False,None,,,,,
n-back,,,,97,4,,,,1,0.4064349579998634,N,True,1,,,,,
n-back,,,,98,4,,,,1,None,C,False,None,,,,,
n-back,,,,99,4,,,,0,None,N,True,None,,,,,
n-back,,,,100,4,,,,1,0.2805687499999294,C,True,1,,,,,
n-back,,,,101,4,,,,1,None,Z,False,None,,,,,
n-back,,,,102,4,,,,1,None,B,False,None,,,,,
n-back,,,,103,4,,,,1,None,V,False,None,,,,,
n-back,,,,104,4,,,,1,None,V,False,None,,,,,
n-back,,,,105,4,,,,1,None,X,False,None,,,,,
n-back,,,,106,4,,,,1,None,C,False,None,,,,,
n-back,,,,107,4,,,,1,0.3420697090000431,X,True,1,,,,,
n-back,,,,108,4,,,,0,None,C,True,None,,,,,
n-back,,,,109,4,,,,0,None,X,True,None,,,,,
n-back,,,,110,4,,,,1,0.45067175000031057,C,True,1,,,,,
n-back,,,,111,4,,,,1,None,C,False,None,,,,,
n-back,,,,112,4,,,,1,None,X,False,None,,,,,
n-back,,,,113,4,,,,1,None,V,False,None,,,,,
n-back,,,,114,4,,,,1,0.3974257079999006,X,True,1,,,,,
n-back,,,,115,4,,,,1,None,B,False,None,,,,,
n-back,,,,116,4,,,,1,None,V,False,None,,,,,
n-back,,,,117,4,,,,1,None,X,False,None,,,,,
n-back,,,,118,4,,,,1,0.45667120799998884,V,True,1,,,,,
n-back,,,,119,4,,,,0,None,X,True,None,,,,,
n-back,,,,120,4,,,,1,None,N,False,None,,,,,
choice,fixation,146.17529600000034,146.9286752920002,25,4,,,,,,,,,Solid,,,,
choice,option,146.93799850000005,147.96350737500006,25,4,,,,,,,,,Solid,,,,
choice,choice,147.96363416700024,160.46228191700038,25,4,,,2,1,11.488567540999611,,,,Solid,,,,
choice,fixation,160.46242037499997,161.96766695900033,26,4,,,,,,,,,Animal,,,,
choice,option,161.97712050000018,163.00342524999996,26,4,,,,,,,,,Animal,,,,
choice,choice,163.00354425000023,170.6296155,26,4,,,1,0,6.6164839590001066,,,,Animal,,,,
choice,fixation,170.62974366700018,172.1350157920001,27,4,,,,,,,,,Object,,,,
choice,option,172.14505529200005,173.17259445900027,27,4,,,,,,,,,Object,,,,
choice,choice,173.17271533400026,179.94264366700008,27,4,,,2,1,5.760221457999705,,,,Object,,,,
choice,fixation,179.94278200000008,181.19793716699996,28,4,,,,,,,,,Pattern,,,,
choice,option,181.20727908400022,182.2337307920002,28,4,,,,,,,,,Pattern,,,,
choice,choice,182.23384600000009,184.17419741699996,28,4,,,1,0,0.9302515419999509,,,,Pattern,,,,
choice,fixation,184.17432266700007,185.67918041700023,29,4,,,,,,,,,Large,,,,
choice,option,185.68825937500014,186.71407916700036,29,4,,,,,,,,,Large,,,,
choice,choice,186.71420137500036,189.73354029200027,29,4,,,1,0,2.009503540999958,,,,Large,,,,
choice,fixation,189.73375387500028,190.98961662500005,30,4,,,,,,,,,Land,,,,
choice,option,190.9983916670003,192.02496366700007,30,4,,,,,,,,,Land,,,,
choice,choice,192.02507550000018,199.77318579200028,30,4,,,1,1,6.73748708300036,,,,Land,,,,
choice,fixation,199.77330658400024,200.77937129200018,31,4,,,,,,,,,Small,,,,
choice,option,200.78892287500003,201.81597304200022,31,4,,,,,,,,,Small,,,,
choice,choice,201.81619320900018,205.90247200000022,31,4,,,2,1,3.076518708000094,,,,Small,,,,
choice,fixation,205.90261158400017,206.65743195899995,32,4,,,,,,,,,Sea,,,,
choice,option,206.66607650000014,207.69264329199996,32,4,,,,,,,,,Sea,,,,
choice,choice,207.69275391700012,212.1657545840003,32,4,,,1,0,3.4631569170001058,,,,Sea,,,,
memory,free_recall,222.54462404200012,236.00006383400023,18,4,,,,,,,,,,,,,
memory,value_recall,240.2473331670003,243.23124091700038,19,4,Object_Sea_Solid_Small,,,,2.9794907079999575,,,,,1,,,
memory,value_recall,244.77628216700032,247.15573054200013,20,4,Animal_Sea_Pattern_Small,,,,2.3754144169997744,,,,,-6,,,
memory,value_recall,248.450614459,252.60085000000026,21,4,Object_Sea_Pattern_Large,,,,4.144907916000193,,,,,-6,,,
memory,value_recall,254.6465819590003,257.2738953750004,22,4,Animal_Land_Pattern_Large,,,,2.6230093330000273,,,,,9,,,
memory,value_recall,258.569416584,262.1714433340003,23,4,Object_Land_Solid_Small,,,,3.597844208999959,,,,,2,,,
memory,value_recall,263.46623908400034,265.1555510420003,24,4,Animal_Land_Solid_Large,,,,1.6852374169998257,,,,,-6,,,
memory,spatial_recall,268.61851266700023,271.88513791700007,24,4,Animal_Sea_Pattern_Small,,,1,3.26257087499971,,,,,,"[-329, 190]","[-329, 190]",
memory,spatial_recall,272.94675774999996,275.17335200000025,24,4,Animal_Land_Solid_Large,,,1,2.2236980419997963,,,,,,"[329, -190]","[329, -190]",
memory,spatial_recall,276.22839583400037,280.1593646250003,24,4,Object_Land_Solid_Small,,,1,3.9284467080001377,,,,,,"[-329, -190]","[-329, -190]",
memory,spatial_recall,281.7221063750003,283.569056584,24,4,Animal_Land_Pattern_Large,,,1,1.8429727920001824,,,,,,"[0, 380]","[0, 380]",
memory,spatial_recall,284.87186737499997,286.07441962500025,24,4,Object_Sea_Solid_Small,,,1,1.1985596670001541,,,,,,"[329, 189]","[329, 189]",
memory,spatial_recall,287.37850537500026,288.95769525000014,24,4,Object_Sea_Pattern_Large,,,1,1.575288792000265,,,,,,"[0, -380]","[0, -380]",
encoding,fixation,4.79726620800011,5.803987666000012,25,5,Object_Sea_Solid_Large,-3,,,,,,,,,,,
encoding,image,5.804110916000354,6.81601025000009,25,5,Object_Sea_Solid_Large,-3,,,,,,,,,,,
encoding,value,6.816133041000285,12.829922083000383,25,5,Object_Sea_Solid_Large,-3,,,,,,,,,,,
encoding,attention,12.83003808300009,15.847647666000285,25,5,Object_Sea_Solid_Large,-3,-3,1,0.5965431250001529,,,,,,,,
encoding,fixation,15.84780066600024,16.60361687500017,26,5,Animal_Land_Pattern_Large,9,,,,,,,,,,,
encoding,image,16.60372229099994,17.61443625000038,26,5,Animal_Land_Pattern_Large,9,,,,,,,,,,,
encoding,value,17.61458041600008,23.62721341600036,26,5,Animal_Land_Pattern_Large,9,,,,,,,,,,,
encoding,attention,23.6273523750001,26.644295958000384,26,5,Animal_Land_Pattern_Large,9,+9,1,0.6309065000000373,,,,,,,,
encoding,fixation,26.644457666000108,27.649800916000004,27,5,Object_Land_Solid_Large,-7,,,,,,,,,,,
encoding,image,27.64991575000022,28.660253625000223,27,5,Object_Land_Solid_Large,-7,,,,,,,,,,,
encoding,value,28.660381790999963,34.67114054100011,27,5,Object_Land_Solid_Large,-7,,,,,,,,,,,
encoding,attention,34.67127145800032,37.68736687499995,27,5,Object_Land_Solid_Large,-7,-7,1,0.5570859170002223,,,,,,,,
encoding,fixation,37.687533375000385,39.192781458000354,28,5,Animal_Land_Pattern_Small,-1,,,,,,,,,,,
encoding,image,39.19289166600038,40.203681125,28,5,Animal_Land_Pattern_Small,-1,,,,,,,,,,,
encoding,value,40.20385762500018,46.2167007500002,28,5,Animal_Land_Pattern_Small,-1,,,,,,,,,,,
encoding,attention,46.21682054100029,49.23439012500012,28,5,Animal_Land_Pattern_Small,-1,-1,1,0.6020922499997141,,,,,,,,
encoding,fixation,49.23455670800013,49.73958504100028,29,5,Animal_Sea_Pattern_Small,-6,,,,,,,,,,,
encoding,image,49.7397167500003,50.75066954100021,29,5,Animal_Sea_Pattern_Small,-6,,,,,,,,,,,
encoding,value,50.75080170800038,56.76321054100026,29,5,Animal_Sea_Pattern_Small,-6,,,,,,,,,,,
encoding,attention,56.763330083000255,59.78027491600005,29,5,Animal_Sea_Pattern_Small,-6,-6,1,0.7124365419999776,,,,,,,,
encoding,fixation,59.78043337500003,60.28683866600022,30,5,Object_Sea_Solid_Small,8,,,,,,,,,,,
encoding,image,60.28695183300033,61.29739074999998,30,5,Object_Sea_Solid_Small,8,,,,,,,,,,,
encoding,value,61.297497708000265,67.30776212499995,30,5,Object_Sea_Solid_Small,8,,,,,,,,,,,
encoding,attention,67.30787099999998,70.32547662500019,30,5,Object_Sea_Solid_Small,8,+8,1,0.7269581670002481,,,,,,,,
n-back,,,,121,5,,,,1,None,C,False,None,,,,,
n-back,,,,122,5,,,,1,None,B,False,None,,,,,
n-back,,,,123,5,,,,1,0.5221890839998196,C,True,1,,,,,
n-back,,,,124,5,,,,1,None,V,False,None,,,,,
n-back,,,,125,5,,,,1,None,N,False,None,,,,,
n-back,,,,126,5,,,,1,None,N,False,None,,,,,
n-back,,,,127,5,,,,1,0.3436958330003108,N,True,1,,,,,
n-back,,,,128,5,,,,0,None,N,True,None,,,,,
n-back,,,,129,5,,,,0,None,N,True,None,,,,,
n-back,,,,130,5,,,,1,None,C,False,None,,,,,
n-back,,,,131,5,,,,1,None,V,False,None,,,,,
n-back,,,,132,5,,,,1,None,N,False,None,,,,,
n-back,,,,133,5,,,,1,None,N,False,None,,,,,
n-back,,,,134,5,,,,1,0.36202629100034756,N,True,1,,,,,
n-back,,,,135,5,,,,1,None,B,False,None,,,,,
n-back,,,,136,5,,,,0,None,N,True,None,,,,,
n-back,,,,137,5,,,,1,None,Z,False,None,,,,,
n-back,,,,138,5,,,,1,0.9599080000002687,N,True,1,,,,,
n-back,,,,139,5,,,,1,None,N,False,None,,,,,
n-back,,,,140,5,,,,1,None,Z,False,None,,,,,
n-back,,,,141,5,,,,1,None,Z,False,None,,,,,
n-back,,,,142,5,,,,1,0.33343745799993485,Z,True,1,,,,,
n-back,,,,143,5,,,,1,None,V,False,None,,,,,
n-back,,,,144,5,,,,1,None,X,False,None,,,,,
n-back,,,,145,5,,,,0,0.44158045899985154,C,False,1,,,,,
n-back,,,,146,5,,,,0,None,X,True,None,,,,,
n-back,,,,147,5,,,,1,None,V,False,None,,,,,
n-back,,,,148,5,,,,1,None,B,False,None,,,,,
n-back,,,,149,5,,,,1,None,C,False,None,,,,,
n-back,,,,150,5,,,,1,0.4013179170001422,B,True,1,,,,,
choice,fixation,145.08612041600009,146.08941379099997,33,5,,,,,,,,,Animal,,,,
choice,option,146.098505208,147.12557950000019,33,5,,,,,,,,,Animal,,,,
choice,choice,147.1256882910002,155.12614291599994,33,5,,,1,1,6.990384833999997,,,,Animal,,,,
choice,fixation,155.126266708,156.13151454100034,34,5,,,,,,,,,Land,,,,
choice,option,156.14040854099994,157.16685795800004,34,5,,,,,,,,,Land,,,,
choice,choice,157.1669618330002,165.09359262500038,34,5,,,1,1,6.917083542,,,,Land,,,,
choice,fixation,165.09372383300024,166.34814037500018,35,5,,,,,,,,,Object,,,,
choice,option,166.35753833300032,167.3838974160003,35,5,,,,,,,,,Object,,,,
choice,choice,167.38401466599998,174.62765662500033,35,5,,,2,1,6.234179125000082,,,,Object,,,,
choice,fixation,174.62782966600025,175.38290433300017,36,5,,,,,,,,,Pattern,,,,
choice,option,175.39251508300003,176.42087795800035,36,5,,,,,,,,,Pattern,,,,
choice,choice,176.42098779100024,183.38878729099997,36,5,,,2,0,5.958317999999963,,,,Pattern,,,,
choice,fixation,183.38891650000005,184.39374883300025,37,5,,,,,,,,,Small,,,,
choice,option,184.40274524999995,185.428885541,37,5,,,,,,,,,Small,,,,
choice,choice,185.42898829100022,192.1435539580002,37,5,,,1,1,5.705073791999894,,,,Small,,,,
choice,fixation,192.14367458300012,192.64886704100036,38,5,,,,,,,,,Solid,,,,
choice,option,192.65904712500014,193.6852355410001,38,5,,,,,,,,,Solid,,,,
choice,choice,193.68534504100035,198.1491191250002,38,5,,,2,1,3.4536511669998617,,,,Solid,,,,
choice,fixation,198.14930175000018,198.65425162500014,39,5,,,,,,,,,Large,,,,
choice,option,198.66283704100033,199.68885870800023,39,5,,,,,,,,,Large,,,,
choice,choice,199.68897050000032,202.88339958300003,39,5,,,2,1,2.1850147089999155,,,,Large,,,,
choice,fixation,202.88359779100028,204.38857995800026,40,5,,,,,,,,,Sea,,,,
choice,option,204.39705525,205.42261858300026,40,5,,,,,,,,,Sea,,,,
choice,choice,205.42272458300022,211.4117892080003,40,5,,,2,1,4.979423082999801,,,,Sea,,,,
memory,free_recall,220.63872304100005,235.49429325000028,24,5,,,,,,,,,,,,,
memory,value_recall,239.85623291599995,242.7418764160002,25,5,Object_Sea_Solid_Large,,,,2.8815782080000645,,,,,-3,,,
memory,value_recall,244.28810220800005,246.74316791599995,26,5,Animal_Land_Pattern_Small,,,,2.450959416999922,,,,,-1,,,
memory,value_recall,248.53811625000026,251.64740070800008,27,5,Animal_Sea_Pattern_Small,,,,3.1053387090000797,,,,,-6,,,
memory,value_recall,252.69425550000005,254.9911150830003,28,5,Object_Sea_Solid_Small,,,,2.293167125000309,,,,,8,,,
memory,value_recall,256.78708537500006,258.30356120800025,29,5,Animal_Land_Pattern_Large,,,,1.5123147500003142,,,,,9,,,
memory,value_recall,259.8500582500001,262.4616583330003,30,5,Object_Land_Solid_Large,,,,2.607556082999963,,,,,-7,,,
memory,spatial_recall,264.9712100410002,267.88263020800014,30,5,Animal_Land_Pattern_Small,,,1,2.9071866670001327,,,,,,"[0, -380]","[0, -380]",
memory,spatial_recall,268.9382017500002,270.92313008300016,30,5,Object_Land_Solid_Large,,,1,1.9825183750003816,,,,,,"[329, -190]","[329, -190]",
memory,spatial_recall,272.9812025000001,275.07190445800006,30,5,Object_Sea_Solid_Large,,,1,2.0849987920000785,,,,,,"[-329, -190]","[-329, -190]",
memory,spatial_recall,276.62344029099995,278.6382691250001,30,5,Object_Sea_Solid_Small,,,1,2.0110210000002553,,,,,,"[329, 189]","[329, 189]",
memory,spatial_recall,280.19327216600004,282.2324631250003,30,5,Animal_Land_Pattern_Large,,,1,2.0353413749999163,,,,,,"[0, 380]","[0, 380]",
memory,spatial_recall,283.53856799999994,284.883040916,30,5,Animal_Sea_Pattern_Small,,,1,1.3405726659998436,,,,,,"[-329, 190]","[-329, 190]",
encoding,fixation,2.9759018750000905,4.235688166999807,31,6,Object_Land_Pattern_Large,1,,,,,,,,,,,
encoding,image,4.235806249999769,5.249667582999791,31,6,Object_Land_Pattern_Large,1,,,,,,,,,,,
encoding,value,5.2497962920001555,11.262748083000133,31,6,Object_Land_Pattern_Large,1,,,,,,,,,,,
encoding,attention,11.262866375000158,14.282093249999889,31,6,Object_Land_Pattern_Large,1,+1,1,0.6043407919996753,,,,,,,,
encoding,fixation,14.282255332999739,14.787223332999929,32,6,Animal_Sea_Pattern_Large,-8,,,,,,,,,,,
encoding,image,14.787336500000038,15.79971816699981,32,6,Animal_Sea_Pattern_Large,-8,,,,,,,,,,,
encoding,value,15.799826124999981,21.81106820800005,32,6,Animal_Sea_Pattern_Large,-8,,,,,,,,,,,
encoding,attention,21.811194458000045,24.830600374999904,32,6,Animal_Sea_Pattern_Large,-8,-8,1,0.585934332999841,,,,,,,,
encoding,fixation,24.83075879199987,25.585816416999933,33,6,Object_Land_Pattern_Small,1,,,,,,,,,,,
encoding,image,25.585924292000072,26.59699374999991,33,6,Object_Land_Pattern_Small,1,,,,,,,,,,,
encoding,value,26.597118666999904,32.60883954200017,33,6,Object_Land_Pattern_Small,1,,,,,,,,,,,
encoding,attention,32.60896437500014,35.62607141699982,33,6,Object_Land_Pattern_Small,1,+1,1,0.8511446669999714,,,,,,,,
encoding,fixation,35.626225666999744,36.13373170800014,34,6,Object_Land_Solid_Small,-5,,,,,,,,,,,
encoding,image,36.133840916999816,37.14512633300001,34,6,Object_Land_Solid_Small,-5,,,,,,,,,,,
encoding,value,37.14525400000002,43.157325958,34,6,Object_Land_Solid_Small,-5,,,,,,,,,,,
encoding,attention,43.15744704200006,46.17462641700013,34,6,Object_Land_Solid_Small,-5,-5,1,0.47879191699985313,,,,,,,,
encoding,fixation,46.17478195800004,47.679661958,35,6,Animal_Sea_Solid_Large,1,,,,,,,,,,,
encoding,image,47.67978087499978,48.69102287499982,35,6,Animal_Sea_Solid_Large,1,,,,,,,,,,,
encoding,value,48.6911714580001,54.70280825000009,35,6,Animal_Sea_Solid_Large,1,,,,,,,,,,,
encoding,attention,54.70292458299991,57.72313866700006,35,6,Animal_Sea_Solid_Large,1,+1,1,0.6017170830000396,,,,,,,,
encoding,fixation,57.723380542000086,58.97836004200008,36,6,Animal_Sea_Solid_Small,2,,,,,,,,,,,
encoding,image,58.97849433300007,59.989311499999985,36,6,Animal_Sea_Solid_Small,2,,,,,,,,,,,
encoding,value,59.989426125000136,66.00049524999986,36,6,Animal_Sea_Solid_Small,2,,,,,,,,,,,
encoding,attention,66.00061187499978,69.02267766700015,36,6,Animal_Sea_Solid_Small,2,+2,1,1.2717115830000694,,,,,,,,
n-back,,,,151,6,,,,1,None,V,False,None,,,,,
n-back,,,,152,6,,,,0,None,B,True,None,,,,,
n-back,,,,153,6,,,,1,0.3604262500002733,V,True,1,,,,,
n-back,,,,154,6,,,,1,None,V,False,None,,,,,
n-back,,,,155,6,,,,0,None,V,True,None,,,,,
n-back,,,,156,6,,,,1,None,N,False,None,,,,,
n-back,,,,157,6,,,,1,0.34459229200001573,V,True,1,,,,,
n-back,,,,158,6,,,,1,None,Z,False,None,,,,,
n-back,,,,159,6,,,,0,None,V,True,None,,,,,
n-back,,,,160,6,,,,1,None,N,False,None,,,,,
n-back,,,,161,6,,,,1,None,C,False,None,,,,,
n-back,,,,162,6,,,,1,None,B,False,None,,,,,
n-back,,,,163,6,,,,1,None,B,False,None,,,,,
n-back,,,,164,6,,,,1,None,X,False,None,,,,,
n-back,,,,165,6,,,,1,None,V,False,None,,,,,
n-back,,,,166,6,,,,1,0.40480258399975355,X,True,1,,,,,
n-back,,,,167,6,,,,1,None,B,False,None,,,,,
n-back,,,,168,6,,,,1,None,B,False,None,,,,,
n-back,,,,169,6,,,,1,None,Z,False,None,,,,,
n-back,,,,170,6,,,,1,0.37649641600000905,B,True,1,,,,,
n-back,,,,171,6,,,,1,None,B,False,None,,,,,
n-back,,,,172,6,,,,1,None,Z,False,None,,,,,
n-back,,,,173,6,,,,1,None,X,False,None,,,,,
n-back,,,,174,6,,,,1,None,B,False,None,,,,,
n-back,,,,175,6,,,,1,0.3296303339998303,X,True,1,,,,,
n-back,,,,176,6,,,,0,None,B,True,None,,,,,
n-back,,,,177,6,,,,1,None,V,False,None,,,,,
n-back,,,,178,6,,,,1,0.3845293340000353,B,True,1,,,,,
n-back,,,,179,6,,,,1,None,C,False,None,,,,,
n-back,,,,180,6,,,,1,None,N,False,None,,,,,
choice,fixation,135.08140162500013,135.8361215,41,6,,,,,,,,,Land,,,,
choice,option,135.84436849999975,136.87016612499974,41,6,,,,,,,,,Land,,,,
choice,choice,136.8703651249998,145.43936166699996,41,6,,,2,1,7.559010957999817,,,,Land,,,,
choice,fixation,145.439504167,146.19475708299979,42,6,,,,,,,,,Sea,,,,
choice,option,146.20343033300014,147.2297450000001,42,6,,,,,,,,,Sea,,,,
choice,choice,147.22985366700004,150.1566577919998,42,6,,,2,1,1.917241125000146,,,,Sea,,,,
choice,fixation,150.15686233299994,151.41187983300006,43,6,,,,,,,,,Small,,,,
choice,option,151.4211217500001,152.44702970800017,43,6,,,,,,,,,Small,,,,
choice,choice,152.4471490420001,156.32025662500018,43,6,,,1,0,2.8631457080000473,,,,Small,,,,
choice,fixation,156.32038662500008,156.82519895799987,44,6,,,,,,,,,Animal,,,,
choice,option,156.8345683749999,157.86120029199992,44,6,,,,,,,,,Animal,,,,
choice,choice,157.86131895800008,160.38447687500002,44,6,,,2,1,1.5099063330003446,,,,Animal,,,,
choice,fixation,160.38462783299974,161.63959758300007,45,6,,,,,,,,,Pattern,,,,
choice,option,161.6487273749999,162.6748618749998,45,6,,,,,,,,,Pattern,,,,
choice,choice,162.6750622919999,163.94952687500017,45,6,,,2,1,0.2636640000000625,,,,Pattern,,,,
choice,fixation,163.949659375,165.20468604200005,46,6,,,,,,,,,Object,,,,
choice,option,165.2140066249999,166.24001712500012,46,6,,,,,,,,,Object,,,,
choice,choice,166.2401910829999,169.61265016700008,46,6,,,1,0,2.3624921250002444,,,,Object,,,,
choice,fixation,169.61282641700018,170.86787908299993,47,6,,,,,,,,,Large,,,,
choice,option,170.8770385419998,171.9036985419998,47,6,,,,,,,,,Large,,,,
choice,choice,171.90390024999988,173.54215866699997,47,6,,,2,1,0.6288983330000519,,,,Large,,,,
choice,fixation,173.54229154199993,174.29729908299987,48,6,,,,,,,,,Solid,,,,
choice,option,174.30716366700017,175.33316341699992,48,6,,,,,,,,,Solid,,,,
choice,choice,175.33328029199993,182.38105825000002,48,6,,,1,0,6.037921958999959,,,,Solid,,,,
memory,free_recall,196.11410920800017,211.72879508300002,30,6,,,,,,,,,,,,,
memory,value_recall,215.5536474579999,217.4839784169999,31,6,Object_Land_Pattern_Large,,,,1.926268207999783,,,,,1,,,
memory,value_recall,219.52780362500016,221.8238436669999,32,6,Object_Land_Pattern_Small,,,,2.291142624999793,,,,,1,,,
memory,value_recall,222.86875962500017,225.7035410829999,33,6,Object_Land_Solid_Small,,,,2.8322528749999947,,,,,-5,,,
memory,value_recall,226.99937766699986,229.58459308300007,34,6,Animal_Sea_Solid_Large,,,,2.581161042000076,,,,,1,,,
memory,value_recall,231.3841622079999,232.49869854200006,35,6,Animal_Sea_Solid_Small,,,,1.1092090000001917,,,,,2,,,
memory,value_recall,234.29417791700007,235.7146510829998,36,6,Animal_Sea_Pattern_Large,,,,1.4152888339999663,,,,,-8,,,
memory,spatial_recall,239.59942,242.56181316699985,36,6,Animal_Sea_Solid_Small,,,1,2.958246874999986,,,,,,"[0, -380]","[0, -380]",
memory,spatial_recall,243.8721717919998,244.9972814580001,36,6,Animal_Sea_Solid_Large,,,1,1.1207022500002495,,,,,,"[329, -190]","[329, -190]",
memory,spatial_recall,246.04842224999993,247.30270229200005,36,6,Object_Land_Pattern_Small,,,1,1.2517512919998808,,,,,,"[329, 189]","[329, 189]",
memory,spatial_recall,248.859665167,250.61807316700015,36,6,Animal_Sea_Pattern_Large,,,1,1.751769707999756,,,,,,"[0, 380]","[0, 380]",
memory,spatial_recall,252.67802008299986,254.03100329200015,36,6,Object_Land_Pattern_Large,,,1,1.3490039170001182,,,,,,"[-329, 190]","[-329, 190]",
memory,spatial_recall,255.83633920800003,258.448154917,36,6,Object_Land_Solid_Small,,,1,2.6078567499998826,,,,,,"[-329, -190]","[-329, -190]",
encoding,fixation,2.9382311249996746,4.444361249999929,37,7,Animal_Sea_Solid_Large,7,,,,,,,,,,,
encoding,image,4.4444958340000085,5.456654458999765,37,7,Animal_Sea_Solid_Large,7,,,,,,,,,,,
encoding,value,5.456771791999927,11.47210591699968,37,7,Animal_Sea_Solid_Large,7,,,,,,,,,,,
encoding,attention,11.472230791999664,14.492264292000073,37,7,Animal_Sea_Solid_Large,7,+7,1,0.7999580829996376,,,,,,,,
encoding,fixation,14.492424416999711,15.99746574999972,38,7,Object_Sea_Solid_Large,-7,,,,,,,,,,,
encoding,image,15.997584666999956,17.00917579199995,38,7,Object_Sea_Solid_Large,-7,,,,,,,,,,,
encoding,value,17.009288333999848,23.021868124999855,38,7,Object_Sea_Solid_Large,-7,,,,,,,,,,,
encoding,attention,23.021982834000028,26.04265945899988,38,7,Object_Sea_Solid_Large,-7,-7,1,0.8399874169999748,,,,,,,,
encoding,fixation,26.042883042000085,27.048377416999756,39,7,Object_Land_Pattern_Large,6,,,,,,,,,,,
encoding,image,27.048488083999928,28.059393916999852,39,7,Object_Land_Pattern_Large,6,,,,,,,,,,,
encoding,value,28.059513374999824,34.07222199999978,39,7,Object_Land_Pattern_Large,6,,,,,,,,,,,
encoding,attention,34.07243641700006,37.092827874999784,39,7,Object_Land_Pattern_Large,6,+6,1,1.1911542500001815,,,,,,,,
encoding,fixation,37.092974458999834,38.34799500000008,40,7,Object_Sea_Pattern_Small,6,,,,,,,,,,,
encoding,image,38.348154083999816,39.35910912500003,40,7,Object_Sea_Pattern_Small,6,,,,,,,,,,,
encoding,value,39.35921866699982,45.370567209,40,7,Object_Sea_Pattern_Small,6,,,,,,,,,,,
encoding,attention,45.37067625000009,48.39005454199969,40,7,Object_Sea_Pattern_Small,6,+6,1,1.0810989999999947,,,,,,,,
encoding,fixation,48.39020704199993,49.14529462499968,41,7,Animal_Land_Pattern_Small,-3,,,,,,,,,,,
encoding,image,49.145413041999745,50.15604620899967,41,7,Animal_Land_Pattern_Small,-3,,,,,,,,,,,
encoding,value,50.15615395899977,56.167646708999655,41,7,Animal_Land_Pattern_Small,-3,,,,,,,,,,,
encoding,attention,56.167769208999744,59.186097333999896,41,7,Animal_Land_Pattern_Small,-3,-3,1,1.001294666999911,,,,,,,,
encoding,fixation,59.18632370899968,59.69138299999986,42,7,Animal_Land_Solid_Small,-2,,,,,,,,,,,
encoding,image,59.691487416999735,60.70339274999969,42,7,Animal_Land_Solid_Small,-2,,,,,,,,,,,
encoding,value,60.70352449999973,66.71513454199976,42,7,Animal_Land_Solid_Small,-2,,,,,,,,,,,
encoding,attention,66.71525491700004,69.7330360420001,42,7,Animal_Land_Solid_Small,-2,-2,1,2.215430125000239,,,,,,,,
n-back,,,,181,7,,,,1,None,X,False,None,,,,,
n-back,,,,182,7,,,,1,None,C,False,None,,,,,
n-back,,,,183,7,,,,1,0.5355304160002561,X,True,1,,,,,
n-back,,,,184,7,,,,1,None,Z,False,None,,,,,
n-back,,,,185,7,,,,1,None,C,False,None,,,,,
n-back,,,,186,7,,,,1,None,B,False,None,,,,,
n-back,,,,187,7,,,,1,None,N,False,None,,,,,
n-back,,,,188,7,,,,1,0.8819180840000627,B,True,1,,,,,
n-back,,,,189,7,,,,0,None,N,True,None,,,,,
n-back,,,,190,7,,,,0,None,B,True,None,,,,,
n-back,,,,191,7,,,,1,None,Z,False,None,,,,,
n-back,,,,192,7,,,,1,None,V,False,None,,,,,
n-back,,,,193,7,,,,1,None,X,False,None,,,,,
n-back,,,,194,7,,,,1,None,X,False,None,,,,,
n-back,,,,195,7,,,,1,None,C,False,None,,,,,
n-back,,,,196,7,,,,1,0.35787462499956746,X,True,1,,,,,
n-back,,,,197,7,,,,0,None,C,True,None,,,,,
n-back,,,,198,7,,,,1,None,V,False,None,,,,,
n-back,,,,199,7,,,,1,0.3873183749992677,C,True,1,,,,,
n-back,,,,200,7,,,,1,None,C,False,None,,,,,
n-back,,,,201,7,,,,0,None,C,True,None,,,,,
n-back,,,,202,7,,,,1,None,N,False,None,,,,,
n-back,,,,203,7,,,,1,0.7215224999999919,C,True,1,,,,,
n-back,,,,204,7,,,,1,None,Z,False,None,,,,,
n-back,,,,205,7,,,,1,None,X,False,None,,,,,
n-back,,,,206,7,,,,1,None,V,False,None,,,,,
n-back,,,,207,7,,,,1,None,B,False,None,,,,,
n-back,,,,208,7,,,,0,0.9282048750001195,X,False,1,,,,,
n-back,,,,209,7,,,,1,None,C,False,None,,,,,
n-back,,,,210,7,,,,0,None,X,True,None,,,,,
choice,fixation,145.79131420899967,146.7949444589999,49,7,,,,,,,,,Small,,,,
choice,option,146.8040349590001,147.8307129169998,49,7,,,,,,,,,Small,,,,
choice,choice,147.83082183399983,149.72565537499986,49,7,,,1,1,0.8849248329997863,,,,Small,,,,
choice,fixation,149.72578762500007,150.73069833399995,50,7,,,,,,,,,Solid,,,,
choice,option,150.74020945899974,151.7660102499999,50,7,,,,,,,,,Solid,,,,
choice,choice,151.76620987499973,153.14330341699997,50,7,,,1,0,0.36727774999963003,,,,Solid,,,,
choice,fixation,153.14343525000004,154.148449625,51,7,,,,,,,,,Large,,,,
choice,option,154.157382417,155.18442187499977,51,7,,,,,,,,,Large,,,,
choice,choice,155.18452962499987,156.348096875,51,7,,,1,1,0.1538596669997787,,,,Large,,,,
choice,fixation,156.3482211669998,157.60332766700003,52,7,,,,,,,,,Animal,,,,
choice,option,157.61385345899998,158.64065974999994,52,7,,,,,,,,,Animal,,,,
choice,choice,158.64076945899978,162.13249204199974,52,7,,,1,1,2.4816576249995705,,,,Animal,,,,
choice,fixation,162.13264358399965,163.63758604199984,53,7,,,,,,,,,Pattern,,,,
choice,option,163.64687699999968,164.67313704199978,53,7,,,,,,,,,Pattern,,,,
choice,choice,164.67324387500003,165.98712508399967,53,7,,,1,1,0.3026487079996514,,,,Pattern,,,,
choice,fixation,165.98725349999995,167.4921933339997,54,7,,,,,,,,,Object,,,,
choice,option,167.5015135839999,168.52819174999968,54,7,,,,,,,,,Object,,,,
choice,choice,168.52830425000002,169.9573033749998,54,7,,,2,0,0.41940608300046733,,,,Object,,,,
choice,fixation,169.95749312499993,170.4623342089999,55,7,,,,,,,,,Land,,,,
choice,option,170.47125133400004,171.49755308399972,55,7,,,,,,,,,Land,,,,
choice,choice,171.49768099999983,182.49155012499978,55,7,,,2,0,9.98290100000031,,,,Land,,,,
choice,fixation,182.49167495899974,183.49664170899996,56,7,,,,,,,,,Sea,,,,
choice,option,183.50566962499988,184.53224366699988,56,7,,,,,,,,,Sea,,,,
choice,choice,184.53237770899977,188.15677154199966,56,7,,,1,1,2.614725417000045,,,,Sea,,,,
memory,free_recall,196.22283608399994,215.26271612499977,36,7,,,,,,,,,,,,,
memory,value_recall,218.9619929999999,221.60580549999986,37,7,Object_Sea_Pattern_Small,,,,2.6394827500002975,,,,,6,,,
memory,value_recall,223.65119983399973,227.9423889589998,38,7,Object_Land_Pattern_Large,,,,4.287164499999562,,,,,6,,,
memory,value_recall,229.7394603339999,231.50948208399996,39,7,Animal_Land_Solid_Small,,,,1.7658782910002628,,,,,-2,,,
memory,value_recall,233.05493454199996,235.44536912500007,40,7,Animal_Sea_Solid_Large,,,,2.3856867919998876,,,,,7,,,
memory,value_recall,236.74123899999995,238.5193869589998,41,7,Object_Sea_Solid_Large,,,,1.7740689170000223,,,,,-7,,,
memory,value_recall,240.56528962499988,243.70289641699992,42,7,Animal_Land_Pattern_Small,,,,3.1329793750001045,,,,,-3,,,
memory,spatial_recall,247.36562983399972,248.50489679199973,42,7,Animal_Sea_Solid_Large,,,1,1.1352932079998936,,,,,,"[329, -190]","[329, -190]",
memory,spatial_recall,250.05333437499985,251.38196654199965,42,7,Animal_Land_Solid_Small,,,1,1.3245696669996505,,,,,,"[329, 189]","[329, 189]",
memory,spatial_recall,253.43663816699973,254.61574916699965,42,7,Object_Sea_Pattern_Small,,,1,1.1751651670001593,,,,,,"[0, 380]","[0, 380]",
memory,spatial_recall,256.424721417,259.04929916699984,42,7,Object_Sea_Solid_Large,,,1,2.62044191699988,,,,,,"[-329, -190]","[-329, -190]",
memory,spatial_recall,260.35418066700004,261.52310833399997,42,7,Animal_Land_Pattern_Small,,,1,1.1650334999999359,,,,,,"[0, -380]","[0, -380]",
memory,spatial_recall,262.82745625000007,265.3884509589998,42,7,Object_Land_Pattern_Large,,,1,2.5571041250000235,,,,,,"[-329, 190]","[-329, 190]",
