phase,event,onset,offset,trial_number,game,image,outcome,choice,correct,rt,letter,match,response,option,true_value,true_position,recalled_position,
encoding,fixation,9.685939457966015,10.203681874962058,1,1,Animal_Land_Pattern_Small,-7,,,,,,,,,,,
encoding,image,10.203802708012518,11.224998374993447,1,1,Animal_Land_Pattern_Small,-7,,,,,,,,,,,
encoding,value,11.225109874969348,17.24205649999203,1,1,Animal_Land_Pattern_Small,-7,,,,,,,,,,,
encoding,attention,17.242267082969192,20.261013332987204,1,1,Animal_Land_Pattern_Small,-7,-7,1,1.3884403340052813,,,,,,,,
encoding,fixation,20.261162500013597,20.76646037498722,2,1,Object_Sea_Pattern_Small,2,,,,,,,,,,,
encoding,image,20.766582374984864,21.7786267909687,2,1,Object_Sea_Pattern_Small,2,,,,,,,,,,,
encoding,value,21.778740208013915,27.79142858297564,2,1,Object_Sea_Pattern_Small,2,,,,,,,,,,,
encoding,attention,27.79157420800766,30.81186787498882,2,1,Object_Sea_Pattern_Small,2,+2,1,2.188733624992892,,,,,,,,
encoding,fixation,30.812026916013565,31.56697520799935,3,1,Animal_Sea_Pattern_Large,-1,,,,,,,,,,,
encoding,image,31.56708858301863,32.57919741596561,3,1,Animal_Sea_Pattern_Large,-1,,,,,,,,,,,
encoding,value,32.579329999978654,38.59081258298829,3,1,Animal_Sea_Pattern_Large,-1,,,,,,,,,,,
encoding,attention,38.59093866596231,41.642398457974195,3,1,Animal_Sea_Pattern_Large,-1,-1,1,1.2537477079895325,,,,,,,,
encoding,fixation,41.64255345799029,43.147558374970686,4,1,Object_Land_Solid_Small,4,,,,,,,,,,,
encoding,image,43.14767895801924,44.159328415989876,4,1,Object_Land_Solid_Small,4,,,,,,,,,,,
encoding,value,44.159464374999516,50.17133704101434,4,1,Object_Land_Solid_Small,4,,,,,,,,,,,
encoding,attention,50.171482041012496,53.18885737500386,4,1,Object_Land_Solid_Small,4,+4,1,1.1303870839765295,,,,,,,,
encoding,fixation,53.18900420801947,54.69412666599965,5,1,Animal_Land_Solid_Large,9,,,,,,,,,,,
encoding,image,54.69427724997513,55.70567533298163,5,1,Animal_Land_Solid_Large,9,,,,,,,,,,,
encoding,value,55.705821125011425,61.71799783298047,5,1,Animal_Land_Solid_Large,9,,,,,,,,,,,
encoding,attention,61.718186957994476,64.73598391597625,5,1,Animal_Land_Solid_Large,9,+9,1,1.5757672089966945,,,,,,,,
encoding,fixation,64.73617524997098,65.24163641600171,6,1,Object_Sea_Solid_Large,-9,,,,,,,,,,,
encoding,image,65.24173712497577,66.25293462496484,6,1,Object_Sea_Solid_Large,-9,,,,,,,,,,,
encoding,value,66.25312174996361,72.26490520796506,6,1,Object_Sea_Solid_Large,-9,,,,,,,,,,,
encoding,attention,72.26506070798496,75.28517591598211,6,1,Object_Sea_Solid_Large,-9,-9,1,2.2977542500011623,,,,,,,,
n-back,,,,1,1,,,,1,None,V,False,None,,,,,
n-back,,,,2,1,,,,0,None,X,True,None,,,,,
n-back,,,,3,1,,,,1,None,C,False,None,,,,,
n-back,,,,4,1,,,,1,0.8262119999853894,X,True,1,,,,,
n-back,,,,5,1,,,,1,None,V,False,None,,,,,
n-back,,,,6,1,,,,1,None,C,False,None,,,,,
n-back,,,,7,1,,,,1,None,B,False,None,,,,,
n-back,,,,8,1,,,,1,None,V,False,None,,,,,
n-back,,,,9,1,,,,1,None,N,False,None,,,,,
n-back,,,,10,1,,,,1,None,C,False,None,,,,,
n-back,,,,11,1,,,,1,None,C,False,None,,,,,
n-back,,,,12,1,,,,1,None,X,False,None,,,,,
n-back,,,,13,1,,,,1,0.9876379169872962,C,True,1,,,,,
n-back,,,,14,1,,,,0,None,X,True,None,,,,,
n-back,,,,15,1,,,,1,1.0092374589876272,C,True,1,,,,,
n-back,,,,16,1,,,,1,None,N,False,None,,,,,
n-back,,,,17,1,,,,1,0.5704460829729214,C,True,1,,,,,
n-back,,,,18,1,,,,1,None,V,False,None,,,,,
n-back,,,,19,1,,,,1,None,V,False,None,,,,,
n-back,,,,20,1,,,,1,0.7846733329934068,V,True,1,,,,,
n-back,,,,21,1,,,,1,None,N,False,None,,,,,
n-back,,,,22,1,,,,1,None,B,False,None,,,,,
n-back,,,,23,1,,,,1,0.5445208750315942,N,True,1,,,,,
n-back,,,,24,1,,,,1,None,N,False,None,,,,,
n-back,,,,25,1,,,,1,None,C,False,None,,,,,
n-back,,,,26,1,,,,1,None,V,False,None,,,,,
n-back,,,,27,1,,,,1,0.4960874579846859,C,True,1,,,,,
n-back,,,,28,1,,,,1,None,X,False,None,,,,,
n-back,,,,29,1,,,,1,None,N,False,None,,,,,
n-back,,,,30,1,,,,0,None,X,True,None,,,,,
choice,fixation,148.93132666597376,150.43728783301776,1,1,,,,,,,,,Animal,,,,
choice,option,150.44705274997978,151.6719642910175,1,1,,,,,,,,,Animal,,,,
choice,choice,151.67211737501202,157.04226904100506,1,1,,,1,1,4.358065792010166,,,,Animal,,,,
choice,fixation,157.04240995796863,158.0476829999825,2,1,,,,,,,,,Sea,,,,
choice,option,158.05644820799353,159.0821119999746,2,1,,,,,,,,,Sea,,,,
choice,choice,159.0822177079972,176.76318808301585,2,1,,,2,1,16.668391500017606,,,,Sea,,,,
choice,fixation,176.76333441596944,177.518305125006,3,1,,,,,,,,,Object,,,,
choice,option,177.5284727080143,178.55465637496673,3,1,,,,,,,,,Object,,,,
choice,choice,178.554768291011,186.39343641599407,3,1,,,2,1,6.828749959007837,,,,Object,,,,
choice,fixation,186.39360204100376,187.64881749998312,4,1,,,,,,,,,Land,,,,
choice,option,187.65840762498556,188.68558770796517,4,1,,,,,,,,,Land,,,,
choice,choice,188.6857004580088,194.54313270800048,4,1,,,1,1,4.847405834007077,,,,Land,,,,
choice,fixation,194.54327320796438,196.04828004096635,5,1,,,,,,,,,Small,,,,
choice,option,196.05682079098187,197.0835613749805,5,1,,,,,,,,,Small,,,,
choice,choice,197.0836712080054,204.48216083296575,5,1,,,1,0,6.389265333011281,,,,Small,,,,
choice,fixation,204.48228370799916,205.48732533300063,6,1,,,,,,,,,Large,,,,
choice,option,205.49641099997098,206.5231381250196,6,1,,,,,,,,,Large,,,,
choice,choice,206.52326379099395,210.48743824998382,6,1,,,2,1,2.953910083975643,,,,Large,,,,
choice,fixation,210.48762095801067,211.49261212500278,7,1,,,,,,,,,Pattern,,,,
choice,option,211.50189137499547,212.5296494999784,7,1,,,,,,,,,Pattern,,,,
choice,choice,212.52975770796183,221.4835344160092,7,1,,,1,0,7.943858749989886,,,,Pattern,,,,
choice,fixation,221.48366487497697,222.2387531659915,8,1,,,,,,,,,Solid,,,,
choice,option,222.2477075830102,223.2746989579755,8,1,,,,,,,,,Solid,,,,
choice,choice,223.2748119579628,233.64027537498623,8,1,,,2,0,9.355170166993048,,,,Solid,,,,
memory,free_recall,278.57760566601064,295.62929433298996,0,1,,,,,,,,,,,,,
memory,value_recall,336.496176540968,345.6618267080048,1,1,Object_Sea_Solid_Large,,,,9.161635208991356,,,,,-9,,,
memory,value_recall,347.20936012500897,352.3854377079988,2,1,Object_Sea_Pattern_Small,,,,5.171923250018153,,,,,2,,,
memory,value_recall,353.6813332500169,355.92266191600356,3,1,Animal_Land_Solid_Large,,,,2.237237791006919,,,,,9,,,
memory,value_recall,357.2219039159827,359.4273631660035,4,1,Object_Land_Solid_Small,,,,2.19973975000903,,,,,4,,,
memory,value_recall,361.22374158300227,363.04383329098346,5,1,Animal_Sea_Pattern_Large,,,,1.8159607499837875,,,,,-1,,,
memory,value_recall,364.0896773749846,369.86143637500936,6,1,Animal_Land_Pattern_Small,,,,5.767747541016433,,,,,-7,,,
memory,spatial_recall,386.18197283300105,394.93962041597115,6,1,Animal_Land_Pattern_Small,,,1,8.753616540983785,,,,,,"[0, -380]","[0, -380]",
memory,spatial_recall,396.2499168330105,400.14383199997246,6,1,Animal_Sea_Pattern_Large,,,1,3.8898114999756217,,,,,,"[329, 189]","[329, 189]",
memory,spatial_recall,401.2030055409996,407.73724466597196,6,1,Object_Land_Solid_Small,,,1,6.530154665990267,,,,,,"[0, 380]","[0, 380]",
memory,spatial_recall,409.04486658301903,411.55410095799016,6,1,Object_Sea_Pattern_Small,,,1,2.5053744580363855,,,,,,"[-329, 190]","[-329, 190]",
memory,spatial_recall,412.61482912499923,417.2537057909649,6,1,Animal_Land_Solid_Large,,,1,4.636527916009072,,,,,,"[-329, -190]","[-329, -190]",
memory,spatial_recall,418.3113481659675,421.1337075830088,6,1,Object_Sea_Solid_Large,,,1,2.8199285420123488,,,,,,"[329, -190]","[329, -190]",
encoding,fixation,7.40285708400188,8.408572499989532,7,2,Animal_Sea_Solid_Large,-4,,,,,,,,,,,
encoding,image,8.408699708990753,9.420578958990518,7,2,Animal_Sea_Solid_Large,-4,,,,,,,,,,,
encoding,value,9.420712249993812,15.434198541974183,7,2,Animal_Sea_Solid_Large,-4,,,,,,,,,,,
encoding,attention,15.434348166978452,18.45379908400355,7,2,Animal_Sea_Solid_Large,-4,-4,1,1.3010387499816716,,,,,,,,
encoding,fixation,18.453949792019557,19.95891450002091,8,2,Animal_Sea_Pattern_Small,-1,,,,,,,,,,,
encoding,image,19.959035750012845,20.97035841702018,8,2,Animal_Sea_Pattern_Small,-1,,,,,,,,,,,
encoding,value,20.970488458988257,26.982933874998707,8,2,Animal_Sea_Pattern_Small,-1,,,,,,,,,,,
encoding,attention,26.98303337499965,30.004465458972845,8,2,Animal_Sea_Pattern_Small,-1,-1,1,1.3884116249973886,,,,,,,,
encoding,fixation,30.004603834007867,30.509606542007532,9,2,Object_Sea_Solid_Small,7,,,,,,,,,,,
encoding,image,30.509807874972466,31.519901458988898,9,2,Object_Sea_Solid_Small,7,,,,,,,,,,,
encoding,value,31.520013709028717,37.53206975001376,9,2,Object_Sea_Solid_Small,7,,,,,,,,,,,
encoding,attention,37.532188416982535,40.5546666670125,9,2,Object_Sea_Solid_Small,7,+7,1,0.7742277499637567,,,,,,,,
encoding,fixation,40.55484537500888,42.06007591699017,10,2,Object_Land_Pattern_Small,-8,,,,,,,,,,,
encoding,image,42.06017895898549,43.07115670898929,10,2,Object_Land_Pattern_Small,-8,,,,,,,,,,,
encoding,value,43.07126020902069,49.08404145902023,10,2,Object_Land_Pattern_Small,-8,,,,,,,,,,,
encoding,attention,49.08412395900814,52.104012834024616,10,2,Object_Land_Pattern_Small,-8,-8,1,0.8986221659579314,,,,,,,,
encoding,fixation,52.10415570897749,52.85921695898287,11,2,Animal_Land_Pattern_Large,8,,,,,,,,,,,
encoding,image,52.85932237497764,53.869810958974995,11,2,Animal_Land_Pattern_Large,8,,,,,,,,,,,
encoding,value,53.86991820897674,59.881000166991726,11,2,Animal_Land_Pattern_Large,8,,,,,,,,,,,
encoding,attention,59.881112208997365,62.898894333979115,11,2,Animal_Land_Pattern_Large,8,+8,1,1.520361041999422,,,,,,,,
encoding,fixation,62.899033625028096,63.40395420900313,12,2,Object_Land_Solid_Large,6,,,,,,,,,,,
encoding,image,63.404065541981254,64.41421587497462,12,2,Object_Land_Solid_Large,6,,,,,,,,,,,
encoding,value,64.41440720902756,70.42540620901855,12,2,Object_Land_Solid_Large,6,,,,,,,,,,,
encoding,attention,70.42553379200399,73.44379216700327,12,2,Object_Land_Solid_Large,6,+6,1,0.9008632089826278,,,,,,,,
n-back,,,,31,2,,,,1,None,Z,False,None,,,,,
n-back,,,,32,2,,,,0,None,X,True,None,,,,,
n-back,,,,33,2,,,,1,None,N,False,None,,,,,
n-back,,,,34,2,,,,1,0.508665583038237,X,True,1,,,,,
n-back,,,,35,2,,,,1,None,B,False,None,,,,,
n-back,,,,36,2,,,,1,0.46239937498467043,X,True,1,,,,,
n-back,,,,37,2,,,,1,0.923788916959893,B,True,1,,,,,
n-back,,,,38,2,,,,1,1.075129917007871,X,True,1,,,,,
n-back,,,,39,2,,,,1,None,X,False,None,,,,,
n-back,,,,40,2,,,,1,None,V,False,None,,,,,
n-back,,,,41,2,,,,1,None,Z,False,None,,,,,
n-back,,,,42,2,,,,1,None,C,False,None,,,,,
n-back,,,,43,2,,,,1,None,V,False,None,,,,,
n-back,,,,44,2,,,,1,None,V,False,None,,,,,
n-back,,,,45,2,,,,1,None,C,False,None,,,,,
n-back,,,,46,2,,,,1,0.8412346660043113,V,True,1,,,,,
n-back,,,,47,2,,,,0,0.9642330409842543,V,False,1,,,,,
n-back,,,,48,2,,,,0,None,V,True,None,,,,,
n-back,,,,49,2,,,,1,None,C,False,None,,,,,
n-back,,,,50,2,,,,1,0.6893145419890061,V,True,1,,,,,
n-back,,,,51,2,,,,1,None,Z,False,None,,,,,
n-back,,,,52,2,,,,1,0.45128529105568305,V,True,1,,,,,
n-back,,,,53,2,,,,1,None,B,False,None,,,,,
n-back,,,,54,2,,,,1,None,N,False,None,,,,,
n-back,,,,55,2,,,,1,None,N,False,None,,,,,
n-back,,,,56,2,,,,1,None,Z,False,None,,,,,
n-back,,,,57,2,,,,1,None,V,False,None,,,,,
n-back,,,,58,2,,,,1,0.7912570839980617,Z,True,1,,,,,
n-back,,,,59,2,,,,1,None,N,False,None,,,,,
n-back,,,,60,2,,,,1,None,C,False,None,,,,,
choice,fixation,149.30520887498278,150.8087277499726,9,2,,,,,,,,,Small,,,,
choice,option,150.8177849589847,151.85328058397863,9,2,,,,,,,,,Small,,,,
choice,choice,151.853451708972,170.43506354198325,9,2,,,1,0,17.57054537499789,,,,Small,,,,
choice,fixation,170.4351833750261,171.6903077919851,10,2,,,,,,,,,Large,,,,
choice,option,171.69884204200935,172.72635845898185,10,2,,,,,,,,,Large,,,,
choice,choice,172.72651324997423,185.65713516698452,10,2,,,2,0,11.919813334010541,,,,Large,,,,
choice,fixation,185.6572582090157,187.16566745901946,11,2,,,,,,,,,Animal,,,,
choice,option,187.17525154200848,188.2023503750097,11,2,,,,,,,,,Animal,,,,
choice,choice,188.2024613749818,194.0782660000259,11,2,,,1,1,4.866979207959957,,,,Animal,,,,
choice,fixation,194.07839158398565,195.58304083399707,12,2,,,,,,,,,Solid,,,,
choice,option,195.59222333400976,196.6189877089928,12,2,,,,,,,,,Solid,,,,
choice,choice,196.6190984590212,206.2723586250213,12,2,,,1,1,8.643093208025675,,,,Solid,,,,
choice,fixation,206.27248183399206,207.527389416995,13,2,,,,,,,,,Land,,,,
choice,option,207.53574241697788,208.56416041700868,13,2,,,,,,,,,Land,,,,
choice,choice,208.56427350000013,214.57616449997295,13,2,,,1,1,5.002191291016061,,,,Land,,,,
choice,fixation,214.57628708402626,215.58132270898204,14,2,,,,,,,,,Sea,,,,
choice,option,215.5897852500202,216.6174566670088,14,2,,,,,,,,,Sea,,,,
choice,choice,216.61757654201938,232.88237633398967,14,2,,,1,1,15.252263500005938,,,,Sea,,,,
choice,fixation,232.88249824999366,234.13766683399444,15,2,,,,,,,,,Object,,,,
choice,option,234.14748691697605,235.17539220902836,15,2,,,,,,,,,Object,,,,
choice,choice,235.17551508400356,237.82449420902412,15,2,,,1,1,1.639419707993511,,,,Object,,,,
choice,fixation,237.82463208399713,238.33122304198332,16,2,,,,,,,,,Pattern,,,,
choice,option,238.34034095902462,239.36809362500207,16,2,,,,,,,,,Pattern,,,,
choice,choice,239.36820304201683,245.6386965420097,16,2,,,1,0,5.260866458003875,,,,Pattern,,,,
memory,free_recall,275.0142164999852,287.5211870840285,6,2,,,,,,,,,,,,,
memory,value_recall,296.13461595901754,298.50731291697593,7,2,Object_Land_Solid_Large,,,,2.3683511660201475,,,,,6,,,
memory,value_recall,300.55784487497294,302.57957154198084,8,2,Animal_Sea_Pattern_Small,,,,2.0175815830007195,,,,,-1,,,
memory,value_recall,304.3773731670226,308.043467667012,9,2,Animal_Sea_Solid_Large,,,,3.660945250012446,,,,,-4,,,
memory,value_recall,309.8390412920271,313.68143400002737,10,2,Object_Land_Pattern_Small,,,,3.83833295799559,,,,,-8,,,
memory,value_recall,315.47685650002677,317.71370229200693,11,2,Animal_Land_Pattern_Large,,,,2.232414583035279,,,,,8,,,
memory,value_recall,319.76036474999273,322.5856166249723,12,2,Object_Sea_Solid_Small,,,,2.8208518750034273,,,,,7,,,
memory,spatial_recall,327.5554450839991,329.7410082920105,12,2,Animal_Sea_Pattern_Small,,,1,2.1813745420076884,,,,,,"[0, -380]","[0, -380]",
memory,spatial_recall,330.7996406669845,333.2225420839968,12,2,Object_Sea_Solid_Small,,,1,2.4205287499935366,,,,,,"[-329, -190]","[-329, -190]",
memory,spatial_recall,335.0304039589828,337.9631948340102,12,2,Object_Land_Pattern_Small,,,1,2.928628000023309,,,,,,"[329, 189]","[329, 189]",
memory,spatial_recall,340.02341487497324,343.1311159590259,12,2,Animal_Sea_Solid_Large,,,1,3.1035837500239722,,,,,,"[0, 380]","[0, 380]",
memory,spatial_recall,344.4318672089721,347.33650204201695,12,2,Object_Land_Solid_Large,,,1,2.900492499989923,,,,,,"[-329, 190]","[-329, 190]",
memory,spatial_recall,348.39045054197777,351.8604637919925,12,2,Animal_Land_Pattern_Large,,,1,3.464294000004884,,,,,,"[329, -190]","[329, -190]",
encoding,fixation,5.0104661250370555,6.266861584037542,13,3,Object_Land_Pattern_Large,6,,,,,,,,,,,
encoding,image,6.2669699170510285,7.280073000001721,13,3,Object_Land_Pattern_Large,6,,,,,,,,,,,
encoding,value,7.280186625022907,13.294631334021688,13,3,Object_Land_Pattern_Large,6,,,,,,,,,,,
encoding,attention,13.294749749999028,16.307495125045534,13,3,Object_Land_Pattern_Large,6,None,None,None,,,,,,,,
encoding,fixation,16.30762166704517,16.81304341700161,14,3,Animal_Sea_Solid_Small,8,,,,,,,,,,,
encoding,image,16.813149499997962,17.82429979200242,14,3,Animal_Sea_Solid_Small,8,,,,,,,,,,,
encoding,value,17.824439084040932,23.836220500001218,14,3,Animal_Sea_Solid_Small,8,,,,,,,,,,,
encoding,attention,23.83632875001058,26.85343937500147,14,3,Animal_Sea_Solid_Small,8,+8,1,0.9098962499992922,,,,,,,,
encoding,fixation,26.85358608403476,27.85867395903915,15,3,Animal_Land_Solid_Large,-5,,,,,,,,,,,
encoding,image,27.858774709049612,28.869431541999802,15,3,Animal_Land_Solid_Large,-5,,,,,,,,,,,
encoding,value,28.869559125043452,34.88265558402054,15,3,Animal_Land_Solid_Large,-5,,,,,,,,,,,
encoding,attention,34.88277929200558,37.90060108405305,15,3,Animal_Land_Solid_Large,-5,-5,1,0.7143253749818541,,,,,,,,
encoding,fixation,37.90075950004393,39.156093334022444,16,3,Object_Sea_Pattern_Small,-1,,,,,,,,,,,
encoding,image,39.15620554203633,40.167294417042285,16,3,Object_Sea_Pattern_Small,-1,,,,,,,,,,,
encoding,value,40.16740129201207,46.17947679205099,16,3,Object_Sea_Pattern_Small,-1,,,,,,,,,,,
encoding,attention,46.179588709026575,49.19670195900835,16,3,Object_Sea_Pattern_Small,-1,-1,1,0.899166791990865,,,,,,,,
encoding,fixation,49.196866084006615,50.702101375034545,17,3,Object_Sea_Pattern_Large,-6,,,,,,,,,,,
encoding,image,50.702244959014934,51.713419417035766,17,3,Object_Sea_Pattern_Large,-6,,,,,,,,,,,
encoding,value,51.71352570899762,57.72521929204231,17,3,Object_Sea_Pattern_Large,-6,,,,,,,,,,,
encoding,attention,57.72535466699628,60.74526066699764,17,3,Object_Sea_Pattern_Large,-6,-6,1,1.3032696669688448,,,,,,,,
encoding,fixation,60.74547329201596,61.75062812503893,18,3,Animal_Land_Solid_Small,-6,,,,,,,,,,,
encoding,image,61.750744084012695,62.76156962499954,18,3,Animal_Land_Solid_Small,-6,,,,,,,,,,,
encoding,value,62.76169320900226,68.77382420899812,18,3,Animal_Land_Solid_Small,-6,,,,,,,,,,,
encoding,attention,68.77401487500174,71.79114870901685,18,3,Animal_Land_Solid_Small,-6,-6,1,0.7117778340470977,,,,,,,,
n-back,,,,61,3,,,,1,None,B,False,None,,,,,
n-back,,,,62,3,,,,1,None,C,False,None,,,,,
n-back,,,,63,3,,,,1,None,Z,False,None,,,,,
n-back,,,,64,3,,,,1,None,X,False,None,,,,,
n-back,,,,65,3,,,,1,None,V,False,None,,,,,
n-back,,,,66,3,,,,1,0.7550176249933429,X,True,1,,,,,
n-back,,,,67,3,,,,0,None,V,True,None,,,,,
n-back,,,,68,3,,,,1,None,B,False,None,,,,,
n-back,,,,69,3,,,,1,0.5217348749865778,V,True,1,,,,,
n-back,,,,70,3,,,,1,None,V,False,None,,,,,
n-back,,,,71,3,,,,1,0.6777139580226503,V,True,1,,,,,
n-back,,,,72,3,,,,1,None,N,False,None,,,,,
n-back,,,,73,3,,,,1,None,X,False,None,,,,,
n-back,,,,74,3,,,,1,None,X,False,None,,,,,
n-back,,,,75,3,,,,1,0.7205139579600655,X,True,1,,,,,
n-back,,,,76,3,,,,1,None,B,False,None,,,,,
n-back,,,,77,3,,,,1,None,Z,False,None,,,,,
n-back,,,,78,3,,,,1,None,Z,False,None,,,,,
n-back,,,,79,3,,,,1,0.5958936249953695,Z,True,1,,,,,
n-back,,,,80,3,,,,1,None,V,False,None,,,,,
n-back,,,,81,3,,,,1,1.0911267079645768,Z,True,1,,,,,
n-back,,,,82,3,,,,0,None,V,True,None,,,,,
n-back,,,,83,3,,,,1,0.8413741659605876,Z,True,1,,,,,
n-back,,,,84,3,,,,1,None,X,False,None,,,,,
n-back,,,,85,3,,,,1,None,C,False,None,,,,,
n-back,,,,86,3,,,,1,None,Z,False,None,,,,,
n-back,,,,87,3,,,,1,None,B,False,None,,,,,
n-back,,,,88,3,,,,1,None,B,False,None,,,,,
n-back,,,,89,3,,,,1,None,N,False,None,,,,,
n-back,,,,90,3,,,,1,1.0230737919919193,B,True,1,,,,,
choice,fixation,149.33487562503433,149.84000366705004,17,3,,,,,,,,,Solid,,,,
choice,option,149.84904100000858,150.87447691702982,17,3,,,,,,,,,Solid,,,,
choice,choice,150.87459187500644,172.7684782090364,17,3,,,2,1,20.883138917037286,,,,Solid,,,,
choice,fixation,172.76862108404748,174.0239647499984,18,3,,,,,,,,,Sea,,,,
choice,option,174.03208466700744,175.05842925002798,18,3,,,,,,,,,Sea,,,,
choice,choice,175.0585929590161,183.84077204205096,18,3,,,2,0,7.7711028340272605,,,,Sea,,,,
choice,fixation,183.84089345904067,185.34581650001928,19,3,,,,,,,,,Animal,,,,
choice,option,185.35513141704723,186.38231733400607,19,3,,,,,,,,,Animal,,,,
choice,choice,186.38243754202267,191.48633445904125,19,3,,,2,1,4.091829415992834,,,,Animal,,,,
choice,fixation,191.4864584589959,192.7414682090166,20,3,,,,,,,,,Pattern,,,,
choice,option,192.75076820905088,193.7766087920172,20,3,,,,,,,,,Pattern,,,,
choice,choice,193.77672420901945,202.79400037502637,20,3,,,2,1,8.007328959007282,,,,Pattern,,,,
choice,fixation,202.79412258404773,204.29953437502263,21,3,,,,,,,,,Land,,,,
choice,option,204.3080989170121,205.3368774590199,21,3,,,,,,,,,Land,,,,
choice,choice,205.33702345902566,208.18375883402769,21,3,,,1,0,1.8369603750179522,,,,Land,,,,
choice,fixation,208.18388545903144,209.4405087500345,22,3,,,,,,,,,Large,,,,
choice,option,209.4498426670325,210.4748057090328,22,3,,,,,,,,,Large,,,,
choice,choice,210.47490495903185,215.23275862500304,22,3,,,2,1,3.747808374988381,,,,Large,,,,
choice,fixation,215.23289529205067,215.99117541703163,23,3,,,,,,,,,Small,,,,
choice,option,216.00006112502888,217.02635200001532,23,3,,,,,,,,,Small,,,,
choice,choice,217.0264991670265,222.92876666702796,23,3,,,2,0,4.892494458996225,,,,Small,,,,
choice,fixation,222.9288964170264,224.1838631670107,24,3,,,,,,,,,Object,,,,
choice,option,224.19285295903683,225.21905145904748,24,3,,,,,,,,,Object,,,,
choice,choice,225.21923745900858,228.61431162501685,24,3,,,1,0,2.3853904999559745,,,,Object,,,,
memory,free_recall,241.97885666700313,259.8428657090408,12,3,,,,,,,,,,,,,
memory,value_recall,268.65453195903683,271.5404303750256,13,3,Object_Sea_Pattern_Small,,,,2.8819709999952465,,,,,-1,,,
memory,value_recall,272.83583291701507,277.85947429202497,14,3,Animal_Land_Solid_Large,,,,5.0195796670159325,,,,,-5,,,
memory,value_recall,279.6561361250351,281.45716362504754,15,3,Object_Land_Pattern_Large,,,,1.796912166988477,,,,,6,,,
memory,value_recall,283.2515502500464,289.8653452920262,16,3,Animal_Land_Solid_Small,,,,6.609144583984744,,,,,-6,,,
memory,value_recall,291.16087950003566,293.3710557500017,17,3,Object_Sea_Pattern_Large,,,,2.2058770839939825,,,,,-6,,,
memory,value_recall,295.16702929203166,299.2990576670272,18,3,Animal_Sea_Solid_Small,,,,4.126430791977327,,,,,8,,,
memory,spatial_recall,303.15781629201956,307.3144061670173,18,3,Animal_Land_Solid_Small,,,1,4.152381292020436,,,,,,"[0, 380]","[0, 380]",
memory,spatial_recall,308.6231305000256,310.8957491250476,18,3,Object_Sea_Pattern_Small,,,1,2.2685908330022357,,,,,,"[-329, 190]","[-329, 190]",
memory,spatial_recall,311.94989187503234,313.78145470900927,18,3,Animal_Sea_Solid_Small,,,1,1.826747292012442,,,,,,"[329, -190]","[329, -190]",
memory,spatial_recall,315.5939205000177,319.13119366700994,18,3,Animal_Land_Solid_Large,,,1,3.5333736250177026,,,,,,"[-329, -190]","[-329, -190]",
memory,spatial_recall,320.1887977090082,323.84852387499996,18,3,Object_Sea_Pattern_Large,,,1,3.6558981250273064,,,,,,"[0, -380]","[0, -380]",
memory,spatial_recall,325.1572173340246,326.69748870900366,18,3,Object_Land_Pattern_Large,,,1,1.5361481250147335,,,,,,"[329, 189]","[329, 189]",
encoding,fixation,7.690743792045396,8.69752020901069,19,4,Animal_Land_Solid_Large,3,,,,,,,,,,,
encoding,image,8.6976317090448,9.709627125004772,19,4,Animal_Land_Solid_Large,3,,,,,,,,,,,
encoding,value,9.709753667004406,15.724163500010036,19,4,Animal_Land_Solid_Large,3,,,,,,,,,,,
encoding,attention,15.724285459029488,18.74280833400553,19,4,Animal_Land_Solid_Large,3,+3,1,1.1063384580193087,,,,,,,,
encoding,fixation,18.74298991705291,19.998052292037755,20,4,Animal_Sea_Pattern_Large,-5,,,,,,,,,,,
encoding,image,19.998174167005345,21.008446042018477,20,4,Animal_Sea_Pattern_Large,-5,,,,,,,,,,,
encoding,value,21.008588334021624,27.020035917055793,20,4,Animal_Sea_Pattern_Large,-5,,,,,,,,,,,
encoding,attention,27.020151417003945,30.03134087502258,20,4,Animal_Sea_Pattern_Large,-5,None,None,None,,,,,,,,
encoding,fixation,30.03148979204707,30.536719625000842,21,4,Animal_Land_Pattern_Small,1,,,,,,,,,,,
encoding,image,30.536827334028203,31.54811879200861,21,4,Animal_Land_Pattern_Small,1,,,,,,,,,,,
encoding,value,31.54826208401937,37.56047333404422,21,4,Animal_Land_Pattern_Small,1,,,,,,,,,,,
encoding,attention,37.56057725002756,40.57754850003403,21,4,Animal_Land_Pattern_Small,1,+1,1,0.6472344170324504,,,,,,,,
encoding,fixation,40.57773854205152,41.5829163340386,22,4,Object_Land_Solid_Small,-7,,,,,,,,,,,
encoding,image,41.58302820904646,42.59438966703601,22,4,Object_Land_Solid_Small,-7,,,,,,,,,,,
encoding,value,42.59457929205382,48.606207584030926,22,4,Object_Land_Solid_Small,-7,,,,,,,,,,,
encoding,attention,48.6063557920279,51.623860875028186,22,4,Object_Land_Solid_Small,-7,-7,1,0.5799647920066491,,,,,,,,
encoding,fixation,51.62400308402721,52.378862959041726,23,4,Object_Sea_Pattern_Small,3,,,,,,,,,,,
encoding,image,52.378979000030085,53.3898334170226,23,4,Object_Sea_Pattern_Small,3,,,,,,,,,,,
encoding,value,53.38993212505011,59.40085812500911,23,4,Object_Sea_Pattern_Small,3,,,,,,,,,,,
encoding,attention,59.400966500048526,62.418450625031255,23,4,Object_Sea_Pattern_Small,3,+3,1,0.5184075419674627,,,,,,,,
encoding,fixation,62.41861404204974,63.423750667017885,24,4,Object_Sea_Solid_Large,5,,,,,,,,,,,
encoding,image,63.4238667919999,64.43608554202365,24,4,Object_Sea_Solid_Large,5,,,,,,,,,,,
encoding,value,64.43618508405052,70.4479701250093,24,4,Object_Sea_Solid_Large,5,,,,,,,,,,,
encoding,attention,70.44808004202787,73.46559833403444,24,4,Object_Sea_Solid_Large,5,+5,1,0.6081192499841563,,,,,,,,
n-back,,,,91,4,,,,0,None,Z,True,None,,,,,
n-back,,,,92,4,,,,0,None,B,True,None,,,,,
n-back,,,,93,4,,,,1,None,C,False,None,,,,,
n-back,,,,94,4,,,,1,None,X,False,None,,,,,
n-back,,,,95,4,,,,1,None,V,False,None,,,,,
n-back,,,,96,4,,,,1,None,V,False,None,,,,,
n-back,,,,97,4,,,,1,None,C,False,None,,,,,
n-back,,,,98,4,,,,1,None,C,False,None,,,,,
n-back,,,,99,4,,,,1,None,V,False,None,,,,,
n-back,,,,100,4,,,,0,1.40820333303418,V,False,1,,,,,
n-back,,,,101,4,,,,0,None,V,True,None,,,,,
n-back,,,,102,4,,,,1,None,Z,False,None,,,,,
n-back,,,,103,4,,,,1,0.7759086249861866,V,True,1,,,,,
n-back,,,,104,4,,,,1,None,B,False,None,,,,,
n-back,,,,105,4,,,,1,0.49826650001341477,V,True,1,,,,,
n-back,,,,106,4,,,,1,None,N,False,None,,,,,
n-back,,,,107,4,,,,1,1.1484366669901647,V,True,1,,,,,
n-back,,,,108,4,,,,1,None,B,False,None,,,,,
n-back,,,,109,4,,,,1,0.81623799999943,V,True,1,,,,,
n-back,,,,110,4,,,,1,None,C,False,None,,,,,
n-back,,,,111,4,,,,1,0.9313419999671169,V,True,1,,,,,
n-back,,,,112,4,,,,1,None,N,False,None,,,,,
n-back,,,,113,4,,,,1,None,B,False,None,,,,,
n-back,,,,114,4,,,,1,None,V,False,None,,,,,
n-back,,,,115,4,,,,1,0.5209817920112982,B,True,1,,,,,
n-back,,,,116,4,,,,1,None,X,False,None,,,,,
n-back,,,,117,4,,,,1,None,V,False,None,,,,,
n-back,,,,118,4,,,,1,None,Z,False,None,,,,,
n-back,,,,119,4,,,,1,0.7341504169744439,V,True,1,,,,,
n-back,,,,120,4,,,,1,None,X,False,None,,,,,
choice,fixation,151.72578108403832,152.2302812920534,25,4,,,,,,,,,Solid,,,,
choice,option,152.23913158400683,153.2646563750459,25,4,,,,,,,,,Solid,,,,
choice,choice,153.2647772920318,172.9615783340414,25,4,,,1,1,18.68669125001179,,,,Solid,,,,
choice,fixation,172.96170112502296,173.71658166701673,26,4,,,,,,,,,Small,,,,
choice,option,173.72521408402827,174.75196870905347,26,4,,,,,,,,,Small,,,,
choice,choice,174.75212629203452,181.90562375000445,26,4,,,2,1,6.144094499992207,,,,Small,,,,
choice,fixation,181.90574333403492,183.16087175003486,27,4,,,,,,,,,Pattern,,,,
choice,option,183.1700188340037,184.1982128750533,27,4,,,,,,,,,Pattern,,,,
choice,choice,184.19833325000945,209.25891441700514,27,4,,,1,0,24.04996354196919,,,,Pattern,,,,
choice,fixation,209.25904095900478,210.51424875005614,28,4,,,,,,,,,Land,,,,
choice,option,210.52293095900677,211.54999554203823,28,4,,,,,,,,,Land,,,,
choice,choice,211.55009466700722,221.67466166702798,28,4,,,2,1,9.114183709025383,,,,Land,,,,
choice,fixation,221.6748486670549,222.4308870000532,29,4,,,,,,,,,Sea,,,,
choice,option,222.43951870902674,223.4663598340121,29,4,,,,,,,,,Sea,,,,
choice,choice,223.46646325004986,231.08929587504826,29,4,,,1,1,6.613245957996696,,,,Sea,,,,
choice,fixation,231.08944991702447,231.84464520902839,30,4,,,,,,,,,Large,,,,
choice,option,231.8536122920341,232.88027329201577,30,4,,,,,,,,,Large,,,,
choice,choice,232.8803843750502,239.12154508405365,30,4,,,1,1,5.231391583045479,,,,Large,,,,
choice,fixation,239.12167191703338,240.12667000002693,31,4,,,,,,,,,Object,,,,
choice,option,240.13612316700164,241.16514991701115,31,4,,,,,,,,,Object,,,,
choice,choice,241.1652695000521,246.75394133402733,31,4,,,2,0,4.579239458020311,,,,Object,,,,
choice,fixation,246.75406229204964,247.75928475003457,32,4,,,,,,,,,Animal,,,,
choice,option,247.7686992920353,248.79769612505333,32,4,,,,,,,,,Animal,,,,
choice,choice,248.79780091700377,253.42564129200764,32,4,,,1,0,3.61779899999965,,,,Animal,,,,
memory,free_recall,269.6665625840542,304.76436750002904,18,4,,,,,,,,,,,,,
memory,value_recall,315.54951941705076,319.18003458401654,19,4,Animal_Sea_Pattern_Large,,,,3.6260210840264335,,,,,-5,,,
memory,value_recall,320.47611279203556,322.35625287500443,20,4,Animal_Land_Pattern_Small,,,,1.8760082079679705,,,,,1,,,
memory,value_recall,323.40504766703816,326.067845750018,21,4,Object_Sea_Solid_Large,,,,2.659548250027001,,,,,5,,,
memory,value_recall,327.3635885420372,329.3646352090291,22,4,Animal_Land_Solid_Large,,,,1.9969573749694973,,,,,3,,,
memory,value_recall,330.9099731250317,333.338580834039,23,4,Object_Sea_Pattern_Small,,,,2.424484040995594,,,,,3,,,
memory,value_recall,334.38420374999987,337.43650079204235,24,4,Object_Land_Solid_Small,,,,3.049757624976337,,,,,-7,,,
memory,spatial_recall,341.34355087502627,346.0720107500092,24,4,Object_Sea_Solid_Large,,,1,4.724496250040829,,,,,,"[329, -190]","[329, -190]",
memory,spatial_recall,347.63038058404345,351.6557032500277,24,4,Animal_Land_Pattern_Small,,,1,4.02130354201654,,,,,,"[0, -380]","[0, -380]",
memory,spatial_recall,353.20829883404076,357.73853716702433,24,4,Animal_Sea_Pattern_Large,,,1,4.526136583997868,,,,,,"[329, 189]","[329, 189]",
memory,spatial_recall,359.2944260420045,362.2553150000167,24,4,Object_Sea_Pattern_Small,,,1,2.9566308329813182,,,,,,"[-329, 190]","[-329, 190]",
memory,spatial_recall,363.56257020903286,370.1217520000064,24,4,Animal_Land_Solid_Large,,,1,6.555104916042183,,,,,,"[-329, -190]","[-329, -190]",
memory,spatial_recall,371.42953816702357,373.9749906670186,24,4,Object_Land_Solid_Small,,,1,2.541513334028423,,,,,,"[0, 380]","[0, 380]",
encoding,fixation,4.633995124953799,5.889483332983218,25,5,Animal_Land_Pattern_Large,-2,,,,,,,,,,,
encoding,image,5.889656249957625,6.902075332996901,25,5,Animal_Land_Pattern_Large,-2,,,,,,,,,,,
encoding,value,6.902185666956939,12.91545408294769,25,5,Animal_Land_Pattern_Large,-2,,,,,,,,,,,
encoding,attention,12.915568500000518,15.933464166999329,25,5,Animal_Land_Pattern_Large,-2,-2,1,1.7534841670421883,,,,,,,,
encoding,fixation,15.933617167000193,17.43897533294512,26,5,Object_Land_Pattern_Small,9,,,,,,,,,,,
encoding,image,17.439095582987648,18.45144141698256,26,5,Object_Land_Pattern_Small,9,,,,,,,,,,,
encoding,value,18.45156858296832,24.46501604199875,26,5,Object_Land_Pattern_Small,9,,,,,,,,,,,
encoding,attention,24.465136166953016,27.483078166958876,26,5,Object_Land_Pattern_Small,9,+9,1,1.5080263329437003,,,,,,,,
encoding,fixation,27.483228707977105,28.488318416988477,27,5,Object_Land_Solid_Large,-1,,,,,,,,,,,
encoding,image,28.48844341695076,29.499792791961227,27,5,Object_Land_Solid_Large,-1,,,,,,,,,,,
encoding,value,29.499905207951088,35.51088458299637,27,5,Object_Land_Solid_Large,-1,,,,,,,,,,,
encoding,attention,35.51099262497155,38.52800133294659,27,5,Object_Land_Solid_Large,-1,-1,1,0.6156632920028642,,,,,,,,
encoding,fixation,38.528144707961474,39.53308087500045,28,5,Animal_Sea_Pattern_Small,-1,,,,,,,,,,,
encoding,image,39.533184374973644,40.54439599998295,28,5,Animal_Sea_Pattern_Small,-1,,,,,,,,,,,
encoding,value,40.544505499943625,46.556148166942876,28,5,Animal_Sea_Pattern_Small,-1,,,,,,,,,,,
encoding,attention,46.55626195797231,49.57468258298468,28,5,Animal_Sea_Pattern_Small,-1,-1,1,0.8742217090330087,,,,,,,,
encoding,fixation,49.57482420798624,50.579137832974084,29,5,Animal_Sea_Solid_Large,7,,,,,,,,,,,
encoding,image,50.579263207968324,51.59053791698534,29,5,Animal_Sea_Solid_Large,7,,,,,,,,,,,
encoding,value,51.59064929198939,57.6022227499634,29,5,Animal_Sea_Solid_Large,7,,,,,,,,,,,
encoding,attention,57.60238249995746,60.621237999992445,29,5,Animal_Sea_Solid_Large,7,+7,1,1.0579329580068588,,,,,,,,
encoding,fixation,60.62140979198739,61.62670274998527,30,5,Object_Sea_Solid_Small,-1,,,,,,,,,,,
encoding,image,61.62681787495967,62.63685483299196,30,5,Object_Sea_Solid_Small,-1,,,,,,,,,,,
encoding,value,62.63697608298389,68.64735633297823,30,5,Object_Sea_Solid_Small,-1,,,,,,,,,,,
encoding,attention,68.64747304195771,71.66363874997478,30,5,Object_Sea_Solid_Small,-1,-1,1,1.535617999965325,,,,,,,,
n-back,,,,121,5,,,,0,None,V,True,None,,,,,
n-back,,,,122,5,,,,1,None,V,False,None,,,,,
n-back,,,,123,5,,,,1,0.5894489590427838,V,True,1,,,,,
n-back,,,,124,5,,,,1,None,N,False,None,,,,,
n-back,,,,125,5,,,,1,None,N,False,None,,,,,
n-back,,,,126,5,,,,1,0.4900618329993449,N,True,1,,,,,
n-back,,,,127,5,,,,1,1.0890908329747617,N,True,1,,,,,
n-back,,,,128,5,,,,1,None,Z,False,None,,,,,
n-back,,,,129,5,,,,1,None,B,False,None,,,,,
n-back,,,,130,5,,,,1,None,B,False,None,,,,,
n-back,,,,131,5,,,,1,None,Z,False,None,,,,,
n-back,,,,132,5,,,,1,None,C,False,None,,,,,
n-back,,,,133,5,,,,1,None,B,False,None,,,,,
n-back,,,,134,5,,,,1,0.40460879198508337,C,True,1,,,,,
n-back,,,,135,5,,,,1,None,C,False,None,,,,,
n-back,,,,136,5,,,,1,None,X,False,None,,,,,
n-back,,,,137,5,,,,1,0.5949124170001596,C,True,1,,,,,
n-back,,,,138,5,,,,1,None,V,False,None,,,,,
n-back,,,,139,5,,,,1,None,Z,False,None,,,,,
n-back,,,,140,5,,,,1,None,X,False,None,,,,,
n-back,,,,141,5,,,,0,1.0474443749990314,V,False,1,,,,,
n-back,,,,142,5,,,,1,None,C,False,None,,,,,
n-back,,,,143,5,,,,0,0.8444382090237923,X,False,1,,,,,
n-back,,,,144,5,,,,1,0.9625640420126729,C,True,1,,,,,
n-back,,,,145,5,,,,1,1.0989190000109375,X,True,1,,,,,
n-back,,,,146,5,,,,1,None,V,False,None,,,,,
n-back,,,,147,5,,,,1,None,C,False,None,,,,,
n-back,,,,148,5,,,,1,None,B,False,None,,,,,
n-back,,,,149,5,,,,1,0.5366384999942966,C,True,1,,,,,
n-back,,,,150,5,,,,1,0.6669136669952422,B,True,1,,,,,
choice,fixation,141.79240916698473,142.29566629196052,33,5,,,,,,,,,Sea,,,,
choice,option,142.30376895796508,143.3318730419851,33,5,,,,,,,,,Sea,,,,
choice,choice,143.33199270797195,153.77640237496234,33,5,,,1,1,9.433615707966965,,,,Sea,,,,
choice,fixation,153.77653933299007,154.7831895419513,34,5,,,,,,,,,Land,,,,
choice,option,154.7921378329629,155.81893166695954,34,5,,,,,,,,,Land,,,,
choice,choice,155.81904399994528,165.8492777919746,34,5,,,2,0,9.017282749991864,,,,Land,,,,
choice,fixation,165.84939674998168,167.35424374998547,35,5,,,,,,,,,Animal,,,,
choice,option,167.36366991698742,168.39077120798174,35,5,,,,,,,,,Animal,,,,
choice,choice,168.3908838329953,180.41595895797946,35,5,,,1,1,11.014324166986626,,,,Animal,,,,
choice,fixation,180.41614799998933,181.92110362497624,36,5,,,,,,,,,Pattern,,,,
choice,option,181.93015220796224,182.95685579197016,36,5,,,,,,,,,Pattern,,,,
choice,choice,182.9569640829577,186.4019167079823,36,5,,,1,1,2.4352385840029456,,,,Pattern,,,,
choice,fixation,186.4020336669637,187.90723129198886,37,5,,,,,,,,,Solid,,,,
choice,option,187.9165878329659,188.94301537499996,37,5,,,,,,,,,Solid,,,,
choice,choice,188.94312849995913,191.55185620795237,37,5,,,2,0,1.59811483300291,,,,Solid,,,,
choice,fixation,191.55198774999008,192.80692654196173,38,5,,,,,,,,,Object,,,,
choice,option,192.81632558297133,193.8422210419667,38,5,,,,,,,,,Object,,,,
choice,choice,193.84233249997487,195.75149012496695,38,5,,,1,1,0.8974364590249024,,,,Object,,,,
choice,fixation,195.75161008298164,197.00649145798525,39,5,,,,,,,,,Small,,,,
choice,option,197.015319582948,198.04137029196136,39,5,,,,,,,,,Small,,,,
choice,choice,198.04147020797245,202.79161724995356,39,5,,,1,1,3.7379852500162087,,,,Small,,,,
choice,fixation,202.79175795795163,203.54879558295943,40,5,,,,,,,,,Large,,,,
choice,option,203.55743787495885,204.5837722919532,40,5,,,,,,,,,Large,,,,
choice,choice,204.58388404198922,206.45401791698532,40,5,,,2,0,0.8607214580406435,,,,Large,,,,
memory,free_recall,242.93692683294648,253.88232862495352,24,5,,,,,,,,,,,,,
memory,value_recall,261.07468629197683,263.52202433295315,25,5,Object_Sea_Solid_Small,,,,2.443387958977837,,,,,-1,,,
memory,value_recall,265.3183763749548,271.4403651249595,26,5,Animal_Sea_Solid_Large,,,,6.117975458968431,,,,,7,,,
memory,value_recall,273.4858948329929,277.5045198329608,27,5,Animal_Sea_Pattern_Small,,,,4.013895958021749,,,,,-1,,,
memory,value_recall,279.04942633298924,284.4821716249571,28,5,Object_Land_Solid_Large,,,,5.4286571250413544,,,,,-1,,,
memory,value_recall,286.52720629196847,291.37021724996157,29,5,Animal_Land_Pattern_Large,,,,4.838719958963338,,,,,-2,,,
memory,value_recall,292.4163595419959,294.60072633298114,30,5,Object_Land_Pattern_Small,,,,2.1817565000383183,,,,,9,,,
memory,spatial_recall,298.06701099994825,301.7895519579761,30,5,Object_Land_Solid_Large,,,1,3.7199466670281254,,,,,,"[-329, 190]","[-329, 190]",
memory,spatial_recall,302.84698304196354,307.32419395796023,30,5,Object_Land_Pattern_Small,,,1,4.474780957971234,,,,,,"[329, 189]","[329, 189]",
memory,spatial_recall,309.3842526669614,311.7399998329929,30,5,Animal_Land_Pattern_Large,,,1,2.3518107919953763,,,,,,"[329, -190]","[329, -190]",
memory,spatial_recall,312.7915097079822,316.45683374995133,30,5,Object_Sea_Solid_Small,,,1,3.660030665982049,,,,,,"[-329, -190]","[-329, -190]",
memory,spatial_recall,318.2655002079555,320.5272087499616,30,5,Animal_Sea_Pattern_Small,,,1,2.2576734999893233,,,,,,"[0, -380]","[0, -380]",
memory,spatial_recall,322.339676374977,325.13954558299156,30,5,Animal_Sea_Solid_Large,,,1,2.7960051250411198,,,,,,"[0, 380]","[0, 380]",
encoding,fixation,5.16890562500339,6.1747624590061605,31,6,Animal_Land_Solid_Large,-4,,,,,,,,,,,
encoding,image,6.1748978340183385,7.187466666975524,31,6,Animal_Land_Solid_Large,-4,,,,,,,,,,,
encoding,value,7.187590583984274,13.203844791976735,31,6,Animal_Land_Solid_Large,-4,,,,,,,,,,,
encoding,attention,13.203972625022288,16.22416537499521,31,6,Animal_Land_Solid_Large,-4,-4,1,2.825596000009682,,,,,,,,
encoding,fixation,16.224304666975513,17.72902929200791,32,6,Animal_Sea_Solid_Small,3,,,,,,,,,,,
encoding,image,17.729148874990642,18.739109834015835,32,6,Animal_Sea_Solid_Small,3,,,,,,,,,,,
encoding,value,18.739231750019826,24.752925125008915,32,6,Animal_Sea_Solid_Small,3,,,,,,,,,,,
encoding,attention,24.753060708986595,27.76953449996654,32,6,Animal_Sea_Solid_Small,3,+3,1,0.9520489170099609,,,,,,,,
encoding,fixation,27.76967816700926,28.52482749999035,33,6,Object_Sea_Pattern_Small,-7,,,,,,,,,,,
encoding,image,28.524940833973233,29.536418750009034,33,6,Object_Sea_Pattern_Small,-7,,,,,,,,,,,
encoding,value,29.5365480419714,35.54833154199878,33,6,Object_Sea_Pattern_Small,-7,,,,,,,,,,,
encoding,attention,35.548440999991726,38.56653299997561,33,6,Object_Sea_Pattern_Small,-7,-7,1,0.8924808749579825,,,,,,,,
encoding,fixation,38.56670354201924,39.071774624986574,34,6,Animal_Land_Solid_Small,3,,,,,,,,,,,
encoding,image,39.07188770896755,40.08266195899341,34,6,Animal_Land_Solid_Small,3,,,,,,,,,,,
encoding,value,40.082802709017415,46.0940556669957,34,6,Animal_Land_Solid_Small,3,,,,,,,,,,,
encoding,attention,46.09416516701458,49.11056366696721,34,6,Animal_Land_Solid_Small,3,+3,1,1.0129014169797301,,,,,,,,
encoding,fixation,49.1107200839906,49.86571629199898,35,6,Object_Sea_Pattern_Large,1,,,,,,,,,,,
encoding,image,49.86581562500214,50.87739454198163,35,6,Object_Sea_Pattern_Large,1,,,,,,,,,,,
encoding,value,50.87751604197547,56.88935037498595,35,6,Object_Sea_Pattern_Large,1,,,,,,,,,,,
encoding,attention,56.889461916987784,59.90604099998018,35,6,Object_Sea_Pattern_Large,1,+1,1,0.6971037920447998,,,,,,,,
encoding,fixation,59.906193333968986,60.91115429199999,36,6,Object_Land_Pattern_Large,2,,,,,,,,,,,
encoding,image,60.91126083402196,61.922974959015846,36,6,Object_Land_Pattern_Large,2,,,,,,,,,,,
encoding,value,61.92309141700389,67.9372145839734,36,6,Object_Land_Pattern_Large,2,,,,,,,,,,,
encoding,attention,67.9373909169808,70.95840929198312,36,6,Object_Land_Pattern_Large,2,+2,1,1.7956818339880556,,,,,,,,
n-back,,,,151,6,,,,0,None,Z,True,None,,,,,
n-back,,,,152,6,,,,1,None,N,False,None,,,,,
n-back,,,,153,6,,,,1,None,N,False,None,,,,,
n-back,,,,154,6,,,,1,None,V,False,None,,,,,
n-back,,,,155,6,,,,1,0.42802212497917935,N,True,1,,,,,
n-back,,,,156,6,,,,1,None,N,False,None,,,,,
n-back,,,,157,6,,,,0,0.6416165000409819,V,False,1,,,,,
n-back,,,,158,6,,,,1,None,X,False,None,,,,,
n-back,,,,159,6,,,,1,None,N,False,None,,,,,
n-back,,,,160,6,,,,1,None,C,False,None,,,,,
n-back,,,,161,6,,,,1,None,C,False,None,,,,,
n-back,,,,162,6,,,,1,None,Z,False,None,,,,,
n-back,,,,163,6,,,,1,None,X,False,None,,,,,
n-back,,,,164,6,,,,1,1.0386790829943493,Z,True,1,,,,,
n-back,,,,165,6,,,,0,None,X,True,None,,,,,
n-back,,,,166,6,,,,1,None,B,False,None,,,,,
n-back,,,,167,6,,,,1,None,C,False,None,,,,,
n-back,,,,168,6,,,,1,None,X,False,None,,,,,
n-back,,,,169,6,,,,1,0.42693625000538304,C,True,1,,,,,
n-back,,,,170,6,,,,1,None,N,False,None,,,,,
n-back,,,,171,6,,,,1,None,V,False,None,,,,,
n-back,,,,172,6,,,,1,0.4170965420198627,N,True,1,,,,,
n-back,,,,173,6,,,,1,None,Z,False,None,,,,,
n-back,,,,174,6,,,,1,None,X,False,None,,,,,
n-back,,,,175,6,,,,1,0.525944208027795,Z,True,1,,,,,
n-back,,,,176,6,,,,1,1.2905949590494856,X,True,1,,,,,
n-back,,,,177,6,,,,1,None,X,False,None,,,,,
n-back,,,,178,6,,,,1,0.7947737089707516,X,True,1,,,,,
n-back,,,,179,6,,,,1,None,V,False,None,,,,,
n-back,,,,180,6,,,,1,0.6452222079969943,X,True,1,,,,,
choice,fixation,145.9526284589665,147.45597470900975,41,6,,,,,,,,,Large,,,,
choice,option,147.46386708400678,148.49164445901988,41,6,,,,,,,,,Large,,,,
choice,choice,148.491750709014,165.14701124996645,41,6,,,1,0,15.644909916969482,,,,Large,,,,
choice,fixation,165.14713758399012,165.9020679590176,42,6,,,,,,,,,Land,,,,
choice,option,165.9105954170227,166.93748074996984,42,6,,,,,,,,,Land,,,,
choice,choice,166.9376465419773,177.68190766702173,42,6,,,1,1,9.734109874989372,,,,Land,,,,
choice,fixation,177.68203833396547,178.43723450001562,43,6,,,,,,,,,Pattern,,,,
choice,option,178.44614445901243,179.47202241700143,43,6,,,,,,,,,Pattern,,,,
choice,choice,179.4721309170127,182.07565083401278,43,6,,,2,1,1.592955041967798,,,,Pattern,,,,
choice,fixation,182.0757723749848,182.83042329200543,44,6,,,,,,,,,Small,,,,
choice,option,182.83980954199797,183.86593870900106,44,6,,,,,,,,,Small,,,,
choice,choice,183.8661028749775,203.42715183401015,44,6,,,1,0,18.550119833031204,,,,Small,,,,
choice,fixation,203.42727083398495,204.43242133397143,45,6,,,,,,,,,Object,,,,
choice,option,204.4422076669871,205.46950941701652,45,6,,,,,,,,,Object,,,,
choice,choice,205.46961908397498,207.37858087499626,45,6,,,2,1,0.8990263749728911,,,,Object,,,,
choice,fixation,207.37871016701683,208.3836621249793,46,6,,,,,,,,,Solid,,,,
choice,option,208.39282712497516,209.4189953340101,46,6,,,,,,,,,Solid,,,,
choice,choice,209.41911208396778,214.44364274997497,46,6,,,1,1,4.014887834026013,,,,Solid,,,,
choice,fixation,214.44378433399834,214.9489921249915,47,6,,,,,,,,,Sea,,,,
choice,option,214.957028542005,215.98243654199177,47,6,,,,,,,,,Sea,,,,
choice,choice,215.98256316699553,218.7220445839921,47,6,,,2,1,1.730113415978849,,,,Sea,,,,
choice,fixation,218.72217362502124,219.227109792002,48,6,,,,,,,,,Animal,,,,
choice,option,219.23653904197272,220.26279770897236,48,6,,,,,,,,,Animal,,,,
choice,choice,220.26295391697204,222.23355599999195,48,6,,,1,1,0.958910959016066,,,,Animal,,,,
memory,free_recall,240.08701266697608,250.19546399998944,30,6,,,,,,,,,,,,,
memory,value_recall,254.54007662500953,259.8918356249924,31,6,Animal_Sea_Solid_Small,,,,5.347614000027534,,,,,3,,,
memory,value_recall,261.6871207089862,263.579656041984,32,6,Object_Land_Pattern_Large,,,,1.8884377499925904,,,,,2,,,
memory,value_recall,265.6269844589988,267.76888345897896,33,6,Animal_Land_Solid_Large,,,,2.1376480830367655,,,,,-4,,,
memory,value_recall,269.3150451669935,271.1979685840197,34,6,Object_Sea_Pattern_Small,,,,1.8786317500052974,,,,,-7,,,
memory,value_recall,272.2423011669889,276.83802500000456,35,6,Object_Sea_Pattern_Large,,,,4.591694542032201,,,,,1,,,
memory,value_recall,278.63293858402176,280.5028969999985,36,6,Animal_Land_Solid_Small,,,,1.8660162080195732,,,,,3,,,
memory,spatial_recall,284.4037212500116,288.1917864169809,36,6,Object_Sea_Pattern_Small,,,1,3.78398287500022,,,,,,"[-329, 190]","[-329, 190]",
memory,spatial_recall,289.24944983399473,290.65813304198673,36,6,Animal_Land_Solid_Small,,,1,1.405601124977693,,,,,,"[0, 380]","[0, 380]",
memory,spatial_recall,292.2172899169964,298.208964999998,36,6,Object_Land_Pattern_Large,,,1,5.987529375008307,,,,,,"[329, 189]","[329, 189]",
memory,spatial_recall,299.26529204199323,301.0248121250188,36,6,Animal_Land_Solid_Large,,,1,1.7563645410118625,,,,,,"[-329, -190]","[-329, -190]",
memory,spatial_recall,302.82958245900227,304.42791466700146,36,6,Object_Sea_Pattern_Large,,,1,1.5917162079713307,,,,,,"[0, -380]","[0, -380]",
memory,spatial_recall,306.4844365839963,309.4818192090024,36,6,Animal_Sea_Solid_Small,,,1,2.994216167018749,,,,,,"[329, -190]","[329, -190]",
encoding,fixation,4.075444167014211,4.581510333984625,37,7,Animal_Sea_Pattern_Large,-2,,,,,,,,,,,
encoding,image,4.581633042020258,5.592470875009894,37,7,Animal_Sea_Pattern_Large,-2,,,,,,,,,,,
encoding,value,5.592623042000923,11.605750999995507,37,7,Animal_Sea_Pattern_Large,-2,,,,,,,,,,,
encoding,attention,11.605857209011447,14.622957792016678,37,7,Animal_Sea_Pattern_Large,-2,-2,1,1.0999941670452245,,,,,,,,
encoding,fixation,14.62310858402634,15.128331542015076,38,7,Object_Land_Solid_Large,2,,,,,,,,,,,
encoding,image,15.128442834015004,16.139033125014976,38,7,Object_Land_Solid_Large,2,,,,,,,,,,,
encoding,value,16.139154042000882,22.149623584002256,38,7,Object_Land_Solid_Large,2,,,,,,,,,,,
encoding,attention,22.149732708989177,25.165830624988303,38,7,Object_Land_Solid_Large,2,+2,1,0.5232417089864612,,,,,,,,
encoding,fixation,25.16599083400797,25.921484209015034,39,7,Object_Land_Solid_Small,-7,,,,,,,,,,,
encoding,image,25.921598459011875,26.932860959030222,39,7,Object_Land_Solid_Small,-7,,,,,,,,,,,
encoding,value,26.93296950001968,32.9444391670404,39,7,Object_Land_Solid_Small,-7,,,,,,,,,,,
encoding,attention,32.944596000015736,35.961765874992125,39,7,Object_Land_Solid_Small,-7,-7,1,0.5928156250156462,,,,,,,,
encoding,fixation,35.96192199998768,36.71644745900994,40,7,Object_Sea_Solid_Small,1,,,,,,,,,,,
encoding,image,36.71655433403794,37.72625283402158,40,7,Object_Sea_Solid_Small,1,,,,,,,,,,,
encoding,value,37.72637512499932,43.73765258403728,40,7,Object_Sea_Solid_Small,1,,,,,,,,,,,
encoding,attention,43.73776420898503,46.75340845901519,40,7,Object_Sea_Solid_Small,1,+1,1,0.816309874993749,,,,,,,,
encoding,fixation,46.75356191699393,47.5105878750328,41,7,Animal_Sea_Pattern_Small,2,,,,,,,,,,,
encoding,image,47.51069791702321,48.52184637502069,41,7,Animal_Sea_Pattern_Small,2,,,,,,,,,,,
encoding,value,48.521947083994746,54.5339885840076,41,7,Animal_Sea_Pattern_Small,2,,,,,,,,,,,
encoding,attention,54.53408816701267,57.54570270900149,41,7,Animal_Sea_Pattern_Small,2,None,None,None,,,,,,,,
encoding,fixation,57.54583562503103,58.30121033400064,42,7,Animal_Land_Pattern_Large,-1,,,,,,,,,,,
encoding,image,58.30132158403285,59.31142020900734,42,7,Animal_Land_Pattern_Large,-1,,,,,,,,,,,
encoding,value,59.31152712501353,65.32285154203419,42,7,Animal_Land_Pattern_Large,-1,,,,,,,,,,,
encoding,attention,65.32303737499751,68.34085179201793,42,7,Animal_Land_Pattern_Large,-1,-1,1,0.5416259579942562,,,,,,,,
n-back,,,,181,7,,,,1,None,X,False,None,,,,,
n-back,,,,182,7,,,,1,None,V,False,None,,,,,
n-back,,,,183,7,,,,1,None,C,False,None,,,,,
n-back,,,,184,7,,,,1,0.8952008750056848,V,True,1,,,,,
n-back,,,,185,7,,,,1,None,V,False,None,,,,,
n-back,,,,186,7,,,,1,0.6004952500225045,V,True,1,,,,,
n-back,,,,187,7,,,,1,0.8674939580378123,V,True,1,,,,,
n-back,,,,188,7,,,,1,None,N,False,None,,,,,
n-back,,,,189,7,,,,1,None,X,False,None,,,,,
n-back,,,,190,7,,,,1,None,B,False,None,,,,,
n-back,,,,191,7,,,,1,None,N,False,None,,,,,
n-back,,,,192,7,,,,1,None,Z,False,None,,,,,
n-back,,,,193,7,,,,1,0.3891491669928655,N,True,1,,,,,
n-back,,,,194,7,,,,1,1.0514846669975668,Z,True,1,,,,,
n-back,,,,195,7,,,,1,None,V,False,None,,,,,
n-back,,,,196,7,,,,1,None,B,False,None,,,,,
n-back,,,,197,7,,,,1,0.4230513329966925,V,True,1,,,,,
n-back,,,,198,7,,,,1,0.8022452919976786,B,True,1,,,,,
n-back,,,,199,7,,,,1,None,N,False,None,,,,,
n-back,,,,200,7,,,,1,0.5689777079969645,B,True,1,,,,,
n-back,,,,201,7,,,,1,None,B,False,None,,,,,
n-back,,,,202,7,,,,1,None,Z,False,None,,,,,
n-back,,,,203,7,,,,1,None,V,False,None,,,,,
n-back,,,,204,7,,,,1,0.4088355000130832,Z,True,1,,,,,
n-back,,,,205,7,,,,0,1.4091352910036221,B,False,1,,,,,
n-back,,,,206,7,,,,1,None,B,False,None,,,,,
n-back,,,,207,7,,,,1,None,Z,False,None,,,,,
n-back,,,,208,7,,,,1,None,Z,False,None,,,,,
n-back,,,,209,7,,,,1,None,V,False,None,,,,,
n-back,,,,210,7,,,,1,1.4574626249959692,Z,True,1,,,,,
choice,fixation,140.0150250000297,141.51833583402913,49,7,,,,,,,,,Pattern,,,,
choice,option,141.52749758400023,142.55502333398908,49,7,,,,,,,,,Pattern,,,,
choice,choice,142.55512587499106,152.28994366701227,49,7,,,1,0,8.723338875046466,,,,Pattern,,,,
choice,fixation,152.2900714999996,153.29501104203518,50,7,,,,,,,,,Land,,,,
choice,option,153.30390645901207,154.33078358403873,50,7,,,,,,,,,Land,,,,
choice,choice,154.33090391702717,157.34718550002435,50,7,,,2,1,2.0064226249814965,,,,Land,,,,
choice,fixation,157.3473041250254,157.85221895901486,51,7,,,,,,,,,Small,,,,
choice,option,157.8611268340028,158.88736495899502,51,7,,,,,,,,,Small,,,,
choice,choice,158.88750120898476,160.39723087503808,51,7,,,2,1,0.49937366700032726,,,,Small,,,,
choice,fixation,160.39735700003803,161.9022866670275,52,7,,,,,,,,,Object,,,,
choice,option,161.91208845900837,162.93841529201018,52,7,,,,,,,,,Object,,,,
choice,choice,162.93853987503098,164.71555566700408,52,7,,,2,1,0.767697999952361,,,,Object,,,,
choice,fixation,164.71568270900752,166.22071970900288,53,7,,,,,,,,,Sea,,,,
choice,option,166.22943474998465,167.2558306250139,53,7,,,,,,,,,Sea,,,,
choice,choice,167.2559742089943,173.17053150001448,53,7,,,1,1,4.904410332965199,,,,Sea,,,,
choice,fixation,173.17064999998547,173.92701708403183,54,7,,,,,,,,,Animal,,,,
choice,option,173.93624325003475,174.96281699999236,54,7,,,,,,,,,Animal,,,,
choice,choice,174.96292716701282,178.71965987503063,54,7,,,1,0,2.748088958032895,,,,Animal,,,,
choice,fixation,178.71977837500162,179.97479595901677,55,7,,,,,,,,,Solid,,,,
choice,option,179.9840150839882,181.01015020901104,55,7,,,,,,,,,Solid,,,,
choice,choice,181.01028220902663,184.26636733399937,55,7,,,2,1,2.2465713749988936,,,,Solid,,,,
choice,fixation,184.26649275003,184.77146283403272,56,7,,,,,,,,,Large,,,,
choice,option,184.77996270899894,185.80609175004065,56,7,,,,,,,,,Large,,,,
choice,choice,185.80621933401562,188.96334329200909,56,7,,,1,0,2.1472614579834044,,,,Large,,,,
memory,free_recall,222.75770987500437,234.4207073749858,36,7,,,,,,,,,,,,,
memory,value_recall,240.82319037499838,245.5874912920408,37,7,Animal_Land_Pattern_Large,,,,4.760220457974356,,,,,-1,,,
memory,value_recall,247.13326687499648,249.3813452500035,38,7,Object_Land_Solid_Small,,,,2.2438908749609254,,,,,-7,,,
memory,value_recall,250.67658245901112,255.24410183401778,39,7,Animal_Sea_Pattern_Small,,,,4.5633480830001645,,,,,2,,,
memory,value_recall,257.03903983399505,259.3493837499991,40,7,Object_Land_Solid_Large,,,,2.306230707967188,,,,,2,,,
memory,value_recall,261.14452850003727,270.2771380000049,41,7,Animal_Sea_Pattern_Large,,,,9.128564334008843,,,,,-2,,,
memory,value_recall,271.8266843750025,277.1954031250207,42,7,Object_Sea_Solid_Small,,,,5.3646914580021985,,,,,1,,,
memory,spatial_recall,280.3642169170198,282.99833137501264,42,7,Animal_Land_Pattern_Large,,,1,2.6299810420023277,,,,,,"[329, -190]","[329, -190]",
memory,spatial_recall,284.30855220899684,290.25186441699043,42,7,Animal_Sea_Pattern_Small,,,1,5.939313333015889,,,,,,"[0, -380]","[0, -380]",
memory,spatial_recall,292.31125529203564,293.45194658398395,42,7,Object_Land_Solid_Small,,,1,1.1367564999964088,,,,,,"[0, 380]","[0, 380]",
memory,spatial_recall,295.2596853339928,296.4487357920152,42,7,Animal_Sea_Pattern_Large,,,1,1.1851043329806998,,,,,,"[329, 189]","[329, 189]",
memory,spatial_recall,297.7432433750364,300.6679554170114,42,7,Object_Land_Solid_Large,,,1,2.9204910419648513,,,,,,"[-329, 190]","[-329, 190]",
memory,spatial_recall,301.9695627919864,306.3514231669833,42,7,Object_Sea_Solid_Small,,,1,4.37568304099841,,,,,,"[-329, -190]","[-329, -190]",
