subject,phase,event,trial_number,game,option,choice,rt,roi_content,item_index,is_center,is_relevant,fix_start,fix_end,fix_duration_bounded
136,choice,choice,1,1.0,Animal,1.0,4.358065792010166,Object_Sea_Pattern_Small,0,0,0,2700261,2700351,90
136,choice,choice,1,1.0,Animal,1.0,4.358065792010166,Object_Land_Solid_Small,1,0,0,2701484,2702144,660
136,choice,choice,1,1.0,Animal,1.0,4.358065792010166,Object_Sea_Pattern_Small,0,0,0,2702332,2703037,705
136,choice,choice,1,1.0,Animal,1.0,4.358065792010166,Animal_Land_Solid_Large,2,0,1,2703704,2703963,259
136,choice,choice,1,1.0,Animal,1.0,4.358065792010166,Object_Sea_Pattern_Small,0,0,0,2704087,2704391,304
136,choice,choice,2,1.0,Sea,2.0,16.668391500017606,Object_Sea_Pattern_Small,0,0,1,2707651,2710000,2349
136,choice,choice,2,1.0,Sea,2.0,16.668391500017606,Object_Land_Solid_Small,1,0,0,2710488,2710810,322
136,choice,choice,2,1.0,Sea,2.0,16.668391500017606,Object_Sea_Pattern_Small,0,0,1,2710957,2711525,568
136,choice,choice,2,1.0,Sea,2.0,16.668391500017606,fixation,-1,1,0,2711807,2712001,194
136,choice,choice,2,1.0,Sea,2.0,16.668391500017606,Object_Sea_Pattern_Small,0,0,1,2712466,2713961,1495
136,choice,choice,2,1.0,Sea,2.0,16.668391500017606,fixation,-1,1,0,2714976,2715480,504
136,choice,choice,2,1.0,Sea,2.0,16.668391500017606,Object_Sea_Pattern_Small,0,0,1,2715616,2715763,147
136,choice,choice,2,1.0,Sea,2.0,16.668391500017606,Animal_Land_Pattern_Small,3,0,0,2716770,2717329,559
136,choice,choice,2,1.0,Sea,2.0,16.668391500017606,Object_Sea_Pattern_Small,0,0,1,2717471,2717773,302
136,choice,choice,2,1.0,Sea,2.0,16.668391500017606,Object_Land_Solid_Small,1,0,0,2717813,2718143,330
136,choice,choice,2,1.0,Sea,2.0,16.668391500017606,Object_Sea_Pattern_Small,0,0,1,2721408,2721807,399
136,choice,choice,2,1.0,Sea,2.0,16.668391500017606,Animal_Land_Solid_Large,2,0,0,2722938,2723070,132
136,choice,choice,2,1.0,Sea,2.0,16.668391500017606,Object_Sea_Pattern_Small,0,0,1,2723092,2723322,230
136,choice,choice,2,1.0,Sea,2.0,16.668391500017606,Animal_Land_Pattern_Small,3,0,0,2723497,2723520,23
136,choice,choice,2,1.0,Sea,2.0,16.668391500017606,Object_Sea_Pattern_Small,0,0,1,2723546,2723946,400
136,choice,choice,3,1.0,Object,2.0,6.828749959007837,Object_Land_Solid_Small,1,0,1,2727303,2727462,159
136,choice,choice,3,1.0,Object,2.0,6.828749959007837,Object_Sea_Pattern_Small,0,0,1,2727475,2730030,2555
136,choice,choice,3,1.0,Object,2.0,6.828749959007837,fixation,-1,1,0,2733257,2733387,130
136,choice,choice,3,1.0,Object,2.0,6.828749959007837,Object_Sea_Pattern_Small,0,0,1,2733402,2733669,267
136,choice,choice,4,1.0,Land,1.0,4.847405834007077,fixation,-1,1,0,2737309,2737461,152
136,choice,choice,4,1.0,Land,1.0,4.847405834007077,Object_Sea_Pattern_Small,0,0,0,2737480,2739535,2055
136,choice,choice,5,1.0,Small,1.0,6.389265333011281,Object_Sea_Pattern_Small,0,0,1,2745765,2746141,376
136,choice,choice,5,1.0,Small,1.0,6.389265333011281,Object_Land_Solid_Small,1,0,1,2746276,2746987,711
136,choice,choice,5,1.0,Small,1.0,6.389265333011281,Object_Sea_Pattern_Small,0,0,1,2747076,2747311,235
136,choice,choice,5,1.0,Small,1.0,6.389265333011281,Animal_Land_Pattern_Small,3,0,1,2747848,2747874,26
136,choice,choice,5,1.0,Small,1.0,6.389265333011281,Object_Sea_Pattern_Small,0,0,1,2747951,2748599,648
136,choice,choice,5,1.0,Small,1.0,6.389265333011281,Animal_Sea_Pattern_Large,4,0,0,2748813,2749045,232
136,choice,choice,5,1.0,Small,1.0,6.389265333011281,Animal_Land_Solid_Large,2,0,0,2750078,2750221,143
136,choice,choice,5,1.0,Small,1.0,6.389265333011281,Object_Sea_Pattern_Small,0,0,1,2750239,2751144,905
136,choice,choice,6,1.0,Large,2.0,2.953910083975643,Object_Sea_Pattern_Small,0,0,0,2755005,2755183,178
136,choice,choice,6,1.0,Large,2.0,2.953910083975643,Animal_Land_Solid_Large,2,0,1,2756368,2756478,110
136,choice,choice,6,1.0,Large,2.0,2.953910083975643,Object_Sea_Pattern_Small,0,0,0,2756509,2757180,671
136,choice,choice,7,1.0,Pattern,1.0,7.943858749989886,Object_Land_Solid_Small,1,0,0,2764133,2764528,395
136,choice,choice,7,1.0,Pattern,1.0,7.943858749989886,Animal_Land_Solid_Large,2,0,0,2767951,2768066,115
136,choice,choice,7,1.0,Pattern,1.0,7.943858749989886,Object_Sea_Pattern_Small,0,0,1,2768100,2768835,735
136,choice,choice,8,1.0,Solid,2.0,9.355170166993048,Animal_Land_Pattern_Small,3,0,0,2771769,2771923,154
136,choice,choice,8,1.0,Solid,2.0,9.355170166993048,Object_Land_Solid_Small,1,0,1,2771968,2772930,962
136,choice,choice,8,1.0,Solid,2.0,9.355170166993048,Object_Sea_Pattern_Small,0,0,0,2777810,2778895,1085
136,choice,choice,8,1.0,Solid,2.0,9.355170166993048,Animal_Sea_Pattern_Large,4,0,0,2779967,2780090,123
136,choice,choice,8,1.0,Solid,2.0,9.355170166993048,Object_Sea_Pattern_Small,0,0,0,2780633,2780992,359
136,choice,choice,9,2.0,Small,1.0,17.57054537499789,Object_Land_Solid_Large,0,0,0,3150955,3151210,255
136,choice,choice,9,2.0,Small,1.0,17.57054537499789,Animal_Sea_Solid_Large,1,0,0,3152158,3152411,253
136,choice,choice,9,2.0,Small,1.0,17.57054537499789,Object_Land_Solid_Large,0,0,0,3152431,3152823,392
136,choice,choice,9,2.0,Small,1.0,17.57054537499789,Animal_Sea_Solid_Large,1,0,0,3152964,3153127,163
136,choice,choice,9,2.0,Small,1.0,17.57054537499789,Object_Land_Solid_Large,0,0,0,3153155,3153924,769
136,choice,choice,9,2.0,Small,1.0,17.57054537499789,Object_Land_Pattern_Small,2,0,1,3154073,3154436,363
136,choice,choice,9,2.0,Small,1.0,17.57054537499789,Object_Land_Solid_Large,0,0,0,3154473,3155213,740
136,choice,choice,9,2.0,Small,1.0,17.57054537499789,Object_Land_Pattern_Small,2,0,1,3155517,3155851,334
136,choice,choice,9,2.0,Small,1.0,17.57054537499789,Object_Land_Solid_Large,0,0,0,3155975,3156206,231
136,choice,choice,9,2.0,Small,1.0,17.57054537499789,Object_Sea_Solid_Small,3,0,1,3156352,3156554,202
136,choice,choice,9,2.0,Small,1.0,17.57054537499789,Animal_Sea_Pattern_Small,4,0,1,3156589,3156772,183
136,choice,choice,9,2.0,Small,1.0,17.57054537499789,Object_Land_Solid_Large,0,0,0,3157711,3160041,2330
136,choice,choice,9,2.0,Small,1.0,17.57054537499789,Object_Land_Pattern_Small,2,0,1,3160944,3161351,407
136,choice,choice,9,2.0,Small,1.0,17.57054537499789,Object_Land_Solid_Large,0,0,0,3162559,3163620,1061
136,choice,choice,9,2.0,Small,1.0,17.57054537499789,Object_Sea_Solid_Small,3,0,1,3164683,3164826,143
136,choice,choice,9,2.0,Small,1.0,17.57054537499789,Object_Land_Solid_Large,0,0,0,3164855,3165090,235
136,choice,choice,9,2.0,Small,1.0,17.57054537499789,Object_Land_Pattern_Small,2,0,1,3165247,3165374,127
136,choice,choice,9,2.0,Small,1.0,17.57054537499789,Object_Land_Solid_Large,0,0,0,3165533,3166816,1283
136,choice,choice,9,2.0,Small,1.0,17.57054537499789,Object_Land_Pattern_Small,2,0,1,3166940,3167153,213
136,choice,choice,9,2.0,Small,1.0,17.57054537499789,Object_Land_Solid_Large,0,0,0,3167286,3167868,582
136,choice,choice,9,2.0,Small,1.0,17.57054537499789,Animal_Land_Pattern_Large,5,0,0,3167913,3168106,193
136,choice,choice,9,2.0,Small,1.0,17.57054537499789,Object_Land_Solid_Large,0,0,0,3168434,3168467,33
136,choice,choice,10,2.0,Large,2.0,11.91981333401054,Object_Land_Pattern_Small,2,0,0,3172377,3173071,694
136,choice,choice,10,2.0,Large,2.0,11.91981333401054,fixation,-1,1,0,3173263,3173398,135
136,choice,choice,10,2.0,Large,2.0,11.91981333401054,Object_Land_Solid_Large,0,0,1,3173860,3174682,822
136,choice,choice,10,2.0,Large,2.0,11.91981333401054,fixation,-1,1,0,3175339,3175513,174
136,choice,choice,10,2.0,Large,2.0,11.91981333401054,Object_Land_Solid_Large,0,0,1,3175528,3177243,1715
136,choice,choice,10,2.0,Large,2.0,11.91981333401054,Animal_Sea_Solid_Large,1,0,1,3178778,3178945,167
136,choice,choice,10,2.0,Large,2.0,11.91981333401054,Object_Land_Solid_Large,0,0,1,3178953,3179507,554
136,choice,choice,10,2.0,Large,2.0,11.91981333401054,Animal_Land_Pattern_Large,5,0,1,3179691,3180153,462
136,choice,choice,10,2.0,Large,2.0,11.91981333401054,Object_Land_Solid_Large,0,0,1,3180199,3181619,1420
136,choice,choice,10,2.0,Large,2.0,11.91981333401054,Object_Sea_Solid_Small,3,0,0,3181795,3181979,184
136,choice,choice,10,2.0,Large,2.0,11.91981333401054,Object_Land_Solid_Large,0,0,1,3183214,3183655,441
136,choice,choice,11,2.0,Animal,1.0,4.866979207959957,Object_Land_Pattern_Small,2,0,0,3187356,3187881,525
136,choice,choice,11,2.0,Animal,1.0,4.866979207959957,Animal_Sea_Solid_Large,1,0,1,3188062,3188267,205
136,choice,choice,11,2.0,Animal,1.0,4.866979207959957,Object_Land_Solid_Large,0,0,0,3188278,3189540,1262
136,choice,choice,12,2.0,Solid,1.0,8.643093208025675,Animal_Sea_Solid_Large,1,0,1,3196483,3196746,263
136,choice,choice,12,2.0,Solid,1.0,8.643093208025675,Object_Land_Solid_Large,0,0,1,3196776,3198690,1914
136,choice,choice,12,2.0,Solid,1.0,8.643093208025675,Animal_Sea_Solid_Large,1,0,1,3199704,3200007,303
136,choice,choice,12,2.0,Solid,1.0,8.643093208025675,Object_Land_Pattern_Small,2,0,0,3200041,3200594,553
136,choice,choice,12,2.0,Solid,1.0,8.643093208025675,Object_Land_Solid_Large,0,0,1,3200653,3202729,2076
136,choice,choice,12,2.0,Solid,1.0,8.643093208025675,Object_Sea_Solid_Small,3,0,1,3203683,3203832,149
136,choice,choice,12,2.0,Solid,1.0,8.643093208025675,Object_Land_Solid_Large,0,0,1,3203867,3204307,440
136,choice,choice,13,2.0,Land,1.0,5.002191291016061,Animal_Sea_Solid_Large,1,0,0,3208226,3208535,309
136,choice,choice,13,2.0,Land,1.0,5.002191291016061,Object_Land_Pattern_Small,2,0,1,3208557,3209395,838
136,choice,choice,13,2.0,Land,1.0,5.002191291016061,Animal_Sea_Solid_Large,1,0,0,3209572,3209729,157
136,choice,choice,13,2.0,Land,1.0,5.002191291016061,Object_Land_Solid_Large,0,0,1,3209746,3210210,464
136,choice,choice,13,2.0,Land,1.0,5.002191291016061,Object_Sea_Solid_Small,3,0,0,3210367,3210666,299
136,choice,choice,13,2.0,Land,1.0,5.002191291016061,Object_Land_Solid_Large,0,0,1,3211587,3212425,838
136,choice,choice,14,2.0,Sea,1.0,15.252263500005938,Object_Land_Solid_Large,0,0,0,3216203,3216430,227
136,choice,choice,14,2.0,Sea,1.0,15.252263500005938,Animal_Sea_Pattern_Small,4,0,1,3216624,3217053,429
136,choice,choice,14,2.0,Sea,1.0,15.252263500005938,Object_Land_Solid_Large,0,0,0,3217091,3217429,338
136,choice,choice,14,2.0,Sea,1.0,15.252263500005938,Animal_Sea_Solid_Large,1,0,1,3217545,3217925,380
136,choice,choice,14,2.0,Sea,1.0,15.252263500005938,Object_Land_Solid_Large,0,0,0,3217978,3219040,1062
136,choice,choice,14,2.0,Sea,1.0,15.252263500005938,Animal_Sea_Solid_Large,1,0,1,3221590,3221718,128
136,choice,choice,14,2.0,Sea,1.0,15.252263500005938,Object_Land_Solid_Large,0,0,0,3221735,3223287,1552
136,choice,choice,14,2.0,Sea,1.0,15.252263500005938,Animal_Land_Pattern_Large,5,0,0,3224037,3224396,359
136,choice,choice,14,2.0,Sea,1.0,15.252263500005938,fixation,-1,1,0,3224457,3224599,142
136,choice,choice,14,2.0,Sea,1.0,15.252263500005938,Object_Land_Solid_Large,0,0,0,3224612,3224920,308
136,choice,choice,14,2.0,Sea,1.0,15.252263500005938,Object_Sea_Solid_Small,3,0,1,3225067,3225634,567
136,choice,choice,14,2.0,Sea,1.0,15.252263500005938,Object_Land_Solid_Large,0,0,0,3226260,3226764,504
136,choice,choice,14,2.0,Sea,1.0,15.252263500005938,Animal_Sea_Solid_Large,1,0,1,3226819,3227516,697
136,choice,choice,14,2.0,Sea,1.0,15.252263500005938,Object_Land_Solid_Large,0,0,0,3228195,3228455,260
136,choice,choice,14,2.0,Sea,1.0,15.252263500005938,Animal_Sea_Solid_Large,1,0,1,3228971,3229134,163
136,choice,choice,14,2.0,Sea,1.0,15.252263500005938,Object_Land_Solid_Large,0,0,0,3229143,3229372,229
136,choice,choice,14,2.0,Sea,1.0,15.252263500005938,Animal_Sea_Solid_Large,1,0,1,3229487,3229832,345
136,choice,choice,14,2.0,Sea,1.0,15.252263500005938,Object_Land_Solid_Large,0,0,0,3230301,3230766,465
136,choice,choice,15,2.0,Object,1.0,1.639419707993511,Animal_Sea_Solid_Large,1,0,0,3235069,3235526,457
136,choice,choice,15,2.0,Object,1.0,1.639419707993511,Object_Land_Solid_Large,0,0,1,3235649,3235861,212
136,choice,choice,16,2.0,Pattern,1.0,5.260866458003875,Object_Land_Solid_Large,0,0,0,3238445,3238714,269
136,choice,choice,16,2.0,Pattern,1.0,5.260866458003875,Animal_Sea_Solid_Large,1,0,0,3238754,3239487,733
136,choice,choice,16,2.0,Pattern,1.0,5.260866458003875,Object_Land_Solid_Large,0,0,0,3239565,3241184,1619
136,choice,choice,16,2.0,Pattern,1.0,5.260866458003875,Animal_Sea_Pattern_Small,4,0,1,3241519,3241858,339
136,choice,choice,16,2.0,Pattern,1.0,5.260866458003875,Object_Land_Solid_Large,0,0,0,3241899,3243537,1638
136,choice,choice,17,3.0,Solid,2.0,20.88313891703729,Object_Sea_Pattern_Small,0,0,0,3514553,3515057,504
136,choice,choice,17,3.0,Solid,2.0,20.88313891703729,fixation,-1,1,0,3515212,3515351,139
136,choice,choice,17,3.0,Solid,2.0,20.88313891703729,Object_Sea_Pattern_Small,0,0,0,3515469,3515838,369
136,choice,choice,17,3.0,Solid,2.0,20.88313891703729,Animal_Land_Solid_Small,1,0,1,3515984,3516170,186
136,choice,choice,17,3.0,Solid,2.0,20.88313891703729,Object_Sea_Pattern_Small,0,0,0,3516211,3517047,836
136,choice,choice,17,3.0,Solid,2.0,20.88313891703729,fixation,-1,1,0,3517322,3517487,165
136,choice,choice,17,3.0,Solid,2.0,20.88313891703729,Object_Sea_Pattern_Small,0,0,0,3517504,3518726,1222
136,choice,choice,17,3.0,Solid,2.0,20.88313891703729,Animal_Sea_Solid_Small,2,0,1,3518888,3519325,437
136,choice,choice,17,3.0,Solid,2.0,20.88313891703729,fixation,-1,1,0,3519361,3519483,122
136,choice,choice,17,3.0,Solid,2.0,20.88313891703729,Object_Sea_Pattern_Small,0,0,0,3519500,3519713,213
136,choice,choice,17,3.0,Solid,2.0,20.88313891703729,Object_Land_Pattern_Large,3,0,0,3519750,3520253,503
136,choice,choice,17,3.0,Solid,2.0,20.88313891703729,Animal_Land_Solid_Small,1,0,1,3520440,3520888,448
136,choice,choice,17,3.0,Solid,2.0,20.88313891703729,fixation,-1,1,0,3521038,3521464,426
136,choice,choice,17,3.0,Solid,2.0,20.88313891703729,Animal_Land_Solid_Large,4,0,1,3521720,3521922,202
136,choice,choice,17,3.0,Solid,2.0,20.88313891703729,fixation,-1,1,0,3521944,3522377,433
136,choice,choice,17,3.0,Solid,2.0,20.88313891703729,Object_Sea_Pattern_Small,0,0,0,3522506,3522871,365
136,choice,choice,17,3.0,Solid,2.0,20.88313891703729,Object_Sea_Pattern_Large,5,0,0,3522900,3523572,672
136,choice,choice,17,3.0,Solid,2.0,20.88313891703729,fixation,-1,1,0,3523733,3524191,458
136,choice,choice,17,3.0,Solid,2.0,20.88313891703729,Object_Land_Pattern_Large,3,0,0,3524235,3524612,377
136,choice,choice,17,3.0,Solid,2.0,20.88313891703729,Object_Sea_Pattern_Small,0,0,0,3524660,3525624,964
136,choice,choice,17,3.0,Solid,2.0,20.88313891703729,Animal_Land_Solid_Large,4,0,1,3525956,3526308,352
136,choice,choice,17,3.0,Solid,2.0,20.88313891703729,fixation,-1,1,0,3526924,3527088,164
136,choice,choice,17,3.0,Solid,2.0,20.88313891703729,Object_Sea_Pattern_Small,0,0,0,3527200,3528010,810
136,choice,choice,17,3.0,Solid,2.0,20.88313891703729,Animal_Sea_Solid_Small,2,0,1,3528173,3528758,585
136,choice,choice,17,3.0,Solid,2.0,20.88313891703729,fixation,-1,1,0,3528911,3529286,375
136,choice,choice,17,3.0,Solid,2.0,20.88313891703729,Animal_Land_Solid_Small,1,0,1,3529425,3529674,249
136,choice,choice,17,3.0,Solid,2.0,20.88313891703729,Object_Land_Pattern_Large,3,0,0,3529694,3530181,487
136,choice,choice,17,3.0,Solid,2.0,20.88313891703729,Object_Sea_Pattern_Small,0,0,0,3530636,3532537,1901
136,choice,choice,17,3.0,Solid,2.0,20.88313891703729,Animal_Land_Solid_Large,4,0,1,3533365,3533487,122
136,choice,choice,17,3.0,Solid,2.0,20.88313891703729,Object_Sea_Pattern_Small,0,0,0,3533509,3534362,853
136,choice,choice,18,3.0,Sea,2.0,7.7711028340272605,Object_Land_Pattern_Large,3,0,0,3538654,3539847,1193
136,choice,choice,18,3.0,Sea,2.0,7.7711028340272605,fixation,-1,1,0,3540564,3540937,373
136,choice,choice,18,3.0,Sea,2.0,7.7711028340272605,Object_Sea_Pattern_Small,0,0,1,3541135,3541312,177
136,choice,choice,18,3.0,Sea,2.0,7.7711028340272605,fixation,-1,1,0,3541338,3541537,199
136,choice,choice,18,3.0,Sea,2.0,7.7711028340272605,Object_Sea_Pattern_Large,5,0,1,3542472,3542743,271
136,choice,choice,18,3.0,Sea,2.0,7.7711028340272605,Animal_Sea_Solid_Small,2,0,1,3542765,3542972,207
136,choice,choice,18,3.0,Sea,2.0,7.7711028340272605,Animal_Land_Solid_Small,1,0,0,3543889,3544104,215
136,choice,choice,18,3.0,Sea,2.0,7.7711028340272605,Object_Sea_Pattern_Small,0,0,1,3544119,3544782,663
136,choice,choice,18,3.0,Sea,2.0,7.7711028340272605,Animal_Sea_Solid_Small,2,0,1,3545049,3545213,164
136,choice,choice,18,3.0,Sea,2.0,7.7711028340272605,Object_Sea_Pattern_Small,0,0,1,3545881,3546098,217
136,choice,choice,19,3.0,Animal,2.0,4.091829415992834,Animal_Land_Solid_Small,1,0,1,3549801,3549967,166
136,choice,choice,19,3.0,Animal,2.0,4.091829415992834,Object_Sea_Pattern_Small,0,0,0,3549997,3550368,371
136,choice,choice,19,3.0,Animal,2.0,4.091829415992834,Animal_Sea_Solid_Small,2,0,1,3550538,3550959,421
136,choice,choice,19,3.0,Animal,2.0,4.091829415992834,fixation,-1,1,0,3551017,3551446,429
136,choice,choice,19,3.0,Animal,2.0,4.091829415992834,Object_Sea_Pattern_Small,0,0,0,3551695,3552084,389
136,choice,choice,19,3.0,Animal,2.0,4.091829415992834,Object_Land_Pattern_Large,3,0,0,3552119,3552699,580
136,choice,choice,19,3.0,Animal,2.0,4.091829415992834,Animal_Land_Solid_Small,1,0,1,3552765,3552881,116
136,choice,choice,19,3.0,Animal,2.0,4.091829415992834,Object_Sea_Pattern_Small,0,0,0,3552983,3553249,266
136,choice,choice,19,3.0,Animal,2.0,4.091829415992834,Animal_Land_Solid_Large,4,0,1,3553395,3553523,128
136,choice,choice,19,3.0,Animal,2.0,4.091829415992834,Object_Sea_Pattern_Small,0,0,0,3553542,3553745,203
136,choice,choice,20,3.0,Pattern,2.0,8.007328959007282,Object_Sea_Pattern_Small,0,0,1,3557450,3557922,472
136,choice,choice,20,3.0,Pattern,2.0,8.007328959007282,Object_Land_Pattern_Large,3,0,1,3557945,3558098,153
136,choice,choice,20,3.0,Pattern,2.0,8.007328959007282,Object_Sea_Pattern_Small,0,0,1,3558122,3558346,224
136,choice,choice,20,3.0,Pattern,2.0,8.007328959007282,Object_Land_Pattern_Large,3,0,1,3558476,3558839,363
136,choice,choice,20,3.0,Pattern,2.0,8.007328959007282,Object_Sea_Pattern_Small,0,0,1,3558874,3559399,525
136,choice,choice,20,3.0,Pattern,2.0,8.007328959007282,Animal_Land_Solid_Small,1,0,0,3560069,3560346,277
136,choice,choice,20,3.0,Pattern,2.0,8.007328959007282,Object_Sea_Pattern_Small,0,0,1,3560398,3560887,489
136,choice,choice,20,3.0,Pattern,2.0,8.007328959007282,Animal_Sea_Solid_Small,2,0,0,3561148,3561362,214
136,choice,choice,20,3.0,Pattern,2.0,8.007328959007282,fixation,-1,1,0,3561939,3562063,124
136,choice,choice,20,3.0,Pattern,2.0,8.007328959007282,Object_Sea_Pattern_Small,0,0,1,3562085,3562848,763
136,choice,choice,20,3.0,Pattern,2.0,8.007328959007282,Animal_Land_Solid_Small,1,0,0,3563023,3563420,397
136,choice,choice,20,3.0,Pattern,2.0,8.007328959007282,Object_Sea_Pattern_Small,0,0,1,3563556,3564137,581
136,choice,choice,20,3.0,Pattern,2.0,8.007328959007282,Object_Land_Pattern_Large,3,0,1,3564173,3564660,487
136,choice,choice,20,3.0,Pattern,2.0,8.007328959007282,Object_Sea_Pattern_Small,0,0,1,3564842,3565053,211
136,choice,choice,21,3.0,Land,1.0,1.836960375017952,Object_Sea_Pattern_Small,0,0,0,3569015,3570027,1012
136,choice,choice,21,3.0,Land,1.0,1.836960375017952,Animal_Land_Solid_Large,4,0,1,3570286,3570436,150
136,choice,choice,22,3.0,Large,2.0,3.747808374988381,Object_Sea_Pattern_Small,0,0,0,3574117,3574733,616
136,choice,choice,22,3.0,Large,2.0,3.747808374988381,Animal_Land_Solid_Large,4,0,1,3575090,3575428,338
136,choice,choice,22,3.0,Large,2.0,3.747808374988381,Animal_Land_Solid_Small,1,0,0,3576146,3576874,728
136,choice,choice,22,3.0,Large,2.0,3.747808374988381,Object_Sea_Pattern_Small,0,0,0,3576983,3577220,237
136,choice,choice,23,3.0,Small,2.0,4.892494458996225,Object_Sea_Pattern_Small,0,0,1,3580743,3581147,404
136,choice,choice,23,3.0,Small,2.0,4.892494458996225,Animal_Sea_Solid_Small,2,0,1,3581176,3581370,194
136,choice,choice,23,3.0,Small,2.0,4.892494458996225,Animal_Land_Solid_Large,4,0,0,3583407,3584072,665
136,choice,choice,23,3.0,Small,2.0,4.892494458996225,Object_Sea_Pattern_Large,5,0,0,3584816,3585189,373
136,choice,choice,24,3.0,Object,1.0,2.3853904999559745,Animal_Sea_Solid_Small,2,0,0,3588811,3589065,254
136,choice,choice,24,3.0,Object,1.0,2.3853904999559745,Object_Sea_Pattern_Small,0,0,1,3589639,3590547,908
136,choice,choice,24,3.0,Object,1.0,2.3853904999559745,Animal_Land_Solid_Small,1,0,0,3590772,3590874,102
136,choice,choice,25,4.0,Solid,1.0,18.68669125001179,Object_Sea_Pattern_Small,0,0,0,3861540,3862564,1024
136,choice,choice,25,4.0,Solid,1.0,18.68669125001179,fixation,-1,1,0,3862863,3863044,181
136,choice,choice,25,4.0,Solid,1.0,18.68669125001179,Object_Sea_Pattern_Small,0,0,0,3863059,3863875,816
136,choice,choice,25,4.0,Solid,1.0,18.68669125001179,Object_Sea_Solid_Large,1,0,1,3864090,3864537,447
136,choice,choice,25,4.0,Solid,1.0,18.68669125001179,Animal_Land_Solid_Large,2,0,1,3864578,3865047,469
136,choice,choice,25,4.0,Solid,1.0,18.68669125001179,Object_Sea_Solid_Large,1,0,1,3865186,3866039,853
136,choice,choice,25,4.0,Solid,1.0,18.68669125001179,Animal_Sea_Pattern_Large,3,0,0,3866256,3866471,215
136,choice,choice,25,4.0,Solid,1.0,18.68669125001179,fixation,-1,1,0,3866504,3867041,537
136,choice,choice,25,4.0,Solid,1.0,18.68669125001179,Animal_Land_Solid_Large,2,0,1,3867066,3867690,624
136,choice,choice,25,4.0,Solid,1.0,18.68669125001179,Object_Sea_Pattern_Small,0,0,0,3867973,3868023,50
136,choice,choice,25,4.0,Solid,1.0,18.68669125001179,Animal_Land_Solid_Large,2,0,1,3868246,3868740,494
136,choice,choice,25,4.0,Solid,1.0,18.68669125001179,fixation,-1,1,0,3868760,3869037,277
136,choice,choice,25,4.0,Solid,1.0,18.68669125001179,Animal_Land_Solid_Large,2,0,1,3869703,3870174,471
136,choice,choice,25,4.0,Solid,1.0,18.68669125001179,fixation,-1,1,0,3870195,3870369,174
136,choice,choice,25,4.0,Solid,1.0,18.68669125001179,Animal_Sea_Pattern_Large,3,0,0,3870410,3871180,770
136,choice,choice,25,4.0,Solid,1.0,18.68669125001179,Object_Land_Solid_Small,4,0,1,3871243,3871420,177
136,choice,choice,25,4.0,Solid,1.0,18.68669125001179,fixation,-1,1,0,3871549,3871745,196
136,choice,choice,25,4.0,Solid,1.0,18.68669125001179,Animal_Land_Pattern_Small,5,0,0,3871793,3872448,655
136,choice,choice,25,4.0,Solid,1.0,18.68669125001179,Animal_Land_Solid_Large,2,0,1,3873568,3874148,580
136,choice,choice,25,4.0,Solid,1.0,18.68669125001179,Object_Sea_Solid_Large,1,0,1,3874331,3874622,291
136,choice,choice,25,4.0,Solid,1.0,18.68669125001179,Animal_Land_Solid_Large,2,0,1,3876259,3876949,690
136,choice,choice,25,4.0,Solid,1.0,18.68669125001179,Object_Sea_Solid_Large,1,0,1,3877094,3877401,307
136,choice,choice,25,4.0,Solid,1.0,18.68669125001179,Animal_Land_Pattern_Small,5,0,0,3877424,3877893,469
136,choice,choice,26,4.0,Small,2.0,6.144094499992207,Animal_Sea_Pattern_Large,3,0,0,3883608,3883760,152
136,choice,choice,26,4.0,Small,2.0,6.144094499992207,Object_Land_Solid_Small,4,0,1,3884146,3884888,742
136,choice,choice,26,4.0,Small,2.0,6.144094499992207,Object_Sea_Pattern_Small,0,0,1,3885063,3885721,658
136,choice,choice,26,4.0,Small,2.0,6.144094499992207,Animal_Sea_Pattern_Large,3,0,0,3885953,3886268,315
136,choice,choice,26,4.0,Small,2.0,6.144094499992207,Object_Sea_Pattern_Small,0,0,1,3886302,3886532,230
136,choice,choice,26,4.0,Small,2.0,6.144094499992207,Animal_Land_Pattern_Small,5,0,1,3886922,3887086,164
136,choice,choice,26,4.0,Small,2.0,6.144094499992207,Object_Sea_Pattern_Small,0,0,1,3887125,3887478,353
136,choice,choice,26,4.0,Small,2.0,6.144094499992207,Animal_Land_Pattern_Small,5,0,1,3887790,3888099,309
136,choice,choice,26,4.0,Small,2.0,6.144094499992207,Object_Sea_Pattern_Small,0,0,1,3888326,3888816,490
136,choice,choice,26,4.0,Small,2.0,6.144094499992207,Animal_Land_Pattern_Small,5,0,1,3888863,3889121,258
136,choice,choice,27,4.0,Pattern,1.0,24.04996354196919,Object_Sea_Pattern_Small,0,0,1,3892544,3892854,310
136,choice,choice,27,4.0,Pattern,1.0,24.04996354196919,Object_Land_Solid_Small,4,0,0,3893010,3893124,114
136,choice,choice,27,4.0,Pattern,1.0,24.04996354196919,Object_Sea_Pattern_Small,0,0,1,3893139,3893738,599
136,choice,choice,27,4.0,Pattern,1.0,24.04996354196919,Object_Land_Solid_Small,4,0,0,3894051,3894363,312
136,choice,choice,27,4.0,Pattern,1.0,24.04996354196919,Animal_Sea_Pattern_Large,3,0,1,3894574,3895190,616
136,choice,choice,27,4.0,Pattern,1.0,24.04996354196919,Object_Land_Solid_Small,4,0,0,3895261,3895778,517
136,choice,choice,27,4.0,Pattern,1.0,24.04996354196919,Object_Sea_Pattern_Small,0,0,1,3896082,3896681,599
136,choice,choice,27,4.0,Pattern,1.0,24.04996354196919,Animal_Land_Solid_Large,2,0,0,3896751,3897492,741
136,choice,choice,27,4.0,Pattern,1.0,24.04996354196919,fixation,-1,1,0,3898690,3899122,432
136,choice,choice,27,4.0,Pattern,1.0,24.04996354196919,Animal_Sea_Pattern_Large,3,0,1,3899163,3899722,559
136,choice,choice,27,4.0,Pattern,1.0,24.04996354196919,Object_Sea_Pattern_Small,0,0,1,3900235,3901826,1591
136,choice,choice,27,4.0,Pattern,1.0,24.04996354196919,Animal_Land_Solid_Large,2,0,0,3902037,3902493,456
136,choice,choice,27,4.0,Pattern,1.0,24.04996354196919,Animal_Sea_Pattern_Large,3,0,1,3902638,3902894,256
136,choice,choice,27,4.0,Pattern,1.0,24.04996354196919,Object_Land_Solid_Small,4,0,0,3903960,3904205,245
136,choice,choice,27,4.0,Pattern,1.0,24.04996354196919,Animal_Land_Pattern_Small,5,0,1,3905151,3905648,497
136,choice,choice,27,4.0,Pattern,1.0,24.04996354196919,Object_Sea_Pattern_Small,0,0,1,3906246,3906429,183
136,choice,choice,27,4.0,Pattern,1.0,24.04996354196919,Object_Land_Solid_Small,4,0,0,3907530,3907950,420
136,choice,choice,27,4.0,Pattern,1.0,24.04996354196919,Object_Sea_Pattern_Small,0,0,1,3907981,3908174,193
136,choice,choice,27,4.0,Pattern,1.0,24.04996354196919,Object_Land_Solid_Small,4,0,0,3910413,3910922,509
136,choice,choice,27,4.0,Pattern,1.0,24.04996354196919,Animal_Sea_Pattern_Large,3,0,1,3911096,3911575,479
136,choice,choice,27,4.0,Pattern,1.0,24.04996354196919,Object_Land_Solid_Small,4,0,0,3912213,3912509,296
136,choice,choice,27,4.0,Pattern,1.0,24.04996354196919,Animal_Land_Solid_Large,2,0,0,3912643,3912793,150
136,choice,choice,27,4.0,Pattern,1.0,24.04996354196919,Animal_Land_Pattern_Small,5,0,1,3913930,3914148,218
136,choice,choice,27,4.0,Pattern,1.0,24.04996354196919,Object_Sea_Pattern_Small,0,0,1,3915706,3916455,749
136,choice,choice,28,4.0,Land,2.0,9.114183709025385,Object_Sea_Pattern_Small,0,0,0,3920389,3921268,879
136,choice,choice,28,4.0,Land,2.0,9.114183709025385,Object_Sea_Solid_Large,1,0,0,3921484,3921734,250
136,choice,choice,28,4.0,Land,2.0,9.114183709025385,Object_Sea_Pattern_Small,0,0,0,3921786,3922279,493
136,choice,choice,28,4.0,Land,2.0,9.114183709025385,Animal_Sea_Pattern_Large,3,0,0,3922804,3923028,224
136,choice,choice,28,4.0,Land,2.0,9.114183709025385,fixation,-1,1,0,3923690,3923836,146
136,choice,choice,28,4.0,Land,2.0,9.114183709025385,Object_Sea_Pattern_Small,0,0,0,3923846,3924117,271
136,choice,choice,28,4.0,Land,2.0,9.114183709025385,Object_Land_Solid_Small,4,0,1,3924301,3924582,281
136,choice,choice,28,4.0,Land,2.0,9.114183709025385,Animal_Sea_Pattern_Large,3,0,0,3924607,3924921,314
136,choice,choice,28,4.0,Land,2.0,9.114183709025385,Object_Land_Solid_Small,4,0,1,3926121,3926316,195
136,choice,choice,28,4.0,Land,2.0,9.114183709025385,Object_Sea_Pattern_Small,0,0,0,3926339,3926631,292
136,choice,choice,28,4.0,Land,2.0,9.114183709025385,Animal_Land_Pattern_Small,5,0,1,3926687,3926899,212
136,choice,choice,28,4.0,Land,2.0,9.114183709025385,Object_Sea_Pattern_Small,0,0,0,3927262,3928475,1213
136,choice,choice,28,4.0,Land,2.0,9.114183709025385,Animal_Land_Solid_Large,2,0,1,3928636,3928891,255
136,choice,choice,29,4.0,Sea,1.0,6.613245957996696,Animal_Sea_Pattern_Large,3,0,1,3932065,3932768,703
136,choice,choice,29,4.0,Sea,1.0,6.613245957996696,Object_Land_Solid_Small,4,0,0,3932944,3933305,361
136,choice,choice,29,4.0,Sea,1.0,6.613245957996696,fixation,-1,1,0,3933465,3933871,406
136,choice,choice,29,4.0,Sea,1.0,6.613245957996696,Animal_Land_Pattern_Small,5,0,0,3933920,3934179,259
136,choice,choice,29,4.0,Sea,1.0,6.613245957996696,Object_Sea_Pattern_Small,0,0,1,3935461,3936561,1100
136,choice,choice,29,4.0,Sea,1.0,6.613245957996696,Animal_Land_Solid_Large,2,0,0,3937150,3937211,61
136,choice,choice,29,4.0,Sea,1.0,6.613245957996696,Object_Sea_Pattern_Small,0,0,1,3937244,3937385,141
136,choice,choice,29,4.0,Sea,1.0,6.613245957996696,fixation,-1,1,0,3937548,3937983,435
136,choice,choice,29,4.0,Sea,1.0,6.613245957996696,Object_Sea_Solid_Large,1,0,1,3938014,3938307,293
136,choice,choice,30,4.0,Large,1.0,5.231391583045479,Object_Land_Solid_Small,4,0,0,3941506,3941882,376
136,choice,choice,30,4.0,Large,1.0,5.231391583045479,Animal_Sea_Pattern_Large,3,0,1,3941903,3942918,1015
136,choice,choice,30,4.0,Large,1.0,5.231391583045479,Object_Land_Solid_Small,4,0,0,3943240,3943390,150
136,choice,choice,30,4.0,Large,1.0,5.231391583045479,Object_Sea_Pattern_Small,0,0,0,3943412,3943969,557
136,choice,choice,30,4.0,Large,1.0,5.231391583045479,Animal_Sea_Pattern_Large,3,0,1,3944748,3945086,338
136,choice,choice,30,4.0,Large,1.0,5.231391583045479,fixation,-1,1,0,3945114,3945357,243
136,choice,choice,30,4.0,Large,1.0,5.231391583045479,Animal_Land_Pattern_Small,5,0,0,3945399,3945688,289
136,choice,choice,30,4.0,Large,1.0,5.231391583045479,Object_Sea_Pattern_Small,0,0,0,3945833,3946242,409
136,choice,choice,30,4.0,Large,1.0,5.231391583045479,Animal_Land_Solid_Large,2,0,1,3946281,3946339,58
136,choice,choice,31,4.0,Object,2.0,4.579239458020311,Object_Sea_Pattern_Small,0,0,1,3949593,3950451,858
136,choice,choice,31,4.0,Object,2.0,4.579239458020311,Object_Sea_Solid_Large,1,0,1,3950638,3951056,418
136,choice,choice,31,4.0,Object,2.0,4.579239458020311,fixation,-1,1,0,3951093,3951251,158
136,choice,choice,31,4.0,Object,2.0,4.579239458020311,Object_Sea_Pattern_Small,0,0,1,3951258,3951674,416
136,choice,choice,31,4.0,Object,2.0,4.579239458020311,Object_Sea_Solid_Large,1,0,1,3951941,3952096,155
136,choice,choice,31,4.0,Object,2.0,4.579239458020311,Animal_Land_Solid_Large,2,0,0,3952123,3952558,435
136,choice,choice,31,4.0,Object,2.0,4.579239458020311,Object_Sea_Pattern_Small,0,0,1,3953937,3953972,35
136,choice,choice,32,4.0,Animal,1.0,3.61779899999965,Object_Sea_Pattern_Small,0,0,0,3957026,3957910,884
136,choice,choice,32,4.0,Animal,1.0,3.61779899999965,Animal_Land_Solid_Large,2,0,1,3958165,3958844,679
136,choice,choice,32,4.0,Animal,1.0,3.61779899999965,Animal_Sea_Pattern_Large,3,0,1,3959044,3959507,463
136,choice,choice,32,4.0,Animal,1.0,3.61779899999965,Object_Land_Solid_Small,4,0,0,3959689,3959902,213
136,choice,choice,32,4.0,Animal,1.0,3.61779899999965,Object_Sea_Pattern_Small,0,0,0,3959910,3960374,464
136,choice,choice,32,4.0,Animal,1.0,3.61779899999965,Animal_Land_Solid_Large,2,0,1,3960578,3960644,66
136,choice,choice,33,5.0,Sea,1.0,9.433615707966965,Object_Land_Solid_Large,0,0,0,4258428,4258882,454
136,choice,choice,33,5.0,Sea,1.0,9.433615707966965,Animal_Sea_Pattern_Small,1,0,1,4259045,4259311,266
136,choice,choice,33,5.0,Sea,1.0,9.433615707966965,Object_Land_Solid_Large,0,0,0,4259503,4259786,283
136,choice,choice,33,5.0,Sea,1.0,9.433615707966965,fixation,-1,1,0,4260302,4260530,228
136,choice,choice,33,5.0,Sea,1.0,9.433615707966965,Animal_Sea_Solid_Large,2,0,1,4261105,4261247,142
136,choice,choice,33,5.0,Sea,1.0,9.433615707966965,Object_Land_Solid_Large,0,0,0,4261372,4262859,1487
136,choice,choice,33,5.0,Sea,1.0,9.433615707966965,fixation,-1,1,0,4265556,4265759,203
136,choice,choice,33,5.0,Sea,1.0,9.433615707966965,Animal_Sea_Solid_Large,2,0,1,4265781,4266619,838
136,choice,choice,33,5.0,Sea,1.0,9.433615707966965,Object_Sea_Solid_Small,3,0,1,4266959,4267489,530
136,choice,choice,34,5.0,Land,2.0,9.017282749991864,Object_Land_Solid_Large,0,0,1,4271048,4271238,190
136,choice,choice,34,5.0,Land,2.0,9.017282749991864,Animal_Sea_Solid_Large,2,0,0,4271386,4271600,214
136,choice,choice,34,5.0,Land,2.0,9.017282749991864,Object_Land_Solid_Large,0,0,1,4271607,4271919,312
136,choice,choice,34,5.0,Land,2.0,9.017282749991864,Animal_Sea_Pattern_Small,1,0,0,4272065,4272398,333
136,choice,choice,34,5.0,Land,2.0,9.017282749991864,Object_Land_Solid_Large,0,0,1,4272441,4272814,373
136,choice,choice,34,5.0,Land,2.0,9.017282749991864,Object_Land_Pattern_Small,4,0,1,4272850,4273231,381
136,choice,choice,34,5.0,Land,2.0,9.017282749991864,Object_Land_Solid_Large,0,0,1,4273368,4273882,514
136,choice,choice,34,5.0,Land,2.0,9.017282749991864,Animal_Sea_Solid_Large,2,0,0,4274782,4274903,121
136,choice,choice,34,5.0,Land,2.0,9.017282749991864,Object_Land_Solid_Large,0,0,1,4274920,4275477,557
136,choice,choice,34,5.0,Land,2.0,9.017282749991864,Animal_Sea_Solid_Large,2,0,0,4275641,4276414,773
136,choice,choice,34,5.0,Land,2.0,9.017282749991864,Animal_Land_Pattern_Large,5,0,1,4276632,4277000,368
136,choice,choice,34,5.0,Land,2.0,9.017282749991864,Animal_Sea_Solid_Large,2,0,0,4277285,4277436,151
136,choice,choice,34,5.0,Land,2.0,9.017282749991864,Object_Land_Solid_Large,0,0,1,4277447,4277705,258
136,choice,choice,34,5.0,Land,2.0,9.017282749991864,Object_Sea_Solid_Small,3,0,0,4277889,4278246,357
136,choice,choice,34,5.0,Land,2.0,9.017282749991864,Object_Land_Solid_Large,0,0,1,4278279,4278523,244
136,choice,choice,34,5.0,Land,2.0,9.017282749991864,Object_Sea_Solid_Small,3,0,0,4278726,4279258,532
136,choice,choice,34,5.0,Land,2.0,9.017282749991864,Object_Land_Solid_Large,0,0,1,4279478,4279560,82
136,choice,choice,35,5.0,Animal,1.0,11.014324166986626,Object_Land_Pattern_Small,4,0,0,4283527,4283700,173
136,choice,choice,35,5.0,Animal,1.0,11.014324166986626,Animal_Sea_Solid_Large,2,0,1,4283736,4284346,610
136,choice,choice,35,5.0,Animal,1.0,11.014324166986626,Object_Land_Pattern_Small,4,0,0,4284565,4284868,303
136,choice,choice,35,5.0,Animal,1.0,11.014324166986626,Animal_Sea_Solid_Large,2,0,1,4284909,4285309,400
136,choice,choice,35,5.0,Animal,1.0,11.014324166986626,Object_Land_Solid_Large,0,0,0,4285495,4286142,647
136,choice,choice,35,5.0,Animal,1.0,11.014324166986626,Animal_Sea_Pattern_Small,1,0,1,4286187,4286760,573
136,choice,choice,35,5.0,Animal,1.0,11.014324166986626,Animal_Sea_Solid_Large,2,0,1,4286958,4287101,143
136,choice,choice,35,5.0,Animal,1.0,11.014324166986626,Object_Land_Solid_Large,0,0,0,4287141,4287983,842
136,choice,choice,35,5.0,Animal,1.0,11.014324166986626,fixation,-1,1,0,4288738,4289131,393
136,choice,choice,35,5.0,Animal,1.0,11.014324166986626,Animal_Land_Pattern_Large,5,0,1,4289163,4289395,232
136,choice,choice,35,5.0,Animal,1.0,11.014324166986626,Animal_Sea_Pattern_Small,1,0,1,4290055,4290279,224
136,choice,choice,35,5.0,Animal,1.0,11.014324166986626,Object_Land_Solid_Large,0,0,0,4291070,4292246,1176
136,choice,choice,35,5.0,Animal,1.0,11.014324166986626,Object_Land_Pattern_Small,4,0,0,4292341,4293009,668
136,choice,choice,35,5.0,Animal,1.0,11.014324166986626,Object_Land_Solid_Large,0,0,0,4293290,4293844,554
136,choice,choice,35,5.0,Animal,1.0,11.014324166986626,Object_Sea_Solid_Small,3,0,0,4293870,4294130,260
136,choice,choice,36,5.0,Pattern,1.0,2.4352385840029456,Animal_Sea_Solid_Large,2,0,0,4298173,4298279,106
136,choice,choice,36,5.0,Pattern,1.0,2.4352385840029456,fixation,-1,1,0,4298299,4298782,483
136,choice,choice,36,5.0,Pattern,1.0,2.4352385840029456,Object_Land_Pattern_Small,4,0,1,4298807,4299469,662
136,choice,choice,36,5.0,Pattern,1.0,2.4352385840029456,Object_Land_Solid_Large,0,0,0,4299567,4300117,550
136,choice,choice,37,5.0,Solid,2.0,1.59811483300291,Object_Land_Solid_Large,0,0,1,4304370,4304586,216
136,choice,choice,37,5.0,Solid,2.0,1.59811483300291,Animal_Sea_Pattern_Small,1,0,0,4304634,4304892,258
136,choice,choice,39,5.0,Small,1.0,3.7379852500162087,Object_Land_Solid_Large,0,0,0,4313293,4313544,251
136,choice,choice,39,5.0,Small,1.0,3.7379852500162087,Object_Land_Pattern_Small,4,0,1,4313575,4313799,224
136,choice,choice,39,5.0,Small,1.0,3.7379852500162087,Object_Land_Solid_Large,0,0,0,4314642,4315167,525
136,choice,choice,39,5.0,Small,1.0,3.7379852500162087,Animal_Sea_Solid_Large,2,0,0,4315328,4315620,292
136,choice,choice,39,5.0,Small,1.0,3.7379852500162087,Object_Land_Pattern_Small,4,0,1,4315652,4315974,322
136,choice,choice,39,5.0,Small,1.0,3.7379852500162087,Object_Land_Solid_Large,0,0,0,4316010,4316345,335
136,choice,choice,40,5.0,Large,2.0,0.8607214580406435,Object_Land_Solid_Large,0,0,1,4319893,4320171,278
136,choice,choice,41,6.0,Large,1.0,15.644909916969482,Object_Sea_Pattern_Small,0,0,0,4609947,4610382,435
136,choice,choice,41,6.0,Large,1.0,15.644909916969482,Object_Sea_Pattern_Large,1,0,1,4610570,4610830,260
136,choice,choice,41,6.0,Large,1.0,15.644909916969482,Object_Sea_Pattern_Small,0,0,0,4610870,4611478,608
136,choice,choice,41,6.0,Large,1.0,15.644909916969482,Object_Land_Pattern_Large,2,0,1,4611668,4611905,237
136,choice,choice,41,6.0,Large,1.0,15.644909916969482,Object_Sea_Pattern_Small,0,0,0,4611952,4612541,589
136,choice,choice,41,6.0,Large,1.0,15.644909916969482,Animal_Land_Solid_Large,3,0,1,4612717,4613126,409
136,choice,choice,41,6.0,Large,1.0,15.644909916969482,Object_Sea_Pattern_Small,0,0,0,4613687,4614099,412
136,choice,choice,41,6.0,Large,1.0,15.644909916969482,Object_Land_Pattern_Large,2,0,1,4614339,4614573,234
136,choice,choice,41,6.0,Large,1.0,15.644909916969482,Object_Sea_Pattern_Small,0,0,0,4614731,4615665,934
136,choice,choice,41,6.0,Large,1.0,15.644909916969482,Object_Land_Pattern_Large,2,0,1,4616020,4616253,233
136,choice,choice,41,6.0,Large,1.0,15.644909916969482,Animal_Land_Solid_Small,4,0,0,4616289,4616437,148
136,choice,choice,41,6.0,Large,1.0,15.644909916969482,Object_Sea_Pattern_Small,0,0,0,4616452,4616969,517
136,choice,choice,41,6.0,Large,1.0,15.644909916969482,Animal_Land_Solid_Large,3,0,1,4617147,4617574,427
136,choice,choice,41,6.0,Large,1.0,15.644909916969482,Object_Sea_Pattern_Small,0,0,0,4618764,4619163,399
136,choice,choice,41,6.0,Large,1.0,15.644909916969482,Object_Land_Pattern_Large,2,0,1,4619214,4619883,669
136,choice,choice,41,6.0,Large,1.0,15.644909916969482,Animal_Land_Solid_Small,4,0,0,4621048,4621234,186
136,choice,choice,41,6.0,Large,1.0,15.644909916969482,Object_Sea_Pattern_Small,0,0,0,4621263,4622059,796
136,choice,choice,41,6.0,Large,1.0,15.644909916969482,Object_Land_Pattern_Large,2,0,1,4622463,4622836,373
136,choice,choice,41,6.0,Large,1.0,15.644909916969482,Object_Sea_Pattern_Small,0,0,0,4622868,4623141,273
136,choice,choice,41,6.0,Large,1.0,15.644909916969482,Animal_Land_Solid_Small,4,0,0,4624187,4624423,236
136,choice,choice,41,6.0,Large,1.0,15.644909916969482,Object_Land_Pattern_Large,2,0,1,4624457,4624668,211
136,choice,choice,41,6.0,Large,1.0,15.644909916969482,Object_Sea_Pattern_Small,0,0,0,4624730,4625037,307
136,choice,choice,41,6.0,Large,1.0,15.644909916969482,Animal_Land_Solid_Large,3,0,1,4625204,4625479,275
136,choice,choice,42,6.0,Land,1.0,9.734109874989372,Object_Sea_Pattern_Small,0,0,0,4628737,4628930,193
136,choice,choice,42,6.0,Land,1.0,9.734109874989372,Animal_Land_Solid_Large,3,0,1,4629076,4629363,287
136,choice,choice,42,6.0,Land,1.0,9.734109874989372,Animal_Sea_Solid_Small,5,0,0,4629500,4630026,526
136,choice,choice,42,6.0,Land,1.0,9.734109874989372,Object_Land_Pattern_Large,2,0,1,4630164,4630419,255
136,choice,choice,42,6.0,Land,1.0,9.734109874989372,Object_Sea_Pattern_Small,0,0,0,4630496,4631612,1116
136,choice,choice,42,6.0,Land,1.0,9.734109874989372,Object_Land_Pattern_Large,2,0,1,4632005,4632369,364
136,choice,choice,42,6.0,Land,1.0,9.734109874989372,Animal_Sea_Solid_Small,5,0,0,4632408,4632998,590
136,choice,choice,42,6.0,Land,1.0,9.734109874989372,Object_Sea_Pattern_Small,0,0,0,4633147,4634211,1064
136,choice,choice,42,6.0,Land,1.0,9.734109874989372,Animal_Land_Solid_Small,4,0,1,4634561,4634768,207
136,choice,choice,42,6.0,Land,1.0,9.734109874989372,Object_Sea_Pattern_Small,0,0,0,4634780,4635252,472
136,choice,choice,42,6.0,Land,1.0,9.734109874989372,Object_Sea_Pattern_Large,1,0,0,4635297,4635806,509
136,choice,choice,42,6.0,Land,1.0,9.734109874989372,Animal_Land_Solid_Large,3,0,1,4635847,4635981,134
136,choice,choice,42,6.0,Land,1.0,9.734109874989372,Object_Sea_Pattern_Small,0,0,0,4635989,4636374,385
136,choice,choice,42,6.0,Land,1.0,9.734109874989372,Object_Land_Pattern_Large,2,0,1,4636555,4636839,284
136,choice,choice,42,6.0,Land,1.0,9.734109874989372,Object_Sea_Pattern_Small,0,0,0,4636881,4637519,638
136,choice,choice,42,6.0,Land,1.0,9.734109874989372,Animal_Land_Solid_Large,3,0,1,4637892,4638040,148
136,choice,choice,43,6.0,Pattern,2.0,1.592955041967798,Object_Sea_Pattern_Small,0,0,1,4641625,4642434,809
136,choice,choice,44,6.0,Small,1.0,18.550119833031204,Object_Sea_Pattern_Small,0,0,1,4645339,4645612,273
136,choice,choice,44,6.0,Small,1.0,18.550119833031204,Animal_Land_Solid_Small,4,0,1,4645766,4645997,231
136,choice,choice,44,6.0,Small,1.0,18.550119833031204,Object_Land_Pattern_Large,2,0,0,4646024,4646459,435
136,choice,choice,44,6.0,Small,1.0,18.550119833031204,Animal_Land_Solid_Small,4,0,1,4646571,4646780,209
136,choice,choice,44,6.0,Small,1.0,18.550119833031204,Object_Sea_Pattern_Small,0,0,1,4646794,4646931,137
136,choice,choice,44,6.0,Small,1.0,18.550119833031204,Object_Sea_Pattern_Large,1,0,0,4648438,4648717,279
136,choice,choice,44,6.0,Small,1.0,18.550119833031204,Animal_Land_Solid_Large,3,0,0,4648882,4648997,115
136,choice,choice,44,6.0,Small,1.0,18.550119833031204,Object_Sea_Pattern_Small,0,0,1,4649018,4649346,328
136,choice,choice,44,6.0,Small,1.0,18.550119833031204,Animal_Land_Solid_Small,4,0,1,4649373,4649699,326
136,choice,choice,44,6.0,Small,1.0,18.550119833031204,Object_Sea_Pattern_Small,0,0,1,4649821,4650755,934
136,choice,choice,44,6.0,Small,1.0,18.550119833031204,Animal_Land_Solid_Small,4,0,1,4650894,4651478,584
136,choice,choice,44,6.0,Small,1.0,18.550119833031204,Object_Sea_Pattern_Small,0,0,1,4651877,4652286,409
136,choice,choice,44,6.0,Small,1.0,18.550119833031204,Animal_Land_Solid_Small,4,0,1,4652426,4652703,277
136,choice,choice,44,6.0,Small,1.0,18.550119833031204,Object_Land_Pattern_Large,2,0,0,4652875,4653538,663
136,choice,choice,44,6.0,Small,1.0,18.550119833031204,Animal_Land_Solid_Small,4,0,1,4654265,4654410,145
136,choice,choice,44,6.0,Small,1.0,18.550119833031204,Object_Sea_Pattern_Small,0,0,1,4654426,4655044,618
136,choice,choice,44,6.0,Small,1.0,18.550119833031204,Animal_Sea_Solid_Small,5,0,1,4655348,4656437,1089
136,choice,choice,44,6.0,Small,1.0,18.550119833031204,Animal_Land_Solid_Small,4,0,1,4656528,4656668,140
136,choice,choice,44,6.0,Small,1.0,18.550119833031204,Object_Sea_Pattern_Small,0,0,1,4656679,4657666,987
136,choice,choice,44,6.0,Small,1.0,18.550119833031204,Animal_Land_Solid_Small,4,0,1,4658231,4658434,203
136,choice,choice,44,6.0,Small,1.0,18.550119833031204,Object_Land_Pattern_Large,2,0,0,4658474,4658758,284
136,choice,choice,44,6.0,Small,1.0,18.550119833031204,Object_Sea_Pattern_Small,0,0,1,4658792,4659718,926
136,choice,choice,44,6.0,Small,1.0,18.550119833031204,Object_Land_Pattern_Large,2,0,0,4660044,4660196,152
136,choice,choice,44,6.0,Small,1.0,18.550119833031204,Object_Sea_Pattern_Small,0,0,1,4660224,4660652,428
136,choice,choice,44,6.0,Small,1.0,18.550119833031204,Object_Sea_Pattern_Large,1,0,0,4660920,4661210,290
136,choice,choice,44,6.0,Small,1.0,18.550119833031204,Animal_Land_Solid_Large,3,0,0,4661379,4661685,306
136,choice,choice,44,6.0,Small,1.0,18.550119833031204,Object_Sea_Pattern_Small,0,0,1,4661723,4662600,877
136,choice,choice,44,6.0,Small,1.0,18.550119833031204,Animal_Land_Solid_Large,3,0,0,4662643,4662829,186
136,choice,choice,44,6.0,Small,1.0,18.550119833031204,Object_Sea_Pattern_Small,0,0,1,4663418,4663786,368
136,choice,choice,45,6.0,Object,2.0,0.8990263749728911,Animal_Land_Solid_Small,4,0,0,4667482,4667648,166
136,choice,choice,45,6.0,Object,2.0,0.8990263749728911,Object_Sea_Pattern_Small,0,0,1,4667662,4667738,76
136,choice,choice,46,6.0,Solid,1.0,4.014887834026013,Object_Sea_Pattern_Small,0,0,0,4671662,4672624,962
136,choice,choice,46,6.0,Solid,1.0,4.014887834026013,Object_Land_Pattern_Large,2,0,0,4672855,4673104,249
136,choice,choice,46,6.0,Solid,1.0,4.014887834026013,Object_Sea_Pattern_Small,0,0,0,4673141,4674603,1462
136,choice,choice,46,6.0,Solid,1.0,4.014887834026013,Animal_Land_Solid_Large,3,0,1,4674766,4674804,38
136,choice,choice,47,6.0,Sea,2.0,1.730113415978849,Object_Sea_Pattern_Small,0,0,1,4677785,4678221,436
136,choice,choice,47,6.0,Sea,2.0,1.730113415978849,fixation,-1,1,0,4678235,4678397,162
136,choice,choice,47,6.0,Sea,2.0,1.730113415978849,Object_Sea_Pattern_Small,0,0,1,4678410,4679047,637
136,choice,choice,48,6.0,Animal,1.0,0.958910959016066,Object_Land_Pattern_Large,2,0,0,4682171,4682408,237
136,choice,choice,48,6.0,Animal,1.0,0.958910959016066,Object_Sea_Pattern_Small,0,0,0,4682438,4682594,156
136,choice,choice,49,7.0,Pattern,1.0,8.723338875046466,Animal_Land_Pattern_Large,0,0,1,4927925,4928134,209
136,choice,choice,49,7.0,Pattern,1.0,8.723338875046466,fixation,-1,1,0,4928170,4928480,310
136,choice,choice,49,7.0,Pattern,1.0,8.723338875046466,Object_Land_Solid_Small,1,0,0,4928621,4928902,281
136,choice,choice,49,7.0,Pattern,1.0,8.723338875046466,Object_Land_Solid_Large,2,0,0,4928948,4929136,188
136,choice,choice,49,7.0,Pattern,1.0,8.723338875046466,fixation,-1,1,0,4929325,4930104,779
136,choice,choice,49,7.0,Pattern,1.0,8.723338875046466,Object_Land_Solid_Small,1,0,0,4930720,4931194,474
136,choice,choice,49,7.0,Pattern,1.0,8.723338875046466,fixation,-1,1,0,4933415,4934190,775
136,choice,choice,49,7.0,Pattern,1.0,8.723338875046466,Animal_Sea_Pattern_Small,3,0,1,4934838,4934994,156
136,choice,choice,49,7.0,Pattern,1.0,8.723338875046466,fixation,-1,1,0,4935013,4935787,774
136,choice,choice,50,7.0,Land,2.0,2.0064226249814965,Animal_Sea_Pattern_Small,3,0,0,4939889,4940373,484
136,choice,choice,50,7.0,Land,2.0,2.0064226249814965,Animal_Land_Pattern_Large,0,0,1,4940404,4940705,301
136,choice,choice,50,7.0,Land,2.0,2.0064226249814965,fixation,-1,1,0,4940746,4941264,518
136,choice,choice,51,7.0,Small,2.0,0.4993736670003272,Object_Land_Solid_Large,2,0,0,4944196,4944346,150
136,choice,choice,52,7.0,Object,2.0,0.767697999952361,fixation,-1,1,0,4947902,4948373,471
136,choice,choice,52,7.0,Object,2.0,0.767697999952361,Animal_Sea_Pattern_Large,4,0,0,4948403,4948572,169
136,choice,choice,52,7.0,Object,2.0,0.767697999952361,fixation,-1,1,0,4948600,4948664,64
136,choice,choice,53,7.0,Sea,1.0,4.904410332965199,Object_Land_Solid_Large,2,0,0,4952843,4953290,447
136,choice,choice,53,7.0,Sea,1.0,4.904410332965199,Animal_Sea_Pattern_Large,4,0,1,4953313,4953550,237
136,choice,choice,53,7.0,Sea,1.0,4.904410332965199,fixation,-1,1,0,4953583,4953911,328
136,choice,choice,53,7.0,Sea,1.0,4.904410332965199,Object_Sea_Solid_Small,5,0,1,4953945,4954119,174
136,choice,choice,53,7.0,Sea,1.0,4.904410332965199,fixation,-1,1,0,4954141,4954901,760
136,choice,choice,53,7.0,Sea,1.0,4.904410332965199,Object_Land_Solid_Large,2,0,0,4955751,4956261,510
136,choice,choice,54,7.0,Animal,1.0,2.748088958032895,Object_Land_Solid_Small,1,0,0,4960531,4960638,107
136,choice,choice,54,7.0,Animal,1.0,2.748088958032895,Object_Land_Solid_Large,2,0,0,4960655,4961177,522
136,choice,choice,54,7.0,Animal,1.0,2.748088958032895,Animal_Land_Pattern_Large,0,0,1,4961334,4961451,117
136,choice,choice,54,7.0,Animal,1.0,2.748088958032895,Object_Sea_Solid_Small,5,0,0,4962163,4962581,418
136,choice,choice,54,7.0,Animal,1.0,2.748088958032895,Object_Land_Solid_Large,2,0,0,4962609,4962670,61
136,choice,choice,55,7.0,Solid,2.0,2.2465713749988936,Object_Land_Solid_Small,1,0,1,4966349,4966636,287
136,choice,choice,55,7.0,Solid,2.0,2.2465713749988936,fixation,-1,1,0,4967268,4967513,245
136,choice,choice,55,7.0,Solid,2.0,2.2465713749988936,Object_Land_Solid_Large,2,0,1,4967576,4968063,487
136,choice,choice,56,7.0,Large,1.0,2.1472614579834044,Object_Land_Solid_Large,2,0,1,4971234,4971454,220
136,choice,choice,56,7.0,Large,1.0,2.1472614579834044,Animal_Sea_Pattern_Large,4,0,1,4971491,4971861,370
136,choice,choice,56,7.0,Large,1.0,2.1472614579834044,Object_Land_Solid_Small,1,0,0,4971901,4972059,158
136,choice,choice,56,7.0,Large,1.0,2.1472614579834044,Object_Land_Solid_Large,2,0,1,4972068,4972363,295
136,choice,choice,56,7.0,Large,1.0,2.1472614579834044,Object_Land_Solid_Small,1,0,0,4972546,4972768,222
