phase,event,trial_number,eyetracker_onset,eyetracker_offset,fix_start,fix_end,fix_duration_full,fix_duration_bounded,fix_x,fix_y,roi_x,roi_y,roi_content,onset,offset,game,image,outcome,choice,correct,rt,letter,match,response,option,true_value,true_position,recalled_position,Unnamed: 18
encoding,fixation,1,2558034,2558552,2558315,2558509,195,195,1857.2,1119.2,1591.0,891.0,Object_Sea_Pattern_Small,9.685939457966017,10.203681874962058,1.0,Animal_Land_Pattern_Small,-7.0,,,,,,,,,,,
encoding,image,1,2558552,2559573,2558621,2558741,121,121,1897.1,1131.0,1920.0,1080.0,fixation,10.203802708012518,11.224998374993447,1.0,Animal_Land_Pattern_Small,-7.0,,,,,,,,,,,
encoding,image,1,2558552,2559573,2558801,2558881,81,81,1941.2,565.7,1920.0,1460.0,Animal_Land_Pattern_Small,10.203802708012518,11.224998374993447,1.0,Animal_Land_Pattern_Small,-7.0,,,,,,,,,,,
encoding,image,1,2558552,2559573,2558901,2559445,545,545,1909.0,646.0999999999999,1920.0,1460.0,Animal_Land_Pattern_Small,10.203802708012518,11.224998374993447,1.0,Animal_Land_Pattern_Small,-7.0,,,,,,,,,,,
encoding,value,1,2559573,2565591,2559616,2559820,205,205,1899.5,667.0,1920.0,1460.0,Animal_Land_Pattern_Small,11.225109874969348,17.24205649999203,1.0,Animal_Land_Pattern_Small,-7.0,,,,,,,,,,,
encoding,value,1,2559573,2565591,2559836,2560353,518,518,1908.1,590.9000000000001,1920.0,1460.0,Animal_Land_Pattern_Small,11.225109874969348,17.24205649999203,1.0,Animal_Land_Pattern_Small,-7.0,,,,,,,,,,,
encoding,value,1,2559573,2565591,2560375,2560753,379,379,1904.1,703.7,1920.0,1460.0,Animal_Land_Pattern_Small,11.225109874969348,17.24205649999203,1.0,Animal_Land_Pattern_Small,-7.0,,,,,,,,,,,
encoding,value,1,2559573,2565591,2560888,2561439,552,552,1909.6,700.7,1920.0,1460.0,Animal_Land_Pattern_Small,11.225109874969348,17.24205649999203,1.0,Animal_Land_Pattern_Small,-7.0,,,,,,,,,,,
encoding,value,1,2559573,2565591,2561450,2561930,481,481,1876.7,708.3,1920.0,1460.0,Animal_Land_Pattern_Small,11.225109874969348,17.24205649999203,1.0,Animal_Land_Pattern_Small,-7.0,,,,,,,,,,,
encoding,value,1,2559573,2565591,2562116,2563271,1156,1156,1889.9,704.3,1920.0,1460.0,Animal_Land_Pattern_Small,11.225109874969348,17.24205649999203,1.0,Animal_Land_Pattern_Small,-7.0,,,,,,,,,,,
encoding,value,1,2559573,2565591,2563461,2563773,313,313,1965.6,583.4000000000001,1920.0,1460.0,Animal_Land_Pattern_Small,11.225109874969348,17.24205649999203,1.0,Animal_Land_Pattern_Small,-7.0,,,,,,,,,,,
encoding,value,1,2559573,2565591,2563790,2564379,590,590,1970.2,680.3,1920.0,1460.0,Animal_Land_Pattern_Small,11.225109874969348,17.24205649999203,1.0,Animal_Land_Pattern_Small,-7.0,,,,,,,,,,,
encoding,value,1,2559573,2565591,2564406,2564809,404,404,1954.8,577.0,1920.0,1460.0,Animal_Land_Pattern_Small,11.225109874969348,17.24205649999203,1.0,Animal_Land_Pattern_Small,-7.0,,,,,,,,,,,
encoding,value,1,2559573,2565591,2564925,2565437,513,513,1953.6,572.0,1920.0,1460.0,Animal_Land_Pattern_Small,11.225109874969348,17.24205649999203,1.0,Animal_Land_Pattern_Small,-7.0,,,,,,,,,,,
encoding,value,1,2559573,2565591,2565459,2565856,398,132,1905.5,710.8,1920.0,1460.0,Animal_Land_Pattern_Small,11.225109874969348,17.24205649999203,1.0,Animal_Land_Pattern_Small,-7.0,,,,,,,,,,,
encoding,attention,1,2565591,2568609,2565877,2566380,504,504,1978.9,543.4000000000001,1920.0,1460.0,Animal_Land_Pattern_Small,17.242267082969192,20.261013332987204,1.0,Animal_Land_Pattern_Small,-7.0,-7.0,1.0,1.388440334005281,,,,,,,,
encoding,attention,1,2565591,2568609,2566395,2566758,364,364,1891.3,568.2,1920.0,1460.0,Animal_Land_Pattern_Small,17.242267082969192,20.261013332987204,1.0,Animal_Land_Pattern_Small,-7.0,-7.0,1.0,1.388440334005281,,,,,,,,
encoding,attention,1,2565591,2568609,2566909,2567407,499,499,1868.2,595.0999999999999,1920.0,1460.0,Animal_Land_Pattern_Small,17.242267082969192,20.261013332987204,1.0,Animal_Land_Pattern_Small,-7.0,-7.0,1.0,1.388440334005281,,,,,,,,
encoding,attention,1,2565591,2568609,2567431,2567662,232,232,1880.5,735.2,1920.0,1460.0,Animal_Land_Pattern_Small,17.242267082969192,20.261013332987204,1.0,Animal_Land_Pattern_Small,-7.0,-7.0,1.0,1.388440334005281,,,,,,,,
encoding,attention,1,2565591,2568609,2567710,2567899,190,190,1859.9,1090.6,1920.0,1080.0,fixation,17.242267082969192,20.261013332987204,1.0,Animal_Land_Pattern_Small,-7.0,-7.0,1.0,1.388440334005281,,,,,,,,
encoding,attention,1,2565591,2568609,2567911,2568115,205,205,1836.9,1100.3,1591.0,891.0,Object_Sea_Pattern_Small,17.242267082969192,20.261013332987204,1.0,Animal_Land_Pattern_Small,-7.0,-7.0,1.0,1.388440334005281,,,,,,,,
encoding,fixation,2,2568610,2569115,2568823,2568919,97,97,1912.0,703.7,1920.0,1460.0,Animal_Land_Pattern_Small,20.261162500013597,20.76646037498722,1.0,Object_Sea_Pattern_Small,2.0,,,,,,,,,,,
encoding,fixation,2,2568610,2569115,2568957,2569618,662,158,1827.8,1150.5,1591.0,891.0,Object_Sea_Pattern_Small,20.261162500013597,20.76646037498722,1.0,Object_Sea_Pattern_Small,2.0,,,,,,,,,,,
encoding,image,2,2569115,2570127,2569655,2570533,879,472,1569.6,1287.9,1591.0,891.0,Object_Sea_Pattern_Small,20.766582374984864,21.7786267909687,1.0,Object_Sea_Pattern_Small,2.0,,,,,,,,,,,
encoding,value,2,2570127,2576140,2570547,2570849,303,303,1548.7,1198.1,1591.0,891.0,Object_Sea_Pattern_Small,21.778740208013915,27.79142858297564,1.0,Object_Sea_Pattern_Small,2.0,,,,,,,,,,,
encoding,value,2,2570127,2576140,2570862,2571026,165,165,1562.3,1274.3,1591.0,891.0,Object_Sea_Pattern_Small,21.778740208013915,27.79142858297564,1.0,Object_Sea_Pattern_Small,2.0,,,,,,,,,,,
encoding,value,2,2570127,2576140,2571133,2571524,392,392,1568.6,1284.6,1591.0,891.0,Object_Sea_Pattern_Small,21.778740208013915,27.79142858297564,1.0,Object_Sea_Pattern_Small,2.0,,,,,,,,,,,
encoding,value,2,2570127,2576140,2571539,2572213,675,675,1574.4,1215.9,1591.0,891.0,Object_Sea_Pattern_Small,21.778740208013915,27.79142858297564,1.0,Object_Sea_Pattern_Small,2.0,,,,,,,,,,,
encoding,value,2,2570127,2576140,2572346,2573455,1110,1110,1546.7,1199.3,1591.0,891.0,Object_Sea_Pattern_Small,21.778740208013915,27.79142858297564,1.0,Object_Sea_Pattern_Small,2.0,,,,,,,,,,,
encoding,value,2,2570127,2576140,2573574,2574843,1270,1270,1542.8,1199.5,1591.0,891.0,Object_Sea_Pattern_Small,21.778740208013915,27.79142858297564,1.0,Object_Sea_Pattern_Small,2.0,,,,,,,,,,,
encoding,value,2,2570127,2576140,2575002,2575134,133,133,1800.4,1170.8,1591.0,891.0,Object_Sea_Pattern_Small,21.778740208013915,27.79142858297564,1.0,Object_Sea_Pattern_Small,2.0,,,,,,,,,,,
encoding,value,2,2570127,2576140,2575158,2575368,211,211,1548.6,1238.5,1591.0,891.0,Object_Sea_Pattern_Small,21.778740208013915,27.79142858297564,1.0,Object_Sea_Pattern_Small,2.0,,,,,,,,,,,
encoding,value,2,2570127,2576140,2575385,2575623,239,239,1574.6,1305.2,1591.0,891.0,Object_Sea_Pattern_Small,21.778740208013915,27.79142858297564,1.0,Object_Sea_Pattern_Small,2.0,,,,,,,,,,,
encoding,value,2,2570127,2576140,2575642,2575962,321,321,1556.9,1179.4,1591.0,891.0,Object_Sea_Pattern_Small,21.778740208013915,27.79142858297564,1.0,Object_Sea_Pattern_Small,2.0,,,,,,,,,,,
encoding,value,2,2570127,2576140,2575968,2576203,236,172,1543.2,1160.7,1591.0,891.0,Object_Sea_Pattern_Small,21.778740208013915,27.79142858297564,1.0,Object_Sea_Pattern_Small,2.0,,,,,,,,,,,
encoding,attention,2,2576140,2579161,2576389,2576587,199,199,1543.8,1258.9,1591.0,891.0,Object_Sea_Pattern_Small,27.79157420800766,30.81186787498882,1.0,Object_Sea_Pattern_Small,2.0,2.0,1.0,2.188733624992892,,,,,,,,
encoding,attention,2,2576140,2579161,2576598,2576723,126,126,1569.3,1208.6,1591.0,891.0,Object_Sea_Pattern_Small,27.79157420800766,30.81186787498882,1.0,Object_Sea_Pattern_Small,2.0,2.0,1.0,2.188733624992892,,,,,,,,
encoding,attention,2,2576140,2579161,2576736,2576975,240,240,1489.5,1178.3,1591.0,891.0,Object_Sea_Pattern_Small,27.79157420800766,30.81186787498882,1.0,Object_Sea_Pattern_Small,2.0,2.0,1.0,2.188733624992892,,,,,,,,
encoding,attention,2,2576140,2579161,2576989,2577236,248,248,1571.0,1187.6,1591.0,891.0,Object_Sea_Pattern_Small,27.79157420800766,30.81186787498882,1.0,Object_Sea_Pattern_Small,2.0,2.0,1.0,2.188733624992892,,,,,,,,
encoding,attention,2,2576140,2579161,2577255,2577548,294,294,1490.5,1177.8,1591.0,891.0,Object_Sea_Pattern_Small,27.79157420800766,30.81186787498882,1.0,Object_Sea_Pattern_Small,2.0,2.0,1.0,2.188733624992892,,,,,,,,
encoding,attention,2,2576140,2579161,2577563,2578071,509,509,1583.9,1212.8,1591.0,891.0,Object_Sea_Pattern_Small,27.79157420800766,30.81186787498882,1.0,Object_Sea_Pattern_Small,2.0,2.0,1.0,2.188733624992892,,,,,,,,
encoding,attention,2,2576140,2579161,2578178,2578756,579,579,1590.7,1227.3,1591.0,891.0,Object_Sea_Pattern_Small,27.79157420800766,30.81186787498882,1.0,Object_Sea_Pattern_Small,2.0,2.0,1.0,2.188733624992892,,,,,,,,
encoding,attention,2,2576140,2579161,2578779,2578987,209,209,1575.4,1351.0,1591.0,891.0,Object_Sea_Pattern_Small,27.79157420800766,30.81186787498882,1.0,Object_Sea_Pattern_Small,2.0,2.0,1.0,2.188733624992892,,,,,,,,
encoding,fixation,3,2579161,2579916,2579391,2579669,279,279,1861.8,1113.5,1920.0,1080.0,fixation,30.812026916013565,31.56697520799935,1.0,Animal_Sea_Pattern_Large,-1.0,,,,,,,,,,,
encoding,fixation,3,2579161,2579916,2579753,2580119,367,163,1868.5,1099.9,1920.0,1080.0,fixation,30.812026916013565,31.56697520799935,1.0,Animal_Sea_Pattern_Large,-1.0,,,,,,,,,,,
encoding,image,3,2579916,2580928,2580156,2580476,321,321,2220.1,1315.5,2249.0,891.0,Animal_Sea_Pattern_Large,31.56708858301863,32.57919741596561,1.0,Animal_Sea_Pattern_Large,-1.0,,,,,,,,,,,
encoding,image,3,2579916,2580928,2580486,2580886,401,401,2198.5,1352.3,2249.0,891.0,Animal_Sea_Pattern_Large,31.56708858301863,32.57919741596561,1.0,Animal_Sea_Pattern_Large,-1.0,,,,,,,,,,,
encoding,value,3,2580928,2586940,2580993,2581164,172,172,2218.8,1359.1,2249.0,891.0,Animal_Sea_Pattern_Large,32.579329999978654,38.59081258298829,1.0,Animal_Sea_Pattern_Large,-1.0,,,,,,,,,,,
encoding,value,3,2580928,2586940,2581187,2581508,322,322,2239.1,1276.1,2249.0,891.0,Animal_Sea_Pattern_Large,32.579329999978654,38.59081258298829,1.0,Animal_Sea_Pattern_Large,-1.0,,,,,,,,,,,
encoding,value,3,2580928,2586940,2581526,2581895,370,370,2202.4,1360.3,2249.0,891.0,Animal_Sea_Pattern_Large,32.579329999978654,38.59081258298829,1.0,Animal_Sea_Pattern_Large,-1.0,,,,,,,,,,,
encoding,value,3,2580928,2586940,2581908,2582361,454,454,2186.3,1405.5,2249.0,891.0,Animal_Sea_Pattern_Large,32.579329999978654,38.59081258298829,1.0,Animal_Sea_Pattern_Large,-1.0,,,,,,,,,,,
encoding,value,3,2580928,2586940,2582374,2583272,899,899,2260.4,1359.0,2249.0,891.0,Animal_Sea_Pattern_Large,32.579329999978654,38.59081258298829,1.0,Animal_Sea_Pattern_Large,-1.0,,,,,,,,,,,
encoding,value,3,2580928,2586940,2583286,2583936,651,651,2196.0,1382.3,2249.0,891.0,Animal_Sea_Pattern_Large,32.579329999978654,38.59081258298829,1.0,Animal_Sea_Pattern_Large,-1.0,,,,,,,,,,,
encoding,value,3,2580928,2586940,2584079,2584497,419,419,2204.3,1284.0,2249.0,891.0,Animal_Sea_Pattern_Large,32.579329999978654,38.59081258298829,1.0,Animal_Sea_Pattern_Large,-1.0,,,,,,,,,,,
encoding,value,3,2580928,2586940,2584519,2584858,340,340,2189.2,1341.3,2249.0,891.0,Animal_Sea_Pattern_Large,32.579329999978654,38.59081258298829,1.0,Animal_Sea_Pattern_Large,-1.0,,,,,,,,,,,
encoding,value,3,2580928,2586940,2584873,2585035,163,163,2148.9,1376.7,2249.0,891.0,Animal_Sea_Pattern_Large,32.579329999978654,38.59081258298829,1.0,Animal_Sea_Pattern_Large,-1.0,,,,,,,,,,,
encoding,value,3,2580928,2586940,2585060,2585531,472,472,2176.9,1275.5,2249.0,891.0,Animal_Sea_Pattern_Large,32.579329999978654,38.59081258298829,1.0,Animal_Sea_Pattern_Large,-1.0,,,,,,,,,,,
encoding,value,3,2580928,2586940,2585551,2585880,330,330,2197.6,1388.9,2249.0,891.0,Animal_Sea_Pattern_Large,32.579329999978654,38.59081258298829,1.0,Animal_Sea_Pattern_Large,-1.0,,,,,,,,,,,
encoding,value,3,2580928,2586940,2585898,2586069,172,172,2199.8,1299.9,2249.0,891.0,Animal_Sea_Pattern_Large,32.579329999978654,38.59081258298829,1.0,Animal_Sea_Pattern_Large,-1.0,,,,,,,,,,,
encoding,value,3,2580928,2586940,2586166,2587094,929,774,2189.9,1283.2,2249.0,891.0,Animal_Sea_Pattern_Large,32.579329999978654,38.59081258298829,1.0,Animal_Sea_Pattern_Large,-1.0,,,,,,,,,,,
encoding,attention,3,2586940,2589992,2587114,2587292,179,179,2151.1,1349.0,2249.0,891.0,Animal_Sea_Pattern_Large,38.59093866596231,41.642398457974195,1.0,Animal_Sea_Pattern_Large,-1.0,-1.0,1.0,1.2537477079895325,,,,,,,,
encoding,attention,3,2586940,2589992,2587311,2587681,371,371,2249.2,1308.6,2249.0,891.0,Animal_Sea_Pattern_Large,38.59093866596231,41.642398457974195,1.0,Animal_Sea_Pattern_Large,-1.0,-1.0,1.0,1.2537477079895325,,,,,,,,
encoding,attention,3,2586940,2589992,2587808,2588055,248,248,2234.4,1412.7,2249.0,891.0,Animal_Sea_Pattern_Large,38.59093866596231,41.642398457974195,1.0,Animal_Sea_Pattern_Large,-1.0,-1.0,1.0,1.2537477079895325,,,,,,,,
encoding,attention,3,2586940,2589992,2588077,2588518,442,442,2228.6,1276.6,2249.0,891.0,Animal_Sea_Pattern_Large,38.59093866596231,41.642398457974195,1.0,Animal_Sea_Pattern_Large,-1.0,-1.0,1.0,1.2537477079895325,,,,,,,,
encoding,attention,3,2586940,2589992,2588542,2588865,324,324,2172.0,1401.1,2249.0,891.0,Animal_Sea_Pattern_Large,38.59093866596231,41.642398457974195,1.0,Animal_Sea_Pattern_Large,-1.0,-1.0,1.0,1.2537477079895325,,,,,,,,
encoding,attention,3,2586940,2589992,2588875,2589295,421,421,2144.2,1403.5,2249.0,891.0,Animal_Sea_Pattern_Large,38.59093866596231,41.642398457974195,1.0,Animal_Sea_Pattern_Large,-1.0,-1.0,1.0,1.2537477079895325,,,,,,,,
encoding,attention,3,2586940,2589992,2589353,2589424,72,72,2157.1,1379.1,2249.0,891.0,Animal_Sea_Pattern_Large,38.59093866596231,41.642398457974195,1.0,Animal_Sea_Pattern_Large,-1.0,-1.0,1.0,1.2537477079895325,,,,,,,,
encoding,fixation,4,2589992,2591497,2590233,2590355,123,123,1914.2,1101.2,1920.0,1080.0,fixation,41.64255345799029,43.147558374970686,1.0,Object_Land_Solid_Small,4.0,,,,,,,,,,,
encoding,fixation,4,2589992,2591497,2590372,2590564,193,193,1851.7,1056.8,1591.0,1269.0,Animal_Land_Solid_Large,41.64255345799029,43.147558374970686,1.0,Object_Land_Solid_Small,4.0,,,,,,,,,,,
encoding,fixation,4,2589992,2591497,2590669,2591793,1125,828,1879.6,1081.1,1920.0,1080.0,fixation,41.64255345799029,43.147558374970686,1.0,Object_Land_Solid_Small,4.0,,,,,,,,,,,
encoding,image,4,2591497,2592509,2591834,2592496,663,663,1861.3,1481.9,1920.0,700.0,Object_Land_Solid_Small,43.14767895801924,44.15932841598987,1.0,Object_Land_Solid_Small,4.0,,,,,,,,,,,
encoding,value,4,2592509,2598521,2592517,2592895,379,379,1857.8,1350.7,1920.0,700.0,Object_Land_Solid_Small,44.15946437499952,50.17133704101434,1.0,Object_Land_Solid_Small,4.0,,,,,,,,,,,
encoding,value,4,2592509,2598521,2592988,2593761,774,774,1873.5,1494.5,1920.0,700.0,Object_Land_Solid_Small,44.15946437499952,50.17133704101434,1.0,Object_Land_Solid_Small,4.0,,,,,,,,,,,
encoding,value,4,2592509,2598521,2593770,2594460,691,691,1866.7,1508.4,1920.0,700.0,Object_Land_Solid_Small,44.15946437499952,50.17133704101434,1.0,Object_Land_Solid_Small,4.0,,,,,,,,,,,
encoding,value,4,2592509,2598521,2594552,2595057,506,506,1863.3,1408.9,1920.0,700.0,Object_Land_Solid_Small,44.15946437499952,50.17133704101434,1.0,Object_Land_Solid_Small,4.0,,,,,,,,,,,
encoding,value,4,2592509,2598521,2595079,2595575,497,497,1849.8,1493.1,1920.0,700.0,Object_Land_Solid_Small,44.15946437499952,50.17133704101434,1.0,Object_Land_Solid_Small,4.0,,,,,,,,,,,
encoding,value,4,2592509,2598521,2595710,2597013,1304,1304,1832.1,1372.6,1920.0,700.0,Object_Land_Solid_Small,44.15946437499952,50.17133704101434,1.0,Object_Land_Solid_Small,4.0,,,,,,,,,,,
encoding,value,4,2592509,2598521,2597127,2597466,340,340,1843.4,1392.6,1920.0,700.0,Object_Land_Solid_Small,44.15946437499952,50.17133704101434,1.0,Object_Land_Solid_Small,4.0,,,,,,,,,,,
encoding,value,4,2592509,2598521,2597482,2597675,194,194,1864.6,1464.3,1920.0,700.0,Object_Land_Solid_Small,44.15946437499952,50.17133704101434,1.0,Object_Land_Solid_Small,4.0,,,,,,,,,,,
encoding,value,4,2592509,2598521,2597684,2598038,355,355,1882.2,1500.9,1920.0,700.0,Object_Land_Solid_Small,44.15946437499952,50.17133704101434,1.0,Object_Land_Solid_Small,4.0,,,,,,,,,,,
encoding,value,4,2592509,2598521,2598054,2598553,500,467,1859.3,1405.9,1920.0,700.0,Object_Land_Solid_Small,44.15946437499952,50.17133704101434,1.0,Object_Land_Solid_Small,4.0,,,,,,,,,,,
encoding,attention,4,2598521,2601539,2598662,2599114,453,453,1880.1,1398.0,1920.0,700.0,Object_Land_Solid_Small,50.171482041012496,53.18885737500386,1.0,Object_Land_Solid_Small,4.0,4.0,1.0,1.1303870839765295,,,,,,,,
encoding,attention,4,2598521,2601539,2599124,2600124,1001,1001,1841.2,1412.3,1920.0,700.0,Object_Land_Solid_Small,50.171482041012496,53.18885737500386,1.0,Object_Land_Solid_Small,4.0,4.0,1.0,1.1303870839765295,,,,,,,,
encoding,fixation,5,2601539,2603044,2601856,2601972,117,117,1804.6,1107.4,1591.0,891.0,Object_Sea_Pattern_Small,53.18900420801947,54.69412666599965,1.0,Animal_Land_Solid_Large,9.0,,,,,,,,,,,
encoding,fixation,5,2601539,2603044,2601980,2602185,206,206,1846.9,1117.3,1591.0,891.0,Object_Sea_Pattern_Small,53.18900420801947,54.69412666599965,1.0,Animal_Land_Solid_Large,9.0,,,,,,,,,,,
encoding,fixation,5,2601539,2603044,2602336,2603243,908,708,1863.2,1087.2,1920.0,1080.0,fixation,53.18900420801947,54.69412666599965,1.0,Animal_Land_Solid_Large,9.0,,,,,,,,,,,
encoding,image,5,2603044,2604056,2603289,2604153,865,767,1584.6,846.9000000000001,1591.0,1269.0,Animal_Land_Solid_Large,54.69427724997513,55.70567533298163,1.0,Animal_Land_Solid_Large,9.0,,,,,,,,,,,
encoding,value,5,2604056,2610068,2604169,2604316,148,148,1616.0,727.5999999999999,1591.0,1269.0,Animal_Land_Solid_Large,55.705821125011425,61.71799783298047,1.0,Animal_Land_Solid_Large,9.0,,,,,,,,,,,
encoding,value,5,2604056,2610068,2604337,2604531,195,195,1618.3,657.4000000000001,1591.0,1269.0,Animal_Land_Solid_Large,55.705821125011425,61.71799783298047,1.0,Animal_Land_Solid_Large,9.0,,,,,,,,,,,
encoding,value,5,2604056,2610068,2604618,2604751,134,134,1593.1,805.3,1591.0,1269.0,Animal_Land_Solid_Large,55.705821125011425,61.71799783298047,1.0,Animal_Land_Solid_Large,9.0,,,,,,,,,,,
encoding,value,5,2604056,2610068,2604766,2605480,715,715,1563.4,874.4000000000001,1591.0,1269.0,Animal_Land_Solid_Large,55.705821125011425,61.71799783298047,1.0,Animal_Land_Solid_Large,9.0,,,,,,,,,,,
encoding,value,5,2604056,2610068,2605660,2605792,133,133,1529.1,872.2,1591.0,1269.0,Animal_Land_Solid_Large,55.705821125011425,61.71799783298047,1.0,Animal_Land_Solid_Large,9.0,,,,,,,,,,,
encoding,value,5,2604056,2610068,2605800,2606179,380,380,1584.7,864.0,1591.0,1269.0,Animal_Land_Solid_Large,55.705821125011425,61.71799783298047,1.0,Animal_Land_Solid_Large,9.0,,,,,,,,,,,
encoding,value,5,2604056,2610068,2606204,2606465,262,262,1571.0,681.3,1591.0,1269.0,Animal_Land_Solid_Large,55.705821125011425,61.71799783298047,1.0,Animal_Land_Solid_Large,9.0,,,,,,,,,,,
encoding,value,5,2604056,2610068,2606490,2606740,251,251,1570.0,842.4000000000001,1591.0,1269.0,Animal_Land_Solid_Large,55.705821125011425,61.71799783298047,1.0,Animal_Land_Solid_Large,9.0,,,,,,,,,,,
encoding,value,5,2604056,2610068,2606880,2607255,376,376,1563.4,862.7,1591.0,1269.0,Animal_Land_Solid_Large,55.705821125011425,61.71799783298047,1.0,Animal_Land_Solid_Large,9.0,,,,,,,,,,,
encoding,value,5,2604056,2610068,2607280,2607648,369,369,1573.8,714.9000000000001,1591.0,1269.0,Animal_Land_Solid_Large,55.705821125011425,61.71799783298047,1.0,Animal_Land_Solid_Large,9.0,,,,,,,,,,,
encoding,value,5,2604056,2610068,2607671,2608773,1103,1103,1562.5,877.8,1591.0,1269.0,Animal_Land_Solid_Large,55.705821125011425,61.71799783298047,1.0,Animal_Land_Solid_Large,9.0,,,,,,,,,,,
encoding,value,5,2604056,2610068,2608800,2609147,348,348,1580.3,696.4000000000001,1591.0,1269.0,Animal_Land_Solid_Large,55.705821125011425,61.71799783298047,1.0,Animal_Land_Solid_Large,9.0,,,,,,,,,,,
encoding,value,5,2604056,2610068,2609171,2609617,447,447,1565.8,863.3,1591.0,1269.0,Animal_Land_Solid_Large,55.705821125011425,61.71799783298047,1.0,Animal_Land_Solid_Large,9.0,,,,,,,,,,,
encoding,value,5,2604056,2610068,2609744,2610269,526,324,1589.6,868.5,1591.0,1269.0,Animal_Land_Solid_Large,55.705821125011425,61.71799783298047,1.0,Animal_Land_Solid_Large,9.0,,,,,,,,,,,
encoding,attention,5,2610069,2613086,2610295,2610503,209,209,1569.6,696.2,1591.0,1269.0,Animal_Land_Solid_Large,61.71818695799448,64.73598391597625,1.0,Animal_Land_Solid_Large,9.0,9.0,1.0,1.5757672089966943,,,,,,,,
encoding,attention,5,2610069,2613086,2610515,2610858,344,344,1513.5,682.8,1591.0,1269.0,Animal_Land_Solid_Large,61.71818695799448,64.73598391597625,1.0,Animal_Land_Solid_Large,9.0,9.0,1.0,1.5757672089966943,,,,,,,,
encoding,attention,5,2610069,2613086,2610977,2611089,113,113,1539.9,707.4000000000001,1591.0,1269.0,Animal_Land_Solid_Large,61.71818695799448,64.73598391597625,1.0,Animal_Land_Solid_Large,9.0,9.0,1.0,1.5757672089966943,,,,,,,,
encoding,attention,5,2610069,2613086,2611102,2611893,792,792,1612.3,727.7,1591.0,1269.0,Animal_Land_Solid_Large,61.71818695799448,64.73598391597625,1.0,Animal_Land_Solid_Large,9.0,9.0,1.0,1.5757672089966943,,,,,,,,
encoding,attention,5,2610069,2613086,2611933,2612135,203,203,1831.1,1141.5,1591.0,891.0,Object_Sea_Pattern_Small,61.71818695799448,64.73598391597625,1.0,Animal_Land_Solid_Large,9.0,9.0,1.0,1.5757672089966943,,,,,,,,
encoding,attention,5,2610069,2613086,2612146,2612598,453,453,1847.1,1047.1,1591.0,1269.0,Animal_Land_Solid_Large,61.71818695799448,64.73598391597625,1.0,Animal_Land_Solid_Large,9.0,9.0,1.0,1.5757672089966943,,,,,,,,
encoding,attention,5,2610069,2613086,2612735,2612787,53,53,1536.9,727.0999999999999,1591.0,1269.0,Animal_Land_Solid_Large,61.71818695799448,64.73598391597625,1.0,Animal_Land_Solid_Large,9.0,9.0,1.0,1.5757672089966943,,,,,,,,
encoding,attention,5,2610069,2613086,2612795,2612875,81,81,1551.6,676.0,1591.0,1269.0,Animal_Land_Solid_Large,61.71818695799448,64.73598391597625,1.0,Animal_Land_Solid_Large,9.0,9.0,1.0,1.5757672089966943,,,,,,,,
encoding,fixation,6,2613087,2613592,2613403,2613994,592,189,1866.0,1094.8,1920.0,1080.0,fixation,64.73617524997098,65.24163641600171,1.0,Object_Sea_Solid_Large,-9.0,,,,,,,,,,,
encoding,image,6,2613592,2614604,2614040,2614760,721,564,2234.6,840.5999999999999,2249.0,1269.0,Object_Sea_Solid_Large,65.24173712497577,66.25293462496484,1.0,Object_Sea_Solid_Large,-9.0,,,,,,,,,,,
encoding,value,6,2614604,2620616,2614779,2615034,256,256,2305.7,715.8,2249.0,1269.0,Object_Sea_Solid_Large,66.25312174996361,72.26490520796506,1.0,Object_Sea_Solid_Large,-9.0,,,,,,,,,,,
encoding,value,6,2614604,2620616,2615133,2615326,194,194,2268.7,781.9000000000001,2249.0,1269.0,Object_Sea_Solid_Large,66.25312174996361,72.26490520796506,1.0,Object_Sea_Solid_Large,-9.0,,,,,,,,,,,
encoding,value,6,2614604,2620616,2615337,2615578,242,242,2246.8,820.9000000000001,2249.0,1269.0,Object_Sea_Solid_Large,66.25312174996361,72.26490520796506,1.0,Object_Sea_Solid_Large,-9.0,,,,,,,,,,,
encoding,value,6,2614604,2620616,2615752,2616179,428,428,2252.5,857.5,2249.0,1269.0,Object_Sea_Solid_Large,66.25312174996361,72.26490520796506,1.0,Object_Sea_Solid_Large,-9.0,,,,,,,,,,,
encoding,value,6,2614604,2620616,2616195,2616595,401,401,2271.4,756.0999999999999,2249.0,1269.0,Object_Sea_Solid_Large,66.25312174996361,72.26490520796506,1.0,Object_Sea_Solid_Large,-9.0,,,,,,,,,,,
encoding,value,6,2614604,2620616,2616604,2617060,457,457,2246.3,840.5,2249.0,1269.0,Object_Sea_Solid_Large,66.25312174996361,72.26490520796506,1.0,Object_Sea_Solid_Large,-9.0,,,,,,,,,,,
encoding,value,6,2614604,2620616,2617079,2617386,308,308,2296.9,739.4000000000001,2249.0,1269.0,Object_Sea_Solid_Large,66.25312174996361,72.26490520796506,1.0,Object_Sea_Solid_Large,-9.0,,,,,,,,,,,
encoding,value,6,2614604,2620616,2617521,2617766,246,246,2290.2,740.2,2249.0,1269.0,Object_Sea_Solid_Large,66.25312174996361,72.26490520796506,1.0,Object_Sea_Solid_Large,-9.0,,,,,,,,,,,
encoding,value,6,2614604,2620616,2617948,2618283,336,336,2247.7,835.5999999999999,2249.0,1269.0,Object_Sea_Solid_Large,66.25312174996361,72.26490520796506,1.0,Object_Sea_Solid_Large,-9.0,,,,,,,,,,,
encoding,value,6,2614604,2620616,2618301,2618991,691,691,2256.5,759.7,2249.0,1269.0,Object_Sea_Solid_Large,66.25312174996361,72.26490520796506,1.0,Object_Sea_Solid_Large,-9.0,,,,,,,,,,,
encoding,value,6,2614604,2620616,2619013,2619330,318,318,2190.4,917.9000000000001,2249.0,1269.0,Object_Sea_Solid_Large,66.25312174996361,72.26490520796506,1.0,Object_Sea_Solid_Large,-9.0,,,,,,,,,,,
encoding,value,6,2614604,2620616,2619505,2619879,375,375,2237.2,789.0,2249.0,1269.0,Object_Sea_Solid_Large,66.25312174996361,72.26490520796506,1.0,Object_Sea_Solid_Large,-9.0,,,,,,,,,,,
encoding,value,6,2614604,2620616,2619915,2620202,288,288,2175.2,922.0,2249.0,1269.0,Object_Sea_Solid_Large,66.25312174996361,72.26490520796506,1.0,Object_Sea_Solid_Large,-9.0,,,,,,,,,,,
encoding,value,6,2614604,2620616,2620241,2620386,146,146,1874.4,1038.8,1920.0,1080.0,fixation,66.25312174996361,72.26490520796506,1.0,Object_Sea_Solid_Large,-9.0,,,,,,,,,,,
encoding,value,6,2614604,2620616,2620400,2620716,317,216,1860.9,1053.9,1920.0,1080.0,fixation,66.25312174996361,72.26490520796506,1.0,Object_Sea_Solid_Large,-9.0,,,,,,,,,,,
encoding,attention,6,2620616,2623636,2620760,2620941,182,182,2211.9,852.5,2249.0,1269.0,Object_Sea_Solid_Large,72.26506070798496,75.28517591598211,1.0,Object_Sea_Solid_Large,-9.0,-9.0,1.0,2.2977542500011623,,,,,,,,
encoding,attention,6,2620616,2623636,2620977,2621221,245,245,2271.1,771.8,2249.0,1269.0,Object_Sea_Solid_Large,72.26506070798496,75.28517591598211,1.0,Object_Sea_Solid_Large,-9.0,-9.0,1.0,2.2977542500011623,,,,,,,,
encoding,attention,6,2620616,2623636,2621241,2621319,79,79,2191.5,742.9000000000001,2249.0,1269.0,Object_Sea_Solid_Large,72.26506070798496,75.28517591598211,1.0,Object_Sea_Solid_Large,-9.0,-9.0,1.0,2.2977542500011623,,,,,,,,
encoding,attention,6,2620616,2623636,2621462,2621606,145,145,2236.2,769.4000000000001,2249.0,1269.0,Object_Sea_Solid_Large,72.26506070798496,75.28517591598211,1.0,Object_Sea_Solid_Large,-9.0,-9.0,1.0,2.2977542500011623,,,,,,,,
encoding,attention,6,2620616,2623636,2621744,2622047,304,304,2160.5,796.3,2249.0,1269.0,Object_Sea_Solid_Large,72.26506070798496,75.28517591598211,1.0,Object_Sea_Solid_Large,-9.0,-9.0,1.0,2.2977542500011623,,,,,,,,
encoding,attention,6,2620616,2623636,2622065,2622424,360,360,2190.9,892.3,2249.0,1269.0,Object_Sea_Solid_Large,72.26506070798496,75.28517591598211,1.0,Object_Sea_Solid_Large,-9.0,-9.0,1.0,2.2977542500011623,,,,,,,,
encoding,attention,6,2620616,2623636,2622442,2623199,758,758,2157.6,824.8,2249.0,1269.0,Object_Sea_Solid_Large,72.26506070798496,75.28517591598211,1.0,Object_Sea_Solid_Large,-9.0,-9.0,1.0,2.2977542500011623,,,,,,,,
encoding,attention,6,2620616,2623636,2623333,2623621,289,289,2197.0,800.3,2249.0,1269.0,Object_Sea_Solid_Large,72.26506070798496,75.28517591598211,1.0,Object_Sea_Solid_Large,-9.0,-9.0,1.0,2.2977542500011623,,,,,,,,
encoding,fixation,7,3006435,3007440,3006515,3006658,144,144,1725.7,1165.5,1591.0,891.0,Object_Land_Solid_Large,7.40285708400188,8.408572499989532,2.0,Animal_Sea_Solid_Large,-4.0,,,,,,,,,,,
encoding,fixation,7,3006435,3007440,3006679,3007136,458,458,1831.1,1130.6,1591.0,891.0,Object_Land_Solid_Large,7.40285708400188,8.408572499989532,2.0,Animal_Sea_Solid_Large,-4.0,,,,,,,,,,,
encoding,fixation,7,3006435,3007440,3007177,3007625,449,263,1876.6,885.5,1920.0,1460.0,Animal_Sea_Pattern_Small,7.40285708400188,8.408572499989532,2.0,Animal_Sea_Solid_Large,-4.0,,,,,,,,,,,
encoding,image,7,3007440,3008452,3007756,3007884,129,129,1845.6,1382.9,1920.0,700.0,Animal_Sea_Solid_Large,8.408699708990753,9.420578958990518,2.0,Animal_Sea_Solid_Large,-4.0,,,,,,,,,,,
encoding,image,7,3007440,3008452,3007898,3008293,396,396,1884.3,1430.8,1920.0,700.0,Animal_Sea_Solid_Large,8.408699708990753,9.420578958990518,2.0,Animal_Sea_Solid_Large,-4.0,,,,,,,,,,,
encoding,image,7,3007440,3008452,3008318,3008625,308,134,1862.2,1316.3,1920.0,700.0,Animal_Sea_Solid_Large,8.408699708990753,9.420578958990518,2.0,Animal_Sea_Solid_Large,-4.0,,,,,,,,,,,
encoding,value,7,3008452,3014466,3008640,3008895,256,256,1874.7,1381.3,1920.0,700.0,Animal_Sea_Solid_Large,9.420712249993812,15.434198541974183,2.0,Animal_Sea_Solid_Large,-4.0,,,,,,,,,,,
encoding,value,7,3008452,3014466,3008914,3009621,708,708,1897.2,1492.4,1920.0,700.0,Animal_Sea_Solid_Large,9.420712249993812,15.434198541974183,2.0,Animal_Sea_Solid_Large,-4.0,,,,,,,,,,,
encoding,value,7,3008452,3014466,3009691,3011065,1375,1375,1897.2,1493.9,1920.0,700.0,Animal_Sea_Solid_Large,9.420712249993812,15.434198541974183,2.0,Animal_Sea_Solid_Large,-4.0,,,,,,,,,,,
encoding,value,7,3008452,3014466,3011176,3011254,79,79,1824.3,1313.7,1920.0,700.0,Animal_Sea_Solid_Large,9.420712249993812,15.434198541974183,2.0,Animal_Sea_Solid_Large,-4.0,,,,,,,,,,,
encoding,value,7,3008452,3014466,3011278,3011534,257,257,1861.5,1411.3,1920.0,700.0,Animal_Sea_Solid_Large,9.420712249993812,15.434198541974183,2.0,Animal_Sea_Solid_Large,-4.0,,,,,,,,,,,
encoding,value,7,3008452,3014466,3011550,3012541,992,992,1916.9,1490.3,1920.0,700.0,Animal_Sea_Solid_Large,9.420712249993812,15.434198541974183,2.0,Animal_Sea_Solid_Large,-4.0,,,,,,,,,,,
encoding,value,7,3008452,3014466,3012549,3012742,194,194,1879.6,1509.1,1920.0,700.0,Animal_Sea_Solid_Large,9.420712249993812,15.434198541974183,2.0,Animal_Sea_Solid_Large,-4.0,,,,,,,,,,,
encoding,value,7,3008452,3014466,3012892,3013585,694,694,1851.6,1421.6,1920.0,700.0,Animal_Sea_Solid_Large,9.420712249993812,15.434198541974183,2.0,Animal_Sea_Solid_Large,-4.0,,,,,,,,,,,
encoding,value,7,3008452,3014466,3013601,3014284,684,684,1891.2,1495.8,1920.0,700.0,Animal_Sea_Solid_Large,9.420712249993812,15.434198541974183,2.0,Animal_Sea_Solid_Large,-4.0,,,,,,,,,,,
encoding,value,7,3008452,3014466,3014302,3015164,863,164,1869.1,1428.0,1920.0,700.0,Animal_Sea_Solid_Large,9.420712249993812,15.434198541974183,2.0,Animal_Sea_Solid_Large,-4.0,,,,,,,,,,,
encoding,attention,7,3014467,3017486,3015181,3015513,333,333,1799.4,1415.9,1920.0,700.0,Animal_Sea_Solid_Large,15.434348166978452,18.45379908400355,2.0,Animal_Sea_Solid_Large,-4.0,-4.0,1.0,1.3010387499816716,,,,,,,,
encoding,attention,7,3014467,3017486,3015584,3016063,480,480,1803.5,1423.0,1920.0,700.0,Animal_Sea_Solid_Large,15.434348166978452,18.45379908400355,2.0,Animal_Sea_Solid_Large,-4.0,-4.0,1.0,1.3010387499816716,,,,,,,,
encoding,attention,7,3014467,3017486,3016082,3016478,397,397,1890.2,1512.7,1920.0,700.0,Animal_Sea_Solid_Large,15.434348166978452,18.45379908400355,2.0,Animal_Sea_Solid_Large,-4.0,-4.0,1.0,1.3010387499816716,,,,,,,,
encoding,attention,7,3014467,3017486,3016500,3016947,448,448,1833.8,1401.8,1920.0,700.0,Animal_Sea_Solid_Large,15.434348166978452,18.45379908400355,2.0,Animal_Sea_Solid_Large,-4.0,-4.0,1.0,1.3010387499816716,,,,,,,,
encoding,attention,7,3014467,3017486,3016983,3017213,231,231,1860.6,1405.7,1920.0,700.0,Animal_Sea_Solid_Large,15.434348166978452,18.45379908400355,2.0,Animal_Sea_Solid_Large,-4.0,-4.0,1.0,1.3010387499816716,,,,,,,,
encoding,fixation,8,3017486,3018991,3017681,3017790,110,110,1890.6,1464.2,1920.0,700.0,Animal_Sea_Solid_Large,18.453949792019557,19.95891450002091,2.0,Animal_Sea_Pattern_Small,-1.0,,,,,,,,,,,
encoding,fixation,8,3017486,3018991,3017835,3018022,188,188,1807.1,1169.8,1591.0,891.0,Object_Land_Solid_Large,18.453949792019557,19.95891450002091,2.0,Animal_Sea_Pattern_Small,-1.0,,,,,,,,,,,
encoding,fixation,8,3017486,3018991,3018159,3018776,618,618,1837.9,1139.6,1591.0,891.0,Object_Land_Solid_Large,18.453949792019557,19.95891450002091,2.0,Animal_Sea_Pattern_Small,-1.0,,,,,,,,,,,
encoding,fixation,8,3017486,3018991,3018782,3019284,503,209,1817.8,1144.4,1591.0,891.0,Object_Land_Solid_Large,18.453949792019557,19.95891450002091,2.0,Animal_Sea_Pattern_Small,-1.0,,,,,,,,,,,
encoding,image,8,3018991,3020003,3019331,3019540,210,210,1839.4,769.9000000000001,1920.0,1460.0,Animal_Sea_Pattern_Small,19.959035750012845,20.97035841702018,2.0,Animal_Sea_Pattern_Small,-1.0,,,,,,,,,,,
encoding,image,8,3018991,3020003,3019557,3019995,439,439,1912.6,661.7,1920.0,1460.0,Animal_Sea_Pattern_Small,19.959035750012845,20.97035841702018,2.0,Animal_Sea_Pattern_Small,-1.0,,,,,,,,,,,
encoding,value,8,3020003,3026016,3020094,3020355,262,262,1919.9,622.2,1920.0,1460.0,Animal_Sea_Pattern_Small,20.970488458988257,26.982933874998707,2.0,Animal_Sea_Pattern_Small,-1.0,,,,,,,,,,,
encoding,value,8,3020003,3026016,3020375,3020821,447,447,1939.1,535.4000000000001,1920.0,1460.0,Animal_Sea_Pattern_Small,20.970488458988257,26.982933874998707,2.0,Animal_Sea_Pattern_Small,-1.0,,,,,,,,,,,
encoding,value,8,3020003,3026016,3020843,3021513,671,671,1919.2,674.9000000000001,1920.0,1460.0,Animal_Sea_Pattern_Small,20.970488458988257,26.982933874998707,2.0,Animal_Sea_Pattern_Small,-1.0,,,,,,,,,,,
encoding,value,8,3020003,3026016,3021669,3022448,780,780,1915.6,720.0,1920.0,1460.0,Animal_Sea_Pattern_Small,20.970488458988257,26.982933874998707,2.0,Animal_Sea_Pattern_Small,-1.0,,,,,,,,,,,
encoding,value,8,3020003,3026016,3022472,3022790,319,319,1918.5,610.3,1920.0,1460.0,Animal_Sea_Pattern_Small,20.970488458988257,26.982933874998707,2.0,Animal_Sea_Pattern_Small,-1.0,,,,,,,,,,,
encoding,value,8,3020003,3026016,3022810,3023019,210,210,1910.8,711.5999999999999,1920.0,1460.0,Animal_Sea_Pattern_Small,20.970488458988257,26.982933874998707,2.0,Animal_Sea_Pattern_Small,-1.0,,,,,,,,,,,
encoding,value,8,3020003,3026016,3023168,3023521,354,354,1903.2,742.8,1920.0,1460.0,Animal_Sea_Pattern_Small,20.970488458988257,26.982933874998707,2.0,Animal_Sea_Pattern_Small,-1.0,,,,,,,,,,,
encoding,value,8,3020003,3026016,3023544,3024457,914,914,1916.1,573.3,1920.0,1460.0,Animal_Sea_Pattern_Small,20.970488458988257,26.982933874998707,2.0,Animal_Sea_Pattern_Small,-1.0,,,,,,,,,,,
encoding,value,8,3020003,3026016,3024482,3025607,1126,1126,1935.2,700.9000000000001,1920.0,1460.0,Animal_Sea_Pattern_Small,20.970488458988257,26.982933874998707,2.0,Animal_Sea_Pattern_Small,-1.0,,,,,,,,,,,
encoding,value,8,3020003,3026016,3025618,3025914,297,297,1899.3,684.3,1920.0,1460.0,Animal_Sea_Pattern_Small,20.970488458988257,26.982933874998707,2.0,Animal_Sea_Pattern_Small,-1.0,,,,,,,,,,,
encoding,attention,8,3026016,3029037,3026023,3026627,605,605,1949.3,665.3,1920.0,1460.0,Animal_Sea_Pattern_Small,26.98303337499965,30.004465458972845,2.0,Animal_Sea_Pattern_Small,-1.0,-1.0,1.0,1.3884116249973886,,,,,,,,
encoding,attention,8,3026016,3029037,3026649,3027764,1116,1116,1889.2,532.8,1920.0,1460.0,Animal_Sea_Pattern_Small,26.98303337499965,30.004465458972845,2.0,Animal_Sea_Pattern_Small,-1.0,-1.0,1.0,1.3884116249973886,,,,,,,,
encoding,attention,8,3026016,3029037,3027921,3028221,301,301,1999.8,559.8,1920.0,1460.0,Animal_Sea_Pattern_Small,26.98303337499965,30.004465458972845,2.0,Animal_Sea_Pattern_Small,-1.0,-1.0,1.0,1.3884116249973886,,,,,,,,
encoding,attention,8,3026016,3029037,3028243,3028718,476,476,1918.3,682.0999999999999,1920.0,1460.0,Animal_Sea_Pattern_Small,26.98303337499965,30.004465458972845,2.0,Animal_Sea_Pattern_Small,-1.0,-1.0,1.0,1.3884116249973886,,,,,,,,
encoding,attention,8,3026016,3029037,3028762,3028916,155,155,1858.1,1177.3,1591.0,891.0,Object_Land_Solid_Large,26.98303337499965,30.004465458972845,2.0,Animal_Sea_Pattern_Small,-1.0,-1.0,1.0,1.3884116249973886,,,,,,,,
encoding,fixation,9,3029037,3029542,3029275,3029614,340,267,1899.1,975.3,1920.0,1460.0,Animal_Sea_Pattern_Small,30.004603834007867,30.509606542007532,2.0,Object_Sea_Solid_Small,7.0,,,,,,,,,,,
encoding,image,9,3029543,3030553,3029866,3030032,167,167,1524.5,935.5,1591.0,1269.0,Object_Sea_Solid_Small,30.509807874972463,31.519901458988898,2.0,Object_Sea_Solid_Small,7.0,,,,,,,,,,,
encoding,image,9,3029543,3030553,3030045,3030567,523,508,1489.5,902.9000000000001,1591.0,1269.0,Object_Sea_Solid_Small,30.509807874972463,31.519901458988898,2.0,Object_Sea_Solid_Small,7.0,,,,,,,,,,,
encoding,value,9,3030553,3036565,3030587,3031016,430,430,1542.4,775.0,1591.0,1269.0,Object_Sea_Solid_Small,31.520013709028717,37.53206975001376,2.0,Object_Sea_Solid_Small,7.0,,,,,,,,,,,
encoding,value,9,3030553,3036565,3031040,3031502,463,463,1492.5,927.9000000000001,1591.0,1269.0,Object_Sea_Solid_Small,31.520013709028717,37.53206975001376,2.0,Object_Sea_Solid_Small,7.0,,,,,,,,,,,
encoding,value,9,3030553,3036565,3031517,3031759,243,243,1529.6,859.9000000000001,1591.0,1269.0,Object_Sea_Solid_Small,31.520013709028717,37.53206975001376,2.0,Object_Sea_Solid_Small,7.0,,,,,,,,,,,
encoding,value,9,3030553,3036565,3031772,3032629,858,858,1530.9,916.9000000000001,1591.0,1269.0,Object_Sea_Solid_Small,31.520013709028717,37.53206975001376,2.0,Object_Sea_Solid_Small,7.0,,,,,,,,,,,
encoding,value,9,3030553,3036565,3032690,3032840,151,151,1526.0,726.5,1591.0,1269.0,Object_Sea_Solid_Small,31.520013709028717,37.53206975001376,2.0,Object_Sea_Solid_Small,7.0,,,,,,,,,,,
encoding,value,9,3030553,3036565,3032952,3033251,300,300,1523.9,760.5999999999999,1591.0,1269.0,Object_Sea_Solid_Small,31.520013709028717,37.53206975001376,2.0,Object_Sea_Solid_Small,7.0,,,,,,,,,,,
encoding,value,9,3030553,3036565,3033425,3033955,531,531,1521.6,762.2,1591.0,1269.0,Object_Sea_Solid_Small,31.520013709028717,37.53206975001376,2.0,Object_Sea_Solid_Small,7.0,,,,,,,,,,,
encoding,value,9,3030553,3036565,3034067,3034445,379,379,1515.9,787.2,1591.0,1269.0,Object_Sea_Solid_Small,31.520013709028717,37.53206975001376,2.0,Object_Sea_Solid_Small,7.0,,,,,,,,,,,
encoding,value,9,3030553,3036565,3034453,3034621,169,169,1516.0,838.3,1591.0,1269.0,Object_Sea_Solid_Small,31.520013709028717,37.53206975001376,2.0,Object_Sea_Solid_Small,7.0,,,,,,,,,,,
encoding,value,9,3030553,3036565,3034637,3034873,237,237,1513.3,897.5,1591.0,1269.0,Object_Sea_Solid_Small,31.520013709028717,37.53206975001376,2.0,Object_Sea_Solid_Small,7.0,,,,,,,,,,,
encoding,value,9,3030553,3036565,3034898,3035378,481,481,1514.0,803.9000000000001,1591.0,1269.0,Object_Sea_Solid_Small,31.520013709028717,37.53206975001376,2.0,Object_Sea_Solid_Small,7.0,,,,,,,,,,,
encoding,value,9,3030553,3036565,3035407,3035826,420,420,1510.5,923.5,1591.0,1269.0,Object_Sea_Solid_Small,31.520013709028717,37.53206975001376,2.0,Object_Sea_Solid_Small,7.0,,,,,,,,,,,
encoding,value,9,3030553,3036565,3035844,3036264,421,421,1530.7,837.0,1591.0,1269.0,Object_Sea_Solid_Small,31.520013709028717,37.53206975001376,2.0,Object_Sea_Solid_Small,7.0,,,,,,,,,,,
encoding,value,9,3030553,3036565,3036356,3037595,1240,209,1552.2,796.7,1591.0,1269.0,Object_Sea_Solid_Small,31.520013709028717,37.53206975001376,2.0,Object_Sea_Solid_Small,7.0,,,,,,,,,,,
encoding,attention,9,3036565,3039588,3037997,3038094,98,98,1599.5,858.0,1591.0,1269.0,Object_Sea_Solid_Small,37.532188416982535,40.5546666670125,2.0,Object_Sea_Solid_Small,7.0,7.0,1.0,0.7742277499637567,,,,,,,,
encoding,attention,9,3036565,3039588,3039195,3039260,66,66,2037.3,905.9000000000001,2249.0,1269.0,Animal_Land_Pattern_Large,37.532188416982535,40.5546666670125,2.0,Object_Sea_Solid_Small,7.0,7.0,1.0,0.7742277499637567,,,,,,,,
encoding,fixation,10,3039588,3041093,3039644,3039746,103,103,1575.2,781.0999999999999,1591.0,1269.0,Object_Sea_Solid_Small,40.55484537500888,42.06007591699017,2.0,Object_Land_Pattern_Small,-8.0,,,,,,,,,,,
encoding,fixation,10,3039588,3041093,3039781,3039945,165,165,1802.4,1136.9,1591.0,891.0,Object_Land_Solid_Large,40.55484537500888,42.06007591699017,2.0,Object_Land_Pattern_Small,-8.0,,,,,,,,,,,
encoding,fixation,10,3039588,3041093,3040083,3041278,1196,1010,1836.7,1154.1,1591.0,891.0,Object_Land_Solid_Large,40.55484537500888,42.06007591699017,2.0,Object_Land_Pattern_Small,-8.0,,,,,,,,,,,
encoding,image,10,3041093,3042104,3041314,3041529,216,216,2174.3,1303.4,2249.0,891.0,Object_Land_Pattern_Small,42.06017895898549,43.07115670898929,2.0,Object_Land_Pattern_Small,-8.0,,,,,,,,,,,
encoding,image,10,3041093,3042104,3041536,3041774,239,239,2165.6,1328.4,2249.0,891.0,Object_Land_Pattern_Small,42.06017895898549,43.07115670898929,2.0,Object_Land_Pattern_Small,-8.0,,,,,,,,,,,
encoding,image,10,3041093,3042104,3041829,3041941,113,113,2159.5,1199.9,2249.0,891.0,Object_Land_Pattern_Small,42.06017895898549,43.07115670898929,2.0,Object_Land_Pattern_Small,-8.0,,,,,,,,,,,
encoding,image,10,3041093,3042104,3042094,3042282,189,10,2166.4,1332.5,2249.0,891.0,Object_Land_Pattern_Small,42.06017895898549,43.07115670898929,2.0,Object_Land_Pattern_Small,-8.0,,,,,,,,,,,
encoding,value,10,3042105,3048118,3042297,3042618,322,322,2163.7,1267.3,2249.0,891.0,Object_Land_Pattern_Small,43.07126020902069,49.08404145902023,2.0,Object_Land_Pattern_Small,-8.0,,,,,,,,,,,
encoding,value,10,3042105,3048118,3042625,3042856,232,232,2164.3,1282.7,2249.0,891.0,Object_Land_Pattern_Small,43.07126020902069,49.08404145902023,2.0,Object_Land_Pattern_Small,-8.0,,,,,,,,,,,
encoding,value,10,3042105,3048118,3042871,3043698,828,828,2193.6,1342.0,2249.0,891.0,Object_Land_Pattern_Small,43.07126020902069,49.08404145902023,2.0,Object_Land_Pattern_Small,-8.0,,,,,,,,,,,
encoding,value,10,3042105,3048118,3043879,3044372,494,494,2164.0,1267.1,2249.0,891.0,Object_Land_Pattern_Small,43.07126020902069,49.08404145902023,2.0,Object_Land_Pattern_Small,-8.0,,,,,,,,,,,
encoding,value,10,3042105,3048118,3044389,3044705,317,317,2173.7,1358.6,2249.0,891.0,Object_Land_Pattern_Small,43.07126020902069,49.08404145902023,2.0,Object_Land_Pattern_Small,-8.0,,,,,,,,,,,
encoding,value,10,3042105,3048118,3044730,3044968,239,239,2156.8,1261.1,2249.0,891.0,Object_Land_Pattern_Small,43.07126020902069,49.08404145902023,2.0,Object_Land_Pattern_Small,-8.0,,,,,,,,,,,
encoding,value,10,3042105,3048118,3044984,3045585,602,602,2171.6,1340.3,2249.0,891.0,Object_Land_Pattern_Small,43.07126020902069,49.08404145902023,2.0,Object_Land_Pattern_Small,-8.0,,,,,,,,,,,
encoding,value,10,3042105,3048118,3045695,3046169,475,475,2158.5,1292.5,2249.0,891.0,Object_Land_Pattern_Small,43.07126020902069,49.08404145902023,2.0,Object_Land_Pattern_Small,-8.0,,,,,,,,,,,
encoding,value,10,3042105,3048118,3046207,3046393,187,187,1840.8,1175.0,1591.0,891.0,Object_Land_Solid_Large,43.07126020902069,49.08404145902023,2.0,Object_Land_Pattern_Small,-8.0,,,,,,,,,,,
encoding,value,10,3042105,3048118,3046429,3047604,1176,1176,2139.2,1269.6,2249.0,891.0,Object_Land_Pattern_Small,43.07126020902069,49.08404145902023,2.0,Object_Land_Pattern_Small,-8.0,,,,,,,,,,,
encoding,value,10,3042105,3048118,3047714,3048357,644,404,2143.1,1280.6,2249.0,891.0,Object_Land_Pattern_Small,43.07126020902069,49.08404145902023,2.0,Object_Land_Pattern_Small,-8.0,,,,,,,,,,,
encoding,attention,10,3048118,3051138,3048367,3048560,194,194,2209.7,1262.9,2249.0,891.0,Object_Land_Pattern_Small,49.08412395900814,52.104012834024616,2.0,Object_Land_Pattern_Small,-8.0,-8.0,1.0,0.8986221659579314,,,,,,,,
encoding,attention,10,3048118,3051138,3048580,3049761,1182,1182,2104.4,1247.6,2249.0,891.0,Object_Land_Pattern_Small,49.08412395900814,52.104012834024616,2.0,Object_Land_Pattern_Small,-8.0,-8.0,1.0,0.8986221659579314,,,,,,,,
encoding,attention,10,3048118,3051138,3050144,3050308,165,165,2174.6,1284.7,2249.0,891.0,Object_Land_Pattern_Small,49.08412395900814,52.104012834024616,2.0,Object_Land_Pattern_Small,-8.0,-8.0,1.0,0.8986221659579314,,,,,,,,
encoding,attention,10,3048118,3051138,3050690,3050878,189,189,2144.4,1315.3,2249.0,891.0,Object_Land_Pattern_Small,49.08412395900814,52.104012834024616,2.0,Object_Land_Pattern_Small,-8.0,-8.0,1.0,0.8986221659579314,,,,,,,,
encoding,fixation,11,3051138,3051893,3051356,3051609,254,254,1832.4,1129.2,1591.0,891.0,Object_Land_Solid_Large,52.10415570897749,52.85921695898287,2.0,Animal_Land_Pattern_Large,8.0,,,,,,,,,,,
encoding,fixation,11,3051138,3051893,3051748,3052133,386,145,1837.3,1132.2,1591.0,891.0,Object_Land_Solid_Large,52.10415570897749,52.85921695898287,2.0,Animal_Land_Pattern_Large,8.0,,,,,,,,,,,
encoding,image,11,3051893,3052904,3052179,3052762,584,584,2152.2,941.8,2249.0,1269.0,Animal_Land_Pattern_Large,52.85932237497764,53.869810958974995,2.0,Animal_Land_Pattern_Large,8.0,,,,,,,,,,,
encoding,image,11,3051893,3052904,3052882,3053079,198,22,2221.2,825.7,2249.0,1269.0,Animal_Land_Pattern_Large,52.85932237497764,53.869810958974995,2.0,Animal_Land_Pattern_Large,8.0,,,,,,,,,,,
encoding,value,11,3052904,3058915,3053094,3053559,466,466,2236.4,779.8,2249.0,1269.0,Animal_Land_Pattern_Large,53.86991820897674,59.881000166991726,2.0,Animal_Land_Pattern_Large,8.0,,,,,,,,,,,
encoding,value,11,3052904,3058915,3053730,3054895,1166,1166,2215.3,832.5,2249.0,1269.0,Animal_Land_Pattern_Large,53.86991820897674,59.881000166991726,2.0,Animal_Land_Pattern_Large,8.0,,,,,,,,,,,
encoding,value,11,3052904,3058915,3054906,3055458,553,553,2211.1,814.7,2249.0,1269.0,Animal_Land_Pattern_Large,53.86991820897674,59.881000166991726,2.0,Animal_Land_Pattern_Large,8.0,,,,,,,,,,,
encoding,value,11,3052904,3058915,3055561,3056139,579,579,2156.8,939.2,2249.0,1269.0,Animal_Land_Pattern_Large,53.86991820897674,59.881000166991726,2.0,Animal_Land_Pattern_Large,8.0,,,,,,,,,,,
encoding,value,11,3052904,3058915,3056149,3056610,462,462,2201.2,912.8,2249.0,1269.0,Animal_Land_Pattern_Large,53.86991820897674,59.881000166991726,2.0,Animal_Land_Pattern_Large,8.0,,,,,,,,,,,
encoding,value,11,3052904,3058915,3056717,3057422,706,706,2211.5,804.5999999999999,2249.0,1269.0,Animal_Land_Pattern_Large,53.86991820897674,59.881000166991726,2.0,Animal_Land_Pattern_Large,8.0,,,,,,,,,,,
encoding,value,11,3052904,3058915,3057474,3057592,119,119,1585.3,818.8,1591.0,1269.0,Object_Sea_Solid_Small,53.86991820897674,59.881000166991726,2.0,Animal_Land_Pattern_Large,8.0,,,,,,,,,,,
encoding,value,11,3052904,3058915,3057745,3057871,127,127,2124.6,873.5999999999999,2249.0,1269.0,Animal_Land_Pattern_Large,53.86991820897674,59.881000166991726,2.0,Animal_Land_Pattern_Large,8.0,,,,,,,,,,,
encoding,value,11,3052904,3058915,3057893,3058208,316,316,2219.8,821.2,2249.0,1269.0,Animal_Land_Pattern_Large,53.86991820897674,59.881000166991726,2.0,Animal_Land_Pattern_Large,8.0,,,,,,,,,,,
encoding,value,11,3052904,3058915,3058260,3058450,191,191,1557.1,817.9000000000001,1591.0,1269.0,Object_Sea_Solid_Small,53.86991820897674,59.881000166991726,2.0,Animal_Land_Pattern_Large,8.0,,,,,,,,,,,
encoding,value,11,3052904,3058915,3058497,3058778,282,282,2190.2,888.9000000000001,2249.0,1269.0,Animal_Land_Pattern_Large,53.86991820897674,59.881000166991726,2.0,Animal_Land_Pattern_Large,8.0,,,,,,,,,,,
encoding,value,11,3052904,3058915,3058799,3059251,453,116,2215.1,830.8,2249.0,1269.0,Animal_Land_Pattern_Large,53.86991820897674,59.881000166991726,2.0,Animal_Land_Pattern_Large,8.0,,,,,,,,,,,
encoding,attention,11,3058915,3061933,3059373,3059561,189,189,2234.1,887.5999999999999,2249.0,1269.0,Animal_Land_Pattern_Large,59.881112208997365,62.898894333979115,2.0,Animal_Land_Pattern_Large,8.0,8.0,1.0,1.520361041999422,,,,,,,,
encoding,attention,11,3058915,3061933,3059569,3060790,1222,1222,2241.1,861.2,2249.0,1269.0,Animal_Land_Pattern_Large,59.881112208997365,62.898894333979115,2.0,Animal_Land_Pattern_Large,8.0,8.0,1.0,1.520361041999422,,,,,,,,
encoding,attention,11,3058915,3061933,3061287,3061432,146,146,2162.1,998.5,2249.0,1269.0,Animal_Land_Pattern_Large,59.881112208997365,62.898894333979115,2.0,Animal_Land_Pattern_Large,8.0,8.0,1.0,1.520361041999422,,,,,,,,
encoding,attention,11,3058915,3061933,3061721,3061859,139,139,2187.3,942.2,2249.0,1269.0,Animal_Land_Pattern_Large,59.881112208997365,62.898894333979115,2.0,Animal_Land_Pattern_Large,8.0,8.0,1.0,1.520361041999422,,,,,,,,
encoding,fixation,12,3061933,3062438,3062159,3062290,132,132,1875.0,1079.5,1920.0,1080.0,fixation,62.899033625028096,63.40395420900313,2.0,Object_Land_Solid_Large,6.0,,,,,,,,,,,
encoding,fixation,12,3061933,3062438,3062305,3062487,183,133,1838.3,1115.8,1591.0,891.0,Object_Land_Solid_Large,62.899033625028096,63.40395420900313,2.0,Object_Land_Solid_Large,6.0,,,,,,,,,,,
encoding,image,12,3062438,3063449,3062609,3062750,142,142,1838.7,1121.6,1591.0,891.0,Object_Land_Solid_Large,63.404065541981254,64.41421587497462,2.0,Object_Land_Solid_Large,6.0,,,,,,,,,,,
encoding,image,12,3062438,3063449,3062785,3063011,227,227,1552.5,1268.1,1591.0,891.0,Object_Land_Solid_Large,63.404065541981254,64.41421587497462,2.0,Object_Land_Solid_Large,6.0,,,,,,,,,,,
encoding,image,12,3062438,3063449,3063020,3063364,345,345,1510.2,1270.7,1591.0,891.0,Object_Land_Solid_Large,63.404065541981254,64.41421587497462,2.0,Object_Land_Solid_Large,6.0,,,,,,,,,,,
encoding,image,12,3062438,3063449,3063386,3063946,561,63,1520.3,1198.7,1591.0,891.0,Object_Land_Solid_Large,63.404065541981254,64.41421587497462,2.0,Object_Land_Solid_Large,6.0,,,,,,,,,,,
encoding,value,12,3063449,3069460,3064099,3064312,214,214,1514.0,1260.3,1591.0,891.0,Object_Land_Solid_Large,64.41440720902756,70.42540620901855,2.0,Object_Land_Solid_Large,6.0,,,,,,,,,,,
encoding,value,12,3063449,3069460,3064322,3064715,394,394,1549.0,1286.2,1591.0,891.0,Object_Land_Solid_Large,64.41440720902756,70.42540620901855,2.0,Object_Land_Solid_Large,6.0,,,,,,,,,,,
encoding,value,12,3063449,3069460,3064723,3064964,242,242,1517.4,1281.1,1591.0,891.0,Object_Land_Solid_Large,64.41440720902756,70.42540620901855,2.0,Object_Land_Solid_Large,6.0,,,,,,,,,,,
encoding,value,12,3063449,3069460,3064975,3065824,850,850,1534.7,1236.5,1591.0,891.0,Object_Land_Solid_Large,64.41440720902756,70.42540620901855,2.0,Object_Land_Solid_Large,6.0,,,,,,,,,,,
encoding,value,12,3063449,3069460,3065948,3067400,1453,1453,1520.1,1214.6,1591.0,891.0,Object_Land_Solid_Large,64.41440720902756,70.42540620901855,2.0,Object_Land_Solid_Large,6.0,,,,,,,,,,,
encoding,value,12,3063449,3069460,3067424,3067731,308,308,1553.5,1299.1,1591.0,891.0,Object_Land_Solid_Large,64.41440720902756,70.42540620901855,2.0,Object_Land_Solid_Large,6.0,,,,,,,,,,,
encoding,value,12,3063449,3069460,3067827,3068023,197,197,1515.2,1218.8,1591.0,891.0,Object_Land_Solid_Large,64.41440720902756,70.42540620901855,2.0,Object_Land_Solid_Large,6.0,,,,,,,,,,,
encoding,value,12,3063449,3069460,3068142,3069775,1634,1318,1526.3,1215.3,1591.0,891.0,Object_Land_Solid_Large,64.41440720902756,70.42540620901855,2.0,Object_Land_Solid_Large,6.0,,,,,,,,,,,
encoding,attention,12,3069460,3072478,3069905,3070074,170,170,1478.8,1204.7,1591.0,891.0,Object_Land_Solid_Large,70.42553379200399,73.44379216700327,2.0,Object_Land_Solid_Large,6.0,6.0,1.0,0.9008632089826278,,,,,,,,
encoding,attention,12,3069460,3072478,3070094,3070615,522,522,1578.1,1222.0,1591.0,891.0,Object_Land_Solid_Large,70.42553379200399,73.44379216700327,2.0,Object_Land_Solid_Large,6.0,6.0,1.0,0.9008632089826278,,,,,,,,
encoding,attention,12,3069460,3072478,3070632,3070971,340,340,1496.7,1250.2,1591.0,891.0,Object_Land_Solid_Large,70.42553379200399,73.44379216700327,2.0,Object_Land_Solid_Large,6.0,6.0,1.0,0.9008632089826278,,,,,,,,
encoding,attention,12,3069460,3072478,3070978,3071156,179,179,1477.9,1216.3,1591.0,891.0,Object_Land_Solid_Large,70.42553379200399,73.44379216700327,2.0,Object_Land_Solid_Large,6.0,6.0,1.0,0.9008632089826278,,,,,,,,
encoding,attention,12,3069460,3072478,3071170,3071786,617,617,1509.6,1287.5,1591.0,891.0,Object_Land_Solid_Large,70.42553379200399,73.44379216700327,2.0,Object_Land_Solid_Large,6.0,6.0,1.0,0.9008632089826278,,,,,,,,
encoding,attention,12,3069460,3072478,3071794,3072083,290,290,1540.6,1301.3,1591.0,891.0,Object_Land_Solid_Large,70.42553379200399,73.44379216700327,2.0,Object_Land_Solid_Large,6.0,6.0,1.0,0.9008632089826278,,,,,,,,
encoding,attention,12,3069460,3072478,3072107,3072268,162,162,1594.5,1190.7,1591.0,891.0,Object_Land_Solid_Large,70.42553379200399,73.44379216700327,2.0,Object_Land_Solid_Large,6.0,6.0,1.0,0.9008632089826278,,,,,,,,
encoding,fixation,13,3368266,3369523,3368576,3368912,337,337,1829.1,1117.8,1591.0,891.0,Object_Sea_Pattern_Small,5.0104661250370555,6.266861584037542,3.0,Object_Land_Pattern_Large,6.0,,,,,,,,,,,
encoding,fixation,13,3368266,3369523,3368945,3369112,168,168,1772.8,1371.1,1920.0,700.0,Animal_Land_Solid_Small,5.0104661250370555,6.266861584037542,3.0,Object_Land_Pattern_Large,6.0,,,,,,,,,,,
encoding,fixation,13,3368266,3369523,3369144,3369694,551,379,1835.4,1154.5,1591.0,891.0,Object_Sea_Pattern_Small,5.0104661250370555,6.266861584037542,3.0,Object_Land_Pattern_Large,6.0,,,,,,,,,,,
encoding,image,13,3369523,3370536,3369728,3370633,906,808,2184.8,1329.7,2249.0,891.0,Object_Land_Pattern_Large,6.2669699170510285,7.280073000001721,3.0,Object_Land_Pattern_Large,6.0,,,,,,,,,,,
encoding,value,13,3370536,3376551,3370708,3371582,875,875,2164.7,1253.8,2249.0,891.0,Object_Land_Pattern_Large,7.280186625022907,13.294631334021688,3.0,Object_Land_Pattern_Large,6.0,,,,,,,,,,,
encoding,value,13,3370536,3376551,3371697,3371970,274,274,2144.0,1353.3,2249.0,891.0,Object_Land_Pattern_Large,7.280186625022907,13.294631334021688,3.0,Object_Land_Pattern_Large,6.0,,,,,,,,,,,
encoding,value,13,3370536,3376551,3371979,3372350,372,372,2159.7,1382.6,2249.0,891.0,Object_Land_Pattern_Large,7.280186625022907,13.294631334021688,3.0,Object_Land_Pattern_Large,6.0,,,,,,,,,,,
encoding,value,13,3370536,3376551,3372369,3372852,484,484,2164.2,1274.7,2249.0,891.0,Object_Land_Pattern_Large,7.280186625022907,13.294631334021688,3.0,Object_Land_Pattern_Large,6.0,,,,,,,,,,,
encoding,value,13,3370536,3376551,3372877,3372996,120,120,2194.3,1371.1,2249.0,891.0,Object_Land_Pattern_Large,7.280186625022907,13.294631334021688,3.0,Object_Land_Pattern_Large,6.0,,,,,,,,,,,
encoding,value,13,3370536,3376551,3373122,3373304,183,183,2167.7,1378.3,2249.0,891.0,Object_Land_Pattern_Large,7.280186625022907,13.294631334021688,3.0,Object_Land_Pattern_Large,6.0,,,,,,,,,,,
encoding,value,13,3370536,3376551,3373326,3374117,792,792,2156.8,1284.5,2249.0,891.0,Object_Land_Pattern_Large,7.280186625022907,13.294631334021688,3.0,Object_Land_Pattern_Large,6.0,,,,,,,,,,,
encoding,value,13,3370536,3376551,3374238,3375109,872,872,2173.0,1293.1,2249.0,891.0,Object_Land_Pattern_Large,7.280186625022907,13.294631334021688,3.0,Object_Land_Pattern_Large,6.0,,,,,,,,,,,
encoding,value,13,3370536,3376551,3375126,3375567,442,442,2166.0,1386.7,2249.0,891.0,Object_Land_Pattern_Large,7.280186625022907,13.294631334021688,3.0,Object_Land_Pattern_Large,6.0,,,,,,,,,,,
encoding,value,13,3370536,3376551,3375657,3376287,631,631,2151.1,1277.3,2249.0,891.0,Object_Land_Pattern_Large,7.280186625022907,13.294631334021688,3.0,Object_Land_Pattern_Large,6.0,,,,,,,,,,,
encoding,value,13,3370536,3376551,3376300,3376512,213,213,2164.9,1329.1,2249.0,891.0,Object_Land_Pattern_Large,7.280186625022907,13.294631334021688,3.0,Object_Land_Pattern_Large,6.0,,,,,,,,,,,
encoding,attention,13,3376551,3379564,3376624,3377029,406,406,2164.2,1301.4,2249.0,891.0,Object_Land_Pattern_Large,13.294749749999028,16.307495125045534,3.0,Object_Land_Pattern_Large,6.0,,,,,,,,,,,
encoding,attention,13,3376551,3379564,3377039,3377473,435,435,2116.2,1283.3,2249.0,891.0,Object_Land_Pattern_Large,13.294749749999028,16.307495125045534,3.0,Object_Land_Pattern_Large,6.0,,,,,,,,,,,
encoding,attention,13,3376551,3379564,3377493,3377842,350,350,2180.8,1393.1,2249.0,891.0,Object_Land_Pattern_Large,13.294749749999028,16.307495125045534,3.0,Object_Land_Pattern_Large,6.0,,,,,,,,,,,
encoding,attention,13,3376551,3379564,3377865,3378064,200,200,2110.0,1263.7,2249.0,891.0,Object_Land_Pattern_Large,13.294749749999028,16.307495125045534,3.0,Object_Land_Pattern_Large,6.0,,,,,,,,,,,
encoding,attention,13,3376551,3379564,3378158,3378456,299,299,2123.7,1259.0,2249.0,891.0,Object_Land_Pattern_Large,13.294749749999028,16.307495125045534,3.0,Object_Land_Pattern_Large,6.0,,,,,,,,,,,
encoding,attention,13,3376551,3379564,3378588,3378901,314,314,2125.1,1260.4,2249.0,891.0,Object_Land_Pattern_Large,13.294749749999028,16.307495125045534,3.0,Object_Land_Pattern_Large,6.0,,,,,,,,,,,
encoding,attention,13,3376551,3379564,3378908,3379452,545,545,2117.2,1254.8,2249.0,891.0,Object_Land_Pattern_Large,13.294749749999028,16.307495125045534,3.0,Object_Land_Pattern_Large,6.0,,,,,,,,,,,
encoding,fixation,14,3379564,3380069,3379843,3380032,190,190,1946.8,1170.4,1920.0,700.0,Animal_Land_Solid_Small,16.30762166704517,16.81304341700161,3.0,Animal_Sea_Solid_Small,8.0,,,,,,,,,,,
encoding,image,14,3380069,3381081,3380306,3380455,150,150,1973.7,1198.5,1920.0,700.0,Animal_Land_Solid_Small,16.813149499997962,17.82429979200242,3.0,Animal_Sea_Solid_Small,8.0,,,,,,,,,,,
encoding,image,14,3380069,3381081,3380497,3380854,358,358,2186.1,1002.5999999999999,2249.0,1269.0,Animal_Sea_Solid_Small,16.813149499997962,17.82429979200242,3.0,Animal_Sea_Solid_Small,8.0,,,,,,,,,,,
encoding,image,14,3380069,3381081,3380891,3381307,417,190,1857.7,1106.0,1920.0,1080.0,fixation,16.813149499997962,17.82429979200242,3.0,Animal_Sea_Solid_Small,8.0,,,,,,,,,,,
encoding,value,14,3381081,3387093,3381412,3381573,162,162,2177.7,834.0999999999999,2249.0,1269.0,Animal_Sea_Solid_Small,17.824439084040932,23.836220500001215,3.0,Animal_Sea_Solid_Small,8.0,,,,,,,,,,,
encoding,value,14,3381081,3387093,3381580,3382191,612,612,2206.9,863.0999999999999,2249.0,1269.0,Animal_Sea_Solid_Small,17.824439084040932,23.836220500001215,3.0,Animal_Sea_Solid_Small,8.0,,,,,,,,,,,
encoding,value,14,3381081,3387093,3382374,3382707,334,334,2147.7,984.9000000000001,2249.0,1269.0,Animal_Sea_Solid_Small,17.824439084040932,23.836220500001215,3.0,Animal_Sea_Solid_Small,8.0,,,,,,,,,,,
encoding,value,14,3381081,3387093,3382729,3383123,395,395,2188.1,861.3,2249.0,1269.0,Animal_Sea_Solid_Small,17.824439084040932,23.836220500001215,3.0,Animal_Sea_Solid_Small,8.0,,,,,,,,,,,
encoding,value,14,3381081,3387093,3383147,3383487,341,341,2175.8,979.9000000000001,2249.0,1269.0,Animal_Sea_Solid_Small,17.824439084040932,23.836220500001215,3.0,Animal_Sea_Solid_Small,8.0,,,,,,,,,,,
encoding,value,14,3381081,3387093,3383506,3383720,215,215,2199.0,856.0999999999999,2249.0,1269.0,Animal_Sea_Solid_Small,17.824439084040932,23.836220500001215,3.0,Animal_Sea_Solid_Small,8.0,,,,,,,,,,,
encoding,value,14,3381081,3387093,3383817,3384571,755,755,2184.4,973.0,2249.0,1269.0,Animal_Sea_Solid_Small,17.824439084040932,23.836220500001215,3.0,Animal_Sea_Solid_Small,8.0,,,,,,,,,,,
encoding,value,14,3381081,3387093,3384594,3384894,301,301,2188.0,882.3,2249.0,1269.0,Animal_Sea_Solid_Small,17.824439084040932,23.836220500001215,3.0,Animal_Sea_Solid_Small,8.0,,,,,,,,,,,
encoding,value,14,3381081,3387093,3384910,3385392,483,483,2191.2,936.8,2249.0,1269.0,Animal_Sea_Solid_Small,17.824439084040932,23.836220500001215,3.0,Animal_Sea_Solid_Small,8.0,,,,,,,,,,,
encoding,value,14,3381081,3387093,3385846,3386323,478,478,2186.2,951.0,2249.0,1269.0,Animal_Sea_Solid_Small,17.824439084040932,23.836220500001215,3.0,Animal_Sea_Solid_Small,8.0,,,,,,,,,,,
encoding,value,14,3381081,3387093,3386331,3386687,357,357,2185.6,969.0999999999999,2249.0,1269.0,Animal_Sea_Solid_Small,17.824439084040932,23.836220500001215,3.0,Animal_Sea_Solid_Small,8.0,,,,,,,,,,,
encoding,value,14,3381081,3387093,3386711,3387221,511,382,2244.0,820.8,2249.0,1269.0,Animal_Sea_Solid_Small,17.824439084040932,23.836220500001215,3.0,Animal_Sea_Solid_Small,8.0,,,,,,,,,,,
encoding,attention,14,3387093,3390110,3387292,3387653,362,362,2205.3,836.4000000000001,2249.0,1269.0,Animal_Sea_Solid_Small,23.83632875001058,26.85343937500147,3.0,Animal_Sea_Solid_Small,8.0,8.0,1.0,0.9098962499992922,,,,,,,,
encoding,attention,14,3387093,3390110,3387668,3388298,631,631,2258.2,866.9000000000001,2249.0,1269.0,Animal_Sea_Solid_Small,23.83632875001058,26.85343937500147,3.0,Animal_Sea_Solid_Small,8.0,8.0,1.0,0.9098962499992922,,,,,,,,
encoding,attention,14,3387093,3390110,3388415,3388673,259,259,2263.3,842.5,2249.0,1269.0,Animal_Sea_Solid_Small,23.83632875001058,26.85343937500147,3.0,Animal_Sea_Solid_Small,8.0,8.0,1.0,0.9098962499992922,,,,,,,,
encoding,attention,14,3387093,3390110,3388695,3388999,305,305,2201.5,925.5,2249.0,1269.0,Animal_Sea_Solid_Small,23.83632875001058,26.85343937500147,3.0,Animal_Sea_Solid_Small,8.0,8.0,1.0,0.9098962499992922,,,,,,,,
encoding,attention,14,3387093,3390110,3389026,3389216,191,191,2208.6,792.0,2249.0,1269.0,Animal_Sea_Solid_Small,23.83632875001058,26.85343937500147,3.0,Animal_Sea_Solid_Small,8.0,8.0,1.0,0.9098962499992922,,,,,,,,
encoding,attention,14,3387093,3390110,3389231,3389511,281,281,2322.1,799.7,2249.0,1269.0,Animal_Sea_Solid_Small,23.83632875001058,26.85343937500147,3.0,Animal_Sea_Solid_Small,8.0,8.0,1.0,0.9098962499992922,,,,,,,,
encoding,attention,14,3387093,3390110,3389768,3390021,254,254,2219.0,906.5,2249.0,1269.0,Animal_Sea_Solid_Small,23.83632875001058,26.85343937500147,3.0,Animal_Sea_Solid_Small,8.0,8.0,1.0,0.9098962499992922,,,,,,,,
encoding,fixation,15,3390110,3391115,3390316,3390444,129,129,1885.3,1062.0,1920.0,1080.0,fixation,26.85358608403476,27.85867395903915,3.0,Animal_Land_Solid_Large,-5.0,,,,,,,,,,,
encoding,fixation,15,3390110,3391115,3390454,3390743,290,290,1858.8,1094.5,1920.0,1080.0,fixation,26.85358608403476,27.85867395903915,3.0,Animal_Land_Solid_Large,-5.0,,,,,,,,,,,
encoding,fixation,15,3390110,3391115,3390871,3391333,463,244,1843.9,1127.5,1591.0,891.0,Object_Sea_Pattern_Small,26.85358608403476,27.85867395903915,3.0,Animal_Land_Solid_Large,-5.0,,,,,,,,,,,
encoding,image,15,3391115,3392126,3391380,3392291,912,746,1601.4,853.9000000000001,1591.0,1269.0,Animal_Land_Solid_Large,27.858774709049612,28.8694315419998,3.0,Animal_Land_Solid_Large,-5.0,,,,,,,,,,,
encoding,value,15,3392126,3398140,3392316,3392457,142,142,1655.6,665.2,1591.0,1269.0,Animal_Land_Solid_Large,28.869559125043452,34.88265558402054,3.0,Animal_Land_Solid_Large,-5.0,,,,,,,,,,,
encoding,value,15,3392126,3398140,3392465,3392700,236,236,1625.9,714.7,1591.0,1269.0,Animal_Land_Solid_Large,28.869559125043452,34.88265558402054,3.0,Animal_Land_Solid_Large,-5.0,,,,,,,,,,,
encoding,value,15,3392126,3398140,3392812,3393100,289,289,1601.4,872.5,1591.0,1269.0,Animal_Land_Solid_Large,28.869559125043452,34.88265558402054,3.0,Animal_Land_Solid_Large,-5.0,,,,,,,,,,,
encoding,value,15,3392126,3398140,3393214,3393779,566,566,1590.6,895.8,1591.0,1269.0,Animal_Land_Solid_Large,28.869559125043452,34.88265558402054,3.0,Animal_Land_Solid_Large,-5.0,,,,,,,,,,,
encoding,value,15,3392126,3398140,3393803,3394183,381,381,1594.2,753.0,1591.0,1269.0,Animal_Land_Solid_Large,28.869559125043452,34.88265558402054,3.0,Animal_Land_Solid_Large,-5.0,,,,,,,,,,,
encoding,value,15,3392126,3398140,3394315,3394532,218,218,1605.0,743.5999999999999,1591.0,1269.0,Animal_Land_Solid_Large,28.869559125043452,34.88265558402054,3.0,Animal_Land_Solid_Large,-5.0,,,,,,,,,,,
encoding,value,15,3392126,3398140,3394557,3395120,564,564,1592.3,910.2,1591.0,1269.0,Animal_Land_Solid_Large,28.869559125043452,34.88265558402054,3.0,Animal_Land_Solid_Large,-5.0,,,,,,,,,,,
encoding,value,15,3392126,3398140,3395142,3395388,247,247,1582.7,749.8,1591.0,1269.0,Animal_Land_Solid_Large,28.869559125043452,34.88265558402054,3.0,Animal_Land_Solid_Large,-5.0,,,,,,,,,,,
encoding,value,15,3392126,3398140,3395407,3395618,212,212,1583.9,846.5,1591.0,1269.0,Animal_Land_Solid_Large,28.869559125043452,34.88265558402054,3.0,Animal_Land_Solid_Large,-5.0,,,,,,,,,,,
encoding,value,15,3392126,3398140,3395628,3395897,270,270,1587.4,868.2,1591.0,1269.0,Animal_Land_Solid_Large,28.869559125043452,34.88265558402054,3.0,Animal_Land_Solid_Large,-5.0,,,,,,,,,,,
encoding,value,15,3392126,3398140,3396021,3397824,1804,1804,1605.6,759.7,1591.0,1269.0,Animal_Land_Solid_Large,28.869559125043452,34.88265558402054,3.0,Animal_Land_Solid_Large,-5.0,,,,,,,,,,,
encoding,value,15,3392126,3398140,3397941,3398635,695,199,1621.3,728.8,1591.0,1269.0,Animal_Land_Solid_Large,28.869559125043452,34.88265558402054,3.0,Animal_Land_Solid_Large,-5.0,,,,,,,,,,,
encoding,attention,15,3398140,3401158,3398658,3399260,603,603,1555.8,729.0,1591.0,1269.0,Animal_Land_Solid_Large,34.88277929200558,37.90060108405305,3.0,Animal_Land_Solid_Large,-5.0,-5.0,1.0,0.7143253749818541,,,,,,,,
encoding,attention,15,3398140,3401158,3399402,3399880,479,479,1620.5,832.5999999999999,1591.0,1269.0,Animal_Land_Solid_Large,34.88277929200558,37.90060108405305,3.0,Animal_Land_Solid_Large,-5.0,-5.0,1.0,0.7143253749818541,,,,,,,,
encoding,fixation,16,3401158,3402413,3401431,3401744,314,314,1830.5,1126.2,1591.0,891.0,Object_Sea_Pattern_Small,37.90075950004393,39.15609333402245,3.0,Object_Sea_Pattern_Small,-1.0,,,,,,,,,,,
encoding,fixation,16,3401158,3402413,3401965,3402725,761,448,1853.5,1131.5,1591.0,891.0,Object_Sea_Pattern_Small,37.90075950004393,39.15609333402245,3.0,Object_Sea_Pattern_Small,-1.0,,,,,,,,,,,
encoding,image,16,3402413,3403425,3402749,3403583,835,676,1607.3,1215.6,1591.0,891.0,Object_Sea_Pattern_Small,39.15620554203633,40.167294417042285,3.0,Object_Sea_Pattern_Small,-1.0,,,,,,,,,,,
encoding,value,16,3403425,3409437,3403595,3403843,249,249,1599.8,1147.2,1591.0,891.0,Object_Sea_Pattern_Small,40.16740129201207,46.17947679205099,3.0,Object_Sea_Pattern_Small,-1.0,,,,,,,,,,,
encoding,value,16,3403425,3409437,3403924,3404135,212,212,1584.6,1171.5,1591.0,891.0,Object_Sea_Pattern_Small,40.16740129201207,46.17947679205099,3.0,Object_Sea_Pattern_Small,-1.0,,,,,,,,,,,
encoding,value,16,3403425,3409437,3404143,3404561,419,419,1595.4,1202.3,1591.0,891.0,Object_Sea_Pattern_Small,40.16740129201207,46.17947679205099,3.0,Object_Sea_Pattern_Small,-1.0,,,,,,,,,,,
encoding,value,16,3403425,3409437,3404580,3404846,267,267,1585.1,1161.3,1591.0,891.0,Object_Sea_Pattern_Small,40.16740129201207,46.17947679205099,3.0,Object_Sea_Pattern_Small,-1.0,,,,,,,,,,,
encoding,value,16,3403425,3409437,3404944,3405137,194,194,1860.9,1138.1,1591.0,891.0,Object_Sea_Pattern_Small,40.16740129201207,46.17947679205099,3.0,Object_Sea_Pattern_Small,-1.0,,,,,,,,,,,
encoding,value,16,3403425,3409437,3405173,3405764,592,592,1603.8,1200.4,1591.0,891.0,Object_Sea_Pattern_Small,40.16740129201207,46.17947679205099,3.0,Object_Sea_Pattern_Small,-1.0,,,,,,,,,,,
encoding,value,16,3403425,3409437,3405780,3407297,1518,1518,1580.5,1167.3,1591.0,891.0,Object_Sea_Pattern_Small,40.16740129201207,46.17947679205099,3.0,Object_Sea_Pattern_Small,-1.0,,,,,,,,,,,
encoding,value,16,3403425,3409437,3407430,3408016,587,587,1588.4,1159.2,1591.0,891.0,Object_Sea_Pattern_Small,40.16740129201207,46.17947679205099,3.0,Object_Sea_Pattern_Small,-1.0,,,,,,,,,,,
encoding,value,16,3403425,3409437,3408026,3408241,216,216,1626.8,1186.7,1591.0,891.0,Object_Sea_Pattern_Small,40.16740129201207,46.17947679205099,3.0,Object_Sea_Pattern_Small,-1.0,,,,,,,,,,,
encoding,value,16,3403425,3409437,3408251,3409129,879,879,1578.1,1181.2,1591.0,891.0,Object_Sea_Pattern_Small,40.16740129201207,46.17947679205099,3.0,Object_Sea_Pattern_Small,-1.0,,,,,,,,,,,
encoding,value,16,3403425,3409437,3409219,3410565,1347,218,1607.0,1196.0,1591.0,891.0,Object_Sea_Pattern_Small,40.16740129201207,46.17947679205099,3.0,Object_Sea_Pattern_Small,-1.0,,,,,,,,,,,
encoding,attention,16,3409437,3412454,3410899,3411107,209,209,1676.4,1219.3,1591.0,891.0,Object_Sea_Pattern_Small,46.179588709026575,49.19670195900835,3.0,Object_Sea_Pattern_Small,-1.0,-1.0,1.0,0.899166791990865,,,,,,,,
encoding,attention,16,3409437,3412454,3411117,3411273,157,157,1648.9,1158.4,1591.0,891.0,Object_Sea_Pattern_Small,46.179588709026575,49.19670195900835,3.0,Object_Sea_Pattern_Small,-1.0,-1.0,1.0,0.899166791990865,,,,,,,,
encoding,attention,16,3409437,3412454,3411302,3411693,392,392,1882.5,1099.6,1920.0,1080.0,fixation,46.179588709026575,49.19670195900835,3.0,Object_Sea_Pattern_Small,-1.0,-1.0,1.0,0.899166791990865,,,,,,,,
encoding,attention,16,3409437,3412454,3411726,3412186,461,461,1630.1,1127.1,1591.0,891.0,Object_Sea_Pattern_Small,46.179588709026575,49.19670195900835,3.0,Object_Sea_Pattern_Small,-1.0,-1.0,1.0,0.899166791990865,,,,,,,,
encoding,attention,16,3409437,3412454,3412216,3412324,109,109,1887.3,1078.8,1920.0,1080.0,fixation,46.179588709026575,49.19670195900835,3.0,Object_Sea_Pattern_Small,-1.0,-1.0,1.0,0.899166791990865,,,,,,,,
encoding,fixation,17,3412454,3413960,3412549,3412699,151,151,1633.6,1126.7,1591.0,891.0,Object_Sea_Pattern_Small,49.196866084006615,50.702101375034545,3.0,Object_Sea_Pattern_Large,-6.0,,,,,,,,,,,
encoding,fixation,17,3412454,3413960,3412728,3413959,1232,1232,1869.0,1109.2,1920.0,1080.0,fixation,49.196866084006615,50.702101375034545,3.0,Object_Sea_Pattern_Large,-6.0,,,,,,,,,,,
encoding,image,17,3413960,3414971,3414066,3414243,178,178,1872.2,1123.0,1920.0,1080.0,fixation,50.702244959014934,51.713419417035766,3.0,Object_Sea_Pattern_Large,-6.0,,,,,,,,,,,
encoding,image,17,3413960,3414971,3414289,3414507,219,219,1908.5,671.2,1920.0,1460.0,Object_Sea_Pattern_Large,50.702244959014934,51.713419417035766,3.0,Object_Sea_Pattern_Large,-6.0,,,,,,,,,,,
encoding,image,17,3413960,3414971,3414531,3415070,540,440,1946.9,556.0999999999999,1920.0,1460.0,Object_Sea_Pattern_Large,50.702244959014934,51.713419417035766,3.0,Object_Sea_Pattern_Large,-6.0,,,,,,,,,,,
encoding,value,17,3414971,3420983,3415109,3415222,114,114,1872.8,983.5,1920.0,1460.0,Object_Sea_Pattern_Large,51.71352570899762,57.72521929204231,3.0,Object_Sea_Pattern_Large,-6.0,,,,,,,,,,,
encoding,value,17,3414971,3420983,3415245,3415489,245,245,1880.0,1122.4,1920.0,1080.0,fixation,51.71352570899762,57.72521929204231,3.0,Object_Sea_Pattern_Large,-6.0,,,,,,,,,,,
encoding,value,17,3414971,3420983,3415537,3415807,271,271,1918.8,626.7,1920.0,1460.0,Object_Sea_Pattern_Large,51.71352570899762,57.72521929204231,3.0,Object_Sea_Pattern_Large,-6.0,,,,,,,,,,,
encoding,value,17,3414971,3420983,3416142,3416229,88,88,1944.1,600.3,1920.0,1460.0,Object_Sea_Pattern_Large,51.71352570899762,57.72521929204231,3.0,Object_Sea_Pattern_Large,-6.0,,,,,,,,,,,
encoding,value,17,3414971,3420983,3416271,3416404,134,134,1861.1,1115.5,1920.0,1080.0,fixation,51.71352570899762,57.72521929204231,3.0,Object_Sea_Pattern_Large,-6.0,,,,,,,,,,,
encoding,value,17,3414971,3420983,3416417,3416726,310,310,1867.3,1162.5,1591.0,891.0,Object_Sea_Pattern_Small,51.71352570899762,57.72521929204231,3.0,Object_Sea_Pattern_Large,-6.0,,,,,,,,,,,
encoding,value,17,3414971,3420983,3416877,3417359,483,483,1940.1,580.2,1920.0,1460.0,Object_Sea_Pattern_Large,51.71352570899762,57.72521929204231,3.0,Object_Sea_Pattern_Large,-6.0,,,,,,,,,,,
encoding,value,17,3414971,3420983,3417383,3417717,335,335,1913.2,677.4000000000001,1920.0,1460.0,Object_Sea_Pattern_Large,51.71352570899762,57.72521929204231,3.0,Object_Sea_Pattern_Large,-6.0,,,,,,,,,,,
encoding,value,17,3414971,3420983,3417857,3418012,156,156,1936.4,623.3,1920.0,1460.0,Object_Sea_Pattern_Large,51.71352570899762,57.72521929204231,3.0,Object_Sea_Pattern_Large,-6.0,,,,,,,,,,,
encoding,value,17,3414971,3420983,3418018,3418332,315,315,1931.3,599.3,1920.0,1460.0,Object_Sea_Pattern_Large,51.71352570899762,57.72521929204231,3.0,Object_Sea_Pattern_Large,-6.0,,,,,,,,,,,
encoding,value,17,3414971,3420983,3418354,3418665,312,312,1893.4,685.5999999999999,1920.0,1460.0,Object_Sea_Pattern_Large,51.71352570899762,57.72521929204231,3.0,Object_Sea_Pattern_Large,-6.0,,,,,,,,,,,
encoding,value,17,3414971,3420983,3418695,3419361,667,667,1870.2,1155.6,1591.0,891.0,Object_Sea_Pattern_Small,51.71352570899762,57.72521929204231,3.0,Object_Sea_Pattern_Large,-6.0,,,,,,,,,,,
encoding,value,17,3414971,3420983,3419382,3419588,207,207,1914.6,1280.8,1920.0,700.0,Animal_Land_Solid_Small,51.71352570899762,57.72521929204231,3.0,Object_Sea_Pattern_Large,-6.0,,,,,,,,,,,
encoding,value,17,3414971,3420983,3419627,3419874,248,248,1863.2,1077.3,1920.0,1080.0,fixation,51.71352570899762,57.72521929204231,3.0,Object_Sea_Pattern_Large,-6.0,,,,,,,,,,,
encoding,value,17,3414971,3420983,3419887,3420006,120,120,1868.5,1138.2,1591.0,891.0,Object_Sea_Pattern_Small,51.71352570899762,57.72521929204231,3.0,Object_Sea_Pattern_Large,-6.0,,,,,,,,,,,
encoding,value,17,3414971,3420983,3420092,3421045,954,891,1876.4,1131.1,1920.0,1080.0,fixation,51.71352570899762,57.72521929204231,3.0,Object_Sea_Pattern_Large,-6.0,,,,,,,,,,,
encoding,attention,17,3420983,3424003,3421094,3421386,293,293,1918.0,629.3,1920.0,1460.0,Object_Sea_Pattern_Large,57.72535466699628,60.74526066699764,3.0,Object_Sea_Pattern_Large,-6.0,-6.0,1.0,1.3032696669688448,,,,,,,,
encoding,attention,17,3420983,3424003,3421405,3421900,496,496,1979.9,599.5,1920.0,1460.0,Object_Sea_Pattern_Large,57.72535466699628,60.74526066699764,3.0,Object_Sea_Pattern_Large,-6.0,-6.0,1.0,1.3032696669688448,,,,,,,,
encoding,attention,17,3420983,3424003,3421915,3422229,315,315,1905.4,626.4000000000001,1920.0,1460.0,Object_Sea_Pattern_Large,57.72535466699628,60.74526066699764,3.0,Object_Sea_Pattern_Large,-6.0,-6.0,1.0,1.3032696669688448,,,,,,,,
encoding,attention,17,3420983,3424003,3422239,3422573,335,335,1951.5,624.0999999999999,1920.0,1460.0,Object_Sea_Pattern_Large,57.72535466699628,60.74526066699764,3.0,Object_Sea_Pattern_Large,-6.0,-6.0,1.0,1.3032696669688448,,,,,,,,
encoding,attention,17,3420983,3424003,3423024,3423181,158,158,1844.0,1123.1,1591.0,891.0,Object_Sea_Pattern_Small,57.72535466699628,60.74526066699764,3.0,Object_Sea_Pattern_Large,-6.0,-6.0,1.0,1.3032696669688448,,,,,,,,
encoding,attention,17,3420983,3424003,3423489,3423617,129,129,1863.6,868.2,1920.0,1460.0,Object_Sea_Pattern_Large,57.72535466699628,60.74526066699764,3.0,Object_Sea_Pattern_Large,-6.0,-6.0,1.0,1.3032696669688448,,,,,,,,
encoding,attention,17,3420983,3424003,3423661,3423872,212,212,1973.6,596.2,1920.0,1460.0,Object_Sea_Pattern_Large,57.72535466699628,60.74526066699764,3.0,Object_Sea_Pattern_Large,-6.0,-6.0,1.0,1.3032696669688448,,,,,,,,
encoding,fixation,18,3424004,3425009,3424275,3424573,299,299,1850.9,1099.0,1591.0,891.0,Object_Sea_Pattern_Small,60.74547329201596,61.75062812503893,3.0,Animal_Land_Solid_Small,-6.0,,,,,,,,,,,
encoding,fixation,18,3424004,3425009,3424761,3425304,544,248,1847.5,1138.1,1591.0,891.0,Object_Sea_Pattern_Small,60.74547329201596,61.75062812503893,3.0,Animal_Land_Solid_Small,-6.0,,,,,,,,,,,
encoding,image,18,3425009,3426020,3425330,3425716,387,387,1899.3,1415.5,1920.0,700.0,Animal_Land_Solid_Small,61.750744084012695,62.76156962499954,3.0,Animal_Land_Solid_Small,-6.0,,,,,,,,,,,
encoding,image,18,3425009,3426020,3425746,3425986,241,241,1838.8,1178.4,1591.0,891.0,Object_Sea_Pattern_Small,61.750744084012695,62.76156962499954,3.0,Animal_Land_Solid_Small,-6.0,,,,,,,,,,,
encoding,value,18,3426020,3432032,3426090,3426558,469,469,1874.2,1364.2,1920.0,700.0,Animal_Land_Solid_Small,62.76169320900226,68.77382420899812,3.0,Animal_Land_Solid_Small,-6.0,,,,,,,,,,,
encoding,value,18,3426020,3432032,3426578,3427123,546,546,1948.7,1473.3,1920.0,700.0,Animal_Land_Solid_Small,62.76169320900226,68.77382420899812,3.0,Animal_Land_Solid_Small,-6.0,,,,,,,,,,,
encoding,value,18,3426020,3432032,3427149,3427525,377,377,1861.2,1400.6,1920.0,700.0,Animal_Land_Solid_Small,62.76169320900226,68.77382420899812,3.0,Animal_Land_Solid_Small,-6.0,,,,,,,,,,,
encoding,value,18,3426020,3432032,3427870,3428033,164,164,1832.6,1325.0,1920.0,700.0,Animal_Land_Solid_Small,62.76169320900226,68.77382420899812,3.0,Animal_Land_Solid_Small,-6.0,,,,,,,,,,,
encoding,value,18,3426020,3432032,3428056,3428566,511,511,1890.0,1411.4,1920.0,700.0,Animal_Land_Solid_Small,62.76169320900226,68.77382420899812,3.0,Animal_Land_Solid_Small,-6.0,,,,,,,,,,,
encoding,value,18,3426020,3432032,3428574,3428891,318,318,1871.4,1405.7,1920.0,700.0,Animal_Land_Solid_Small,62.76169320900226,68.77382420899812,3.0,Animal_Land_Solid_Small,-6.0,,,,,,,,,,,
encoding,value,18,3426020,3432032,3428921,3429168,248,248,1831.5,1201.7,1591.0,891.0,Object_Sea_Pattern_Small,62.76169320900226,68.77382420899812,3.0,Animal_Land_Solid_Small,-6.0,,,,,,,,,,,
encoding,value,18,3426020,3432032,3429194,3429707,514,514,1881.3,1402.6,1920.0,700.0,Animal_Land_Solid_Small,62.76169320900226,68.77382420899812,3.0,Animal_Land_Solid_Small,-6.0,,,,,,,,,,,
encoding,value,18,3426020,3432032,3429785,3429922,138,138,1849.4,1205.0,1920.0,700.0,Animal_Land_Solid_Small,62.76169320900226,68.77382420899812,3.0,Animal_Land_Solid_Small,-6.0,,,,,,,,,,,
encoding,value,18,3426020,3432032,3429934,3430137,204,204,1846.6,1161.7,1591.0,891.0,Object_Sea_Pattern_Small,62.76169320900226,68.77382420899812,3.0,Animal_Land_Solid_Small,-6.0,,,,,,,,,,,
encoding,value,18,3426020,3432032,3430170,3430386,217,217,1893.4,1430.3,1920.0,700.0,Animal_Land_Solid_Small,62.76169320900226,68.77382420899812,3.0,Animal_Land_Solid_Small,-6.0,,,,,,,,,,,
encoding,value,18,3426020,3432032,3430396,3431819,1424,1424,1883.1,1412.8,1920.0,700.0,Animal_Land_Solid_Small,62.76169320900226,68.77382420899812,3.0,Animal_Land_Solid_Small,-6.0,,,,,,,,,,,
encoding,value,18,3426020,3432032,3431961,3432417,457,71,1888.1,1405.3,1920.0,700.0,Animal_Land_Solid_Small,62.76169320900226,68.77382420899812,3.0,Animal_Land_Solid_Small,-6.0,,,,,,,,,,,
encoding,attention,18,3432032,3435050,3432430,3433024,595,595,1838.3,1389.3,1920.0,700.0,Animal_Land_Solid_Small,68.77401487500174,71.79114870901685,3.0,Animal_Land_Solid_Small,-6.0,-6.0,1.0,0.7117778340470977,,,,,,,,
encoding,attention,18,3432032,3435050,3433339,3433486,148,148,1840.5,1340.8,1920.0,700.0,Animal_Land_Solid_Small,68.77401487500174,71.79114870901685,3.0,Animal_Land_Solid_Small,-6.0,-6.0,1.0,0.7117778340470977,,,,,,,,
encoding,attention,18,3432032,3435050,3433498,3433743,246,246,1900.9,1365.6,1920.0,700.0,Animal_Land_Solid_Small,68.77401487500174,71.79114870901685,3.0,Animal_Land_Solid_Small,-6.0,-6.0,1.0,0.7117778340470977,,,,,,,,
encoding,attention,18,3432032,3435050,3433750,3433975,226,226,1865.5,1360.5,1920.0,700.0,Animal_Land_Solid_Small,68.77401487500174,71.79114870901685,3.0,Animal_Land_Solid_Small,-6.0,-6.0,1.0,0.7117778340470977,,,,,,,,
encoding,attention,18,3432032,3435050,3434018,3434255,238,238,1843.2,1146.3,1591.0,891.0,Object_Sea_Pattern_Small,68.77401487500174,71.79114870901685,3.0,Animal_Land_Solid_Small,-6.0,-6.0,1.0,0.7117778340470977,,,,,,,,
encoding,attention,18,3432032,3435050,3434280,3434619,340,340,1895.0,1372.5,1920.0,700.0,Animal_Land_Solid_Small,68.77401487500174,71.79114870901685,3.0,Animal_Land_Solid_Small,-6.0,-6.0,1.0,0.7117778340470977,,,,,,,,
encoding,attention,18,3432032,3435050,3434716,3434982,267,267,1876.4,1372.0,1920.0,700.0,Animal_Land_Solid_Small,68.77401487500174,71.79114870901685,3.0,Animal_Land_Solid_Small,-6.0,-6.0,1.0,0.7117778340470977,,,,,,,,
encoding,fixation,19,3715904,3716911,3716114,3716339,226,226,1817.6,1153.9,1591.0,891.0,Object_Sea_Pattern_Small,7.690743792045396,8.69752020901069,4.0,Animal_Land_Solid_Large,3.0,,,,,,,,,,,
encoding,fixation,19,3715904,3716911,3716490,3717068,579,421,1835.8,1161.6,1591.0,891.0,Object_Sea_Pattern_Small,7.690743792045396,8.69752020901069,4.0,Animal_Land_Solid_Large,3.0,,,,,,,,,,,
encoding,image,19,3716911,3717923,3717118,3717244,127,127,1510.5,911.7,1591.0,1269.0,Animal_Land_Solid_Large,8.6976317090448,9.709627125004772,4.0,Animal_Land_Solid_Large,3.0,,,,,,,,,,,
encoding,image,19,3716911,3717923,3717256,3717679,424,424,1546.6,909.0,1591.0,1269.0,Animal_Land_Solid_Large,8.6976317090448,9.709627125004772,4.0,Animal_Land_Solid_Large,3.0,,,,,,,,,,,
encoding,image,19,3716911,3717923,3717815,3718094,280,108,1560.7,817.0,1591.0,1269.0,Animal_Land_Solid_Large,8.6976317090448,9.709627125004772,4.0,Animal_Land_Solid_Large,3.0,,,,,,,,,,,
encoding,value,19,3717923,3723938,3718116,3718420,305,305,1538.6,796.2,1591.0,1269.0,Animal_Land_Solid_Large,9.709753667004406,15.724163500010036,4.0,Animal_Land_Solid_Large,3.0,,,,,,,,,,,
encoding,value,19,3717923,3723938,3718451,3719175,725,725,1539.9,955.5,1591.0,1269.0,Animal_Land_Solid_Large,9.709753667004406,15.724163500010036,4.0,Animal_Land_Solid_Large,3.0,,,,,,,,,,,
encoding,value,19,3717923,3723938,3719195,3719556,362,362,1565.9,769.4000000000001,1591.0,1269.0,Animal_Land_Solid_Large,9.709753667004406,15.724163500010036,4.0,Animal_Land_Solid_Large,3.0,,,,,,,,,,,
encoding,value,19,3717923,3723938,3719578,3719917,340,340,1568.3,886.0,1591.0,1269.0,Animal_Land_Solid_Large,9.709753667004406,15.724163500010036,4.0,Animal_Land_Solid_Large,3.0,,,,,,,,,,,
encoding,value,19,3717923,3723938,3719941,3720226,286,286,1552.4,790.4000000000001,1591.0,1269.0,Animal_Land_Solid_Large,9.709753667004406,15.724163500010036,4.0,Animal_Land_Solid_Large,3.0,,,,,,,,,,,
encoding,value,19,3717923,3723938,3720519,3720637,119,119,1553.1,872.5999999999999,1591.0,1269.0,Animal_Land_Solid_Large,9.709753667004406,15.724163500010036,4.0,Animal_Land_Solid_Large,3.0,,,,,,,,,,,
encoding,value,19,3717923,3723938,3720661,3721013,353,353,1542.3,938.8,1591.0,1269.0,Animal_Land_Solid_Large,9.709753667004406,15.724163500010036,4.0,Animal_Land_Solid_Large,3.0,,,,,,,,,,,
encoding,value,19,3717923,3723938,3721036,3721579,544,544,1583.0,752.8,1591.0,1269.0,Animal_Land_Solid_Large,9.709753667004406,15.724163500010036,4.0,Animal_Land_Solid_Large,3.0,,,,,,,,,,,
encoding,value,19,3717923,3723938,3721610,3721882,273,273,1546.9,949.2,1591.0,1269.0,Animal_Land_Solid_Large,9.709753667004406,15.724163500010036,4.0,Animal_Land_Solid_Large,3.0,,,,,,,,,,,
encoding,value,19,3717923,3723938,3721916,3722087,172,172,1889.7,1153.6,1920.0,700.0,Object_Land_Solid_Small,9.709753667004406,15.724163500010036,4.0,Animal_Land_Solid_Large,3.0,,,,,,,,,,,
encoding,value,19,3717923,3723938,3722096,3722283,188,188,1847.0,1154.3,1591.0,891.0,Object_Sea_Pattern_Small,9.709753667004406,15.724163500010036,4.0,Animal_Land_Solid_Large,3.0,,,,,,,,,,,
encoding,value,19,3717923,3723938,3722322,3722408,87,87,1538.9,939.5999999999999,1591.0,1269.0,Animal_Land_Solid_Large,9.709753667004406,15.724163500010036,4.0,Animal_Land_Solid_Large,3.0,,,,,,,,,,,
encoding,value,19,3717923,3723938,3722675,3722907,233,233,1565.8,888.7,1591.0,1269.0,Animal_Land_Solid_Large,9.709753667004406,15.724163500010036,4.0,Animal_Land_Solid_Large,3.0,,,,,,,,,,,
encoding,value,19,3717923,3723938,3723061,3723315,255,255,1562.1,894.0,1591.0,1269.0,Animal_Land_Solid_Large,9.709753667004406,15.724163500010036,4.0,Animal_Land_Solid_Large,3.0,,,,,,,,,,,
encoding,value,19,3717923,3723938,3723352,3723674,323,323,1852.2,1143.6,1591.0,891.0,Object_Sea_Pattern_Small,9.709753667004406,15.724163500010036,4.0,Animal_Land_Solid_Large,3.0,,,,,,,,,,,
encoding,value,19,3717923,3723938,3723708,3724046,339,230,1585.3,868.9000000000001,1591.0,1269.0,Animal_Land_Solid_Large,9.709753667004406,15.724163500010036,4.0,Animal_Land_Solid_Large,3.0,,,,,,,,,,,
encoding,attention,19,3723938,3726957,3724077,3724627,551,551,1581.8,793.7,1591.0,1269.0,Animal_Land_Solid_Large,15.724285459029488,18.74280833400553,4.0,Animal_Land_Solid_Large,3.0,3.0,1.0,1.1063384580193087,,,,,,,,
encoding,attention,19,3723938,3726957,3724642,3724763,122,122,1513.0,794.9000000000001,1591.0,1269.0,Animal_Land_Solid_Large,15.724285459029488,18.74280833400553,4.0,Animal_Land_Solid_Large,3.0,3.0,1.0,1.1063384580193087,,,,,,,,
encoding,attention,19,3723938,3726957,3724863,3725515,653,653,1494.7,789.4000000000001,1591.0,1269.0,Animal_Land_Solid_Large,15.724285459029488,18.74280833400553,4.0,Animal_Land_Solid_Large,3.0,3.0,1.0,1.1063384580193087,,,,,,,,
encoding,attention,19,3723938,3726957,3725537,3725886,350,350,1564.8,875.9000000000001,1591.0,1269.0,Animal_Land_Solid_Large,15.724285459029488,18.74280833400553,4.0,Animal_Land_Solid_Large,3.0,3.0,1.0,1.1063384580193087,,,,,,,,
encoding,attention,19,3723938,3726957,3725893,3726264,372,372,1592.4,814.9000000000001,1591.0,1269.0,Animal_Land_Solid_Large,15.724285459029488,18.74280833400553,4.0,Animal_Land_Solid_Large,3.0,3.0,1.0,1.1063384580193087,,,,,,,,
encoding,attention,19,3723938,3726957,3726271,3726505,235,235,1578.8,796.8,1591.0,1269.0,Animal_Land_Solid_Large,15.724285459029488,18.74280833400553,4.0,Animal_Land_Solid_Large,3.0,3.0,1.0,1.1063384580193087,,,,,,,,
encoding,attention,19,3723938,3726957,3726722,3726889,168,168,1923.4,966.9000000000001,1920.0,1460.0,Animal_Land_Pattern_Small,15.724285459029488,18.74280833400553,4.0,Animal_Land_Solid_Large,3.0,3.0,1.0,1.1063384580193087,,,,,,,,
encoding,fixation,20,3726957,3728212,3727167,3727352,186,186,1884.1,1086.8,1920.0,1080.0,fixation,18.74298991705291,19.998052292037755,4.0,Animal_Sea_Pattern_Large,-5.0,,,,,,,,,,,
encoding,fixation,20,3726957,3728212,3727359,3727832,474,474,1878.9,1101.1,1920.0,1080.0,fixation,18.74298991705291,19.998052292037755,4.0,Animal_Sea_Pattern_Large,-5.0,,,,,,,,,,,
encoding,fixation,20,3726957,3728212,3727839,3728386,548,373,1853.8,1122.1,1591.0,891.0,Object_Sea_Pattern_Small,18.74298991705291,19.998052292037755,4.0,Animal_Sea_Pattern_Large,-5.0,,,,,,,,,,,
encoding,image,20,3728212,3729222,3728418,3728591,174,174,2165.1,1296.6,2249.0,891.0,Animal_Sea_Pattern_Large,19.998174167005345,21.008446042018477,4.0,Animal_Sea_Pattern_Large,-5.0,,,,,,,,,,,
encoding,image,20,3728212,3729222,3728600,3728741,142,142,2179.9,1335.3,2249.0,891.0,Animal_Sea_Pattern_Large,19.998174167005345,21.008446042018477,4.0,Animal_Sea_Pattern_Large,-5.0,,,,,,,,,,,
encoding,image,20,3728212,3729222,3728889,3729277,389,333,2198.5,1276.0,2249.0,891.0,Animal_Sea_Pattern_Large,19.998174167005345,21.008446042018477,4.0,Animal_Sea_Pattern_Large,-5.0,,,,,,,,,,,
encoding,value,20,3729223,3735234,3729296,3729448,153,153,2131.9,1244.5,2249.0,891.0,Animal_Sea_Pattern_Large,21.008588334021624,27.020035917055793,4.0,Animal_Sea_Pattern_Large,-5.0,,,,,,,,,,,
encoding,value,20,3729223,3735234,3729457,3729739,283,283,2174.1,1253.8,2249.0,891.0,Animal_Sea_Pattern_Large,21.008588334021624,27.020035917055793,4.0,Animal_Sea_Pattern_Large,-5.0,,,,,,,,,,,
encoding,value,20,3729223,3735234,3729764,3730566,803,803,2153.9,1363.9,2249.0,891.0,Animal_Sea_Pattern_Large,21.008588334021624,27.020035917055793,4.0,Animal_Sea_Pattern_Large,-5.0,,,,,,,,,,,
encoding,value,20,3729223,3735234,3730909,3730999,91,91,1711.8,1100.5,1591.0,891.0,Object_Sea_Pattern_Small,21.008588334021624,27.020035917055793,4.0,Animal_Sea_Pattern_Large,-5.0,,,,,,,,,,,
encoding,value,20,3729223,3735234,3731040,3731216,177,177,2121.6,1273.4,2249.0,891.0,Animal_Sea_Pattern_Large,21.008588334021624,27.020035917055793,4.0,Animal_Sea_Pattern_Large,-5.0,,,,,,,,,,,
encoding,value,20,3729223,3735234,3731227,3731435,209,209,2169.0,1232.9,2249.0,891.0,Animal_Sea_Pattern_Large,21.008588334021624,27.020035917055793,4.0,Animal_Sea_Pattern_Large,-5.0,,,,,,,,,,,
encoding,value,20,3729223,3735234,3731455,3731673,219,219,2193.8,1324.1,2249.0,891.0,Animal_Sea_Pattern_Large,21.008588334021624,27.020035917055793,4.0,Animal_Sea_Pattern_Large,-5.0,,,,,,,,,,,
encoding,value,20,3729223,3735234,3731685,3732237,553,553,2137.0,1356.7,2249.0,891.0,Animal_Sea_Pattern_Large,21.008588334021624,27.020035917055793,4.0,Animal_Sea_Pattern_Large,-5.0,,,,,,,,,,,
encoding,value,20,3729223,3735234,3732259,3732639,381,381,2177.0,1277.7,2249.0,891.0,Animal_Sea_Pattern_Large,21.008588334021624,27.020035917055793,4.0,Animal_Sea_Pattern_Large,-5.0,,,,,,,,,,,
encoding,value,20,3729223,3735234,3732774,3732921,148,148,2087.4,1259.8,2249.0,891.0,Animal_Sea_Pattern_Large,21.008588334021624,27.020035917055793,4.0,Animal_Sea_Pattern_Large,-5.0,,,,,,,,,,,
encoding,value,20,3729223,3735234,3732934,3733363,430,430,2155.2,1253.7,2249.0,891.0,Animal_Sea_Pattern_Large,21.008588334021624,27.020035917055793,4.0,Animal_Sea_Pattern_Large,-5.0,,,,,,,,,,,
encoding,value,20,3729223,3735234,3733379,3733749,371,371,2140.1,1313.3,2249.0,891.0,Animal_Sea_Pattern_Large,21.008588334021624,27.020035917055793,4.0,Animal_Sea_Pattern_Large,-5.0,,,,,,,,,,,
encoding,value,20,3729223,3735234,3733760,3734057,298,298,2160.2,1276.8,2249.0,891.0,Animal_Sea_Pattern_Large,21.008588334021624,27.020035917055793,4.0,Animal_Sea_Pattern_Large,-5.0,,,,,,,,,,,
encoding,value,20,3729223,3735234,3734069,3734337,269,269,2161.0,1322.1,2249.0,891.0,Animal_Sea_Pattern_Large,21.008588334021624,27.020035917055793,4.0,Animal_Sea_Pattern_Large,-5.0,,,,,,,,,,,
encoding,value,20,3729223,3735234,3734348,3734601,254,254,2163.2,1273.4,2249.0,891.0,Animal_Sea_Pattern_Large,21.008588334021624,27.020035917055793,4.0,Animal_Sea_Pattern_Large,-5.0,,,,,,,,,,,
encoding,value,20,3729223,3735234,3734616,3735068,453,453,2164.9,1337.9,2249.0,891.0,Animal_Sea_Pattern_Large,21.008588334021624,27.020035917055793,4.0,Animal_Sea_Pattern_Large,-5.0,,,,,,,,,,,
encoding,attention,20,3735234,3738246,3735296,3735392,97,97,2020.9,1276.1,1920.0,700.0,Object_Land_Solid_Small,27.020151417003945,30.03134087502258,4.0,Animal_Sea_Pattern_Large,-5.0,,,,,,,,,,,
encoding,attention,20,3735234,3738246,3735563,3736360,798,798,2112.7,1266.1,2249.0,891.0,Animal_Sea_Pattern_Large,27.020151417003945,30.03134087502258,4.0,Animal_Sea_Pattern_Large,-5.0,,,,,,,,,,,
encoding,attention,20,3735234,3738246,3736391,3736632,242,242,1786.9,1165.7,1591.0,891.0,Object_Sea_Pattern_Small,27.020151417003945,30.03134087502258,4.0,Animal_Sea_Pattern_Large,-5.0,,,,,,,,,,,
encoding,attention,20,3735234,3738246,3736667,3736991,325,325,2107.9,1274.6,2249.0,891.0,Animal_Sea_Pattern_Large,27.020151417003945,30.03134087502258,4.0,Animal_Sea_Pattern_Large,-5.0,,,,,,,,,,,
encoding,attention,20,3735234,3738246,3737266,3737569,304,304,2122.5,1260.2,2249.0,891.0,Animal_Sea_Pattern_Large,27.020151417003945,30.03134087502258,4.0,Animal_Sea_Pattern_Large,-5.0,,,,,,,,,,,
encoding,attention,20,3735234,3738246,3737587,3738045,459,459,2206.6,1253.9,2249.0,891.0,Animal_Sea_Pattern_Large,27.020151417003945,30.03134087502258,4.0,Animal_Sea_Pattern_Large,-5.0,,,,,,,,,,,
encoding,fixation,21,3738246,3738751,3738588,3738829,242,163,1814.7,1156.0,1591.0,891.0,Object_Sea_Pattern_Small,30.03148979204707,30.53671962500084,4.0,Animal_Land_Pattern_Small,1.0,,,,,,,,,,,
encoding,image,21,3738751,3739763,3739017,3739056,40,40,1861.7,1039.3,1591.0,1269.0,Animal_Land_Solid_Large,30.536827334028203,31.54811879200861,4.0,Animal_Land_Pattern_Small,1.0,,,,,,,,,,,
encoding,image,21,3738751,3739763,3739099,3739753,655,655,1877.2,759.0999999999999,1920.0,1460.0,Animal_Land_Pattern_Small,30.536827334028203,31.54811879200861,4.0,Animal_Land_Pattern_Small,1.0,,,,,,,,,,,
encoding,value,21,3739763,3745775,3739943,3740105,163,163,1913.8,743.3,1920.0,1460.0,Animal_Land_Pattern_Small,31.54826208401937,37.56047333404422,4.0,Animal_Land_Pattern_Small,1.0,,,,,,,,,,,
encoding,value,21,3739763,3745775,3740144,3740458,315,315,1916.8,594.0999999999999,1920.0,1460.0,Animal_Land_Pattern_Small,31.54826208401937,37.56047333404422,4.0,Animal_Land_Pattern_Small,1.0,,,,,,,,,,,
encoding,value,21,3739763,3745775,3740477,3741771,1295,1295,1891.0,732.0999999999999,1920.0,1460.0,Animal_Land_Pattern_Small,31.54826208401937,37.56047333404422,4.0,Animal_Land_Pattern_Small,1.0,,,,,,,,,,,
encoding,value,21,3739763,3745775,3741955,3743085,1131,1131,1927.2,696.7,1920.0,1460.0,Animal_Land_Pattern_Small,31.54826208401937,37.56047333404422,4.0,Animal_Land_Pattern_Small,1.0,,,,,,,,,,,
encoding,value,21,3739763,3745775,3743230,3743349,120,120,1922.6,666.0,1920.0,1460.0,Animal_Land_Pattern_Small,31.54826208401937,37.56047333404422,4.0,Animal_Land_Pattern_Small,1.0,,,,,,,,,,,
encoding,value,21,3739763,3745775,3743368,3743629,262,262,1941.8,569.9000000000001,1920.0,1460.0,Animal_Land_Pattern_Small,31.54826208401937,37.56047333404422,4.0,Animal_Land_Pattern_Small,1.0,,,,,,,,,,,
encoding,value,21,3739763,3745775,3743675,3744054,380,380,1886.9,706.4000000000001,1920.0,1460.0,Animal_Land_Pattern_Small,31.54826208401937,37.56047333404422,4.0,Animal_Land_Pattern_Small,1.0,,,,,,,,,,,
encoding,value,21,3739763,3745775,3744235,3744347,113,113,1919.4,659.7,1920.0,1460.0,Animal_Land_Pattern_Small,31.54826208401937,37.56047333404422,4.0,Animal_Land_Pattern_Small,1.0,,,,,,,,,,,
encoding,value,21,3739763,3745775,3744367,3744670,304,304,1978.5,537.2,1920.0,1460.0,Animal_Land_Pattern_Small,31.54826208401937,37.56047333404422,4.0,Animal_Land_Pattern_Small,1.0,,,,,,,,,,,
encoding,value,21,3739763,3745775,3744697,3744895,199,199,1918.3,686.4000000000001,1920.0,1460.0,Animal_Land_Pattern_Small,31.54826208401937,37.56047333404422,4.0,Animal_Land_Pattern_Small,1.0,,,,,,,,,,,
encoding,value,21,3739763,3745775,3744913,3746182,1270,862,1955.8,571.9000000000001,1920.0,1460.0,Animal_Land_Pattern_Small,31.54826208401937,37.56047333404422,4.0,Animal_Land_Pattern_Small,1.0,,,,,,,,,,,
encoding,attention,21,3745775,3748792,3746202,3746667,466,466,2007.0,582.9000000000001,1920.0,1460.0,Animal_Land_Pattern_Small,37.56057725002756,40.57754850003403,4.0,Animal_Land_Pattern_Small,1.0,1.0,1.0,0.6472344170324504,,,,,,,,
encoding,attention,21,3745775,3748792,3746691,3746737,47,47,2290.6,415.5999999999999,,,none,37.56057725002756,40.57754850003403,4.0,Animal_Land_Pattern_Small,1.0,1.0,1.0,0.6472344170324504,,,,,,,,
encoding,attention,21,3745775,3748792,3747562,3747714,153,153,1881.1,1098.2,1920.0,1080.0,fixation,37.56057725002756,40.57754850003403,4.0,Animal_Land_Pattern_Small,1.0,1.0,1.0,0.6472344170324504,,,,,,,,
encoding,attention,21,3745775,3748792,3747731,3748187,457,457,1906.6,1082.1,1920.0,1080.0,fixation,37.56057725002756,40.57754850003403,4.0,Animal_Land_Pattern_Small,1.0,1.0,1.0,0.6472344170324504,,,,,,,,
encoding,attention,21,3745775,3748792,3748277,3748558,282,282,1980.1,600.9000000000001,1920.0,1460.0,Animal_Land_Pattern_Small,37.56057725002756,40.57754850003403,4.0,Animal_Land_Pattern_Small,1.0,1.0,1.0,0.6472344170324504,,,,,,,,
encoding,fixation,22,3748792,3749798,3748923,3749045,123,123,1921.2,913.2,1920.0,1460.0,Animal_Land_Pattern_Small,40.57773854205152,41.5829163340386,4.0,Object_Land_Solid_Small,-7.0,,,,,,,,,,,
encoding,fixation,22,3748792,3749798,3749071,3749418,348,348,1803.7,1099.9,1591.0,891.0,Object_Sea_Pattern_Small,40.57773854205152,41.5829163340386,4.0,Object_Land_Solid_Small,-7.0,,,,,,,,,,,
encoding,fixation,22,3748792,3749798,3749560,3749979,420,238,1836.0,1105.5,1591.0,891.0,Object_Sea_Pattern_Small,40.57773854205152,41.5829163340386,4.0,Object_Land_Solid_Small,-7.0,,,,,,,,,,,
encoding,image,22,3749798,3750809,3750011,3750598,588,588,1879.3,1435.9,1920.0,700.0,Object_Land_Solid_Small,41.58302820904646,42.59438966703601,4.0,Object_Land_Solid_Small,-7.0,,,,,,,,,,,
encoding,image,22,3749798,3750809,3750624,3751323,700,185,1933.7,1393.1,1920.0,700.0,Object_Land_Solid_Small,41.58302820904646,42.59438966703601,4.0,Object_Land_Solid_Small,-7.0,,,,,,,,,,,
encoding,value,22,3750810,3756821,3751336,3751768,433,433,1864.5,1471.7,1920.0,700.0,Object_Land_Solid_Small,42.59457929205382,48.606207584030926,4.0,Object_Land_Solid_Small,-7.0,,,,,,,,,,,
encoding,value,22,3750810,3756821,3751855,3752176,322,322,1874.3,1459.3,1920.0,700.0,Object_Land_Solid_Small,42.59457929205382,48.606207584030926,4.0,Object_Land_Solid_Small,-7.0,,,,,,,,,,,
encoding,value,22,3750810,3756821,3752188,3752627,440,440,1913.4,1496.5,1920.0,700.0,Object_Land_Solid_Small,42.59457929205382,48.606207584030926,4.0,Object_Land_Solid_Small,-7.0,,,,,,,,,,,
encoding,value,22,3750810,3756821,3752639,3752996,358,358,1871.9,1478.0,1920.0,700.0,Object_Land_Solid_Small,42.59457929205382,48.606207584030926,4.0,Object_Land_Solid_Small,-7.0,,,,,,,,,,,
encoding,value,22,3750810,3756821,3753243,3753373,131,131,2035.8,1362.8,1920.0,700.0,Object_Land_Solid_Small,42.59457929205382,48.606207584030926,4.0,Object_Land_Solid_Small,-7.0,,,,,,,,,,,
encoding,value,22,3750810,3756821,3753388,3753625,238,238,1989.5,1390.3,1920.0,700.0,Object_Land_Solid_Small,42.59457929205382,48.606207584030926,4.0,Object_Land_Solid_Small,-7.0,,,,,,,,,,,
encoding,value,22,3750810,3756821,3753646,3753965,320,320,1932.2,1457.9,1920.0,700.0,Object_Land_Solid_Small,42.59457929205382,48.606207584030926,4.0,Object_Land_Solid_Small,-7.0,,,,,,,,,,,
encoding,value,22,3750810,3756821,3753982,3754412,431,431,2021.0,1418.8,1920.0,700.0,Object_Land_Solid_Small,42.59457929205382,48.606207584030926,4.0,Object_Land_Solid_Small,-7.0,,,,,,,,,,,
encoding,value,22,3750810,3756821,3754451,3754643,193,193,1816.5,1061.5,1591.0,1269.0,Animal_Land_Solid_Large,42.59457929205382,48.606207584030926,4.0,Object_Land_Solid_Small,-7.0,,,,,,,,,,,
encoding,value,22,3750810,3756821,3754774,3754899,126,126,1920.5,1308.6,1920.0,700.0,Object_Land_Solid_Small,42.59457929205382,48.606207584030926,4.0,Object_Land_Solid_Small,-7.0,,,,,,,,,,,
encoding,value,22,3750810,3756821,3754916,3756916,2001,1905,2014.0,1428.4,1920.0,700.0,Object_Land_Solid_Small,42.59457929205382,48.606207584030926,4.0,Object_Land_Solid_Small,-7.0,,,,,,,,,,,
encoding,attention,22,3756822,3759839,3757006,3757145,140,140,1997.3,1431.3,1920.0,700.0,Object_Land_Solid_Small,48.6063557920279,51.623860875028186,4.0,Object_Land_Solid_Small,-7.0,-7.0,1.0,0.5799647920066491,,,,,,,,
encoding,attention,22,3756822,3759839,3757155,3757745,591,591,2051.1,1446.9,1920.0,700.0,Object_Land_Solid_Small,48.6063557920279,51.623860875028186,4.0,Object_Land_Solid_Small,-7.0,-7.0,1.0,0.5799647920066491,,,,,,,,
encoding,attention,22,3756822,3759839,3757768,3757971,204,204,1903.1,1448.5,1920.0,700.0,Object_Land_Solid_Small,48.6063557920279,51.623860875028186,4.0,Object_Land_Solid_Small,-7.0,-7.0,1.0,0.5799647920066491,,,,,,,,
encoding,attention,22,3756822,3759839,3758129,3758294,166,166,1835.7,1239.2,1920.0,700.0,Object_Land_Solid_Small,48.6063557920279,51.623860875028186,4.0,Object_Land_Solid_Small,-7.0,-7.0,1.0,0.5799647920066491,,,,,,,,
encoding,attention,22,3756822,3759839,3758320,3758571,252,252,2076.7,1416.4,1920.0,700.0,Object_Land_Solid_Small,48.6063557920279,51.623860875028186,4.0,Object_Land_Solid_Small,-7.0,-7.0,1.0,0.5799647920066491,,,,,,,,
encoding,attention,22,3756822,3759839,3758617,3758798,182,182,1868.3,1096.4,1920.0,1080.0,fixation,48.6063557920279,51.623860875028186,4.0,Object_Land_Solid_Small,-7.0,-7.0,1.0,0.5799647920066491,,,,,,,,
encoding,attention,22,3756822,3759839,3758806,3759017,212,212,1866.6,1127.5,1591.0,891.0,Object_Sea_Pattern_Small,48.6063557920279,51.623860875028186,4.0,Object_Land_Solid_Small,-7.0,-7.0,1.0,0.5799647920066491,,,,,,,,
encoding,attention,22,3756822,3759839,3759189,3759543,355,355,1906.0,1430.9,1920.0,700.0,Object_Land_Solid_Small,48.6063557920279,51.623860875028186,4.0,Object_Land_Solid_Small,-7.0,-7.0,1.0,0.5799647920066491,,,,,,,,
encoding,fixation,23,3759839,3760594,3760139,3760229,91,91,1866.0,1144.0,1591.0,891.0,Object_Sea_Pattern_Small,51.62400308402721,52.378862959041726,4.0,Object_Sea_Pattern_Small,3.0,,,,,,,,,,,
encoding,fixation,23,3759839,3760594,3760345,3760760,416,249,1900.9,1115.7,1920.0,1080.0,fixation,51.62400308402721,52.378862959041726,4.0,Object_Sea_Pattern_Small,3.0,,,,,,,,,,,
encoding,image,23,3760594,3761605,3760791,3761605,815,815,1554.1,1184.1,1591.0,891.0,Object_Sea_Pattern_Small,52.378979000030085,53.3898334170226,4.0,Object_Sea_Pattern_Small,3.0,,,,,,,,,,,
encoding,value,23,3761605,3767617,3761699,3762152,454,454,1539.8,1122.4,1591.0,891.0,Object_Sea_Pattern_Small,53.38993212505011,59.40085812500911,4.0,Object_Sea_Pattern_Small,3.0,,,,,,,,,,,
encoding,value,23,3761605,3767617,3762171,3762515,345,345,1561.5,1233.7,1591.0,891.0,Object_Sea_Pattern_Small,53.38993212505011,59.40085812500911,4.0,Object_Sea_Pattern_Small,3.0,,,,,,,,,,,
encoding,value,23,3761605,3767617,3762557,3762885,329,329,1865.1,902.3,1920.0,1460.0,Animal_Land_Pattern_Small,53.38993212505011,59.40085812500911,4.0,Object_Sea_Pattern_Small,3.0,,,,,,,,,,,
encoding,value,23,3761605,3767617,3762933,3763605,673,673,1533.6,1119.8,1591.0,891.0,Object_Sea_Pattern_Small,53.38993212505011,59.40085812500911,4.0,Object_Sea_Pattern_Small,3.0,,,,,,,,,,,
encoding,value,23,3761605,3767617,3764041,3764239,199,199,1565.1,1173.7,1591.0,891.0,Object_Sea_Pattern_Small,53.38993212505011,59.40085812500911,4.0,Object_Sea_Pattern_Small,3.0,,,,,,,,,,,
encoding,value,23,3761605,3767617,3764618,3764860,243,243,1577.3,1121.8,1591.0,891.0,Object_Sea_Pattern_Small,53.38993212505011,59.40085812500911,4.0,Object_Sea_Pattern_Small,3.0,,,,,,,,,,,
encoding,value,23,3761605,3767617,3764896,3765155,260,260,1810.8,1125.2,1591.0,891.0,Object_Sea_Pattern_Small,53.38993212505011,59.40085812500911,4.0,Object_Sea_Pattern_Small,3.0,,,,,,,,,,,
encoding,value,23,3761605,3767617,3765190,3765775,586,586,1539.9,1129.5,1591.0,891.0,Object_Sea_Pattern_Small,53.38993212505011,59.40085812500911,4.0,Object_Sea_Pattern_Small,3.0,,,,,,,,,,,
encoding,value,23,3761605,3767617,3765801,3766048,248,248,1828.3,1127.3,1591.0,891.0,Object_Sea_Pattern_Small,53.38993212505011,59.40085812500911,4.0,Object_Sea_Pattern_Small,3.0,,,,,,,,,,,
encoding,value,23,3761605,3767617,3766084,3766537,454,454,1531.2,1136.1,1591.0,891.0,Object_Sea_Pattern_Small,53.38993212505011,59.40085812500911,4.0,Object_Sea_Pattern_Small,3.0,,,,,,,,,,,
