phase,event,trial_number,eyetracker_onset,eyetracker_offset,fix_start,fix_end,fix_duration_full,fix_duration_bounded,fix_x,fix_y,roi_x,roi_y,roi_content,onset,offset,game,image,outcome,choice,correct,rt,letter,match,response,option,true_value,true_position,recalled_position,Unnamed: 18
encoding,fixation,1,9078988,9079506,9079239.0,9079417.0,179.0,179.0,1921.1,1041.6,1920.0,1080.0,fixation,10.889957250095904,11.407916458090767,1.0,Object_Sea_Solid_Large,5.0,,,,,,,,,,,
encoding,fixation,1,9078988,9079506,9079430.0,9079704.0,275.0,76.0,1907.7,1089.4,1920.0,1080.0,fixation,10.889957250095904,11.407916458090767,1.0,Object_Sea_Solid_Large,5.0,,,,,,,,,,,
encoding,image,1,9079506,9080527,9079746.0,9080220.0,475.0,475.0,2201.3,1242.6,2249.0,891.0,Object_Sea_Solid_Large,11.408041540998966,12.429143249988556,1.0,Object_Sea_Solid_Large,5.0,,,,,,,,,,,
encoding,image,1,9079506,9080527,9080502.0,9080557.0,56.0,25.0,2187.3,1075.3,2249.0,1269.0,Animal_Land_Pattern_Large,11.408041540998966,12.429143249988556,1.0,Object_Sea_Solid_Large,5.0,,,,,,,,,,,
encoding,value,1,9080527,9086544,9080564.0,9080902.0,339.0,339.0,2222.8,1369.2,2249.0,891.0,Object_Sea_Solid_Large,12.429255333030596,18.446031458093785,1.0,Object_Sea_Solid_Large,5.0,,,,,,,,,,,
encoding,value,1,9080527,9086544,9080913.0,9081158.0,246.0,246.0,2244.8,1301.0,2249.0,891.0,Object_Sea_Solid_Large,12.429255333030596,18.446031458093785,1.0,Object_Sea_Solid_Large,5.0,,,,,,,,,,,
encoding,value,1,9080527,9086544,9081174.0,9081788.0,615.0,615.0,2237.2,1281.4,2249.0,891.0,Object_Sea_Solid_Large,12.429255333030596,18.446031458093785,1.0,Object_Sea_Solid_Large,5.0,,,,,,,,,,,
encoding,value,1,9080527,9086544,9081799.0,9082271.0,473.0,473.0,2252.0,1210.8,2249.0,891.0,Object_Sea_Solid_Large,12.429255333030596,18.446031458093785,1.0,Object_Sea_Solid_Large,5.0,,,,,,,,,,,
encoding,value,1,9080527,9086544,9082703.0,9083243.0,541.0,541.0,2243.3,1292.0,2249.0,891.0,Object_Sea_Solid_Large,12.429255333030596,18.446031458093785,1.0,Object_Sea_Solid_Large,5.0,,,,,,,,,,,
encoding,value,1,9080527,9086544,9083610.0,9084196.0,587.0,587.0,2251.4,1236.4,2249.0,891.0,Object_Sea_Solid_Large,12.429255333030596,18.446031458093785,1.0,Object_Sea_Solid_Large,5.0,,,,,,,,,,,
encoding,value,1,9080527,9086544,9084441.0,9084998.0,558.0,558.0,2242.6,1283.4,2249.0,891.0,Object_Sea_Solid_Large,12.429255333030596,18.446031458093785,1.0,Object_Sea_Solid_Large,5.0,,,,,,,,,,,
encoding,value,1,9080527,9086544,9085020.0,9085286.0,267.0,267.0,2006.0,1199.4,2249.0,891.0,Object_Sea_Solid_Large,12.429255333030596,18.446031458093785,1.0,Object_Sea_Solid_Large,5.0,,,,,,,,,,,
encoding,value,1,9080527,9086544,9085319.0,9085346.0,28.0,28.0,2242.6,1299.7,2249.0,891.0,Object_Sea_Solid_Large,12.429255333030596,18.446031458093785,1.0,Object_Sea_Solid_Large,5.0,,,,,,,,,,,
encoding,value,1,9080527,9086544,9085353.0,9086288.0,936.0,936.0,2242.1,1271.5,2249.0,891.0,Object_Sea_Solid_Large,12.429255333030596,18.446031458093785,1.0,Object_Sea_Solid_Large,5.0,,,,,,,,,,,
encoding,value,1,9080527,9086544,9086544.0,9087605.0,1062.0,0.0,2221.8,1255.7,2249.0,891.0,Object_Sea_Solid_Large,12.429255333030596,18.446031458093785,1.0,Object_Sea_Solid_Large,5.0,,,,,,,,,,,
encoding,attention,1,9086544,9089566,9086544.0,9087605.0,1062.0,1062.0,2221.8,1255.7,2249.0,891.0,Object_Sea_Solid_Large,18.446163750020787,21.46805845806375,1.0,Object_Sea_Solid_Large,5.0,5.0,1.0,2.134125875076279,,,,,,,,
encoding,attention,1,9086544,9089566,9087872.0,9088325.0,454.0,454.0,2263.2,1344.5,2249.0,891.0,Object_Sea_Solid_Large,18.446163750020787,21.46805845806375,1.0,Object_Sea_Solid_Large,5.0,5.0,1.0,2.134125875076279,,,,,,,,
encoding,attention,1,9086544,9089566,9088340.0,9088512.0,173.0,173.0,2285.8,1348.3,2249.0,891.0,Object_Sea_Solid_Large,18.446163750020787,21.46805845806375,1.0,Object_Sea_Solid_Large,5.0,5.0,1.0,2.134125875076279,,,,,,,,
encoding,attention,1,9086544,9089566,9088541.0,9089021.0,481.0,481.0,2289.1,1346.0,2249.0,891.0,Object_Sea_Solid_Large,18.446163750020787,21.46805845806375,1.0,Object_Sea_Solid_Large,5.0,5.0,1.0,2.134125875076279,,,,,,,,
encoding,fixation,2,9089567,9090322,9089841.0,9090280.0,440.0,440.0,2050.1,1164.0,2249.0,891.0,Object_Sea_Solid_Large,21.46821720805019,22.223700875067152,1.0,Animal_Land_Pattern_Small,9.0,,,,,,,,,,,
encoding,image,2,9090322,9091336,9090548.0,9090667.0,120.0,120.0,1988.3,1024.8,2249.0,1269.0,Animal_Land_Pattern_Large,22.223807791015133,23.237297291052528,1.0,Animal_Land_Pattern_Small,9.0,,,,,,,,,,,
encoding,image,2,9090322,9091336,9090706.0,9091257.0,552.0,552.0,1649.1,1004.8,1591.0,1269.0,Animal_Land_Pattern_Small,22.223807791015133,23.237297291052528,1.0,Animal_Land_Pattern_Small,9.0,,,,,,,,,,,
encoding,image,2,9090322,9091336,9091263.0,9091362.0,100.0,73.0,1634.6,945.0,1591.0,1269.0,Animal_Land_Pattern_Small,22.223807791015133,23.237297291052528,1.0,Animal_Land_Pattern_Small,9.0,,,,,,,,,,,
encoding,value,2,9091336,9097348,9091378.0,9091665.0,288.0,288.0,1639.6,932.4000000000001,1591.0,1269.0,Animal_Land_Pattern_Small,23.23740462504793,29.249645541072823,1.0,Animal_Land_Pattern_Small,9.0,,,,,,,,,,,
encoding,value,2,9091336,9097348,9091679.0,9092172.0,494.0,494.0,1603.7,859.8,1591.0,1269.0,Animal_Land_Pattern_Small,23.23740462504793,29.249645541072823,1.0,Animal_Land_Pattern_Small,9.0,,,,,,,,,,,
encoding,value,2,9091336,9097348,9092704.0,9092873.0,170.0,170.0,1635.5,934.5,1591.0,1269.0,Animal_Land_Pattern_Small,23.23740462504793,29.249645541072823,1.0,Animal_Land_Pattern_Small,9.0,,,,,,,,,,,
encoding,value,2,9091336,9097348,9092882.0,9093132.0,251.0,251.0,1635.1,877.0999999999999,1591.0,1269.0,Animal_Land_Pattern_Small,23.23740462504793,29.249645541072823,1.0,Animal_Land_Pattern_Small,9.0,,,,,,,,,,,
encoding,value,2,9091336,9097348,9093143.0,9093583.0,441.0,441.0,1603.6,775.9000000000001,1591.0,1269.0,Animal_Land_Pattern_Small,23.23740462504793,29.249645541072823,1.0,Animal_Land_Pattern_Small,9.0,,,,,,,,,,,
encoding,value,2,9091336,9097348,9093599.0,9094712.0,1114.0,1114.0,1587.5,818.5,1591.0,1269.0,Animal_Land_Pattern_Small,23.23740462504793,29.249645541072823,1.0,Animal_Land_Pattern_Small,9.0,,,,,,,,,,,
encoding,value,2,9091336,9097348,9095152.0,9095455.0,304.0,304.0,1583.6,897.3,1591.0,1269.0,Animal_Land_Pattern_Small,23.23740462504793,29.249645541072823,1.0,Animal_Land_Pattern_Small,9.0,,,,,,,,,,,
encoding,value,2,9091336,9097348,9095463.0,9095516.0,54.0,54.0,1584.2,835.5,1591.0,1269.0,Animal_Land_Pattern_Small,23.23740462504793,29.249645541072823,1.0,Animal_Land_Pattern_Small,9.0,,,,,,,,,,,
encoding,value,2,9091336,9097348,9095524.0,9096770.0,1247.0,1247.0,1586.1,775.7,1591.0,1269.0,Animal_Land_Pattern_Small,23.23740462504793,29.249645541072823,1.0,Animal_Land_Pattern_Small,9.0,,,,,,,,,,,
encoding,value,2,9091336,9097348,9096777.0,9097193.0,417.0,417.0,1616.0,870.5,1591.0,1269.0,Animal_Land_Pattern_Small,23.23740462504793,29.249645541072823,1.0,Animal_Land_Pattern_Small,9.0,,,,,,,,,,,
encoding,value,2,9091336,9097348,9097203.0,9098568.0,1366.0,145.0,1571.4,813.3,1591.0,1269.0,Animal_Land_Pattern_Small,23.23740462504793,29.249645541072823,1.0,Animal_Land_Pattern_Small,9.0,,,,,,,,,,,
encoding,attention,2,9097348,9100366,9099063.0,9099278.0,216.0,216.0,1627.2,888.9000000000001,1591.0,1269.0,Animal_Land_Pattern_Small,29.24977433308959,32.26751091598999,1.0,Animal_Land_Pattern_Small,9.0,9.0,1.0,0.9772193749668076,,,,,,,,
encoding,fixation,3,9100367,9100872,9100579.0,9100956.0,378.0,293.0,1882.1,1034.2,1920.0,1080.0,fixation,32.26767650002148,32.77341379108839,1.0,Animal_Land_Solid_Small,-7.0,,,,,,,,,,,
encoding,image,3,9100872,9101882,9101208.0,9101290.0,83.0,83.0,1931.7,1347.8,1920.0,700.0,Animal_Land_Solid_Small,32.773515916080214,33.78352758300025,1.0,Animal_Land_Solid_Small,-7.0,,,,,,,,,,,
encoding,image,3,9100872,9101882,9101318.0,9102178.0,861.0,564.0,1934.5,1449.4,1920.0,700.0,Animal_Land_Solid_Small,32.773515916080214,33.78352758300025,1.0,Animal_Land_Solid_Small,-7.0,,,,,,,,,,,
encoding,value,3,9101882,9107894,9102195.0,9102473.0,279.0,279.0,1933.3,1367.3,1920.0,700.0,Animal_Land_Solid_Small,33.783633958082646,39.7949066250585,1.0,Animal_Land_Solid_Small,-7.0,,,,,,,,,,,
encoding,value,3,9101882,9107894,9102919.0,9103203.0,285.0,285.0,1921.9,1397.0,1920.0,700.0,Animal_Land_Solid_Small,33.783633958082646,39.7949066250585,1.0,Animal_Land_Solid_Small,-7.0,,,,,,,,,,,
encoding,value,3,9101882,9107894,9103212.0,9103525.0,314.0,314.0,1927.2,1378.6,1920.0,700.0,Animal_Land_Solid_Small,33.783633958082646,39.7949066250585,1.0,Animal_Land_Solid_Small,-7.0,,,,,,,,,,,
encoding,value,3,9101882,9107894,9103549.0,9103628.0,80.0,80.0,2028.2,1496.6,1920.0,700.0,Animal_Land_Solid_Small,33.783633958082646,39.7949066250585,1.0,Animal_Land_Solid_Small,-7.0,,,,,,,,,,,
encoding,value,3,9101882,9107894,9104017.0,9104153.0,137.0,137.0,2055.1,1549.4,1920.0,700.0,Animal_Land_Solid_Small,33.783633958082646,39.7949066250585,1.0,Animal_Land_Solid_Small,-7.0,,,,,,,,,,,
encoding,value,3,9101882,9107894,9104174.0,9104768.0,595.0,595.0,1941.0,1404.0,1920.0,700.0,Animal_Land_Solid_Small,33.783633958082646,39.7949066250585,1.0,Animal_Land_Solid_Small,-7.0,,,,,,,,,,,
encoding,value,3,9101882,9107894,9104780.0,9104898.0,119.0,119.0,1939.3,1423.4,1920.0,700.0,Animal_Land_Solid_Small,33.783633958082646,39.7949066250585,1.0,Animal_Land_Solid_Small,-7.0,,,,,,,,,,,
encoding,value,3,9101882,9107894,9104911.0,9106544.0,1634.0,1634.0,1924.2,1357.6,1920.0,700.0,Animal_Land_Solid_Small,33.783633958082646,39.7949066250585,1.0,Animal_Land_Solid_Small,-7.0,,,,,,,,,,,
encoding,value,3,9101882,9107894,9106736.0,9106763.0,28.0,28.0,1887.9,770.0,1920.0,1460.0,Object_Sea_Pattern_Large,33.783633958082646,39.7949066250585,1.0,Animal_Land_Solid_Small,-7.0,,,,,,,,,,,
encoding,value,3,9101882,9107894,9106861.0,9107232.0,372.0,372.0,1929.4,1388.2,1920.0,700.0,Animal_Land_Solid_Small,33.783633958082646,39.7949066250585,1.0,Animal_Land_Solid_Small,-7.0,,,,,,,,,,,
encoding,value,3,9101882,9107894,9107242.0,9107532.0,291.0,291.0,1847.7,1402.6,1920.0,700.0,Animal_Land_Solid_Small,33.783633958082646,39.7949066250585,1.0,Animal_Land_Solid_Small,-7.0,,,,,,,,,,,
encoding,value,3,9101882,9107894,9107890.0,9107914.0,25.0,4.0,1800.2,1203.3,1591.0,891.0,Object_Sea_Solid_Small,33.783633958082646,39.7949066250585,1.0,Animal_Land_Solid_Small,-7.0,,,,,,,,,,,
encoding,attention,3,9107894,9110912,9107925.0,9108107.0,183.0,183.0,1827.1,1400.0,1920.0,700.0,Animal_Land_Solid_Small,39.79502366599627,42.81223266606685,1.0,Animal_Land_Solid_Small,-7.0,-7.0,1.0,0.692218792042695,,,,,,,,
encoding,attention,3,9107894,9110912,9108122.0,9108843.0,722.0,722.0,1954.5,1363.0,1920.0,700.0,Animal_Land_Solid_Small,39.79502366599627,42.81223266606685,1.0,Animal_Land_Solid_Small,-7.0,-7.0,1.0,0.692218792042695,,,,,,,,
encoding,attention,3,9107894,9110912,9109322.0,9109443.0,122.0,122.0,1975.0,1389.4,1920.0,700.0,Animal_Land_Solid_Small,39.79502366599627,42.81223266606685,1.0,Animal_Land_Solid_Small,-7.0,-7.0,1.0,0.692218792042695,,,,,,,,
encoding,attention,3,9107894,9110912,9109466.0,9109554.0,89.0,89.0,1874.5,1284.4,1920.0,700.0,Animal_Land_Solid_Small,39.79502366599627,42.81223266606685,1.0,Animal_Land_Solid_Small,-7.0,-7.0,1.0,0.692218792042695,,,,,,,,
encoding,attention,3,9107894,9110912,9109578.0,9110666.0,1089.0,1089.0,1765.2,1033.8,1591.0,1269.0,Animal_Land_Pattern_Small,39.79502366599627,42.81223266606685,1.0,Animal_Land_Solid_Small,-7.0,-7.0,1.0,0.692218792042695,,,,,,,,
encoding,fixation,4,9110912,9111667,9111516.0,9111562.0,47.0,47.0,2000.0,1096.3,2249.0,891.0,Object_Sea_Solid_Large,42.812433875049464,43.56766466598492,1.0,Object_Sea_Solid_Small,-1.0,,,,,,,,,,,
encoding,image,4,9111667,9112677,9111870.0,9111903.0,34.0,34.0,1781.1,732.8,1920.0,1460.0,Object_Sea_Pattern_Large,43.56778545805719,44.57773862499744,1.0,Object_Sea_Solid_Small,-1.0,,,,,,,,,,,
encoding,image,4,9111667,9112677,9111938.0,9112102.0,165.0,165.0,1863.4,1130.3,1591.0,891.0,Object_Sea_Solid_Small,43.56778545805719,44.57773862499744,1.0,Object_Sea_Solid_Small,-1.0,,,,,,,,,,,
encoding,image,4,9111667,9112677,9112128.0,9112308.0,181.0,181.0,1651.7,1327.6,1591.0,891.0,Object_Sea_Solid_Small,43.56778545805719,44.57773862499744,1.0,Object_Sea_Solid_Small,-1.0,,,,,,,,,,,
encoding,image,4,9111667,9112677,9112317.0,9112375.0,59.0,59.0,1583.5,1344.6,1591.0,891.0,Object_Sea_Solid_Small,43.56778545805719,44.57773862499744,1.0,Object_Sea_Solid_Small,-1.0,,,,,,,,,,,
encoding,image,4,9111667,9112677,9112391.0,9112736.0,346.0,286.0,1601.3,1263.7,1591.0,891.0,Object_Sea_Solid_Small,43.56778545805719,44.57773862499744,1.0,Object_Sea_Solid_Small,-1.0,,,,,,,,,,,
encoding,value,4,9112677,9118689,9113297.0,9113557.0,261.0,261.0,1616.6,1248.7,1591.0,891.0,Object_Sea_Solid_Small,44.57785741600674,50.588865916011855,1.0,Object_Sea_Solid_Small,-1.0,,,,,,,,,,,
encoding,value,4,9112677,9118689,9113582.0,9114616.0,1035.0,1035.0,1613.3,1163.3,1591.0,891.0,Object_Sea_Solid_Small,44.57785741600674,50.588865916011855,1.0,Object_Sea_Solid_Small,-1.0,,,,,,,,,,,
encoding,value,4,9112677,9118689,9115054.0,9116119.0,1066.0,1066.0,1593.1,1244.8,1591.0,891.0,Object_Sea_Solid_Small,44.57785741600674,50.588865916011855,1.0,Object_Sea_Solid_Small,-1.0,,,,,,,,,,,
encoding,value,4,9112677,9118689,9116131.0,9117058.0,928.0,928.0,1692.7,1227.0,1591.0,891.0,Object_Sea_Solid_Small,44.57785741600674,50.588865916011855,1.0,Object_Sea_Solid_Small,-1.0,,,,,,,,,,,
encoding,value,4,9112677,9118689,9117070.0,9117868.0,799.0,799.0,1606.2,1231.4,1591.0,891.0,Object_Sea_Solid_Small,44.57785741600674,50.588865916011855,1.0,Object_Sea_Solid_Small,-1.0,,,,,,,,,,,
encoding,value,4,9112677,9118689,9118366.0,9118649.0,284.0,284.0,1591.1,1269.3,1591.0,891.0,Object_Sea_Solid_Small,44.57785741600674,50.588865916011855,1.0,Object_Sea_Solid_Small,-1.0,,,,,,,,,,,
encoding,value,4,9112677,9118689,9118666.0,9119385.0,720.0,23.0,1619.8,1202.5,1591.0,891.0,Object_Sea_Solid_Small,44.57785741600674,50.588865916011855,1.0,Object_Sea_Solid_Small,-1.0,,,,,,,,,,,
encoding,attention,4,9118689,9121705,9119399.0,9119671.0,273.0,273.0,1548.2,1206.4,1591.0,891.0,Object_Sea_Solid_Small,50.588972833007574,53.605215250048786,1.0,Object_Sea_Solid_Small,-1.0,-1.0,1.0,1.85169662500266,,,,,,,,
encoding,attention,4,9118689,9121705,9119684.0,9120093.0,410.0,410.0,1621.6,1226.2,1591.0,891.0,Object_Sea_Solid_Small,50.588972833007574,53.605215250048786,1.0,Object_Sea_Solid_Small,-1.0,-1.0,1.0,1.85169662500266,,,,,,,,
encoding,attention,4,9118689,9121705,9120104.0,9120854.0,751.0,751.0,1533.3,1275.3,1591.0,891.0,Object_Sea_Solid_Small,50.588972833007574,53.605215250048786,1.0,Object_Sea_Solid_Small,-1.0,-1.0,1.0,1.85169662500266,,,,,,,,
encoding,attention,4,9118689,9121705,9121170.0,9121460.0,291.0,291.0,1616.2,1284.0,1591.0,891.0,Object_Sea_Solid_Small,50.588972833007574,53.605215250048786,1.0,Object_Sea_Solid_Small,-1.0,-1.0,1.0,1.85169662500266,,,,,,,,
encoding,fixation,5,9121705,9122211,9122070.0,9122597.0,528.0,141.0,1924.4,1190.0,1920.0,700.0,Animal_Land_Solid_Small,53.60535891598556,54.110680625075474,1.0,Object_Sea_Pattern_Large,3.0,,,,,,,,,,,
encoding,image,5,9122211,9123222,9122639.0,9122817.0,179.0,179.0,1914.2,800.2,1920.0,1460.0,Object_Sea_Pattern_Large,54.110779665992595,55.121911458089016,1.0,Object_Sea_Pattern_Large,3.0,,,,,,,,,,,
encoding,image,5,9122211,9123222,9122874.0,9123631.0,758.0,348.0,1867.5,678.3,1920.0,1460.0,Object_Sea_Pattern_Large,54.110779665992595,55.121911458089016,1.0,Object_Sea_Pattern_Large,3.0,,,,,,,,,,,
encoding,value,5,9123222,9129234,9123644.0,9124766.0,1123.0,1123.0,1827.6,548.0999999999999,1920.0,1460.0,Object_Sea_Pattern_Large,55.12208879098762,61.133670083014295,1.0,Object_Sea_Pattern_Large,3.0,,,,,,,,,,,
encoding,value,5,9123222,9129234,9125139.0,9125279.0,141.0,141.0,1881.1,676.4000000000001,1920.0,1460.0,Object_Sea_Pattern_Large,55.12208879098762,61.133670083014295,1.0,Object_Sea_Pattern_Large,3.0,,,,,,,,,,,
encoding,value,5,9123222,9129234,9125285.0,9125316.0,32.0,32.0,1875.8,743.5999999999999,1920.0,1460.0,Object_Sea_Pattern_Large,55.12208879098762,61.133670083014295,1.0,Object_Sea_Pattern_Large,3.0,,,,,,,,,,,
encoding,value,5,9123222,9129234,9125323.0,9126690.0,1368.0,1368.0,1847.5,664.5,1920.0,1460.0,Object_Sea_Pattern_Large,55.12208879098762,61.133670083014295,1.0,Object_Sea_Pattern_Large,3.0,,,,,,,,,,,
encoding,value,5,9123222,9129234,9126696.0,9126760.0,65.0,65.0,1863.6,672.5,1920.0,1460.0,Object_Sea_Pattern_Large,55.12208879098762,61.133670083014295,1.0,Object_Sea_Pattern_Large,3.0,,,,,,,,,,,
encoding,value,5,9123222,9129234,9126773.0,9127509.0,737.0,737.0,1842.2,604.4000000000001,1920.0,1460.0,Object_Sea_Pattern_Large,55.12208879098762,61.133670083014295,1.0,Object_Sea_Pattern_Large,3.0,,,,,,,,,,,
encoding,value,5,9123222,9129234,9127965.0,9128631.0,667.0,667.0,1868.7,686.8,1920.0,1460.0,Object_Sea_Pattern_Large,55.12208879098762,61.133670083014295,1.0,Object_Sea_Pattern_Large,3.0,,,,,,,,,,,
encoding,value,5,9123222,9129234,9128641.0,9128934.0,294.0,294.0,1840.1,596.8,1920.0,1460.0,Object_Sea_Pattern_Large,55.12208879098762,61.133670083014295,1.0,Object_Sea_Pattern_Large,3.0,,,,,,,,,,,
encoding,value,5,9123222,9129234,9128964.0,9129255.0,292.0,270.0,1852.3,633.4000000000001,1920.0,1460.0,Object_Sea_Pattern_Large,55.12208879098762,61.133670083014295,1.0,Object_Sea_Pattern_Large,3.0,,,,,,,,,,,
encoding,attention,5,9129234,9132298,9129278.0,9129302.0,25.0,25.0,1863.0,659.9000000000001,1920.0,1460.0,Object_Sea_Pattern_Large,61.13383770803921,64.19760475005023,1.0,Object_Sea_Pattern_Large,3.0,3.0,1.0,0.6598802499938756,,,,,,,,
encoding,attention,5,9129234,9132298,9129341.0,9129671.0,331.0,331.0,1881.0,682.5999999999999,1920.0,1460.0,Object_Sea_Pattern_Large,61.13383770803921,64.19760475005023,1.0,Object_Sea_Pattern_Large,3.0,3.0,1.0,0.6598802499938756,,,,,,,,
encoding,attention,5,9129234,9132298,9129717.0,9130049.0,333.0,333.0,1902.6,688.0999999999999,1920.0,1460.0,Object_Sea_Pattern_Large,61.13383770803921,64.19760475005023,1.0,Object_Sea_Pattern_Large,3.0,3.0,1.0,0.6598802499938756,,,,,,,,
encoding,attention,5,9129234,9132298,9130067.0,9130231.0,165.0,165.0,1900.0,666.2,1920.0,1460.0,Object_Sea_Pattern_Large,61.13383770803921,64.19760475005023,1.0,Object_Sea_Pattern_Large,3.0,3.0,1.0,0.6598802499938756,,,,,,,,
encoding,attention,5,9129234,9132298,9130706.0,9130796.0,91.0,91.0,2022.6,972.7,2249.0,1269.0,Animal_Land_Pattern_Large,61.13383770803921,64.19760475005023,1.0,Object_Sea_Pattern_Large,3.0,3.0,1.0,0.6598802499938756,,,,,,,,
encoding,attention,5,9129234,9132298,9130809.0,9131363.0,555.0,555.0,1941.9,803.9000000000001,1920.0,1460.0,Object_Sea_Pattern_Large,61.13383770803921,64.19760475005023,1.0,Object_Sea_Pattern_Large,3.0,3.0,1.0,0.6598802499938756,,,,,,,,
encoding,attention,5,9129234,9132298,9131768.0,9131828.0,61.0,61.0,1989.0,748.0999999999999,1920.0,1460.0,Object_Sea_Pattern_Large,61.13383770803921,64.19760475005023,1.0,Object_Sea_Pattern_Large,3.0,3.0,1.0,0.6598802499938756,,,,,,,,
encoding,fixation,6,9132298,9133305,9132540.0,9132826.0,287.0,287.0,1938.7,1056.0,1920.0,1080.0,fixation,64.1978300830815,65.2050706250593,1.0,Animal_Land_Pattern_Large,-9.0,,,,,,,,,,,
encoding,fixation,6,9132298,9133305,9133204.0,9133578.0,375.0,101.0,2084.6,1063.7,2249.0,1269.0,Animal_Land_Pattern_Large,64.1978300830815,65.2050706250593,1.0,Animal_Land_Pattern_Large,-9.0,,,,,,,,,,,
encoding,image,6,9133305,9134317,9133598.0,9134191.0,594.0,594.0,2218.9,1006.2,2249.0,1269.0,Animal_Land_Pattern_Large,65.20518366608303,66.21645437506959,1.0,Animal_Land_Pattern_Large,-9.0,,,,,,,,,,,
encoding,image,6,9133305,9134317,9134205.0,9134550.0,346.0,112.0,2158.6,999.2,2249.0,1269.0,Animal_Land_Pattern_Large,65.20518366608303,66.21645437506959,1.0,Animal_Land_Pattern_Large,-9.0,,,,,,,,,,,
encoding,value,6,9134317,9140329,9134564.0,9134921.0,358.0,358.0,2210.9,996.2,2249.0,1269.0,Animal_Land_Pattern_Large,66.21658658306114,72.22816487506498,1.0,Animal_Land_Pattern_Large,-9.0,,,,,,,,,,,
encoding,value,6,9134317,9140329,9135188.0,9135390.0,203.0,203.0,2221.1,977.5,2249.0,1269.0,Animal_Land_Pattern_Large,66.21658658306114,72.22816487506498,1.0,Animal_Land_Pattern_Large,-9.0,,,,,,,,,,,
encoding,value,6,9134317,9140329,9135851.0,9136054.0,204.0,204.0,2219.2,1077.0,2249.0,1269.0,Animal_Land_Pattern_Large,66.21658658306114,72.22816487506498,1.0,Animal_Land_Pattern_Large,-9.0,,,,,,,,,,,
encoding,value,6,9134317,9140329,9136070.0,9136563.0,494.0,494.0,2198.6,943.7,2249.0,1269.0,Animal_Land_Pattern_Large,66.21658658306114,72.22816487506498,1.0,Animal_Land_Pattern_Large,-9.0,,,,,,,,,,,
encoding,value,6,9134317,9140329,9136890.0,9137226.0,337.0,337.0,2246.5,993.7,2249.0,1269.0,Animal_Land_Pattern_Large,66.21658658306114,72.22816487506498,1.0,Animal_Land_Pattern_Large,-9.0,,,,,,,,,,,
encoding,value,6,9134317,9140329,9137242.0,9137905.0,664.0,664.0,2237.5,913.3,2249.0,1269.0,Animal_Land_Pattern_Large,66.21658658306114,72.22816487506498,1.0,Animal_Land_Pattern_Large,-9.0,,,,,,,,,,,
encoding,value,6,9134317,9140329,9137924.0,9138514.0,591.0,591.0,2228.9,994.5,2249.0,1269.0,Animal_Land_Pattern_Large,66.21658658306114,72.22816487506498,1.0,Animal_Land_Pattern_Large,-9.0,,,,,,,,,,,
encoding,value,6,9134317,9140329,9138798.0,9139358.0,561.0,561.0,2248.3,911.7,2249.0,1269.0,Animal_Land_Pattern_Large,66.21658658306114,72.22816487506498,1.0,Animal_Land_Pattern_Large,-9.0,,,,,,,,,,,
encoding,value,6,9134317,9140329,9139369.0,9139532.0,164.0,164.0,2233.4,995.0999999999999,2249.0,1269.0,Animal_Land_Pattern_Large,66.21658658306114,72.22816487506498,1.0,Animal_Land_Pattern_Large,-9.0,,,,,,,,,,,
encoding,value,6,9134317,9140329,9139894.0,9140210.0,317.0,317.0,2237.8,895.9000000000001,2249.0,1269.0,Animal_Land_Pattern_Large,66.21658658306114,72.22816487506498,1.0,Animal_Land_Pattern_Large,-9.0,,,,,,,,,,,
encoding,value,6,9134317,9140329,9140277.0,9140510.0,234.0,52.0,1584.3,1140.7,1591.0,891.0,Object_Sea_Solid_Small,66.21658658306114,72.22816487506498,1.0,Animal_Land_Pattern_Large,-9.0,,,,,,,,,,,
encoding,attention,6,9140329,9143347,9140559.0,9140728.0,170.0,170.0,2207.0,838.9000000000001,2249.0,1269.0,Animal_Land_Pattern_Large,72.228334958083,75.24609441601206,1.0,Animal_Land_Pattern_Large,-9.0,-9.0,1.0,1.2785290830070153,,,,,,,,
encoding,attention,6,9140329,9143347,9140745.0,9141233.0,489.0,489.0,2253.7,758.2,2249.0,1269.0,Animal_Land_Pattern_Large,72.228334958083,75.24609441601206,1.0,Animal_Land_Pattern_Large,-9.0,-9.0,1.0,1.2785290830070153,,,,,,,,
encoding,attention,6,9140329,9143347,9141249.0,9141346.0,98.0,98.0,2159.2,778.5,2249.0,1269.0,Animal_Land_Pattern_Large,72.228334958083,75.24609441601206,1.0,Animal_Land_Pattern_Large,-9.0,-9.0,1.0,1.2785290830070153,,,,,,,,
encoding,attention,6,9140329,9143347,9141353.0,9141911.0,559.0,559.0,2169.7,838.0,2249.0,1269.0,Animal_Land_Pattern_Large,72.228334958083,75.24609441601206,1.0,Animal_Land_Pattern_Large,-9.0,-9.0,1.0,1.2785290830070153,,,,,,,,
encoding,fixation,7,9670427,9671182,9670565.0,9670733.0,169.0,169.0,1988.5,839.9000000000001,1920.0,1460.0,Animal_Sea_Pattern_Large,9.67981758294627,10.435272292001171,2.0,Animal_Land_Solid_Large,-9.0,,,,,,,,,,,
encoding,fixation,7,9670427,9671182,9670760.0,9670818.0,59.0,59.0,1921.9,1063.8,1920.0,1080.0,fixation,9.67981758294627,10.435272292001171,2.0,Animal_Land_Solid_Large,-9.0,,,,,,,,,,,
encoding,image,7,9671183,9672196,9671427.0,9671539.0,113.0,113.0,1953.8,1222.5,1920.0,700.0,Animal_Sea_Pattern_Small,10.435389667050911,11.4483442499768,2.0,Animal_Land_Solid_Large,-9.0,,,,,,,,,,,
encoding,image,7,9671183,9672196,9671568.0,9675308.0,3741.0,628.0,1635.2,1311.4,1591.0,891.0,Animal_Land_Solid_Large,10.435389667050911,11.4483442499768,2.0,Animal_Land_Solid_Large,-9.0,,,,,,,,,,,
encoding,value,7,9672196,9678213,9675577.0,9675762.0,186.0,186.0,1620.8,1419.2,1591.0,891.0,Animal_Land_Solid_Large,11.44845499994699,17.465540000004694,2.0,Animal_Land_Solid_Large,-9.0,,,,,,,,,,,
encoding,value,7,9672196,9678213,9675782.0,9675907.0,126.0,126.0,1621.1,1395.7,1591.0,891.0,Animal_Land_Solid_Large,11.44845499994699,17.465540000004694,2.0,Animal_Land_Solid_Large,-9.0,,,,,,,,,,,
encoding,value,7,9672196,9678213,9675922.0,9676481.0,560.0,560.0,1632.2,1332.7,1591.0,891.0,Animal_Land_Solid_Large,11.44845499994699,17.465540000004694,2.0,Animal_Land_Solid_Large,-9.0,,,,,,,,,,,
encoding,value,7,9672196,9678213,9676795.0,9676823.0,29.0,29.0,1612.3,1288.1,1591.0,891.0,Animal_Land_Solid_Large,11.44845499994699,17.465540000004694,2.0,Animal_Land_Solid_Large,-9.0,,,,,,,,,,,
encoding,value,7,9672196,9678213,9676833.0,9677146.0,314.0,314.0,1644.5,1417.9,1591.0,891.0,Animal_Land_Solid_Large,11.44845499994699,17.465540000004694,2.0,Animal_Land_Solid_Large,-9.0,,,,,,,,,,,
encoding,value,7,9672196,9678213,9677177.0,9677520.0,344.0,344.0,1621.4,1292.9,1591.0,891.0,Animal_Land_Solid_Large,11.44845499994699,17.465540000004694,2.0,Animal_Land_Solid_Large,-9.0,,,,,,,,,,,
encoding,value,7,9672196,9678213,9677556.0,9677652.0,97.0,97.0,1614.6,1262.7,1591.0,891.0,Animal_Land_Solid_Large,11.44845499994699,17.465540000004694,2.0,Animal_Land_Solid_Large,-9.0,,,,,,,,,,,
encoding,value,7,9672196,9678213,9677664.0,9677716.0,53.0,53.0,1620.6,1250.9,1591.0,891.0,Animal_Land_Solid_Large,11.44845499994699,17.465540000004694,2.0,Animal_Land_Solid_Large,-9.0,,,,,,,,,,,
encoding,value,7,9672196,9678213,9677805.0,9678046.0,242.0,242.0,1630.4,1244.0,1591.0,891.0,Animal_Land_Solid_Large,11.44845499994699,17.465540000004694,2.0,Animal_Land_Solid_Large,-9.0,,,,,,,,,,,
encoding,value,7,9672196,9678213,9678062.0,9678309.0,248.0,151.0,1617.7,1281.6,1591.0,891.0,Animal_Land_Solid_Large,11.44845499994699,17.465540000004694,2.0,Animal_Land_Solid_Large,-9.0,,,,,,,,,,,
encoding,attention,7,9678213,9681235,9678320.0,9678984.0,665.0,665.0,1591.5,1270.1,1591.0,891.0,Animal_Land_Solid_Large,17.465675667044707,20.487044041976333,2.0,Animal_Land_Solid_Large,-9.0,-9.0,1.0,1.427610250073485,,,,,,,,
encoding,attention,7,9678213,9681235,9679000.0,9679097.0,98.0,98.0,1582.8,1252.9,1591.0,891.0,Animal_Land_Solid_Large,17.465675667044707,20.487044041976333,2.0,Animal_Land_Solid_Large,-9.0,-9.0,1.0,1.427610250073485,,,,,,,,
encoding,attention,7,9678213,9681235,9679108.0,9680276.0,1169.0,1169.0,1663.6,1247.0,1591.0,891.0,Animal_Land_Solid_Large,17.465675667044707,20.487044041976333,2.0,Animal_Land_Solid_Large,-9.0,-9.0,1.0,1.427610250073485,,,,,,,,
encoding,attention,7,9678213,9681235,9680504.0,9680546.0,43.0,43.0,1633.4,1334.7,1591.0,891.0,Animal_Land_Solid_Large,17.465675667044707,20.487044041976333,2.0,Animal_Land_Solid_Large,-9.0,-9.0,1.0,1.427610250073485,,,,,,,,
encoding,attention,7,9678213,9681235,9680559.0,9680936.0,378.0,378.0,1643.0,1271.3,1591.0,891.0,Animal_Land_Solid_Large,17.465675667044707,20.487044041976333,2.0,Animal_Land_Solid_Large,-9.0,-9.0,1.0,1.427610250073485,,,,,,,,
encoding,attention,7,9678213,9681235,9680983.0,9681038.0,56.0,56.0,1991.6,1512.4,1920.0,700.0,Animal_Sea_Pattern_Small,17.465675667044707,20.487044041976333,2.0,Animal_Land_Solid_Large,-9.0,-9.0,1.0,1.427610250073485,,,,,,,,
encoding,fixation,8,9681235,9682240,9681266.0,9681516.0,251.0,251.0,1752.1,1206.8,1591.0,891.0,Animal_Land_Solid_Large,20.487200667033903,21.492379958042875,2.0,Object_Land_Solid_Large,1.0,,,,,,,,,,,
encoding,fixation,8,9681235,9682240,9681723.0,9681797.0,75.0,75.0,1967.1,1328.5,1920.0,700.0,Animal_Sea_Pattern_Small,20.487200667033903,21.492379958042875,2.0,Object_Land_Solid_Large,1.0,,,,,,,,,,,
encoding,fixation,8,9681235,9682240,9681974.0,9682012.0,39.0,39.0,2010.2,1353.0,1920.0,700.0,Animal_Sea_Pattern_Small,20.487200667033903,21.492379958042875,2.0,Object_Land_Solid_Large,1.0,,,,,,,,,,,
encoding,fixation,8,9681235,9682240,9682019.0,9682109.0,91.0,91.0,2009.6,1274.3,1920.0,700.0,Animal_Sea_Pattern_Small,20.487200667033903,21.492379958042875,2.0,Object_Land_Solid_Large,1.0,,,,,,,,,,,
encoding,fixation,8,9681235,9682240,9682123.0,9682424.0,302.0,117.0,1947.7,1192.8,1920.0,700.0,Animal_Sea_Pattern_Small,20.487200667033903,21.492379958042875,2.0,Object_Land_Solid_Large,1.0,,,,,,,,,,,
encoding,image,8,9682240,9683251,9682459.0,9682759.0,301.0,301.0,2230.9,1274.4,2249.0,891.0,Object_Land_Solid_Large,21.49247983295936,22.50268966704607,2.0,Object_Land_Solid_Large,1.0,,,,,,,,,,,
encoding,image,8,9682240,9683251,9682967.0,9684407.0,1441.0,284.0,2031.9,1314.8,1920.0,700.0,Animal_Sea_Pattern_Small,21.49247983295936,22.50268966704607,2.0,Object_Land_Solid_Large,1.0,,,,,,,,,,,
encoding,value,8,9683251,9689262,9684831.0,9686323.0,1493.0,1493.0,2026.5,1344.9,1920.0,700.0,Animal_Sea_Pattern_Small,22.50280408305116,28.513839249964803,2.0,Object_Land_Solid_Large,1.0,,,,,,,,,,,
encoding,value,8,9683251,9689262,9686331.0,9687414.0,1084.0,1084.0,2028.4,1318.5,1920.0,700.0,Animal_Sea_Pattern_Small,22.50280408305116,28.513839249964803,2.0,Object_Land_Solid_Large,1.0,,,,,,,,,,,
encoding,value,8,9683251,9689262,9687454.0,9687500.0,47.0,47.0,2205.8,1320.2,2249.0,891.0,Object_Land_Solid_Large,22.50280408305116,28.513839249964803,2.0,Object_Land_Solid_Large,1.0,,,,,,,,,,,
encoding,value,8,9683251,9689262,9687510.0,9687538.0,29.0,29.0,2203.3,1329.1,2249.0,891.0,Object_Land_Solid_Large,22.50280408305116,28.513839249964803,2.0,Object_Land_Solid_Large,1.0,,,,,,,,,,,
encoding,value,8,9683251,9689262,9687547.0,9687699.0,153.0,153.0,2200.7,1337.9,2249.0,891.0,Object_Land_Solid_Large,22.50280408305116,28.513839249964803,2.0,Object_Land_Solid_Large,1.0,,,,,,,,,,,
encoding,value,8,9683251,9689262,9687719.0,9687787.0,69.0,69.0,2200.6,1332.5,2249.0,891.0,Object_Land_Solid_Large,22.50280408305116,28.513839249964803,2.0,Object_Land_Solid_Large,1.0,,,,,,,,,,,
encoding,value,8,9683251,9689262,9687831.0,9687864.0,34.0,34.0,2205.6,1331.6,2249.0,891.0,Object_Land_Solid_Large,22.50280408305116,28.513839249964803,2.0,Object_Land_Solid_Large,1.0,,,,,,,,,,,
encoding,value,8,9683251,9689262,9688170.0,9688534.0,365.0,365.0,2026.2,1355.2,1920.0,700.0,Animal_Sea_Pattern_Small,22.50280408305116,28.513839249964803,2.0,Object_Land_Solid_Large,1.0,,,,,,,,,,,
encoding,value,8,9683251,9689262,9688542.0,9688858.0,317.0,317.0,2112.4,1284.3,2249.0,891.0,Object_Land_Solid_Large,22.50280408305116,28.513839249964803,2.0,Object_Land_Solid_Large,1.0,,,,,,,,,,,
encoding,value,8,9683251,9689262,9688868.0,9689593.0,726.0,394.0,2215.4,1208.8,2249.0,891.0,Object_Land_Solid_Large,22.50280408305116,28.513839249964803,2.0,Object_Land_Solid_Large,1.0,,,,,,,,,,,
encoding,attention,8,9689262,9692279,9689619.0,9689885.0,267.0,267.0,1957.9,1203.4,1920.0,700.0,Animal_Sea_Pattern_Small,28.513979249983095,31.530824166955423,2.0,Object_Land_Solid_Large,1.0,1.0,1.0,0.7420749999582767,,,,,,,,
encoding,attention,8,9689262,9692279,9689909.0,9690439.0,531.0,531.0,2174.1,1239.4,2249.0,891.0,Object_Land_Solid_Large,28.513979249983095,31.530824166955423,2.0,Object_Land_Solid_Large,1.0,1.0,1.0,0.7420749999582767,,,,,,,,
encoding,attention,8,9689262,9692279,9690497.0,9690768.0,272.0,272.0,2157.3,1307.5,2249.0,891.0,Object_Land_Solid_Large,28.513979249983095,31.530824166955423,2.0,Object_Land_Solid_Large,1.0,1.0,1.0,0.7420749999582767,,,,,,,,
encoding,attention,8,9689262,9692279,9690778.0,9691182.0,405.0,405.0,2160.1,1324.5,2249.0,891.0,Object_Land_Solid_Large,28.513979249983095,31.530824166955423,2.0,Object_Land_Solid_Large,1.0,1.0,1.0,0.7420749999582767,,,,,,,,
encoding,attention,8,9689262,9692279,9691195.0,9691350.0,156.0,156.0,2169.9,1341.8,2249.0,891.0,Object_Land_Solid_Large,28.513979249983095,31.530824166955423,2.0,Object_Land_Solid_Large,1.0,1.0,1.0,0.7420749999582767,,,,,,,,
encoding,attention,8,9689262,9692279,9691523.0,9691653.0,131.0,131.0,1882.3,912.5999999999999,1920.0,1460.0,Animal_Sea_Pattern_Large,28.513979249983095,31.530824166955423,2.0,Object_Land_Solid_Large,1.0,1.0,1.0,0.7420749999582767,,,,,,,,
encoding,attention,8,9689262,9692279,9692187.0,9692243.0,57.0,57.0,1617.8,1440.0,1591.0,891.0,Animal_Land_Solid_Large,28.513979249983095,31.530824166955423,2.0,Object_Land_Solid_Large,1.0,1.0,1.0,0.7420749999582767,,,,,,,,
encoding,fixation,9,9692279,9693035,9692764.0,9692824.0,61.0,61.0,1597.9,1412.2,1591.0,891.0,Animal_Land_Solid_Large,31.53098283300642,32.286643374944106,2.0,Object_Land_Solid_Small,1.0,,,,,,,,,,,
encoding,image,9,9693035,9694046,9693555.0,9693824.0,270.0,270.0,2151.3,1068.4,2249.0,1269.0,Object_Land_Solid_Small,32.286817542044446,33.29818129201885,2.0,Object_Land_Solid_Small,1.0,,,,,,,,,,,
encoding,image,9,9693035,9694046,9693862.0,9694441.0,580.0,184.0,1800.5,1086.7,1591.0,891.0,Animal_Land_Solid_Large,32.286817542044446,33.29818129201885,2.0,Object_Land_Solid_Small,1.0,,,,,,,,,,,
encoding,value,9,9694047,9700059,9694482.0,9694692.0,211.0,211.0,2166.2,950.0999999999999,2249.0,1269.0,Object_Land_Solid_Small,33.298280250048265,39.31029329204466,2.0,Object_Land_Solid_Small,1.0,,,,,,,,,,,
encoding,value,9,9694047,9700059,9694717.0,9694777.0,61.0,61.0,2227.5,961.8,2249.0,1269.0,Object_Land_Solid_Small,33.298280250048265,39.31029329204466,2.0,Object_Land_Solid_Small,1.0,,,,,,,,,,,
encoding,value,9,9694047,9700059,9694816.0,9694859.0,44.0,44.0,2231.3,976.4000000000001,2249.0,1269.0,Object_Land_Solid_Small,33.298280250048265,39.31029329204466,2.0,Object_Land_Solid_Small,1.0,,,,,,,,,,,
encoding,value,9,9694047,9700059,9694871.0,9695379.0,509.0,509.0,2239.1,910.0999999999999,2249.0,1269.0,Object_Land_Solid_Small,33.298280250048265,39.31029329204466,2.0,Object_Land_Solid_Small,1.0,,,,,,,,,,,
encoding,value,9,9694047,9700059,9695407.0,9696131.0,725.0,725.0,2097.3,1096.3,2249.0,891.0,Object_Land_Solid_Large,33.298280250048265,39.31029329204466,2.0,Object_Land_Solid_Small,1.0,,,,,,,,,,,
encoding,value,9,9694047,9700059,9696144.0,9696613.0,470.0,470.0,2160.9,1066.9,2249.0,1269.0,Object_Land_Solid_Small,33.298280250048265,39.31029329204466,2.0,Object_Land_Solid_Small,1.0,,,,,,,,,,,
encoding,value,9,9694047,9700059,9697012.0,9697267.0,256.0,256.0,1798.6,1262.3,1591.0,891.0,Animal_Land_Solid_Large,33.298280250048265,39.31029329204466,2.0,Object_Land_Solid_Small,1.0,,,,,,,,,,,
encoding,value,9,9694047,9700059,9697292.0,9697570.0,279.0,279.0,2023.3,1223.5,2249.0,891.0,Object_Land_Solid_Large,33.298280250048265,39.31029329204466,2.0,Object_Land_Solid_Small,1.0,,,,,,,,,,,
encoding,value,9,9694047,9700059,9697600.0,9698134.0,535.0,535.0,2214.2,927.0999999999999,2249.0,1269.0,Object_Land_Solid_Small,33.298280250048265,39.31029329204466,2.0,Object_Land_Solid_Small,1.0,,,,,,,,,,,
encoding,value,9,9694047,9700059,9698159.0,9698350.0,192.0,192.0,2006.7,1080.8,2249.0,891.0,Object_Land_Solid_Large,33.298280250048265,39.31029329204466,2.0,Object_Land_Solid_Small,1.0,,,,,,,,,,,
encoding,value,9,9694047,9700059,9698663.0,9698937.0,275.0,275.0,2119.1,1205.8,2249.0,891.0,Object_Land_Solid_Large,33.298280250048265,39.31029329204466,2.0,Object_Land_Solid_Small,1.0,,,,,,,,,,,
encoding,value,9,9694047,9700059,9698974.0,9700064.0,1091.0,1085.0,1856.9,1147.2,1591.0,891.0,Animal_Land_Solid_Large,33.298280250048265,39.31029329204466,2.0,Object_Land_Solid_Small,1.0,,,,,,,,,,,
encoding,attention,9,9700059,9703077,9700338.0,9700405.0,68.0,68.0,1871.8,973.0,1920.0,1460.0,Animal_Sea_Pattern_Large,39.31044333300088,42.32812566694338,2.0,Object_Land_Solid_Small,1.0,1.0,1.0,1.0637772500049325,,,,,,,,
encoding,attention,9,9700059,9703077,9700440.0,9700590.0,151.0,151.0,2148.5,1117.5,2249.0,891.0,Object_Land_Solid_Large,39.31044333300088,42.32812566694338,2.0,Object_Land_Solid_Small,1.0,1.0,1.0,1.0637772500049325,,,,,,,,
encoding,attention,9,9700059,9703077,9700599.0,9701060.0,462.0,462.0,2133.1,1016.2,2249.0,1269.0,Object_Land_Solid_Small,39.31044333300088,42.32812566694338,2.0,Object_Land_Solid_Small,1.0,1.0,1.0,1.0637772500049325,,,,,,,,
encoding,attention,9,9700059,9703077,9701085.0,9701444.0,360.0,360.0,1865.5,1133.6,1591.0,891.0,Animal_Land_Solid_Large,39.31044333300088,42.32812566694338,2.0,Object_Land_Solid_Small,1.0,1.0,1.0,1.0637772500049325,,,,,,,,
encoding,attention,9,9700059,9703077,9701467.0,9701511.0,45.0,45.0,1865.6,1189.3,1920.0,700.0,Animal_Sea_Pattern_Small,39.31044333300088,42.32812566694338,2.0,Object_Land_Solid_Small,1.0,1.0,1.0,1.0637772500049325,,,,,,,,
encoding,fixation,10,9703077,9704582,,,,,,,,,none,42.328265791991726,43.83320045797154,2.0,Animal_Sea_Pattern_Large,-6.0,,,,,,,,,,,
encoding,image,10,9704582,9705593,9705585.0,9706384.0,800.0,8.0,2094.2,1350.7,2249.0,891.0,Object_Land_Solid_Large,43.833335542003624,44.84403212496545,2.0,Animal_Sea_Pattern_Large,-6.0,,,,,,,,,,,
encoding,value,10,9705593,9711604,9706399.0,9706517.0,119.0,119.0,2100.7,1359.9,2249.0,891.0,Object_Land_Solid_Large,44.84413687500637,50.85473133297637,2.0,Animal_Sea_Pattern_Large,-6.0,,,,,,,,,,,
encoding,value,10,9705593,9711604,9706568.0,9707198.0,631.0,631.0,1888.8,723.5,1920.0,1460.0,Animal_Sea_Pattern_Large,44.84413687500637,50.85473133297637,2.0,Animal_Sea_Pattern_Large,-6.0,,,,,,,,,,,
encoding,value,10,9705593,9711604,9707227.0,9708137.0,911.0,911.0,1924.5,930.0,1920.0,1460.0,Animal_Sea_Pattern_Large,44.84413687500637,50.85473133297637,2.0,Animal_Sea_Pattern_Large,-6.0,,,,,,,,,,,
encoding,value,10,9705593,9711604,9708158.0,9708368.0,211.0,211.0,2112.7,1002.0,2249.0,1269.0,Object_Land_Solid_Small,44.84413687500637,50.85473133297637,2.0,Animal_Sea_Pattern_Large,-6.0,,,,,,,,,,,
encoding,value,10,9705593,9711604,9708584.0,9708994.0,411.0,411.0,2161.5,1113.0,2249.0,891.0,Object_Land_Solid_Large,44.84413687500637,50.85473133297637,2.0,Animal_Sea_Pattern_Large,-6.0,,,,,,,,,,,
encoding,value,10,9705593,9711604,9709034.0,9709500.0,467.0,467.0,1866.0,626.3,1920.0,1460.0,Animal_Sea_Pattern_Large,44.84413687500637,50.85473133297637,2.0,Animal_Sea_Pattern_Large,-6.0,,,,,,,,,,,
encoding,value,10,9705593,9711604,9709513.0,9709541.0,29.0,29.0,1874.8,648.0,1920.0,1460.0,Animal_Sea_Pattern_Large,44.84413687500637,50.85473133297637,2.0,Animal_Sea_Pattern_Large,-6.0,,,,,,,,,,,
encoding,value,10,9705593,9711604,9709854.0,9710214.0,361.0,361.0,1909.6,795.5,1920.0,1460.0,Animal_Sea_Pattern_Large,44.84413687500637,50.85473133297637,2.0,Animal_Sea_Pattern_Large,-6.0,,,,,,,,,,,
encoding,value,10,9705593,9711604,9710234.0,9710888.0,655.0,655.0,1813.7,583.8,1920.0,1460.0,Animal_Sea_Pattern_Large,44.84413687500637,50.85473133297637,2.0,Animal_Sea_Pattern_Large,-6.0,,,,,,,,,,,
encoding,value,10,9705593,9711604,9710900.0,9711362.0,463.0,463.0,1839.1,644.7,1920.0,1460.0,Animal_Sea_Pattern_Large,44.84413687500637,50.85473133297637,2.0,Animal_Sea_Pattern_Large,-6.0,,,,,,,,,,,
encoding,value,10,9705593,9711604,9711374.0,9711551.0,178.0,178.0,1854.6,696.9000000000001,1920.0,1460.0,Animal_Sea_Pattern_Large,44.84413687500637,50.85473133297637,2.0,Animal_Sea_Pattern_Large,-6.0,,,,,,,,,,,
encoding,value,10,9705593,9711604,9711562.0,9711659.0,98.0,42.0,1863.0,649.5,1920.0,1460.0,Animal_Sea_Pattern_Large,44.84413687500637,50.85473133297637,2.0,Animal_Sea_Pattern_Large,-6.0,,,,,,,,,,,
encoding,attention,10,9711604,9714622,9711666.0,9711873.0,208.0,208.0,1875.0,670.8,1920.0,1460.0,Animal_Sea_Pattern_Large,50.85486695799045,53.87305054196622,2.0,Animal_Sea_Pattern_Large,-6.0,-6.0,1.0,1.5129162080120295,,,,,,,,
encoding,attention,10,9711604,9714622,9712177.0,9712807.0,631.0,631.0,1925.9,682.2,1920.0,1460.0,Animal_Sea_Pattern_Large,50.85486695799045,53.87305054196622,2.0,Animal_Sea_Pattern_Large,-6.0,-6.0,1.0,1.5129162080120295,,,,,,,,
encoding,attention,10,9711604,9714622,9712858.0,9712890.0,33.0,33.0,1871.7,1139.6,1591.0,891.0,Animal_Land_Solid_Large,50.85486695799045,53.87305054196622,2.0,Animal_Sea_Pattern_Large,-6.0,-6.0,1.0,1.5129162080120295,,,,,,,,
encoding,attention,10,9711604,9714622,9712900.0,9713389.0,490.0,490.0,1875.6,1073.2,1920.0,1080.0,fixation,50.85486695799045,53.87305054196622,2.0,Animal_Sea_Pattern_Large,-6.0,-6.0,1.0,1.5129162080120295,,,,,,,,
encoding,attention,10,9711604,9714622,9713682.0,9714113.0,432.0,432.0,1866.8,1401.3,1920.0,700.0,Animal_Sea_Pattern_Small,50.85486695799045,53.87305054196622,2.0,Animal_Sea_Pattern_Large,-6.0,-6.0,1.0,1.5129162080120295,,,,,,,,
encoding,fixation,11,9714622,9715627,9714786.0,9714958.0,173.0,173.0,2153.9,1210.4,2249.0,891.0,Object_Land_Solid_Large,53.873198417015374,54.87827379198279,2.0,Animal_Sea_Pattern_Small,9.0,,,,,,,,,,,
encoding,fixation,11,9714622,9715627,9714977.0,9715348.0,372.0,372.0,2024.6,1190.0,2249.0,891.0,Object_Land_Solid_Large,53.873198417015374,54.87827379198279,2.0,Animal_Sea_Pattern_Small,9.0,,,,,,,,,,,
encoding,fixation,11,9714622,9715627,9715357.0,9715829.0,473.0,270.0,1954.2,1182.0,1920.0,700.0,Animal_Sea_Pattern_Small,53.873198417015374,54.87827379198279,2.0,Animal_Sea_Pattern_Small,9.0,,,,,,,,,,,
encoding,image,11,9715628,9716639,9715856.0,9716234.0,379.0,379.0,1948.6,1408.3,1920.0,700.0,Animal_Sea_Pattern_Small,54.87837275001221,55.88957566698082,2.0,Animal_Sea_Pattern_Small,9.0,,,,,,,,,,,
encoding,image,11,9715628,9716639,9716244.0,9716554.0,311.0,311.0,1963.5,1358.2,1920.0,700.0,Animal_Sea_Pattern_Small,54.87837275001221,55.88957566698082,2.0,Animal_Sea_Pattern_Small,9.0,,,,,,,,,,,
encoding,value,11,9716639,9722651,9716811.0,9716968.0,158.0,158.0,1956.1,1340.2,1920.0,700.0,Animal_Sea_Pattern_Small,55.88977062504273,61.901690916973166,2.0,Animal_Sea_Pattern_Small,9.0,,,,,,,,,,,
encoding,value,11,9716639,9722651,9716976.0,9719772.0,2797.0,2797.0,1956.1,1383.1,1920.0,700.0,Animal_Sea_Pattern_Small,55.88977062504273,61.901690916973166,2.0,Animal_Sea_Pattern_Small,9.0,,,,,,,,,,,
encoding,value,11,9716639,9722651,9719982.0,9720877.0,896.0,896.0,1952.4,1417.3,1920.0,700.0,Animal_Sea_Pattern_Small,55.88977062504273,61.901690916973166,2.0,Animal_Sea_Pattern_Small,9.0,,,,,,,,,,,
encoding,value,11,9716639,9722651,9720888.0,9722174.0,1287.0,1287.0,1949.7,1438.7,1920.0,700.0,Animal_Sea_Pattern_Small,55.88977062504273,61.901690916973166,2.0,Animal_Sea_Pattern_Small,9.0,,,,,,,,,,,
encoding,value,11,9716639,9722651,9722182.0,9722556.0,375.0,375.0,1944.6,1407.2,1920.0,700.0,Animal_Sea_Pattern_Small,55.88977062504273,61.901690916973166,2.0,Animal_Sea_Pattern_Small,9.0,,,,,,,,,,,
encoding,value,11,9716639,9722651,9722568.0,9723107.0,540.0,83.0,1950.2,1387.6,1920.0,700.0,Animal_Sea_Pattern_Small,55.88977062504273,61.901690916973166,2.0,Animal_Sea_Pattern_Small,9.0,,,,,,,,,,,
encoding,attention,11,9722651,9725670,9723422.0,9724973.0,1552.0,1552.0,2003.5,1370.6,1920.0,700.0,Animal_Sea_Pattern_Small,61.90180895803496,64.91996091697365,2.0,Animal_Sea_Pattern_Small,9.0,9.0,1.0,0.8157632920192555,,,,,,,,
encoding,attention,11,9722651,9725670,9724993.0,9725324.0,332.0,332.0,1828.6,1299.6,1920.0,700.0,Animal_Sea_Pattern_Small,61.90180895803496,64.91996091697365,2.0,Animal_Sea_Pattern_Small,9.0,9.0,1.0,0.8157632920192555,,,,,,,,
encoding,attention,11,9722651,9725670,9725356.0,9725385.0,30.0,30.0,1828.7,1332.0,1920.0,700.0,Animal_Sea_Pattern_Small,61.90180895803496,64.91996091697365,2.0,Animal_Sea_Pattern_Small,9.0,9.0,1.0,0.8157632920192555,,,,,,,,
encoding,fixation,12,9725670,9726175,9726026.0,9726376.0,351.0,149.0,1927.4,1258.6,1920.0,700.0,Animal_Sea_Pattern_Small,64.92027220805176,65.42556300002616,2.0,Object_Sea_Pattern_Small,-9.0,,,,,,,,,,,
encoding,image,12,9726175,9727186,9726395.0,9726439.0,45.0,45.0,1928.4,1248.9,1920.0,700.0,Animal_Sea_Pattern_Small,65.42566229205113,66.43651529203635,2.0,Object_Sea_Pattern_Small,-9.0,,,,,,,,,,,
encoding,image,12,9726175,9727186,9726474.0,9726665.0,192.0,192.0,1699.9,1060.0,1591.0,1269.0,Object_Sea_Pattern_Small,65.42566229205113,66.43651529203635,2.0,Object_Sea_Pattern_Small,-9.0,,,,,,,,,,,
encoding,image,12,9726175,9727186,9726687.0,9726927.0,241.0,241.0,1634.8,1023.4000000000001,1591.0,1269.0,Object_Sea_Pattern_Small,65.42566229205113,66.43651529203635,2.0,Object_Sea_Pattern_Small,-9.0,,,,,,,,,,,
encoding,image,12,9726175,9727186,9726945.0,9727275.0,331.0,241.0,1632.5,952.0,1591.0,1269.0,Object_Sea_Pattern_Small,65.42566229205113,66.43651529203635,2.0,Object_Sea_Pattern_Small,-9.0,,,,,,,,,,,
encoding,value,12,9727186,9733198,9727287.0,9727311.0,25.0,25.0,1635.5,976.5,1591.0,1269.0,Object_Sea_Pattern_Small,66.43662108294666,72.44835433294065,2.0,Object_Sea_Pattern_Small,-9.0,,,,,,,,,,,
encoding,value,12,9727186,9733198,9727588.0,9728135.0,548.0,548.0,1782.6,1206.5,1591.0,891.0,Animal_Land_Solid_Large,66.43662108294666,72.44835433294065,2.0,Object_Sea_Pattern_Small,-9.0,,,,,,,,,,,
encoding,value,12,9727186,9733198,9728170.0,9728826.0,657.0,657.0,1630.1,871.2,1591.0,1269.0,Object_Sea_Pattern_Small,66.43662108294666,72.44835433294065,2.0,Object_Sea_Pattern_Small,-9.0,,,,,,,,,,,
encoding,value,12,9727186,9733198,9728837.0,9729529.0,693.0,693.0,1640.0,869.3,1591.0,1269.0,Object_Sea_Pattern_Small,66.43662108294666,72.44835433294065,2.0,Object_Sea_Pattern_Small,-9.0,,,,,,,,,,,
encoding,value,12,9727186,9733198,9729578.0,9729822.0,245.0,245.0,2223.5,912.7,2249.0,1269.0,Object_Land_Solid_Small,66.43662108294666,72.44835433294065,2.0,Object_Sea_Pattern_Small,-9.0,,,,,,,,,,,
encoding,value,12,9727186,9733198,9730112.0,9730285.0,174.0,174.0,1978.7,1292.9,1920.0,700.0,Animal_Sea_Pattern_Small,66.43662108294666,72.44835433294065,2.0,Object_Sea_Pattern_Small,-9.0,,,,,,,,,,,
encoding,value,12,9727186,9733198,9730326.0,9730417.0,92.0,92.0,1708.8,955.2,1591.0,1269.0,Object_Sea_Pattern_Small,66.43662108294666,72.44835433294065,2.0,Object_Sea_Pattern_Small,-9.0,,,,,,,,,,,
encoding,value,12,9727186,9733198,9730436.0,9730533.0,98.0,98.0,1697.0,918.5999999999999,1591.0,1269.0,Object_Sea_Pattern_Small,66.43662108294666,72.44835433294065,2.0,Object_Sea_Pattern_Small,-9.0,,,,,,,,,,,
encoding,value,12,9727186,9733198,9730570.0,9730618.0,49.0,49.0,1691.6,936.8,1591.0,1269.0,Object_Sea_Pattern_Small,66.43662108294666,72.44835433294065,2.0,Object_Sea_Pattern_Small,-9.0,,,,,,,,,,,
encoding,value,12,9727186,9733198,9730636.0,9730998.0,363.0,363.0,1626.9,832.0999999999999,1591.0,1269.0,Object_Sea_Pattern_Small,66.43662108294666,72.44835433294065,2.0,Object_Sea_Pattern_Small,-9.0,,,,,,,,,,,
encoding,value,12,9727186,9733198,9731043.0,9731538.0,496.0,496.0,1935.6,1173.3,1920.0,700.0,Animal_Sea_Pattern_Small,66.43662108294666,72.44835433294065,2.0,Object_Sea_Pattern_Small,-9.0,,,,,,,,,,,
encoding,value,12,9727186,9733198,9731786.0,9731833.0,48.0,48.0,1943.1,1114.0,1920.0,1080.0,fixation,66.43662108294666,72.44835433294065,2.0,Object_Sea_Pattern_Small,-9.0,,,,,,,,,,,
encoding,value,12,9727186,9733198,9731874.0,9732045.0,172.0,172.0,1649.3,956.0,1591.0,1269.0,Object_Sea_Pattern_Small,66.43662108294666,72.44835433294065,2.0,Object_Sea_Pattern_Small,-9.0,,,,,,,,,,,
encoding,value,12,9727186,9733198,9732057.0,9732318.0,262.0,262.0,1621.8,880.4000000000001,1591.0,1269.0,Object_Sea_Pattern_Small,66.43662108294666,72.44835433294065,2.0,Object_Sea_Pattern_Small,-9.0,,,,,,,,,,,
encoding,value,12,9727186,9733198,9732338.0,9732600.0,263.0,263.0,1633.6,937.7,1591.0,1269.0,Object_Sea_Pattern_Small,66.43662108294666,72.44835433294065,2.0,Object_Sea_Pattern_Small,-9.0,,,,,,,,,,,
encoding,value,12,9727186,9733198,9732617.0,9733401.0,785.0,581.0,1616.1,847.9000000000001,1591.0,1269.0,Object_Sea_Pattern_Small,66.43662108294666,72.44835433294065,2.0,Object_Sea_Pattern_Small,-9.0,,,,,,,,,,,
encoding,attention,12,9733198,9736220,9733413.0,9733701.0,289.0,289.0,1640.9,794.4000000000001,1591.0,1269.0,Object_Sea_Pattern_Small,72.44845554197673,75.46944400004577,2.0,Object_Sea_Pattern_Small,-9.0,-9.0,1.0,1.594718832988292,,,,,,,,
encoding,attention,12,9733198,9736220,9733715.0,9735008.0,1294.0,1294.0,1573.9,780.9000000000001,1591.0,1269.0,Object_Sea_Pattern_Small,72.44845554197673,75.46944400004577,2.0,Object_Sea_Pattern_Small,-9.0,-9.0,1.0,1.594718832988292,,,,,,,,
encoding,attention,12,9733198,9736220,9735026.0,9735052.0,27.0,27.0,1570.5,825.2,1591.0,1269.0,Object_Sea_Pattern_Small,72.44845554197673,75.46944400004577,2.0,Object_Sea_Pattern_Small,-9.0,-9.0,1.0,1.594718832988292,,,,,,,,
encoding,attention,12,9733198,9736220,9735323.0,9735516.0,194.0,194.0,1915.1,1106.8,1920.0,1080.0,fixation,72.44845554197673,75.46944400004577,2.0,Object_Sea_Pattern_Small,-9.0,-9.0,1.0,1.594718832988292,,,,,,,,
encoding,attention,12,9733198,9736220,9735573.0,9735775.0,203.0,203.0,2242.5,1110.7,2249.0,891.0,Object_Land_Solid_Large,72.44845554197673,75.46944400004577,2.0,Object_Sea_Pattern_Small,-9.0,-9.0,1.0,1.594718832988292,,,,,,,,
encoding,attention,12,9733198,9736220,9735816.0,9735944.0,129.0,129.0,1724.1,892.0999999999999,1591.0,1269.0,Object_Sea_Pattern_Small,72.44845554197673,75.46944400004577,2.0,Object_Sea_Pattern_Small,-9.0,-9.0,1.0,1.594718832988292,,,,,,,,
encoding,fixation,13,10078680,10079936,10078990.0,10079328.0,339.0,339.0,1896.5,1037.1,1920.0,1080.0,fixation,6.5948934169719,7.850134207983501,3.0,Animal_Sea_Solid_Small,6.0,,,,,,,,,,,
encoding,fixation,13,10078680,10079936,10079681.0,10080192.0,512.0,255.0,1932.1,1181.8,1920.0,700.0,Object_Land_Pattern_Large,6.5948934169719,7.850134207983501,3.0,Animal_Sea_Solid_Small,6.0,,,,,,,,,,,
encoding,image,13,10079936,10080948,10080226.0,10080424.0,199.0,199.0,2162.9,1272.6,2249.0,891.0,Animal_Sea_Solid_Small,7.850290708011016,8.86214762495365,3.0,Animal_Sea_Solid_Small,6.0,,,,,,,,,,,
encoding,image,13,10079936,10080948,10080448.0,10080551.0,104.0,104.0,2265.6,1360.8,2249.0,891.0,Animal_Sea_Solid_Small,7.850290708011016,8.86214762495365,3.0,Animal_Sea_Solid_Small,6.0,,,,,,,,,,,
encoding,image,13,10079936,10080948,10080734.0,10080771.0,38.0,38.0,2229.1,1448.9,2249.0,891.0,Animal_Sea_Solid_Small,7.850290708011016,8.86214762495365,3.0,Animal_Sea_Solid_Small,6.0,,,,,,,,,,,
encoding,image,13,10079936,10080948,10080785.0,10081273.0,489.0,163.0,2237.8,1327.0,2249.0,891.0,Animal_Sea_Solid_Small,7.850290708011016,8.86214762495365,3.0,Animal_Sea_Solid_Small,6.0,,,,,,,,,,,
encoding,value,13,10080948,10086962,10081286.0,10082970.0,1685.0,1685.0,2251.2,1240.2,2249.0,891.0,Animal_Sea_Solid_Small,8.862276874948293,14.876800833037125,3.0,Animal_Sea_Solid_Small,6.0,,,,,,,,,,,
encoding,value,13,10080948,10086962,10082990.0,10083179.0,190.0,190.0,2111.5,1213.8,2249.0,891.0,Animal_Sea_Solid_Small,8.862276874948293,14.876800833037125,3.0,Animal_Sea_Solid_Small,6.0,,,,,,,,,,,
encoding,value,13,10080948,10086962,10083198.0,10083640.0,443.0,443.0,2250.2,1236.1,2249.0,891.0,Animal_Sea_Solid_Small,8.862276874948293,14.876800833037125,3.0,Animal_Sea_Solid_Small,6.0,,,,,,,,,,,
encoding,value,13,10080948,10086962,10083650.0,10083971.0,322.0,322.0,2262.8,1277.0,2249.0,891.0,Animal_Sea_Solid_Small,8.862276874948293,14.876800833037125,3.0,Animal_Sea_Solid_Small,6.0,,,,,,,,,,,
encoding,value,13,10080948,10086962,10083981.0,10084287.0,307.0,307.0,2263.7,1256.9,2249.0,891.0,Animal_Sea_Solid_Small,8.862276874948293,14.876800833037125,3.0,Animal_Sea_Solid_Small,6.0,,,,,,,,,,,
encoding,value,13,10080948,10086962,10084306.0,10084413.0,108.0,108.0,2259.3,1289.0,2249.0,891.0,Animal_Sea_Solid_Small,8.862276874948293,14.876800833037125,3.0,Animal_Sea_Solid_Small,6.0,,,,,,,,,,,
encoding,value,13,10080948,10086962,10084435.0,10084521.0,87.0,87.0,2260.1,1269.6,2249.0,891.0,Animal_Sea_Solid_Small,8.862276874948293,14.876800833037125,3.0,Animal_Sea_Solid_Small,6.0,,,,,,,,,,,
encoding,value,13,10080948,10086962,10084663.0,10084774.0,112.0,112.0,2250.7,1300.2,2249.0,891.0,Animal_Sea_Solid_Small,8.862276874948293,14.876800833037125,3.0,Animal_Sea_Solid_Small,6.0,,,,,,,,,,,
encoding,value,13,10080948,10086962,10084889.0,10084920.0,32.0,32.0,2244.0,1313.8,2249.0,891.0,Animal_Sea_Solid_Small,8.862276874948293,14.876800833037125,3.0,Animal_Sea_Solid_Small,6.0,,,,,,,,,,,
encoding,value,13,10080948,10086962,10084949.0,10085634.0,686.0,686.0,2254.8,1322.1,2249.0,891.0,Animal_Sea_Solid_Small,8.862276874948293,14.876800833037125,3.0,Animal_Sea_Solid_Small,6.0,,,,,,,,,,,
encoding,value,13,10080948,10086962,10085860.0,10086205.0,346.0,346.0,2229.2,1310.8,2249.0,891.0,Animal_Sea_Solid_Small,8.862276874948293,14.876800833037125,3.0,Animal_Sea_Solid_Small,6.0,,,,,,,,,,,
encoding,value,13,10080948,10086962,10086227.0,10086423.0,197.0,197.0,2035.8,1229.2,2249.0,891.0,Animal_Sea_Solid_Small,8.862276874948293,14.876800833037125,3.0,Animal_Sea_Solid_Small,6.0,,,,,,,,,,,
encoding,value,13,10080948,10086962,10086446.0,10086721.0,276.0,276.0,2222.7,1256.6,2249.0,891.0,Animal_Sea_Solid_Small,8.862276874948293,14.876800833037125,3.0,Animal_Sea_Solid_Small,6.0,,,,,,,,,,,
encoding,attention,13,10086963,10089981,10086963.0,10087573.0,611.0,611.0,2206.6,1279.0,2249.0,891.0,Animal_Sea_Solid_Small,14.876917624962516,17.895085916970856,3.0,Animal_Sea_Solid_Small,6.0,6.0,1.0,1.193014958058484,,,,,,,,
encoding,attention,13,10086963,10089981,10087815.0,10088520.0,706.0,706.0,2191.6,1319.1,2249.0,891.0,Animal_Sea_Solid_Small,14.876917624962516,17.895085916970856,3.0,Animal_Sea_Solid_Small,6.0,6.0,1.0,1.193014958058484,,,,,,,,
encoding,attention,13,10086963,10089981,10088744.0,10089188.0,445.0,445.0,2206.8,1311.8,2249.0,891.0,Animal_Sea_Solid_Small,14.876917624962516,17.895085916970856,3.0,Animal_Sea_Solid_Small,6.0,6.0,1.0,1.193014958058484,,,,,,,,
encoding,attention,13,10086963,10089981,10089237.0,10089630.0,394.0,394.0,2217.8,1314.1,2249.0,891.0,Animal_Sea_Solid_Small,14.876917624962516,17.895085916970856,3.0,Animal_Sea_Solid_Small,6.0,6.0,1.0,1.193014958058484,,,,,,,,
encoding,fixation,14,10089981,10090486,10090229.0,10090298.0,70.0,70.0,2202.7,1300.8,2249.0,891.0,Animal_Sea_Solid_Small,17.895317499991506,18.400514582986943,3.0,Object_Land_Pattern_Large,9.0,,,,,,,,,,,
encoding,fixation,14,10089981,10090486,10090312.0,10090485.0,174.0,174.0,2202.5,1305.7,2249.0,891.0,Animal_Sea_Solid_Small,17.895317499991506,18.400514582986943,3.0,Object_Land_Pattern_Large,9.0,,,,,,,,,,,
encoding,image,14,10090486,10091497,10090742.0,10090881.0,140.0,140.0,2114.1,1229.1,2249.0,891.0,Animal_Sea_Solid_Small,18.400625208043493,19.41155349998735,3.0,Object_Land_Pattern_Large,9.0,,,,,,,,,,,
encoding,image,14,10090486,10091497,10090908.0,10091125.0,218.0,218.0,1991.2,1451.1,1920.0,700.0,Object_Land_Pattern_Large,18.400625208043493,19.41155349998735,3.0,Object_Land_Pattern_Large,9.0,,,,,,,,,,,
encoding,image,14,10090486,10091497,10091142.0,10091550.0,409.0,355.0,1937.3,1468.4,1920.0,700.0,Object_Land_Pattern_Large,18.400625208043493,19.41155349998735,3.0,Object_Land_Pattern_Large,9.0,,,,,,,,,,,
encoding,value,14,10091497,10097510,10091618.0,10091897.0,280.0,280.0,2035.9,1067.9,2249.0,1269.0,Animal_Sea_Solid_Large,19.41166470805183,25.424171207938343,3.0,Object_Land_Pattern_Large,9.0,,,,,,,,,,,
encoding,value,14,10091497,10097510,10091936.0,10092405.0,470.0,470.0,1927.2,1397.8,1920.0,700.0,Object_Land_Pattern_Large,19.41166470805183,25.424171207938343,3.0,Object_Land_Pattern_Large,9.0,,,,,,,,,,,
encoding,value,14,10091497,10097510,10092434.0,10093066.0,633.0,633.0,1929.5,1402.9,1920.0,700.0,Object_Land_Pattern_Large,19.41166470805183,25.424171207938343,3.0,Object_Land_Pattern_Large,9.0,,,,,,,,,,,
encoding,value,14,10091497,10097510,10093087.0,10093141.0,55.0,55.0,1924.4,1422.7,1920.0,700.0,Object_Land_Pattern_Large,19.41166470805183,25.424171207938343,3.0,Object_Land_Pattern_Large,9.0,,,,,,,,,,,
encoding,value,14,10091497,10097510,10093345.0,10093950.0,606.0,606.0,1937.6,1460.0,1920.0,700.0,Object_Land_Pattern_Large,19.41166470805183,25.424171207938343,3.0,Object_Land_Pattern_Large,9.0,,,,,,,,,,,
encoding,value,14,10091497,10097510,10093968.0,10094226.0,259.0,259.0,1932.8,1432.8,1920.0,700.0,Object_Land_Pattern_Large,19.41166470805183,25.424171207938343,3.0,Object_Land_Pattern_Large,9.0,,,,,,,,,,,
encoding,value,14,10091497,10097510,10094508.0,10096679.0,2172.0,2172.0,1927.1,1419.9,1920.0,700.0,Object_Land_Pattern_Large,19.41166470805183,25.424171207938343,3.0,Object_Land_Pattern_Large,9.0,,,,,,,,,,,
encoding,value,14,10091497,10097510,10096701.0,10096902.0,202.0,202.0,1912.3,1423.0,1920.0,700.0,Object_Land_Pattern_Large,19.41166470805183,25.424171207938343,3.0,Object_Land_Pattern_Large,9.0,,,,,,,,,,,
encoding,value,14,10091497,10097510,10097080.0,10098386.0,1307.0,430.0,1944.7,1443.5,1920.0,700.0,Object_Land_Pattern_Large,19.41166470805183,25.424171207938343,3.0,Object_Land_Pattern_Large,9.0,,,,,,,,,,,
encoding,attention,14,10097510,10100529,,,,,,,,,none,25.424310124944896,28.443310417002067,3.0,Object_Land_Pattern_Large,9.0,9.0,1.0,0.6768702080007643,,,,,,,,
encoding,fixation,15,10100530,10102035,10100959.0,10101264.0,306.0,306.0,2008.7,1461.3,1920.0,700.0,Object_Land_Pattern_Large,28.443465000018477,29.948511917027645,3.0,Object_Land_Pattern_Small,-2.0,,,,,,,,,,,
encoding,fixation,15,10100530,10102035,10101287.0,10101679.0,393.0,393.0,2000.5,1286.7,1920.0,700.0,Object_Land_Pattern_Large,28.443465000018477,29.948511917027645,3.0,Object_Land_Pattern_Small,-2.0,,,,,,,,,,,
encoding,fixation,15,10100530,10102035,10101694.0,10102770.0,1077.0,341.0,1947.3,1224.5,1920.0,700.0,Object_Land_Pattern_Large,28.443465000018477,29.948511917027645,3.0,Object_Land_Pattern_Small,-2.0,,,,,,,,,,,
encoding,image,15,10102035,10103047,10102776.0,10103352.0,577.0,271.0,1910.4,1162.2,1920.0,700.0,Object_Land_Pattern_Large,29.94862970802933,30.960398541996256,3.0,Object_Land_Pattern_Small,-2.0,,,,,,,,,,,
encoding,value,15,10103047,10109059,10103393.0,10104827.0,1435.0,1435.0,1866.5,664.5999999999999,1920.0,1460.0,Object_Land_Pattern_Small,30.960562916938215,36.972419500001706,3.0,Object_Land_Pattern_Small,-2.0,,,,,,,,,,,
encoding,value,15,10103047,10109059,10104836.0,10105487.0,652.0,652.0,1890.6,713.9000000000001,1920.0,1460.0,Object_Land_Pattern_Small,30.960562916938215,36.972419500001706,3.0,Object_Land_Pattern_Small,-2.0,,,,,,,,,,,
encoding,value,15,10103047,10109059,10105788.0,10105807.0,20.0,20.0,1842.6,694.2,1920.0,1460.0,Object_Land_Pattern_Small,30.960562916938215,36.972419500001706,3.0,Object_Land_Pattern_Small,-2.0,,,,,,,,,,,
encoding,value,15,10103047,10109059,10105840.0,10106243.0,404.0,404.0,1906.2,851.5,1920.0,1460.0,Object_Land_Pattern_Small,30.960562916938215,36.972419500001706,3.0,Object_Land_Pattern_Small,-2.0,,,,,,,,,,,
encoding,value,15,10103047,10109059,10106265.0,10106773.0,509.0,509.0,1883.3,684.5,1920.0,1460.0,Object_Land_Pattern_Small,30.960562916938215,36.972419500001706,3.0,Object_Land_Pattern_Small,-2.0,,,,,,,,,,,
encoding,value,15,10103047,10109059,10106791.0,10107275.0,485.0,485.0,1890.6,762.0999999999999,1920.0,1460.0,Object_Land_Pattern_Small,30.960562916938215,36.972419500001706,3.0,Object_Land_Pattern_Small,-2.0,,,,,,,,,,,
encoding,value,15,10103047,10109059,10107296.0,10107357.0,62.0,62.0,1868.8,669.7,1920.0,1460.0,Object_Land_Pattern_Small,30.960562916938215,36.972419500001706,3.0,Object_Land_Pattern_Small,-2.0,,,,,,,,,,,
encoding,value,15,10103047,10109059,10107387.0,10108096.0,710.0,710.0,1877.0,695.4000000000001,1920.0,1460.0,Object_Land_Pattern_Small,30.960562916938215,36.972419500001706,3.0,Object_Land_Pattern_Small,-2.0,,,,,,,,,,,
encoding,value,15,10103047,10109059,10108356.0,10108822.0,467.0,467.0,1922.1,783.9000000000001,1920.0,1460.0,Object_Land_Pattern_Small,30.960562916938215,36.972419500001706,3.0,Object_Land_Pattern_Small,-2.0,,,,,,,,,,,
encoding,value,15,10103047,10109059,10108840.0,10109458.0,619.0,219.0,1882.7,755.8,1920.0,1460.0,Object_Land_Pattern_Small,30.960562916938215,36.972419500001706,3.0,Object_Land_Pattern_Small,-2.0,,,,,,,,,,,
encoding,attention,15,10109059,10112077,10109474.0,10109656.0,183.0,183.0,1851.3,730.5999999999999,1920.0,1460.0,Object_Land_Pattern_Small,36.97258579195477,39.99045162496623,3.0,Object_Land_Pattern_Small,-2.0,-2.0,1.0,1.0765286249807104,,,,,,,,
encoding,attention,15,10109059,10112077,10109960.0,10110437.0,478.0,478.0,1840.6,733.2,1920.0,1460.0,Object_Land_Pattern_Small,36.97258579195477,39.99045162496623,3.0,Object_Land_Pattern_Small,-2.0,-2.0,1.0,1.0765286249807104,,,,,,,,
encoding,attention,15,10109059,10112077,10110457.0,10110841.0,385.0,385.0,1902.3,791.4000000000001,1920.0,1460.0,Object_Land_Pattern_Small,36.97258579195477,39.99045162496623,3.0,Object_Land_Pattern_Small,-2.0,-2.0,1.0,1.0765286249807104,,,,,,,,
encoding,attention,15,10109059,10112077,10110858.0,10111102.0,245.0,245.0,1876.2,692.4000000000001,1920.0,1460.0,Object_Land_Pattern_Small,36.97258579195477,39.99045162496623,3.0,Object_Land_Pattern_Small,-2.0,-2.0,1.0,1.0765286249807104,,,,,,,,
encoding,attention,15,10109059,10112077,10111209.0,10111401.0,193.0,193.0,1874.0,701.4000000000001,1920.0,1460.0,Object_Land_Pattern_Small,36.97258579195477,39.99045162496623,3.0,Object_Land_Pattern_Small,-2.0,-2.0,1.0,1.0765286249807104,,,,,,,,
encoding,attention,15,10109059,10112077,10111413.0,10111632.0,220.0,220.0,1930.9,731.7,1920.0,1460.0,Object_Land_Pattern_Small,36.97258579195477,39.99045162496623,3.0,Object_Land_Pattern_Small,-2.0,-2.0,1.0,1.0765286249807104,,,,,,,,
encoding,fixation,16,10112077,10113332,10112374.0,10112519.0,146.0,146.0,1932.4,867.4000000000001,1920.0,1460.0,Object_Land_Pattern_Small,39.990623707999475,41.245564999990165,3.0,Animal_Sea_Solid_Large,6.0,,,,,,,,,,,
encoding,fixation,16,10112077,10113332,10112562.0,10113015.0,454.0,454.0,1967.2,1144.3,2249.0,891.0,Animal_Sea_Solid_Small,39.990623707999475,41.245564999990165,3.0,Animal_Sea_Solid_Large,6.0,,,,,,,,,,,
encoding,fixation,16,10112077,10113332,10113033.0,10113556.0,524.0,299.0,1992.4,1256.5,1920.0,700.0,Object_Land_Pattern_Large,39.990623707999475,41.245564999990165,3.0,Animal_Sea_Solid_Large,6.0,,,,,,,,,,,
encoding,image,16,10113332,10114344,10113591.0,10113744.0,154.0,154.0,2176.3,1044.3,2249.0,1269.0,Animal_Sea_Solid_Large,41.24567570805084,42.25705937494058,3.0,Animal_Sea_Solid_Large,6.0,,,,,,,,,,,
encoding,image,16,10113332,10114344,10113758.0,10114015.0,258.0,258.0,2233.9,984.5999999999999,2249.0,1269.0,Animal_Sea_Solid_Large,41.24567570805084,42.25705937494058,3.0,Animal_Sea_Solid_Large,6.0,,,,,,,,,,,
encoding,value,16,10114344,10120356,10114356.0,10114734.0,379.0,379.0,2239.3,1092.1,2249.0,891.0,Animal_Sea_Solid_Small,42.25717708305456,48.26883345795795,3.0,Animal_Sea_Solid_Large,6.0,,,,,,,,,,,
encoding,value,16,10114344,10120356,10114753.0,10115236.0,484.0,484.0,2254.0,997.4000000000001,2249.0,1269.0,Animal_Sea_Solid_Large,42.25717708305456,48.26883345795795,3.0,Animal_Sea_Solid_Large,6.0,,,,,,,,,,,
encoding,value,16,10114344,10120356,10115246.0,10115391.0,146.0,146.0,2215.1,940.3,2249.0,1269.0,Animal_Sea_Solid_Large,42.25717708305456,48.26883345795795,3.0,Animal_Sea_Solid_Large,6.0,,,,,,,,,,,
encoding,value,16,10114344,10120356,10115822.0,10116344.0,523.0,523.0,2252.5,1034.5,2249.0,1269.0,Animal_Sea_Solid_Large,42.25717708305456,48.26883345795795,3.0,Animal_Sea_Solid_Large,6.0,,,,,,,,,,,
encoding,value,16,10114344,10120356,10116358.0,10116647.0,290.0,290.0,2172.8,959.0,2249.0,1269.0,Animal_Sea_Solid_Large,42.25717708305456,48.26883345795795,3.0,Animal_Sea_Solid_Large,6.0,,,,,,,,,,,
encoding,value,16,10114344,10120356,10116677.0,10117513.0,837.0,837.0,2032.2,1074.3,2249.0,1269.0,Animal_Sea_Solid_Large,42.25717708305456,48.26883345795795,3.0,Animal_Sea_Solid_Large,6.0,,,,,,,,,,,
encoding,value,16,10114344,10120356,10117741.0,10118072.0,332.0,332.0,2238.0,1056.5,2249.0,1269.0,Animal_Sea_Solid_Large,42.25717708305456,48.26883345795795,3.0,Animal_Sea_Solid_Large,6.0,,,,,,,,,,,
encoding,value,16,10114344,10120356,10118095.0,10118259.0,165.0,165.0,2242.7,972.2,2249.0,1269.0,Animal_Sea_Solid_Large,42.25717708305456,48.26883345795795,3.0,Animal_Sea_Solid_Large,6.0,,,,,,,,,,,
encoding,value,16,10114344,10120356,10118274.0,10119074.0,801.0,801.0,2230.8,983.5999999999999,2249.0,1269.0,Animal_Sea_Solid_Large,42.25717708305456,48.26883345795795,3.0,Animal_Sea_Solid_Large,6.0,,,,,,,,,,,
encoding,value,16,10114344,10120356,10119096.0,10119634.0,539.0,539.0,2234.7,857.9000000000001,2249.0,1269.0,Animal_Sea_Solid_Large,42.25717708305456,48.26883345795795,3.0,Animal_Sea_Solid_Large,6.0,,,,,,,,,,,
encoding,value,16,10114344,10120356,10119908.0,10120143.0,236.0,236.0,2206.6,913.5,2249.0,1269.0,Animal_Sea_Solid_Large,42.25717708305456,48.26883345795795,3.0,Animal_Sea_Solid_Large,6.0,,,,,,,,,,,
encoding,value,16,10114344,10120356,10120151.0,10120683.0,533.0,205.0,2260.8,953.5,2249.0,1269.0,Animal_Sea_Solid_Large,42.25717708305456,48.26883345795795,3.0,Animal_Sea_Solid_Large,6.0,,,,,,,,,,,
encoding,attention,16,10120356,10123374,10120696.0,10121368.0,673.0,673.0,2212.5,932.9000000000001,2249.0,1269.0,Animal_Sea_Solid_Large,48.26894612493925,51.28641358297318,3.0,Animal_Sea_Solid_Large,6.0,6.0,1.0,0.7226207500789315,,,,,,,,
encoding,attention,16,10120356,10123374,10121707.0,10121926.0,220.0,220.0,2252.5,1100.5,2249.0,891.0,Animal_Sea_Solid_Small,48.26894612493925,51.28641358297318,3.0,Animal_Sea_Solid_Large,6.0,6.0,1.0,0.7226207500789315,,,,,,,,
encoding,attention,16,10120356,10123374,10121932.0,10122034.0,103.0,103.0,2247.9,1038.0,2249.0,1269.0,Animal_Sea_Solid_Large,48.26894612493925,51.28641358297318,3.0,Animal_Sea_Solid_Large,6.0,6.0,1.0,0.7226207500789315,,,,,,,,
encoding,attention,16,10120356,10123374,10122055.0,10122456.0,402.0,402.0,2062.8,985.2,2249.0,1269.0,Animal_Sea_Solid_Large,48.26894612493925,51.28641358297318,3.0,Animal_Sea_Solid_Large,6.0,6.0,1.0,0.7226207500789315,,,,,,,,
encoding,attention,16,10120356,10123374,10122751.0,10123234.0,484.0,484.0,1945.2,929.2,1920.0,1460.0,Object_Land_Pattern_Small,48.26894612493925,51.28641358297318,3.0,Animal_Sea_Solid_Large,6.0,6.0,1.0,0.7226207500789315,,,,,,,,
encoding,fixation,17,10123374,10124882,10123467.0,10123661.0,195.0,195.0,2231.4,1043.9,2249.0,1269.0,Animal_Sea_Solid_Large,51.28655941702891,52.79457516700495,3.0,Object_Sea_Pattern_Small,-3.0,,,,,,,,,,,
encoding,fixation,17,10123374,10124882,10123689.0,10124034.0,346.0,346.0,1949.5,1176.9,1920.0,700.0,Object_Land_Pattern_Large,51.28655941702891,52.79457516700495,3.0,Object_Sea_Pattern_Small,-3.0,,,,,,,,,,,
encoding,fixation,17,10123374,10124882,10124278.0,10124428.0,151.0,151.0,1989.5,1321.8,1920.0,700.0,Object_Land_Pattern_Large,51.28655941702891,52.79457516700495,3.0,Object_Sea_Pattern_Small,-3.0,,,,,,,,,,,
encoding,fixation,17,10123374,10124882,10124438.0,10124829.0,392.0,392.0,1952.5,1238.7,1920.0,700.0,Object_Land_Pattern_Large,51.28655941702891,52.79457516700495,3.0,Object_Sea_Pattern_Small,-3.0,,,,,,,,,,,
encoding,fixation,17,10123374,10124882,10124868.0,10125052.0,185.0,14.0,1783.8,997.9000000000001,1591.0,1269.0,Object_Sea_Pattern_Small,51.28655941702891,52.79457516700495,3.0,Object_Sea_Pattern_Small,-3.0,,,,,,,,,,,
encoding,image,17,10124882,10125893,10125070.0,10126245.0,1176.0,823.0,1625.6,982.3,1591.0,1269.0,Object_Sea_Pattern_Small,52.794762250036,53.805730542051606,3.0,Object_Sea_Pattern_Small,-3.0,,,,,,,,,,,
encoding,value,17,10125893,10131905,10126260.0,10126615.0,356.0,356.0,1627.1,869.8,1591.0,1269.0,Object_Sea_Pattern_Small,53.80583679198753,59.8171711670002,3.0,Object_Sea_Pattern_Small,-3.0,,,,,,,,,,,
encoding,value,17,10125893,10131905,10126913.0,10127137.0,225.0,225.0,1818.7,946.7,1591.0,1269.0,Object_Sea_Pattern_Small,53.80583679198753,59.8171711670002,3.0,Object_Sea_Pattern_Small,-3.0,,,,,,,,,,,
encoding,value,17,10125893,10131905,10127157.0,10127840.0,684.0,684.0,1644.7,898.0,1591.0,1269.0,Object_Sea_Pattern_Small,53.80583679198753,59.8171711670002,3.0,Object_Sea_Pattern_Small,-3.0,,,,,,,,,,,
encoding,value,17,10125893,10131905,10127886.0,10128202.0,317.0,317.0,1876.6,1153.0,1591.0,891.0,Animal_Land_Solid_Large,53.80583679198753,59.8171711670002,3.0,Object_Sea_Pattern_Small,-3.0,,,,,,,,,,,
encoding,value,17,10125893,10131905,10128220.0,10128614.0,395.0,395.0,1983.3,1265.5,1920.0,700.0,Object_Land_Pattern_Large,53.80583679198753,59.8171711670002,3.0,Object_Sea_Pattern_Small,-3.0,,,,,,,,,,,
encoding,value,17,10125893,10131905,10128658.0,10128879.0,222.0,222.0,1702.6,912.9000000000001,1591.0,1269.0,Object_Sea_Pattern_Small,53.80583679198753,59.8171711670002,3.0,Object_Sea_Pattern_Small,-3.0,,,,,,,,,,,
encoding,value,17,10125893,10131905,10128900.0,10129969.0,1070.0,1070.0,1616.9,853.0,1591.0,1269.0,Object_Sea_Pattern_Small,53.80583679198753,59.8171711670002,3.0,Object_Sea_Pattern_Small,-3.0,,,,,,,,,,,
encoding,value,17,10125893,10131905,10130251.0,10130849.0,599.0,599.0,1968.3,1379.6,1920.0,700.0,Object_Land_Pattern_Large,53.80583679198753,59.8171711670002,3.0,Object_Sea_Pattern_Small,-3.0,,,,,,,,,,,
encoding,value,17,10125893,10131905,10130888.0,10131047.0,160.0,160.0,1825.5,1034.6,1591.0,1269.0,Object_Sea_Pattern_Small,53.80583679198753,59.8171711670002,3.0,Object_Sea_Pattern_Small,-3.0,,,,,,,,,,,
encoding,value,17,10125893,10131905,10131075.0,10131216.0,142.0,142.0,1623.4,811.8,1591.0,1269.0,Object_Sea_Pattern_Small,53.80583679198753,59.8171711670002,3.0,Object_Sea_Pattern_Small,-3.0,,,,,,,,,,,
encoding,value,17,10125893,10131905,10131232.0,10132166.0,935.0,673.0,1609.3,840.5,1591.0,1269.0,Object_Sea_Pattern_Small,53.80583679198753,59.8171711670002,3.0,Object_Sea_Pattern_Small,-3.0,,,,,,,,,,,
encoding,attention,17,10131905,10134922,10132455.0,10132668.0,214.0,214.0,1562.5,919.4000000000001,1591.0,1269.0,Object_Sea_Pattern_Small,59.81729666702449,62.83430274995044,3.0,Object_Sea_Pattern_Small,-3.0,-3.0,1.0,0.8789382498944178,,,,,,,,
encoding,attention,17,10131905,10134922,10132687.0,10133043.0,357.0,357.0,1558.1,878.8,1591.0,1269.0,Object_Sea_Pattern_Small,59.81729666702449,62.83430274995044,3.0,Object_Sea_Pattern_Small,-3.0,-3.0,1.0,0.8789382498944178,,,,,,,,
encoding,attention,17,10131905,10134922,10133356.0,10133561.0,206.0,206.0,2023.1,1389.4,1920.0,700.0,Object_Land_Pattern_Large,59.81729666702449,62.83430274995044,3.0,Object_Sea_Pattern_Small,-3.0,-3.0,1.0,0.8789382498944178,,,,,,,,
encoding,attention,17,10131905,10134922,10133785.0,10133914.0,130.0,130.0,2232.3,1421.1,2249.0,891.0,Animal_Sea_Solid_Small,59.81729666702449,62.83430274995044,3.0,Object_Sea_Pattern_Small,-3.0,-3.0,1.0,0.8789382498944178,,,,,,,,
encoding,attention,17,10131905,10134922,10134118.0,10134547.0,430.0,430.0,2377.7,1442.4,,,none,59.81729666702449,62.83430274995044,3.0,Object_Sea_Pattern_Small,-3.0,-3.0,1.0,0.8789382498944178,,,,,,,,
encoding,attention,17,10131905,10134922,10134594.0,10134749.0,156.0,156.0,1977.1,1192.4,1920.0,700.0,Object_Land_Pattern_Large,59.81729666702449,62.83430274995044,3.0,Object_Sea_Pattern_Small,-3.0,-3.0,1.0,0.8789382498944178,,,,,,,,
encoding,fixation,18,10134922,10135927,10135178.0,10135522.0,345.0,345.0,1606.4,881.5999999999999,1591.0,1269.0,Object_Sea_Pattern_Small,62.83448537497315,63.83954020799138,3.0,Animal_Land_Solid_Large,-9.0,,,,,,,,,,,
encoding,fixation,18,10134922,10135927,10135548.0,10135628.0,81.0,81.0,1609.2,894.9000000000001,1591.0,1269.0,Object_Sea_Pattern_Small,62.83448537497315,63.83954020799138,3.0,Animal_Land_Solid_Large,-9.0,,,,,,,,,,,
encoding,fixation,18,10134922,10135927,10135669.0,10136687.0,1019.0,258.0,1853.0,1067.4,1920.0,1080.0,fixation,62.83448537497315,63.83954020799138,3.0,Animal_Land_Solid_Large,-9.0,,,,,,,,,,,
encoding,image,18,10135927,10136939,10136709.0,10137288.0,580.0,230.0,2069.2,1056.0,2249.0,1269.0,Animal_Sea_Solid_Large,63.83966312499251,64.85134083300363,3.0,Animal_Land_Solid_Large,-9.0,,,,,,,,,,,
encoding,value,18,10136939,10142952,10137341.0,10137581.0,241.0,241.0,1683.2,1217.1,1591.0,891.0,Animal_Land_Solid_Large,64.85146691696718,70.86376929201651,3.0,Animal_Land_Solid_Large,-9.0,,,,,,,,,,,
encoding,value,18,10136939,10142952,10137593.0,10137753.0,161.0,161.0,1594.2,1254.2,1591.0,891.0,Animal_Land_Solid_Large,64.85146691696718,70.86376929201651,3.0,Animal_Land_Solid_Large,-9.0,,,,,,,,,,,
encoding,value,18,10136939,10142952,10138061.0,10138458.0,398.0,398.0,1681.0,1329.4,1591.0,891.0,Animal_Land_Solid_Large,64.85146691696718,70.86376929201651,3.0,Animal_Land_Solid_Large,-9.0,,,,,,,,,,,
encoding,value,18,10136939,10142952,10138467.0,10138790.0,324.0,324.0,1626.2,1269.4,1591.0,891.0,Animal_Land_Solid_Large,64.85146691696718,70.86376929201651,3.0,Animal_Land_Solid_Large,-9.0,,,,,,,,,,,
encoding,value,18,10136939,10142952,10138838.0,10139012.0,175.0,175.0,1615.5,1285.6,1591.0,891.0,Animal_Land_Solid_Large,64.85146691696718,70.86376929201651,3.0,Animal_Land_Solid_Large,-9.0,,,,,,,,,,,
encoding,value,18,10136939,10142952,10139035.0,10139692.0,658.0,658.0,1624.1,1325.1,1591.0,891.0,Animal_Land_Solid_Large,64.85146691696718,70.86376929201651,3.0,Animal_Land_Solid_Large,-9.0,,,,,,,,,,,
encoding,value,18,10136939,10142952,10139704.0,10139724.0,21.0,21.0,1635.5,1372.8,1591.0,891.0,Animal_Land_Solid_Large,64.85146691696718,70.86376929201651,3.0,Animal_Land_Solid_Large,-9.0,,,,,,,,,,,
encoding,value,18,10136939,10142952,10139997.0,10141183.0,1187.0,1187.0,1611.8,1291.8,1591.0,891.0,Animal_Land_Solid_Large,64.85146691696718,70.86376929201651,3.0,Animal_Land_Solid_Large,-9.0,,,,,,,,,,,
encoding,value,18,10136939,10142952,10141190.0,10141401.0,212.0,212.0,1652.5,1268.8,1591.0,891.0,Animal_Land_Solid_Large,64.85146691696718,70.86376929201651,3.0,Animal_Land_Solid_Large,-9.0,,,,,,,,,,,
encoding,value,18,10136939,10142952,10141409.0,10142060.0,652.0,652.0,1612.6,1277.0,1591.0,891.0,Animal_Land_Solid_Large,64.85146691696718,70.86376929201651,3.0,Animal_Land_Solid_Large,-9.0,,,,,,,,,,,
encoding,value,18,10136939,10142952,10142386.0,10143820.0,1435.0,566.0,1623.0,1286.1,1591.0,891.0,Animal_Land_Solid_Large,64.85146691696718,70.86376929201651,3.0,Animal_Land_Solid_Large,-9.0,,,,,,,,,,,
encoding,attention,18,10142952,10145971,10144100.0,10144531.0,432.0,432.0,1818.5,1312.4,1920.0,700.0,Object_Land_Pattern_Large,70.86392562498804,73.88248466700315,3.0,Animal_Land_Solid_Large,-9.0,-9.0,1.0,0.6151181659661233,,,,,,,,
encoding,attention,18,10142952,10145971,10144588.0,10144849.0,262.0,262.0,2265.4,1381.0,2249.0,891.0,Animal_Sea_Solid_Small,70.86392562498804,73.88248466700315,3.0,Animal_Land_Solid_Large,-9.0,-9.0,1.0,0.6151181659661233,,,,,,,,
encoding,attention,18,10142952,10145971,10144899.0,10145161.0,263.0,263.0,1736.2,1325.6,1591.0,891.0,Animal_Land_Solid_Large,70.86392562498804,73.88248466700315,3.0,Animal_Land_Solid_Large,-9.0,-9.0,1.0,0.6151181659661233,,,,,,,,
encoding,attention,18,10142952,10145971,10145172.0,10145403.0,232.0,232.0,1636.8,1312.9,1591.0,891.0,Animal_Land_Solid_Large,70.86392562498804,73.88248466700315,3.0,Animal_Land_Solid_Large,-9.0,-9.0,1.0,0.6151181659661233,,,,,,,,
encoding,attention,18,10142952,10145971,10145661.0,10145748.0,88.0,88.0,2170.0,1290.2,2249.0,891.0,Animal_Sea_Solid_Small,70.86392562498804,73.88248466700315,3.0,Animal_Land_Solid_Large,-9.0,-9.0,1.0,0.6151181659661233,,,,,,,,
encoding,fixation,19,10651245,10652251,10651522.0,10651891.0,370.0,370.0,1898.9,1058.7,1920.0,1080.0,fixation,6.026347124949098,7.032191165955737,4.0,Animal_Land_Solid_Small,-1.0,,,,,,,,,,,
encoding,fixation,19,10651245,10652251,10651926.0,10652047.0,122.0,122.0,2118.4,1425.9,1920.0,700.0,Animal_Land_Solid_Small,6.026347124949098,7.032191165955737,4.0,Animal_Land_Solid_Small,-1.0,,,,,,,,,,,
encoding,image,19,10652251,10653267,10652290.0,10653528.0,1239.0,977.0,1973.8,1349.5,1920.0,700.0,Animal_Land_Solid_Small,7.032408333034255,8.048024707939476,4.0,Animal_Land_Solid_Small,-1.0,,,,,,,,,,,
encoding,value,19,10653267,10659281,10653536.0,10654551.0,1016.0,1016.0,1929.2,1383.5,1920.0,700.0,Animal_Land_Solid_Small,8.048190457979217,14.061740041011944,4.0,Animal_Land_Solid_Small,-1.0,,,,,,,,,,,
encoding,value,19,10653267,10659281,10654562.0,10656946.0,2385.0,2385.0,1919.5,1394.6,1920.0,700.0,Animal_Land_Solid_Small,8.048190457979217,14.061740041011944,4.0,Animal_Land_Solid_Small,-1.0,,,,,,,,,,,
encoding,value,19,10653267,10659281,10657155.0,10657762.0,608.0,608.0,1923.3,1476.3,1920.0,700.0,Animal_Land_Solid_Small,8.048190457979217,14.061740041011944,4.0,Animal_Land_Solid_Small,-1.0,,,,,,,,,,,
encoding,value,19,10653267,10659281,10657772.0,10658455.0,684.0,684.0,1925.9,1399.2,1920.0,700.0,Animal_Land_Solid_Small,8.048190457979217,14.061740041011944,4.0,Animal_Land_Solid_Small,-1.0,,,,,,,,,,,
encoding,value,19,10653267,10659281,10658473.0,10659081.0,609.0,609.0,1942.7,1448.1,1920.0,700.0,Animal_Land_Solid_Small,8.048190457979217,14.061740041011944,4.0,Animal_Land_Solid_Small,-1.0,,,,,,,,,,,
encoding,value,19,10653267,10659281,10659111.0,10660112.0,1002.0,170.0,1904.2,1395.9,1920.0,700.0,Animal_Land_Solid_Small,8.048190457979217,14.061740041011944,4.0,Animal_Land_Solid_Small,-1.0,,,,,,,,,,,
encoding,attention,19,10659281,10662299,10660402.0,10660446.0,45.0,45.0,1868.7,958.8,1920.0,1460.0,Object_Sea_Pattern_Large,14.061852540937252,17.08004675002303,4.0,Animal_Land_Solid_Small,-1.0,-1.0,1.0,0.6211285419994965,,,,,,,,
encoding,attention,19,10659281,10662299,10660468.0,10660511.0,44.0,44.0,1894.4,1269.9,1920.0,700.0,Animal_Land_Solid_Small,14.061852540937252,17.08004675002303,4.0,Animal_Land_Solid_Small,-1.0,-1.0,1.0,0.6211285419994965,,,,,,,,
encoding,attention,19,10659281,10662299,10660521.0,10660775.0,255.0,255.0,1941.7,1451.9,1920.0,700.0,Animal_Land_Solid_Small,14.061852540937252,17.08004675002303,4.0,Animal_Land_Solid_Small,-1.0,-1.0,1.0,0.6211285419994965,,,,,,,,
encoding,attention,19,10659281,10662299,10660785.0,10661328.0,544.0,544.0,1882.7,1357.8,1920.0,700.0,Animal_Land_Solid_Small,14.061852540937252,17.08004675002303,4.0,Animal_Land_Solid_Small,-1.0,-1.0,1.0,0.6211285419994965,,,,,,,,
encoding,attention,19,10659281,10662299,10661603.0,10662102.0,500.0,500.0,1949.2,1439.4,1920.0,700.0,Animal_Land_Solid_Small,14.061852540937252,17.08004675002303,4.0,Animal_Land_Solid_Small,-1.0,-1.0,1.0,0.6211285419994965,,,,,,,,
encoding,fixation,20,10662299,10663056,10662303.0,10662324.0,22.0,22.0,1951.4,1551.4,1920.0,700.0,Animal_Land_Solid_Small,17.080199165968224,17.837298208032735,4.0,Animal_Land_Pattern_Large,9.0,,,,,,,,,,,
encoding,fixation,20,10662299,10663056,10662353.0,10662786.0,434.0,434.0,1945.2,1429.0,1920.0,700.0,Animal_Land_Solid_Small,17.080199165968224,17.837298208032735,4.0,Animal_Land_Pattern_Large,9.0,,,,,,,,,,,
encoding,fixation,20,10662299,10663056,10663001.0,10663653.0,653.0,55.0,1960.6,1434.9,1920.0,700.0,Animal_Land_Solid_Small,17.080199165968224,17.837298208032735,4.0,Animal_Land_Pattern_Large,9.0,,,,,,,,,,,
encoding,image,20,10663057,10664068,10663698.0,10663847.0,150.0,150.0,2160.5,1016.7,2249.0,1269.0,Animal_Land_Pattern_Large,17.837407125043683,18.848564915941097,4.0,Animal_Land_Pattern_Large,9.0,,,,,,,,,,,
encoding,image,20,10663057,10664068,10663858.0,10664438.0,581.0,210.0,2195.6,935.2,2249.0,1269.0,Animal_Land_Pattern_Large,17.837407125043683,18.848564915941097,4.0,Animal_Land_Pattern_Large,9.0,,,,,,,,,,,
encoding,value,20,10664068,10670080,10664459.0,10664808.0,350.0,350.0,2008.1,943.7,2249.0,1269.0,Animal_Land_Pattern_Large,18.84871991595719,24.86080708296504,4.0,Animal_Land_Pattern_Large,9.0,,,,,,,,,,,
encoding,value,20,10664068,10670080,10664831.0,10665272.0,442.0,442.0,2171.3,845.7,2249.0,1269.0,Animal_Land_Pattern_Large,18.84871991595719,24.86080708296504,4.0,Animal_Land_Pattern_Large,9.0,,,,,,,,,,,
encoding,value,20,10664068,10670080,10665490.0,10665588.0,99.0,99.0,1738.2,1111.8,1591.0,891.0,Object_Sea_Solid_Small,18.84871991595719,24.86080708296504,4.0,Animal_Land_Pattern_Large,9.0,,,,,,,,,,,
encoding,value,20,10664068,10670080,10665631.0,10666392.0,762.0,762.0,2185.9,897.0,2249.0,1269.0,Animal_Land_Pattern_Large,18.84871991595719,24.86080708296504,4.0,Animal_Land_Pattern_Large,9.0,,,,,,,,,,,
encoding,value,20,10664068,10670080,10666417.0,10667032.0,616.0,616.0,1949.4,956.8,1920.0,1460.0,Object_Sea_Pattern_Large,18.84871991595719,24.86080708296504,4.0,Animal_Land_Pattern_Large,9.0,,,,,,,,,,,
encoding,value,20,10664068,10670080,10667056.0,10667881.0,826.0,826.0,2175.0,851.7,2249.0,1269.0,Animal_Land_Pattern_Large,18.84871991595719,24.86080708296504,4.0,Animal_Land_Pattern_Large,9.0,,,,,,,,,,,
encoding,value,20,10664068,10670080,10667909.0,10669102.0,1194.0,1194.0,1935.7,1102.1,1920.0,1080.0,fixation,18.84871991595719,24.86080708296504,4.0,Animal_Land_Pattern_Large,9.0,,,,,,,,,,,
encoding,value,20,10664068,10670080,10669292.0,10669567.0,276.0,276.0,1952.3,1185.0,1920.0,700.0,Animal_Land_Solid_Small,18.84871991595719,24.86080708296504,4.0,Animal_Land_Pattern_Large,9.0,,,,,,,,,,,
encoding,value,20,10664068,10670080,10669601.0,10670383.0,783.0,479.0,2178.4,859.3,2249.0,1269.0,Animal_Land_Pattern_Large,18.84871991595719,24.86080708296504,4.0,Animal_Land_Pattern_Large,9.0,,,,,,,,,,,
encoding,attention,20,10670080,10673098,10670393.0,10670923.0,531.0,531.0,2184.5,795.0999999999999,2249.0,1269.0,Animal_Land_Pattern_Large,24.860925415996466,27.878400916000828,4.0,Animal_Land_Pattern_Large,9.0,9.0,1.0,0.5975311669753864,,,,,,,,
encoding,attention,20,10670080,10673098,10670971.0,10671375.0,405.0,405.0,1939.1,1112.1,1920.0,1080.0,fixation,24.860925415996466,27.878400916000828,4.0,Animal_Land_Pattern_Large,9.0,9.0,1.0,0.5975311669753864,,,,,,,,
encoding,attention,20,10670080,10673098,10671665.0,10671799.0,135.0,135.0,2038.2,1156.4,2249.0,891.0,Object_Sea_Solid_Large,24.860925415996466,27.878400916000828,4.0,Animal_Land_Pattern_Large,9.0,9.0,1.0,0.5975311669753864,,,,,,,,
encoding,attention,20,10670080,10673098,10672045.0,10672804.0,760.0,760.0,1954.3,1173.5,1920.0,700.0,Animal_Land_Solid_Small,24.860925415996466,27.878400916000828,4.0,Animal_Land_Pattern_Large,9.0,9.0,1.0,0.5975311669753864,,,,,,,,
encoding,fixation,21,10673098,10674106,10673315.0,10674785.0,1471.0,791.0,1920.9,1063.4,1920.0,1080.0,fixation,27.87856229103636,28.88617087493185,4.0,Animal_Land_Pattern_Small,-2.0,,,,,,,,,,,
encoding,image,21,10674106,10675116,10675045.0,10675460.0,416.0,71.0,1957.9,1268.6,1920.0,700.0,Animal_Land_Solid_Small,28.886366624967195,29.896601957967505,4.0,Animal_Land_Pattern_Small,-2.0,,,,,,,,,,,
encoding,value,21,10675116,10681129,10675502.0,10676302.0,801.0,801.0,1627.8,867.5,1591.0,1269.0,Animal_Land_Pattern_Small,29.89672012499068,35.90862462494988,4.0,Animal_Land_Pattern_Small,-2.0,,,,,,,,,,,
encoding,value,21,10675116,10681129,10676347.0,10676913.0,567.0,567.0,1925.3,1196.6,1920.0,700.0,Animal_Land_Solid_Small,29.89672012499068,35.90862462494988,4.0,Animal_Land_Pattern_Small,-2.0,,,,,,,,,,,
encoding,value,21,10675116,10681129,10677185.0,10677495.0,311.0,311.0,1596.8,920.8,1591.0,1269.0,Animal_Land_Pattern_Small,29.89672012499068,35.90862462494988,4.0,Animal_Land_Pattern_Small,-2.0,,,,,,,,,,,
encoding,value,21,10675116,10681129,10677513.0,10678024.0,512.0,512.0,1598.4,790.0999999999999,1591.0,1269.0,Animal_Land_Pattern_Small,29.89672012499068,35.90862462494988,4.0,Animal_Land_Pattern_Small,-2.0,,,,,,,,,,,
encoding,value,21,10675116,10681129,10678064.0,10678469.0,406.0,406.0,2039.8,836.7,1920.0,1460.0,Object_Sea_Pattern_Large,29.89672012499068,35.90862462494988,4.0,Animal_Land_Pattern_Small,-2.0,,,,,,,,,,,
encoding,value,21,10675116,10681129,10678509.0,10679063.0,555.0,555.0,1904.7,1226.7,1920.0,700.0,Animal_Land_Solid_Small,29.89672012499068,35.90862462494988,4.0,Animal_Land_Pattern_Small,-2.0,,,,,,,,,,,
encoding,value,21,10675116,10681129,10679238.0,10679317.0,80.0,80.0,1944.0,1355.8,1920.0,700.0,Animal_Land_Solid_Small,29.89672012499068,35.90862462494988,4.0,Animal_Land_Pattern_Small,-2.0,,,,,,,,,,,
encoding,value,21,10675116,10681129,10679323.0,10679393.0,71.0,71.0,1938.4,1308.9,1920.0,700.0,Animal_Land_Solid_Small,29.89672012499068,35.90862462494988,4.0,Animal_Land_Pattern_Small,-2.0,,,,,,,,,,,
encoding,value,21,10675116,10681129,10679470.0,10679959.0,490.0,490.0,1613.5,816.0999999999999,1591.0,1269.0,Animal_Land_Pattern_Small,29.89672012499068,35.90862462494988,4.0,Animal_Land_Pattern_Small,-2.0,,,,,,,,,,,
encoding,value,21,10675116,10681129,10680004.0,10680237.0,234.0,234.0,2053.8,805.0,1920.0,1460.0,Object_Sea_Pattern_Large,29.89672012499068,35.90862462494988,4.0,Animal_Land_Pattern_Small,-2.0,,,,,,,,,,,
encoding,value,21,10675116,10681129,10680273.0,10681166.0,894.0,856.0,1588.9,786.0,1591.0,1269.0,Animal_Land_Pattern_Small,29.89672012499068,35.90862462494988,4.0,Animal_Land_Pattern_Small,-2.0,,,,,,,,,,,
encoding,attention,21,10681129,10684146,10681410.0,10681465.0,56.0,56.0,1615.0,1014.3,1591.0,1269.0,Animal_Land_Pattern_Small,35.90874374995474,38.926142666023225,4.0,Animal_Land_Pattern_Small,-2.0,-2.0,1.0,0.9492515840101988,,,,,,,,
encoding,attention,21,10681129,10684146,10681500.0,10681574.0,75.0,75.0,1607.8,945.0999999999999,1591.0,1269.0,Animal_Land_Pattern_Small,35.90874374995474,38.926142666023225,4.0,Animal_Land_Pattern_Small,-2.0,-2.0,1.0,0.9492515840101988,,,,,,,,
encoding,attention,21,10681129,10684146,10681589.0,10682417.0,829.0,829.0,1548.8,825.4000000000001,1591.0,1269.0,Animal_Land_Pattern_Small,35.90874374995474,38.926142666023225,4.0,Animal_Land_Pattern_Small,-2.0,-2.0,1.0,0.9492515840101988,,,,,,,,
encoding,attention,21,10681129,10684146,10682439.0,10682836.0,398.0,398.0,1584.2,902.0999999999999,1591.0,1269.0,Animal_Land_Pattern_Small,35.90874374995474,38.926142666023225,4.0,Animal_Land_Pattern_Small,-2.0,-2.0,1.0,0.9492515840101988,,,,,,,,
encoding,attention,21,10681129,10684146,10682867.0,10683005.0,139.0,139.0,1904.6,1067.2,1920.0,1080.0,fixation,35.90874374995474,38.926142666023225,4.0,Animal_Land_Pattern_Small,-2.0,-2.0,1.0,0.9492515840101988,,,,,,,,
encoding,attention,21,10681129,10684146,10683204.0,10683251.0,48.0,48.0,2072.8,1502.4,1920.0,700.0,Animal_Land_Solid_Small,35.90874374995474,38.926142666023225,4.0,Animal_Land_Pattern_Small,-2.0,-2.0,1.0,0.9492515840101988,,,,,,,,
encoding,attention,21,10681129,10684146,10683258.0,10683439.0,182.0,182.0,2065.9,1404.5,1920.0,700.0,Animal_Land_Solid_Small,35.90874374995474,38.926142666023225,4.0,Animal_Land_Pattern_Small,-2.0,-2.0,1.0,0.9492515840101988,,,,,,,,
encoding,attention,21,10681129,10684146,10683487.0,10683748.0,262.0,262.0,1665.0,954.0,1591.0,1269.0,Animal_Land_Pattern_Small,35.90874374995474,38.926142666023225,4.0,Animal_Land_Pattern_Small,-2.0,-2.0,1.0,0.9492515840101988,,,,,,,,
encoding,fixation,22,10684147,10684652,10684281.0,10684610.0,330.0,330.0,1621.7,879.4000000000001,1591.0,1269.0,Animal_Land_Pattern_Small,38.92629316600505,39.43195054098032,4.0,Object_Sea_Solid_Large,-2.0,,,,,,,,,,,
encoding,image,22,10684652,10685664,10684834.0,10685011.0,178.0,178.0,1977.0,1208.0,1920.0,700.0,Animal_Land_Solid_Small,39.43206820799969,40.443768957979046,4.0,Object_Sea_Solid_Large,-2.0,,,,,,,,,,,
encoding,image,22,10684652,10685664,10685045.0,10685320.0,276.0,276.0,2161.6,1293.6,2249.0,891.0,Object_Sea_Solid_Large,39.43206820799969,40.443768957979046,4.0,Object_Sea_Solid_Large,-2.0,,,,,,,,,,,
encoding,image,22,10684652,10685664,10685328.0,10685889.0,562.0,336.0,2204.6,1305.4,2249.0,891.0,Object_Sea_Solid_Large,39.43206820799969,40.443768957979046,4.0,Object_Sea_Solid_Large,-2.0,,,,,,,,,,,
encoding,value,22,10685664,10691677,10685902.0,10687007.0,1106.0,1106.0,2235.9,1272.7,2249.0,891.0,Object_Sea_Solid_Large,40.443867290974595,46.45613958302419,4.0,Object_Sea_Solid_Large,-2.0,,,,,,,,,,,
encoding,value,22,10685664,10691677,10687252.0,10687511.0,260.0,260.0,2214.3,1330.2,2249.0,891.0,Object_Sea_Solid_Large,40.443867290974595,46.45613958302419,4.0,Object_Sea_Solid_Large,-2.0,,,,,,,,,,,
encoding,value,22,10685664,10691677,10687702.0,10688464.0,763.0,763.0,2226.6,1323.1,2249.0,891.0,Object_Sea_Solid_Large,40.443867290974595,46.45613958302419,4.0,Object_Sea_Solid_Large,-2.0,,,,,,,,,,,
encoding,value,22,10685664,10691677,10688475.0,10688944.0,470.0,470.0,2251.2,1253.4,2249.0,891.0,Object_Sea_Solid_Large,40.443867290974595,46.45613958302419,4.0,Object_Sea_Solid_Large,-2.0,,,,,,,,,,,
encoding,value,22,10685664,10691677,10688956.0,10690231.0,1276.0,1276.0,2200.2,1296.6,2249.0,891.0,Object_Sea_Solid_Large,40.443867290974595,46.45613958302419,4.0,Object_Sea_Solid_Large,-2.0,,,,,,,,,,,
encoding,value,22,10685664,10691677,10690470.0,10690714.0,245.0,245.0,2191.0,1362.2,2249.0,891.0,Object_Sea_Solid_Large,40.443867290974595,46.45613958302419,4.0,Object_Sea_Solid_Large,-2.0,,,,,,,,,,,
encoding,value,22,10685664,10691677,10690725.0,10690966.0,242.0,242.0,2200.4,1334.1,2249.0,891.0,Object_Sea_Solid_Large,40.443867290974595,46.45613958302419,4.0,Object_Sea_Solid_Large,-2.0,,,,,,,,,,,
encoding,value,22,10685664,10691677,10690991.0,10691476.0,486.0,486.0,1940.4,1293.3,1920.0,700.0,Animal_Land_Solid_Small,40.443867290974595,46.45613958302419,4.0,Object_Sea_Solid_Large,-2.0,,,,,,,,,,,
encoding,value,22,10685664,10691677,10691511.0,10692145.0,635.0,166.0,2208.6,1214.1,2249.0,891.0,Object_Sea_Solid_Large,40.443867290974595,46.45613958302419,4.0,Object_Sea_Solid_Large,-2.0,,,,,,,,,,,
encoding,attention,22,10691677,10694694,10692156.0,10692691.0,536.0,536.0,2277.7,1247.4,2249.0,891.0,Object_Sea_Solid_Large,46.456244291039184,49.473902832949534,4.0,Object_Sea_Solid_Large,-2.0,-2.0,1.0,1.8125261249952016,,,,,,,,
encoding,attention,22,10691677,10694694,10692704.0,10692906.0,203.0,203.0,2210.7,1288.9,2249.0,891.0,Object_Sea_Solid_Large,46.456244291039184,49.473902832949534,4.0,Object_Sea_Solid_Large,-2.0,-2.0,1.0,1.8125261249952016,,,,,,,,
encoding,attention,22,10691677,10694694,10693095.0,10693338.0,244.0,244.0,2225.3,1375.0,2249.0,891.0,Object_Sea_Solid_Large,46.456244291039184,49.473902832949534,4.0,Object_Sea_Solid_Large,-2.0,-2.0,1.0,1.8125261249952016,,,,,,,,
encoding,attention,22,10691677,10694694,10693347.0,10693768.0,422.0,422.0,2275.0,1314.0,2249.0,891.0,Object_Sea_Solid_Large,46.456244291039184,49.473902832949534,4.0,Object_Sea_Solid_Large,-2.0,-2.0,1.0,1.8125261249952016,,,,,,,,
encoding,attention,22,10691677,10694694,10694013.0,10694654.0,642.0,642.0,2216.1,1306.1,2249.0,891.0,Object_Sea_Solid_Large,46.456244291039184,49.473902832949534,4.0,Object_Sea_Solid_Large,-2.0,-2.0,1.0,1.8125261249952016,,,,,,,,
encoding,fixation,23,10694694,10695700,10695372.0,10695483.0,112.0,112.0,1722.4,1074.4,1591.0,1269.0,Animal_Land_Pattern_Small,49.47405108297244,50.479591125040315,4.0,Object_Sea_Pattern_Large,-8.0,,,,,,,,,,,
encoding,fixation,23,10694694,10695700,10695490.0,10695689.0,200.0,200.0,1724.9,998.5,1591.0,1269.0,Animal_Land_Pattern_Small,49.47405108297244,50.479591125040315,4.0,Object_Sea_Pattern_Large,-8.0,,,,,,,,,,,
encoding,image,23,10695700,10696711,10695715.0,10696167.0,453.0,453.0,1955.9,1117.5,1920.0,1080.0,fixation,50.4796915409388,51.490848124958575,4.0,Object_Sea_Pattern_Large,-8.0,,,,,,,,,,,
encoding,image,23,10695700,10696711,10696211.0,10697005.0,795.0,500.0,1862.3,647.2,1920.0,1460.0,Object_Sea_Pattern_Large,50.4796915409388,51.490848124958575,4.0,Object_Sea_Pattern_Large,-8.0,,,,,,,,,,,
encoding,value,23,10696712,10702724,10697012.0,10697471.0,460.0,460.0,1824.7,535.8,1920.0,1460.0,Object_Sea_Pattern_Large,51.49095695803408,57.503168541006744,4.0,Object_Sea_Pattern_Large,-8.0,,,,,,,,,,,
encoding,value,23,10696712,10702724,10697486.0,10697697.0,212.0,212.0,1859.9,642.0,1920.0,1460.0,Object_Sea_Pattern_Large,51.49095695803408,57.503168541006744,4.0,Object_Sea_Pattern_Large,-8.0,,,,,,,,,,,
encoding,value,23,10696712,10702724,10697914.0,10698076.0,163.0,163.0,2047.0,1017.7,2249.0,1269.0,Animal_Land_Pattern_Large,51.49095695803408,57.503168541006744,4.0,Object_Sea_Pattern_Large,-8.0,,,,,,,,,,,
encoding,value,23,10696712,10702724,10698112.0,10698446.0,335.0,335.0,1873.3,653.4000000000001,1920.0,1460.0,Object_Sea_Pattern_Large,51.49095695803408,57.503168541006744,4.0,Object_Sea_Pattern_Large,-8.0,,,,,,,,,,,
encoding,value,23,10696712,10702724,10698460.0,10699124.0,665.0,665.0,1841.5,581.3,1920.0,1460.0,Object_Sea_Pattern_Large,51.49095695803408,57.503168541006744,4.0,Object_Sea_Pattern_Large,-8.0,,,,,,,,,,,
encoding,value,23,10696712,10702724,10699137.0,10699877.0,741.0,741.0,1871.7,650.0999999999999,1920.0,1460.0,Object_Sea_Pattern_Large,51.49095695803408,57.503168541006744,4.0,Object_Sea_Pattern_Large,-8.0,,,,,,,,,,,
encoding,value,23,10696712,10702724,10700132.0,10700293.0,162.0,162.0,1899.9,787.2,1920.0,1460.0,Object_Sea_Pattern_Large,51.49095695803408,57.503168541006744,4.0,Object_Sea_Pattern_Large,-8.0,,,,,,,,,,,
encoding,value,23,10696712,10702724,10700309.0,10700678.0,370.0,370.0,1850.8,609.5999999999999,1920.0,1460.0,Object_Sea_Pattern_Large,51.49095695803408,57.503168541006744,4.0,Object_Sea_Pattern_Large,-8.0,,,,,,,,,,,
encoding,value,23,10696712,10702724,10700694.0,10702055.0,1362.0,1362.0,1850.3,634.5999999999999,1920.0,1460.0,Object_Sea_Pattern_Large,51.49095695803408,57.503168541006744,4.0,Object_Sea_Pattern_Large,-8.0,,,,,,,,,,,
encoding,value,23,10696712,10702724,10702065.0,10702615.0,551.0,551.0,1833.4,568.7,1920.0,1460.0,Object_Sea_Pattern_Large,51.49095695803408,57.503168541006744,4.0,Object_Sea_Pattern_Large,-8.0,,,,,,,,,,,
encoding,attention,23,10702724,10705744,10702868.0,10702913.0,46.0,46.0,1911.6,774.9000000000001,1920.0,1460.0,Object_Sea_Pattern_Large,57.50328616600018,60.52329904097133,4.0,Object_Sea_Pattern_Large,-8.0,-8.0,1.0,1.0088803339749577,,,,,,,,
encoding,attention,23,10702724,10705744,10702920.0,10703028.0,109.0,109.0,1907.5,740.0999999999999,1920.0,1460.0,Object_Sea_Pattern_Large,57.50328616600018,60.52329904097133,4.0,Object_Sea_Pattern_Large,-8.0,-8.0,1.0,1.0088803339749577,,,,,,,,
encoding,attention,23,10702724,10705744,10703062.0,10704332.0,1271.0,1271.0,1788.2,569.9000000000001,1920.0,1460.0,Object_Sea_Pattern_Large,57.50328616600018,60.52329904097133,4.0,Object_Sea_Pattern_Large,-8.0,-8.0,1.0,1.0088803339749577,,,,,,,,
encoding,attention,23,10702724,10705744,10704341.0,10704831.0,491.0,491.0,1872.3,555.8,1920.0,1460.0,Object_Sea_Pattern_Large,57.50328616600018,60.52329904097133,4.0,Object_Sea_Pattern_Large,-8.0,-8.0,1.0,1.0088803339749577,,,,,,,,
encoding,attention,23,10702724,10705744,10704847.0,10705250.0,404.0,404.0,1863.3,657.5,1920.0,1460.0,Object_Sea_Pattern_Large,57.50328616600018,60.52329904097133,4.0,Object_Sea_Pattern_Large,-8.0,-8.0,1.0,1.0088803339749577,,,,,,,,
encoding,attention,23,10702724,10705744,10705525.0,10705601.0,77.0,77.0,1914.3,798.8,1920.0,1460.0,Object_Sea_Pattern_Large,57.50328616600018,60.52329904097133,4.0,Object_Sea_Pattern_Large,-8.0,-8.0,1.0,1.0088803339749577,,,,,,,,
encoding,fixation,24,10705745,10706500,10705833.0,10706046.0,214.0,214.0,1911.9,1061.7,1920.0,1080.0,fixation,60.52344729099423,61.27926837501582,4.0,Object_Sea_Solid_Small,8.0,,,,,,,,,,,
encoding,fixation,24,10705745,10706500,10706057.0,10706689.0,633.0,443.0,1917.0,1119.0,1920.0,1080.0,fixation,60.52344729099423,61.27926837501582,4.0,Object_Sea_Solid_Small,8.0,,,,,,,,,,,
encoding,image,24,10706501,10707511,10706725.0,10707150.0,426.0,426.0,1599.9,1283.0,1591.0,891.0,Object_Sea_Solid_Small,61.279376541031525,62.28969424997922,4.0,Object_Sea_Solid_Small,8.0,,,,,,,,,,,
encoding,image,24,10706501,10707511,10707456.0,10708436.0,981.0,55.0,1624.9,1267.8,1591.0,891.0,Object_Sea_Solid_Small,61.279376541031525,62.28969424997922,4.0,Object_Sea_Solid_Small,8.0,,,,,,,,,,,
encoding,value,24,10707511,10713525,10708463.0,10709015.0,553.0,553.0,1967.6,1385.2,1920.0,700.0,Animal_Land_Solid_Small,62.28979116596747,68.30337716604117,4.0,Object_Sea_Solid_Small,8.0,,,,,,,,,,,
encoding,value,24,10707511,10713525,10709054.0,10709225.0,172.0,172.0,1635.1,1242.2,1591.0,891.0,Object_Sea_Solid_Small,62.28979116596747,68.30337716604117,4.0,Object_Sea_Solid_Small,8.0,,,,,,,,,,,
encoding,value,24,10707511,10713525,10709233.0,10709956.0,724.0,724.0,1590.9,1228.0,1591.0,891.0,Object_Sea_Solid_Small,62.28979116596747,68.30337716604117,4.0,Object_Sea_Solid_Small,8.0,,,,,,,,,,,
encoding,value,24,10707511,10713525,10709971.0,10710204.0,234.0,234.0,1590.8,1272.4,1591.0,891.0,Object_Sea_Solid_Small,62.28979116596747,68.30337716604117,4.0,Object_Sea_Solid_Small,8.0,,,,,,,,,,,
encoding,value,24,10707511,10713525,10710584.0,10710645.0,62.0,62.0,1587.2,1163.1,1591.0,891.0,Object_Sea_Solid_Small,62.28979116596747,68.30337716604117,4.0,Object_Sea_Solid_Small,8.0,,,,,,,,,,,
encoding,value,24,10707511,10713525,10710660.0,10711778.0,1119.0,1119.0,1604.0,1227.1,1591.0,891.0,Object_Sea_Solid_Small,62.28979116596747,68.30337716604117,4.0,Object_Sea_Solid_Small,8.0,,,,,,,,,,,
encoding,value,24,10707511,10713525,10712521.0,10712757.0,237.0,237.0,1618.8,1161.1,1591.0,891.0,Object_Sea_Solid_Small,62.28979116596747,68.30337716604117,4.0,Object_Sea_Solid_Small,8.0,,,,,,,,,,,
encoding,value,24,10707511,10713525,10712780.0,10713035.0,256.0,256.0,1830.6,1171.2,1591.0,891.0,Object_Sea_Solid_Small,62.28979116596747,68.30337716604117,4.0,Object_Sea_Solid_Small,8.0,,,,,,,,,,,
encoding,value,24,10707511,10713525,10713046.0,10713067.0,22.0,22.0,1825.4,1214.2,1591.0,891.0,Object_Sea_Solid_Small,62.28979116596747,68.30337716604117,4.0,Object_Sea_Solid_Small,8.0,,,,,,,,,,,
encoding,value,24,10707511,10713525,10713319.0,10713765.0,447.0,206.0,1709.5,1155.3,1591.0,891.0,Object_Sea_Solid_Small,62.28979116596747,68.30337716604117,4.0,Object_Sea_Solid_Small,8.0,,,,,,,,,,,
encoding,attention,24,10713525,10716541,10713784.0,10714793.0,1010.0,1010.0,1652.8,1195.2,1591.0,891.0,Object_Sea_Solid_Small,68.30349466600455,71.31934741593432,4.0,Object_Sea_Solid_Small,8.0,8.0,1.0,0.8535554159898311,,,,,,,,
encoding,attention,24,10713525,10716541,10715068.0,10715448.0,381.0,381.0,1647.7,1317.9,1591.0,891.0,Object_Sea_Solid_Small,68.30349466600455,71.31934741593432,4.0,Object_Sea_Solid_Small,8.0,8.0,1.0,0.8535554159898311,,,,,,,,
encoding,attention,24,10713525,10716541,10715484.0,10715993.0,510.0,510.0,1931.9,1156.4,1920.0,700.0,Animal_Land_Solid_Small,68.30349466600455,71.31934741593432,4.0,Object_Sea_Solid_Small,8.0,8.0,1.0,0.8535554159898311,,,,,,,,
encoding,fixation,25,10985841,10986597,10985895.0,10986068.0,174.0,174.0,2005.5,821.5999999999999,1920.0,1460.0,Animal_Sea_Pattern_Large,8.018366707954556,8.77397220802959,5.0,Object_Land_Solid_Large,-8.0,,,,,,,,,,,
encoding,fixation,25,10985841,10986597,10986094.0,10986270.0,177.0,177.0,1923.4,1040.1,1920.0,1080.0,fixation,8.018366707954556,8.77397220802959,5.0,Object_Land_Solid_Large,-8.0,,,,,,,,,,,
encoding,fixation,25,10985841,10986597,10986506.0,10986728.0,223.0,91.0,1946.6,1214.0,1920.0,700.0,Animal_Sea_Pattern_Small,8.018366707954556,8.77397220802959,5.0,Object_Land_Solid_Large,-8.0,,,,,,,,,,,
encoding,image,25,10986597,10987608,10986739.0,10986800.0,62.0,62.0,1944.9,1129.5,1920.0,1080.0,fixation,8.774089999962598,9.785064290976152,5.0,Object_Land_Solid_Large,-8.0,,,,,,,,,,,
encoding,image,25,10986597,10987608,10986839.0,10987478.0,640.0,640.0,2196.0,1268.3,2249.0,891.0,Object_Land_Solid_Large,8.774089999962598,9.785064290976152,5.0,Object_Land_Solid_Large,-8.0,,,,,,,,,,,
encoding,image,25,10986597,10987608,10987486.0,10987967.0,482.0,122.0,2215.5,1304.8,2249.0,891.0,Object_Land_Solid_Large,8.774089999962598,9.785064290976152,5.0,Object_Land_Solid_Large,-8.0,,,,,,,,,,,
encoding,value,25,10987608,10993621,10987986.0,10988844.0,859.0,859.0,2249.3,1230.7,2249.0,891.0,Object_Land_Solid_Large,9.785174750024453,15.79767916596029,5.0,Object_Land_Solid_Large,-8.0,,,,,,,,,,,
encoding,value,25,10987608,10993621,10989123.0,10989156.0,34.0,34.0,1989.1,12.900000000000091,,,none,9.785174750024453,15.79767916596029,5.0,Object_Land_Solid_Large,-8.0,,,,,,,,,,,
encoding,value,25,10987608,10993621,10989381.0,10990401.0,1021.0,1021.0,2256.3,1267.7,2249.0,891.0,Object_Land_Solid_Large,9.785174750024453,15.79767916596029,5.0,Object_Land_Solid_Large,-8.0,,,,,,,,,,,
encoding,value,25,10987608,10993621,10990458.0,10990489.0,32.0,32.0,2902.7,1532.8,,,none,9.785174750024453,15.79767916596029,5.0,Object_Land_Solid_Large,-8.0,,,,,,,,,,,
encoding,value,25,10987608,10993621,10990738.0,10990912.0,175.0,175.0,2341.1,1437.4,2249.0,891.0,Object_Land_Solid_Large,9.785174750024453,15.79767916596029,5.0,Object_Land_Solid_Large,-8.0,,,,,,,,,,,
encoding,value,25,10987608,10993621,10990938.0,10991158.0,221.0,221.0,2243.6,1213.3,2249.0,891.0,Object_Land_Solid_Large,9.785174750024453,15.79767916596029,5.0,Object_Land_Solid_Large,-8.0,,,,,,,,,,,
encoding,value,25,10987608,10993621,10991186.0,10992899.0,1714.0,1714.0,2229.2,1335.2,2249.0,891.0,Object_Land_Solid_Large,9.785174750024453,15.79767916596029,5.0,Object_Land_Solid_Large,-8.0,,,,,,,,,,,
encoding,value,25,10987608,10993621,10992907.0,10993024.0,118.0,118.0,2171.6,1335.9,2249.0,891.0,Object_Land_Solid_Large,9.785174750024453,15.79767916596029,5.0,Object_Land_Solid_Large,-8.0,,,,,,,,,,,
encoding,value,25,10987608,10993621,10993295.0,10993903.0,609.0,326.0,1985.5,1270.4,1920.0,700.0,Animal_Sea_Pattern_Small,9.785174750024453,15.79767916596029,5.0,Object_Land_Solid_Large,-8.0,,,,,,,,,,,
