subject,phase,event,trial_number,game,option,choice,rt,roi_content,item_index,is_center,is_relevant,fix_start,fix_end,fix_duration_bounded
139,choice,choice,1,1.0,Land,2.0,16.40457420796156,Animal_Land_Pattern_Small,0,0,1,9218538.0,9218575.0,37.0
139,choice,choice,1,1.0,Land,2.0,16.40457420796156,Object_Sea_Solid_Small,1,0,0,9218588.0,9219393.0,805.0
139,choice,choice,1,1.0,Land,2.0,16.40457420796156,fixation,-1,1,0,9219425.0,9219478.0,53.0
139,choice,choice,1,1.0,Land,2.0,16.40457420796156,Animal_Land_Solid_Small,2,0,1,9219501.0,9219551.0,50.0
139,choice,choice,1,1.0,Land,2.0,16.40457420796156,Object_Sea_Solid_Large,3,0,0,9220042.0,9220500.0,458.0
139,choice,choice,1,1.0,Land,2.0,16.40457420796156,Object_Sea_Pattern_Large,4,0,0,9220861.0,9221498.0,637.0
139,choice,choice,1,1.0,Land,2.0,16.40457420796156,Animal_Land_Pattern_Small,0,0,1,9221555.0,9221681.0,126.0
139,choice,choice,1,1.0,Land,2.0,16.40457420796156,fixation,-1,1,0,9221737.0,9221807.0,70.0
139,choice,choice,1,1.0,Land,2.0,16.40457420796156,Animal_Land_Solid_Small,2,0,1,9222101.0,9222682.0,581.0
139,choice,choice,1,1.0,Land,2.0,16.40457420796156,Object_Sea_Solid_Large,3,0,0,9222712.0,9222975.0,263.0
139,choice,choice,1,1.0,Land,2.0,16.40457420796156,fixation,-1,1,0,9222999.0,9223455.0,456.0
139,choice,choice,1,1.0,Land,2.0,16.40457420796156,Object_Sea_Solid_Small,1,0,0,9224693.0,9225002.0,309.0
139,choice,choice,1,1.0,Land,2.0,16.40457420796156,Animal_Land_Pattern_Small,0,0,1,9225310.0,9225989.0,679.0
139,choice,choice,1,1.0,Land,2.0,16.40457420796156,Animal_Land_Pattern_Large,5,0,1,9227067.0,9227278.0,211.0
139,choice,choice,1,1.0,Land,2.0,16.40457420796156,fixation,-1,1,0,9227586.0,9227856.0,270.0
139,choice,choice,1,1.0,Land,2.0,16.40457420796156,Object_Sea_Solid_Small,1,0,0,9227878.0,9228189.0,311.0
139,choice,choice,1,1.0,Land,2.0,16.40457420796156,Object_Sea_Solid_Large,3,0,0,9228475.0,9229070.0,595.0
139,choice,choice,1,1.0,Land,2.0,16.40457420796156,Animal_Land_Pattern_Large,5,0,1,9229132.0,9229394.0,262.0
139,choice,choice,1,1.0,Land,2.0,16.40457420796156,Animal_Land_Pattern_Small,0,0,1,9229420.0,9229740.0,320.0
139,choice,choice,1,1.0,Land,2.0,16.40457420796156,Object_Sea_Solid_Large,3,0,0,9230069.0,9230675.0,606.0
139,choice,choice,2,1.0,Animal,2.0,5.663683333899826,Animal_Land_Solid_Small,2,0,1,9233505.0,9234455.0,950.0
139,choice,choice,2,1.0,Animal,2.0,5.663683333899826,Animal_Land_Pattern_Small,0,0,1,9235031.0,9235269.0,238.0
139,choice,choice,2,1.0,Animal,2.0,5.663683333899826,Animal_Land_Pattern_Large,5,0,1,9235550.0,9235922.0,372.0
139,choice,choice,2,1.0,Animal,2.0,5.663683333899826,Animal_Land_Pattern_Small,0,0,1,9235943.0,9235971.0,28.0
139,choice,choice,2,1.0,Animal,2.0,5.663683333899826,Object_Sea_Solid_Small,1,0,0,9236404.0,9236539.0,135.0
139,choice,choice,2,1.0,Animal,2.0,5.663683333899826,fixation,-1,1,0,9236889.0,9237015.0,126.0
139,choice,choice,2,1.0,Animal,2.0,5.663683333899826,Object_Sea_Solid_Small,1,0,0,9237335.0,9237864.0,529.0
139,choice,choice,2,1.0,Animal,2.0,5.663683333899826,Animal_Land_Pattern_Small,0,0,1,9238312.0,9239144.0,832.0
139,choice,choice,3,1.0,Solid,2.0,24.117047999985516,fixation,-1,1,0,9243450.0,9243932.0,482.0
139,choice,choice,3,1.0,Solid,2.0,24.117047999985516,Object_Sea_Solid_Small,1,0,1,9243953.0,9244219.0,266.0
139,choice,choice,3,1.0,Solid,2.0,24.117047999985516,Object_Sea_Solid_Large,3,0,1,9244572.0,9244792.0,220.0
139,choice,choice,3,1.0,Solid,2.0,24.117047999985516,Animal_Land_Solid_Small,2,0,1,9244817.0,9245204.0,387.0
139,choice,choice,3,1.0,Solid,2.0,24.117047999985516,Object_Sea_Solid_Small,1,0,1,9245218.0,9245564.0,346.0
139,choice,choice,3,1.0,Solid,2.0,24.117047999985516,Object_Sea_Solid_Large,3,0,1,9245980.0,9246033.0,53.0
139,choice,choice,3,1.0,Solid,2.0,24.117047999985516,Animal_Land_Pattern_Small,0,0,0,9246534.0,9246590.0,56.0
139,choice,choice,3,1.0,Solid,2.0,24.117047999985516,Object_Sea_Solid_Small,1,0,1,9248142.0,9248284.0,142.0
139,choice,choice,3,1.0,Solid,2.0,24.117047999985516,Animal_Land_Solid_Small,2,0,1,9248315.0,9248628.0,313.0
139,choice,choice,3,1.0,Solid,2.0,24.117047999985516,Object_Sea_Solid_Small,1,0,1,9248656.0,9249372.0,716.0
139,choice,choice,3,1.0,Solid,2.0,24.117047999985516,Animal_Land_Solid_Small,2,0,1,9249425.0,9250173.0,748.0
139,choice,choice,3,1.0,Solid,2.0,24.117047999985516,Object_Sea_Pattern_Large,4,0,0,9251206.0,9251590.0,384.0
139,choice,choice,3,1.0,Solid,2.0,24.117047999985516,Animal_Land_Solid_Small,2,0,1,9251856.0,9252532.0,676.0
139,choice,choice,3,1.0,Solid,2.0,24.117047999985516,Object_Sea_Solid_Large,3,0,1,9252554.0,9253590.0,1036.0
139,choice,choice,3,1.0,Solid,2.0,24.117047999985516,Animal_Land_Solid_Small,2,0,1,9254628.0,9255218.0,590.0
139,choice,choice,3,1.0,Solid,2.0,24.117047999985516,Object_Sea_Solid_Small,1,0,1,9255267.0,9256376.0,1109.0
139,choice,choice,3,1.0,Solid,2.0,24.117047999985516,Animal_Land_Solid_Small,2,0,1,9256695.0,9258389.0,1694.0
139,choice,choice,3,1.0,Solid,2.0,24.117047999985516,fixation,-1,1,0,9259255.0,9259356.0,101.0
139,choice,choice,3,1.0,Solid,2.0,24.117047999985516,Animal_Land_Solid_Small,2,0,1,9259376.0,9261057.0,1681.0
139,choice,choice,3,1.0,Solid,2.0,24.117047999985516,Object_Sea_Solid_Small,1,0,1,9261711.0,9263457.0,1746.0
139,choice,choice,3,1.0,Solid,2.0,24.117047999985516,Animal_Land_Solid_Small,2,0,1,9263585.0,9265358.0,1773.0
139,choice,choice,3,1.0,Solid,2.0,24.117047999985516,fixation,-1,1,0,9266125.0,9266566.0,441.0
139,choice,choice,4,1.0,Sea,1.0,5.398523999960162,Animal_Land_Solid_Small,2,0,0,9269961.0,9270783.0,822.0
139,choice,choice,4,1.0,Sea,1.0,5.398523999960162,Object_Sea_Solid_Large,3,0,1,9271064.0,9271340.0,276.0
139,choice,choice,4,1.0,Sea,1.0,5.398523999960162,Animal_Land_Solid_Small,2,0,0,9271351.0,9271848.0,497.0
139,choice,choice,4,1.0,Sea,1.0,5.398523999960162,Object_Sea_Solid_Large,3,0,1,9272123.0,9272397.0,274.0
139,choice,choice,4,1.0,Sea,1.0,5.398523999960162,Animal_Land_Solid_Small,2,0,0,9272416.0,9273509.0,1093.0
139,choice,choice,4,1.0,Sea,1.0,5.398523999960162,Object_Sea_Solid_Small,1,0,1,9273935.0,9274207.0,272.0
139,choice,choice,4,1.0,Sea,1.0,5.398523999960162,Animal_Land_Solid_Small,2,0,0,9274228.0,9274516.0,288.0
139,choice,choice,5,1.0,Pattern,2.0,8.549671791028231,Object_Sea_Solid_Large,3,0,0,9278000.0,9278154.0,154.0
139,choice,choice,5,1.0,Pattern,2.0,8.549671791028231,Animal_Land_Solid_Small,2,0,0,9278176.0,9278901.0,725.0
139,choice,choice,5,1.0,Pattern,2.0,8.549671791028231,Object_Sea_Solid_Large,3,0,0,9279344.0,9279643.0,299.0
139,choice,choice,5,1.0,Pattern,2.0,8.549671791028231,Animal_Land_Solid_Small,2,0,0,9279658.0,9280917.0,1259.0
139,choice,choice,5,1.0,Pattern,2.0,8.549671791028231,Animal_Land_Pattern_Large,5,0,1,9281605.0,9281699.0,94.0
139,choice,choice,5,1.0,Pattern,2.0,8.549671791028231,Object_Sea_Solid_Large,3,0,0,9281977.0,9282152.0,175.0
139,choice,choice,5,1.0,Pattern,2.0,8.549671791028231,Animal_Land_Solid_Small,2,0,0,9282171.0,9282671.0,500.0
139,choice,choice,5,1.0,Pattern,2.0,8.549671791028231,Object_Sea_Solid_Large,3,0,0,9282701.0,9282880.0,179.0
139,choice,choice,5,1.0,Pattern,2.0,8.549671791028231,Object_Sea_Solid_Small,1,0,0,9283192.0,9283654.0,462.0
139,choice,choice,5,1.0,Pattern,2.0,8.549671791028231,Animal_Land_Solid_Small,2,0,0,9284099.0,9285465.0,1366.0
139,choice,choice,6,1.0,Large,1.0,13.249937833985314,Animal_Land_Solid_Small,2,0,0,9289603.0,9290495.0,892.0
139,choice,choice,6,1.0,Large,1.0,13.249937833985314,Object_Sea_Solid_Small,1,0,0,9290519.0,9290999.0,480.0
139,choice,choice,6,1.0,Large,1.0,13.249937833985314,Animal_Land_Solid_Small,2,0,0,9291032.0,9291344.0,312.0
139,choice,choice,6,1.0,Large,1.0,13.249937833985314,Object_Sea_Solid_Large,3,0,1,9291725.0,9291824.0,99.0
139,choice,choice,6,1.0,Large,1.0,13.249937833985314,Object_Sea_Solid_Small,1,0,0,9292131.0,9292388.0,257.0
139,choice,choice,6,1.0,Large,1.0,13.249937833985314,Animal_Land_Solid_Small,2,0,0,9292804.0,9293289.0,485.0
139,choice,choice,6,1.0,Large,1.0,13.249937833985314,Object_Sea_Solid_Small,1,0,0,9293327.0,9293625.0,298.0
139,choice,choice,6,1.0,Large,1.0,13.249937833985314,Animal_Land_Solid_Small,2,0,0,9293648.0,9293982.0,334.0
139,choice,choice,6,1.0,Large,1.0,13.249937833985314,Object_Sea_Solid_Large,3,0,1,9294362.0,9294825.0,463.0
139,choice,choice,6,1.0,Large,1.0,13.249937833985314,Animal_Land_Solid_Small,2,0,0,9294842.0,9295110.0,268.0
139,choice,choice,6,1.0,Large,1.0,13.249937833985314,Object_Sea_Solid_Small,1,0,0,9295131.0,9295416.0,285.0
139,choice,choice,6,1.0,Large,1.0,13.249937833985314,fixation,-1,1,0,9295791.0,9296409.0,618.0
139,choice,choice,6,1.0,Large,1.0,13.249937833985314,Object_Sea_Solid_Large,3,0,1,9296677.0,9296931.0,254.0
139,choice,choice,6,1.0,Large,1.0,13.249937833985314,Animal_Land_Solid_Small,2,0,0,9296946.0,9297420.0,474.0
139,choice,choice,6,1.0,Large,1.0,13.249937833985314,Object_Sea_Solid_Large,3,0,1,9297439.0,9298327.0,888.0
139,choice,choice,6,1.0,Large,1.0,13.249937833985314,Animal_Land_Solid_Small,2,0,0,9298748.0,9299188.0,440.0
139,choice,choice,6,1.0,Large,1.0,13.249937833985314,Object_Sea_Solid_Large,3,0,1,9299211.0,9299241.0,30.0
139,choice,choice,6,1.0,Large,1.0,13.249937833985314,fixation,-1,1,0,9299540.0,9299858.0,318.0
139,choice,choice,6,1.0,Large,1.0,13.249937833985314,Animal_Land_Solid_Small,2,0,0,9300327.0,9300642.0,315.0
139,choice,choice,6,1.0,Large,1.0,13.249937833985314,Object_Sea_Solid_Large,3,0,1,9301045.0,9301398.0,353.0
139,choice,choice,6,1.0,Large,1.0,13.249937833985314,Object_Sea_Solid_Small,1,0,0,9301700.0,9301997.0,297.0
139,choice,choice,6,1.0,Large,1.0,13.249937833985314,Animal_Land_Solid_Small,2,0,0,9302031.0,9302649.0,618.0
139,choice,choice,7,1.0,Object,1.0,14.992575249983927,Object_Sea_Solid_Large,3,0,1,9306535.0,9306748.0,213.0
139,choice,choice,7,1.0,Object,1.0,14.992575249983927,Animal_Land_Solid_Small,2,0,0,9306763.0,9307246.0,483.0
139,choice,choice,7,1.0,Object,1.0,14.992575249983927,Object_Sea_Solid_Small,1,0,1,9307269.0,9307946.0,677.0
139,choice,choice,7,1.0,Object,1.0,14.992575249983927,Animal_Land_Solid_Small,2,0,0,9308778.0,9310053.0,1275.0
139,choice,choice,7,1.0,Object,1.0,14.992575249983927,Object_Sea_Solid_Small,1,0,1,9310507.0,9310959.0,452.0
139,choice,choice,7,1.0,Object,1.0,14.992575249983927,Animal_Land_Solid_Small,2,0,0,9311291.0,9311643.0,352.0
139,choice,choice,7,1.0,Object,1.0,14.992575249983927,Object_Sea_Solid_Small,1,0,1,9311997.0,9312430.0,433.0
139,choice,choice,7,1.0,Object,1.0,14.992575249983927,Animal_Land_Solid_Small,2,0,0,9312464.0,9312889.0,425.0
139,choice,choice,7,1.0,Object,1.0,14.992575249983927,Object_Sea_Solid_Small,1,0,1,9312905.0,9313300.0,395.0
139,choice,choice,7,1.0,Object,1.0,14.992575249983927,Object_Sea_Solid_Large,3,0,1,9313716.0,9314070.0,354.0
139,choice,choice,7,1.0,Object,1.0,14.992575249983927,fixation,-1,1,0,9314106.0,9314344.0,238.0
139,choice,choice,7,1.0,Object,1.0,14.992575249983927,Animal_Land_Solid_Small,2,0,0,9314363.0,9315124.0,761.0
139,choice,choice,7,1.0,Object,1.0,14.992575249983927,Object_Sea_Solid_Large,3,0,1,9315461.0,9315892.0,431.0
139,choice,choice,7,1.0,Object,1.0,14.992575249983927,Animal_Land_Solid_Small,2,0,0,9315929.0,9317159.0,1230.0
139,choice,choice,7,1.0,Object,1.0,14.992575249983927,Object_Sea_Pattern_Large,4,0,1,9317520.0,9317635.0,115.0
139,choice,choice,7,1.0,Object,1.0,14.992575249983927,Object_Sea_Solid_Large,3,0,1,9317998.0,9318369.0,371.0
139,choice,choice,7,1.0,Object,1.0,14.992575249983927,Animal_Land_Solid_Small,2,0,0,9318814.0,9320153.0,1339.0
139,choice,choice,8,1.0,Small,1.0,7.255897916969843,Object_Sea_Solid_Large,3,0,0,9324609.0,9324751.0,142.0
139,choice,choice,8,1.0,Small,1.0,7.255897916969843,Animal_Land_Solid_Small,2,0,1,9324782.0,9325147.0,365.0
139,choice,choice,8,1.0,Small,1.0,7.255897916969843,Object_Sea_Solid_Large,3,0,0,9325168.0,9325635.0,467.0
139,choice,choice,8,1.0,Small,1.0,7.255897916969843,Animal_Land_Solid_Small,2,0,1,9325975.0,9326796.0,821.0
139,choice,choice,8,1.0,Small,1.0,7.255897916969843,Object_Sea_Solid_Large,3,0,0,9326826.0,9327433.0,607.0
139,choice,choice,8,1.0,Small,1.0,7.255897916969843,Animal_Land_Solid_Small,2,0,1,9327440.0,9330118.0,2678.0
139,choice,choice,9,2.0,Small,2.0,17.87555108300876,Animal_Sea_Pattern_Small,0,0,1,9814978.0,9816505.0,1527.0
139,choice,choice,9,2.0,Small,2.0,17.87555108300876,Object_Land_Solid_Large,1,0,0,9816799.0,9817229.0,430.0
139,choice,choice,9,2.0,Small,2.0,17.87555108300876,Animal_Sea_Pattern_Small,0,0,1,9817478.0,9818349.0,871.0
139,choice,choice,9,2.0,Small,2.0,17.87555108300876,Object_Land_Solid_Large,1,0,0,9818640.0,9818819.0,179.0
139,choice,choice,9,2.0,Small,2.0,17.87555108300876,Animal_Sea_Pattern_Small,0,0,1,9818845.0,9819321.0,476.0
139,choice,choice,9,2.0,Small,2.0,17.87555108300876,Object_Land_Solid_Large,1,0,0,9819357.0,9819632.0,275.0
139,choice,choice,9,2.0,Small,2.0,17.87555108300876,Animal_Sea_Pattern_Small,0,0,1,9819881.0,9820741.0,860.0
139,choice,choice,9,2.0,Small,2.0,17.87555108300876,Object_Land_Solid_Large,1,0,0,9821418.0,9821861.0,443.0
139,choice,choice,9,2.0,Small,2.0,17.87555108300876,Animal_Sea_Pattern_Small,0,0,1,9822339.0,9822643.0,304.0
139,choice,choice,9,2.0,Small,2.0,17.87555108300876,Object_Land_Solid_Large,1,0,0,9822680.0,9823008.0,328.0
139,choice,choice,9,2.0,Small,2.0,17.87555108300876,Animal_Sea_Pattern_Small,0,0,1,9823290.0,9824263.0,973.0
139,choice,choice,9,2.0,Small,2.0,17.87555108300876,Animal_Land_Solid_Large,2,0,0,9824316.0,9824540.0,224.0
139,choice,choice,9,2.0,Small,2.0,17.87555108300876,Animal_Sea_Pattern_Small,0,0,1,9824804.0,9825257.0,453.0
139,choice,choice,9,2.0,Small,2.0,17.87555108300876,Object_Land_Solid_Large,1,0,0,9825280.0,9826578.0,1298.0
139,choice,choice,9,2.0,Small,2.0,17.87555108300876,Animal_Sea_Pattern_Small,0,0,1,9826884.0,9827252.0,368.0
139,choice,choice,9,2.0,Small,2.0,17.87555108300876,Object_Land_Solid_Large,1,0,0,9827569.0,9827737.0,168.0
139,choice,choice,9,2.0,Small,2.0,17.87555108300876,Animal_Sea_Pattern_Small,0,0,1,9827760.0,9827942.0,182.0
139,choice,choice,9,2.0,Small,2.0,17.87555108300876,Object_Land_Solid_Large,1,0,0,9828283.0,9828504.0,221.0
139,choice,choice,9,2.0,Small,2.0,17.87555108300876,Object_Sea_Pattern_Small,3,0,1,9828536.0,9828949.0,413.0
139,choice,choice,9,2.0,Small,2.0,17.87555108300876,Object_Land_Solid_Large,1,0,0,9828996.0,9831807.0,2811.0
139,choice,choice,10,2.0,Large,2.0,12.495305708027445,Object_Land_Solid_Large,1,0,1,9836513.0,9836869.0,356.0
139,choice,choice,10,2.0,Large,2.0,12.495305708027445,Animal_Sea_Pattern_Small,0,0,0,9836891.0,9837120.0,229.0
139,choice,choice,10,2.0,Large,2.0,12.495305708027445,Animal_Land_Solid_Large,2,0,1,9837146.0,9837798.0,652.0
139,choice,choice,10,2.0,Large,2.0,12.495305708027445,Animal_Sea_Pattern_Small,0,0,0,9837827.0,9839440.0,1613.0
139,choice,choice,10,2.0,Large,2.0,12.495305708027445,Object_Land_Solid_Large,1,0,1,9840250.0,9840605.0,355.0
139,choice,choice,10,2.0,Large,2.0,12.495305708027445,Animal_Sea_Pattern_Small,0,0,0,9840625.0,9841247.0,622.0
139,choice,choice,10,2.0,Large,2.0,12.495305708027445,Animal_Land_Solid_Large,2,0,1,9841616.0,9842001.0,385.0
139,choice,choice,10,2.0,Large,2.0,12.495305708027445,Animal_Sea_Pattern_Small,0,0,0,9842036.0,9842387.0,351.0
139,choice,choice,10,2.0,Large,2.0,12.495305708027445,Object_Land_Solid_Large,1,0,1,9842647.0,9842778.0,131.0
139,choice,choice,10,2.0,Large,2.0,12.495305708027445,Animal_Sea_Pattern_Small,0,0,0,9842801.0,9843469.0,668.0
139,choice,choice,10,2.0,Large,2.0,12.495305708027445,Object_Land_Solid_Large,1,0,1,9843525.0,9843971.0,446.0
139,choice,choice,10,2.0,Large,2.0,12.495305708027445,Animal_Sea_Pattern_Small,0,0,0,9844357.0,9844776.0,419.0
139,choice,choice,10,2.0,Large,2.0,12.495305708027445,Object_Land_Solid_Large,1,0,1,9845134.0,9845482.0,348.0
139,choice,choice,10,2.0,Large,2.0,12.495305708027445,Animal_Sea_Pattern_Small,0,0,0,9845514.0,9846022.0,508.0
139,choice,choice,10,2.0,Large,2.0,12.495305708027445,Object_Land_Solid_Large,1,0,1,9846463.0,9846675.0,212.0
139,choice,choice,10,2.0,Large,2.0,12.495305708027445,Animal_Sea_Pattern_Small,0,0,0,9846956.0,9848085.0,1129.0
139,choice,choice,11,2.0,Solid,1.0,22.494870958966203,Animal_Sea_Pattern_Small,0,0,0,9852035.0,9854141.0,2106.0
139,choice,choice,11,2.0,Solid,1.0,22.494870958966203,Object_Land_Solid_Large,1,0,1,9854896.0,9855656.0,760.0
139,choice,choice,11,2.0,Solid,1.0,22.494870958966203,Animal_Sea_Pattern_Small,0,0,0,9855705.0,9856028.0,323.0
139,choice,choice,11,2.0,Solid,1.0,22.494870958966203,Object_Land_Solid_Large,1,0,1,9856497.0,9856669.0,172.0
139,choice,choice,11,2.0,Solid,1.0,22.494870958966203,Animal_Sea_Pattern_Small,0,0,0,9856686.0,9857080.0,394.0
139,choice,choice,11,2.0,Solid,1.0,22.494870958966203,Animal_Land_Solid_Large,2,0,1,9857115.0,9857503.0,388.0
139,choice,choice,11,2.0,Solid,1.0,22.494870958966203,Object_Land_Solid_Large,1,0,1,9857906.0,9858779.0,873.0
139,choice,choice,11,2.0,Solid,1.0,22.494870958966203,Animal_Sea_Pattern_Small,0,0,0,9859054.0,9859712.0,658.0
139,choice,choice,11,2.0,Solid,1.0,22.494870958966203,Object_Land_Solid_Large,1,0,1,9859736.0,9860065.0,329.0
139,choice,choice,11,2.0,Solid,1.0,22.494870958966203,Animal_Sea_Pattern_Small,0,0,0,9860081.0,9861081.0,1000.0
139,choice,choice,11,2.0,Solid,1.0,22.494870958966203,Animal_Land_Solid_Large,2,0,1,9861452.0,9861827.0,375.0
139,choice,choice,11,2.0,Solid,1.0,22.494870958966203,Animal_Sea_Pattern_Small,0,0,0,9861850.0,9862931.0,1081.0
139,choice,choice,11,2.0,Solid,1.0,22.494870958966203,Object_Sea_Pattern_Small,3,0,0,9863360.0,9863513.0,153.0
139,choice,choice,11,2.0,Solid,1.0,22.494870958966203,Object_Land_Solid_Large,1,0,1,9863846.0,9864195.0,349.0
139,choice,choice,11,2.0,Solid,1.0,22.494870958966203,Animal_Sea_Pattern_Small,0,0,0,9864207.0,9865569.0,1362.0
139,choice,choice,11,2.0,Solid,1.0,22.494870958966203,Object_Land_Solid_Large,1,0,1,9865592.0,9867208.0,1616.0
139,choice,choice,11,2.0,Solid,1.0,22.494870958966203,Animal_Sea_Pattern_Small,0,0,0,9867671.0,9868440.0,769.0
139,choice,choice,11,2.0,Solid,1.0,22.494870958966203,Object_Land_Solid_Large,1,0,1,9868456.0,9872063.0,3607.0
139,choice,choice,11,2.0,Solid,1.0,22.494870958966203,Animal_Sea_Pattern_Small,0,0,0,9872971.0,9873147.0,176.0
139,choice,choice,11,2.0,Solid,1.0,22.494870958966203,Object_Land_Solid_Large,1,0,1,9873395.0,9873630.0,235.0
139,choice,choice,11,2.0,Solid,1.0,22.494870958966203,Animal_Sea_Pattern_Small,0,0,0,9873665.0,9874200.0,535.0
139,choice,choice,12,2.0,Animal,2.0,4.663727542036213,Animal_Sea_Pattern_Small,0,0,1,9877663.0,9878316.0,653.0
139,choice,choice,12,2.0,Animal,2.0,4.663727542036213,Animal_Land_Solid_Large,2,0,1,9878696.0,9878879.0,183.0
139,choice,choice,12,2.0,Animal,2.0,4.663727542036213,Object_Land_Solid_Large,1,0,0,9878982.0,9879199.0,217.0
139,choice,choice,12,2.0,Animal,2.0,4.663727542036213,Animal_Sea_Pattern_Small,0,0,1,9879214.0,9881757.0,2543.0
139,choice,choice,13,2.0,Object,1.0,12.508625208050944,Animal_Sea_Pattern_Small,0,0,0,9885022.0,9885784.0,762.0
139,choice,choice,13,2.0,Object,1.0,12.508625208050944,Object_Land_Solid_Large,1,0,1,9886130.0,9886296.0,166.0
139,choice,choice,13,2.0,Object,1.0,12.508625208050944,Animal_Sea_Pattern_Small,0,0,0,9886317.0,9887512.0,1195.0
139,choice,choice,13,2.0,Object,1.0,12.508625208050944,Object_Land_Solid_Large,1,0,1,9887878.0,9887987.0,109.0
139,choice,choice,13,2.0,Object,1.0,12.508625208050944,Animal_Sea_Pattern_Small,0,0,0,9887997.0,9888794.0,797.0
139,choice,choice,13,2.0,Object,1.0,12.508625208050944,Object_Land_Solid_Large,1,0,1,9888808.0,9889198.0,390.0
139,choice,choice,13,2.0,Object,1.0,12.508625208050944,Animal_Sea_Pattern_Small,0,0,0,9889210.0,9889410.0,200.0
139,choice,choice,13,2.0,Object,1.0,12.508625208050944,Object_Land_Solid_Large,1,0,1,9889794.0,9890598.0,804.0
139,choice,choice,13,2.0,Object,1.0,12.508625208050944,Animal_Sea_Pattern_Small,0,0,0,9891003.0,9894426.0,3423.0
139,choice,choice,13,2.0,Object,1.0,12.508625208050944,Object_Land_Solid_Large,1,0,1,9895399.0,9896166.0,767.0
139,choice,choice,13,2.0,Object,1.0,12.508625208050944,Animal_Sea_Pattern_Small,0,0,0,9896481.0,9897480.0,999.0
139,choice,choice,14,2.0,Land,2.0,4.218381665996276,Animal_Sea_Pattern_Small,0,0,0,9900973.0,9903603.0,2630.0
139,choice,choice,14,2.0,Land,2.0,4.218381665996276,Object_Land_Solid_Large,1,0,1,9903905.0,9904256.0,351.0
139,choice,choice,15,2.0,Sea,1.0,0.767328166984953,Animal_Sea_Pattern_Small,0,0,1,9907475.0,9907578.0,103.0
139,choice,choice,17,3.0,Solid,1.0,12.498270708951168,Object_Land_Pattern_Large,0,0,0,10223781.0,10224592.0,811.0
139,choice,choice,17,3.0,Solid,1.0,12.498270708951168,Animal_Sea_Solid_Small,1,0,1,10224685.0,10224998.0,313.0
139,choice,choice,17,3.0,Solid,1.0,12.498270708951168,Object_Land_Pattern_Large,0,0,0,10225638.0,10227514.0,1876.0
139,choice,choice,17,3.0,Solid,1.0,12.498270708951168,Animal_Sea_Solid_Small,1,0,1,10228242.0,10228421.0,179.0
139,choice,choice,17,3.0,Solid,1.0,12.498270708951168,Object_Land_Pattern_Large,0,0,0,10228437.0,10229726.0,1289.0
139,choice,choice,17,3.0,Solid,1.0,12.498270708951168,Animal_Land_Solid_Large,2,0,1,10230373.0,10230588.0,215.0
139,choice,choice,17,3.0,Solid,1.0,12.498270708951168,Object_Land_Pattern_Large,0,0,0,10230944.0,10231631.0,687.0
139,choice,choice,17,3.0,Solid,1.0,12.498270708951168,Animal_Sea_Solid_Small,1,0,1,10231673.0,10232225.0,552.0
139,choice,choice,17,3.0,Solid,1.0,12.498270708951168,Object_Land_Pattern_Large,0,0,0,10232264.0,10232311.0,47.0
139,choice,choice,17,3.0,Solid,1.0,12.498270708951168,Animal_Sea_Solid_Small,1,0,1,10232321.0,10232528.0,207.0
139,choice,choice,17,3.0,Solid,1.0,12.498270708951168,Object_Land_Pattern_Large,0,0,0,10233121.0,10233503.0,382.0
139,choice,choice,17,3.0,Solid,1.0,12.498270708951168,Animal_Sea_Solid_Small,1,0,1,10233539.0,10233833.0,294.0
139,choice,choice,17,3.0,Solid,1.0,12.498270708951168,fixation,-1,1,0,10233847.0,10234125.0,278.0
139,choice,choice,17,3.0,Solid,1.0,12.498270708951168,Object_Land_Pattern_Large,0,0,0,10234366.0,10235926.0,1560.0
139,choice,choice,18,3.0,Object,1.0,4.3672501250403,Object_Land_Pattern_Large,0,0,1,10239306.0,10241543.0,2237.0
139,choice,choice,18,3.0,Object,1.0,4.3672501250403,Animal_Sea_Solid_Small,1,0,0,10241893.0,10242788.0,895.0
139,choice,choice,18,3.0,Object,1.0,4.3672501250403,fixation,-1,1,0,10242882.0,10243388.0,506.0
139,choice,choice,20,3.0,Large,1.0,16.54979220801033,Object_Land_Pattern_Large,0,0,1,10251194.0,10251309.0,115.0
139,choice,choice,20,3.0,Large,1.0,16.54979220801033,Object_Land_Pattern_Small,3,0,0,10252433.0,10252462.0,29.0
139,choice,choice,20,3.0,Large,1.0,16.54979220801033,Object_Land_Pattern_Large,0,0,1,10252532.0,10254144.0,1612.0
139,choice,choice,20,3.0,Large,1.0,16.54979220801033,Animal_Sea_Solid_Small,1,0,0,10254883.0,10255120.0,237.0
139,choice,choice,20,3.0,Large,1.0,16.54979220801033,Object_Land_Pattern_Large,0,0,1,10255633.0,10256259.0,626.0
139,choice,choice,20,3.0,Large,1.0,16.54979220801033,Animal_Sea_Solid_Small,1,0,0,10256313.0,10257253.0,940.0
139,choice,choice,20,3.0,Large,1.0,16.54979220801033,Object_Land_Pattern_Large,0,0,1,10257572.0,10258404.0,832.0
139,choice,choice,20,3.0,Large,1.0,16.54979220801033,Animal_Sea_Solid_Small,1,0,0,10258645.0,10258971.0,326.0
139,choice,choice,20,3.0,Large,1.0,16.54979220801033,Object_Land_Pattern_Large,0,0,1,10259280.0,10259563.0,283.0
139,choice,choice,20,3.0,Large,1.0,16.54979220801033,Animal_Land_Solid_Large,2,0,1,10259584.0,10259910.0,326.0
139,choice,choice,20,3.0,Large,1.0,16.54979220801033,Object_Land_Pattern_Large,0,0,1,10259940.0,10261181.0,1241.0
139,choice,choice,20,3.0,Large,1.0,16.54979220801033,Animal_Land_Solid_Large,2,0,1,10261675.0,10263718.0,2043.0
139,choice,choice,20,3.0,Large,1.0,16.54979220801033,Object_Sea_Pattern_Small,4,0,0,10264093.0,10264349.0,256.0
139,choice,choice,20,3.0,Large,1.0,16.54979220801033,Animal_Sea_Solid_Small,1,0,0,10264679.0,10264725.0,46.0
139,choice,choice,20,3.0,Large,1.0,16.54979220801033,Object_Land_Pattern_Large,0,0,1,10264751.0,10265204.0,453.0
139,choice,choice,20,3.0,Large,1.0,16.54979220801033,Animal_Land_Solid_Large,2,0,1,10265230.0,10266018.0,788.0
139,choice,choice,20,3.0,Large,1.0,16.54979220801033,Object_Land_Pattern_Large,0,0,1,10266359.0,10266759.0,400.0
139,choice,choice,22,3.0,Sea,1.0,3.835043999948539,Animal_Sea_Solid_Small,1,0,1,10273667.0,10273782.0,115.0
139,choice,choice,22,3.0,Sea,1.0,3.835043999948539,Object_Land_Pattern_Large,0,0,0,10273803.0,10274657.0,854.0
139,choice,choice,22,3.0,Sea,1.0,3.835043999948539,Animal_Sea_Solid_Small,1,0,1,10274991.0,10275147.0,156.0
139,choice,choice,22,3.0,Sea,1.0,3.835043999948539,Object_Land_Pattern_Large,0,0,0,10275165.0,10276589.0,1424.0
139,choice,choice,25,4.0,Land,1.0,7.742663290933706,Object_Sea_Solid_Small,0,0,0,10795602.0,10796376.0,774.0
139,choice,choice,25,4.0,Land,1.0,7.742663290933706,Animal_Land_Solid_Small,1,0,1,10796648.0,10797163.0,515.0
139,choice,choice,25,4.0,Land,1.0,7.742663290933706,Object_Sea_Solid_Small,0,0,0,10797194.0,10797559.0,365.0
139,choice,choice,25,4.0,Land,1.0,7.742663290933706,Object_Sea_Solid_Large,2,0,0,10797595.0,10797663.0,68.0
139,choice,choice,25,4.0,Land,1.0,7.742663290933706,Animal_Land_Solid_Small,1,0,1,10797881.0,10798079.0,198.0
139,choice,choice,25,4.0,Land,1.0,7.742663290933706,fixation,-1,1,0,10798096.0,10798580.0,484.0
139,choice,choice,25,4.0,Land,1.0,7.742663290933706,Animal_Land_Solid_Small,1,0,1,10798587.0,10798690.0,103.0
139,choice,choice,25,4.0,Land,1.0,7.742663290933706,Object_Sea_Solid_Small,0,0,0,10799110.0,10799451.0,341.0
139,choice,choice,25,4.0,Land,1.0,7.742663290933706,Object_Sea_Solid_Large,2,0,0,10799470.0,10800168.0,698.0
139,choice,choice,25,4.0,Land,1.0,7.742663290933706,fixation,-1,1,0,10800179.0,10800724.0,545.0
139,choice,choice,25,4.0,Land,1.0,7.742663290933706,Animal_Land_Pattern_Small,3,0,1,10800992.0,10801030.0,38.0
139,choice,choice,25,4.0,Land,1.0,7.742663290933706,Animal_Land_Solid_Small,1,0,1,10801063.0,10802374.0,1311.0
139,choice,choice,27,4.0,Pattern,1.0,7.735466583049856,Animal_Land_Solid_Small,1,0,0,10809111.0,10809473.0,362.0
139,choice,choice,27,4.0,Pattern,1.0,7.735466583049856,Object_Sea_Solid_Small,0,0,0,10809484.0,10809749.0,265.0
139,choice,choice,27,4.0,Pattern,1.0,7.735466583049856,Animal_Land_Solid_Small,1,0,0,10809785.0,10810559.0,774.0
139,choice,choice,27,4.0,Pattern,1.0,7.735466583049856,Object_Sea_Solid_Small,0,0,0,10810901.0,10811473.0,572.0
139,choice,choice,27,4.0,Pattern,1.0,7.735466583049856,fixation,-1,1,0,10811487.0,10811784.0,297.0
139,choice,choice,27,4.0,Pattern,1.0,7.735466583049856,Object_Sea_Solid_Small,0,0,0,10811797.0,10812062.0,265.0
139,choice,choice,27,4.0,Pattern,1.0,7.735466583049856,Animal_Land_Solid_Small,1,0,0,10812376.0,10812667.0,291.0
139,choice,choice,27,4.0,Pattern,1.0,7.735466583049856,Object_Sea_Solid_Small,0,0,0,10812902.0,10812929.0,27.0
139,choice,choice,27,4.0,Pattern,1.0,7.735466583049856,Animal_Land_Solid_Small,1,0,0,10813252.0,10814671.0,1419.0
139,choice,choice,27,4.0,Pattern,1.0,7.735466583049856,Object_Sea_Solid_Large,2,0,0,10815374.0,10815788.0,414.0
139,choice,choice,27,4.0,Pattern,1.0,7.735466583049856,fixation,-1,1,0,10815822.0,10816153.0,331.0
139,choice,choice,27,4.0,Pattern,1.0,7.735466583049856,Animal_Land_Pattern_Small,3,0,1,10816178.0,10816640.0,462.0
139,choice,choice,28,4.0,Object,2.0,1.9226810419932008,Animal_Land_Solid_Small,1,0,0,10820393.0,10821528.0,1135.0
139,choice,choice,28,4.0,Object,2.0,1.9226810419932008,Object_Sea_Solid_Large,2,0,1,10821815.0,10822234.0,419.0
139,choice,choice,29,4.0,Large,2.0,1.474760957993567,Animal_Land_Solid_Small,1,0,0,10825788.0,10826332.0,544.0
139,choice,choice,29,4.0,Large,2.0,1.474760957993567,Object_Sea_Solid_Large,2,0,1,10826353.0,10826628.0,275.0
139,choice,choice,29,4.0,Large,2.0,1.474760957993567,Animal_Land_Solid_Small,1,0,0,10826645.0,10827013.0,368.0
139,choice,choice,32,4.0,Animal,2.0,5.815444124978967,Animal_Land_Solid_Small,1,0,1,10838199.0,10838608.0,409.0
139,choice,choice,32,4.0,Animal,2.0,5.815444124978967,fixation,-1,1,0,10838639.0,10839313.0,674.0
139,choice,choice,32,4.0,Animal,2.0,5.815444124978967,Animal_Land_Pattern_Small,3,0,1,10839809.0,10839948.0,139.0
139,choice,choice,32,4.0,Animal,2.0,5.815444124978967,fixation,-1,1,0,10839994.0,10840804.0,810.0
139,choice,choice,32,4.0,Animal,2.0,5.815444124978967,Animal_Land_Solid_Small,1,0,1,10840821.0,10841564.0,743.0
139,choice,choice,32,4.0,Animal,2.0,5.815444124978967,Object_Sea_Pattern_Large,4,0,0,10841860.0,10842085.0,225.0
139,choice,choice,32,4.0,Animal,2.0,5.815444124978967,Animal_Land_Solid_Small,1,0,1,10842616.0,10842866.0,250.0
139,choice,choice,33,5.0,Animal,1.0,7.9201919590123,Animal_Sea_Pattern_Small,0,0,1,11121892.0,11122596.0,704.0
139,choice,choice,33,5.0,Animal,1.0,7.9201919590123,Animal_Land_Solid_Large,1,0,1,11122929.0,11123385.0,456.0
139,choice,choice,33,5.0,Animal,1.0,7.9201919590123,Animal_Sea_Pattern_Small,0,0,1,11123405.0,11123678.0,273.0
139,choice,choice,33,5.0,Animal,1.0,7.9201919590123,Object_Land_Solid_Large,2,0,0,11123903.0,11124056.0,153.0
139,choice,choice,33,5.0,Animal,1.0,7.9201919590123,Animal_Sea_Pattern_Small,0,0,1,11124082.0,11124617.0,535.0
139,choice,choice,33,5.0,Animal,1.0,7.9201919590123,Object_Land_Solid_Large,2,0,0,11124885.0,11125471.0,586.0
139,choice,choice,33,5.0,Animal,1.0,7.9201919590123,Animal_Sea_Pattern_Small,0,0,1,11125576.0,11125862.0,286.0
139,choice,choice,33,5.0,Animal,1.0,7.9201919590123,Object_Land_Solid_Large,2,0,0,11126101.0,11126472.0,371.0
139,choice,choice,33,5.0,Animal,1.0,7.9201919590123,Animal_Sea_Pattern_Small,0,0,1,11126509.0,11126719.0,210.0
139,choice,choice,33,5.0,Animal,1.0,7.9201919590123,Animal_Land_Solid_Large,1,0,1,11126755.0,11127148.0,393.0
139,choice,choice,33,5.0,Animal,1.0,7.9201919590123,Object_Sea_Pattern_Small,3,0,0,11127566.0,11127590.0,24.0
139,choice,choice,33,5.0,Animal,1.0,7.9201919590123,Animal_Land_Solid_Large,1,0,1,11127596.0,11127932.0,336.0
139,choice,choice,33,5.0,Animal,1.0,7.9201919590123,Object_Sea_Pattern_Small,3,0,0,11127994.0,11128377.0,383.0
139,choice,choice,33,5.0,Animal,1.0,7.9201919590123,fixation,-1,1,0,11128396.0,11128838.0,442.0
139,choice,choice,33,5.0,Animal,1.0,7.9201919590123,Animal_Sea_Pattern_Small,0,0,1,11128860.0,11129374.0,514.0
139,choice,choice,34,5.0,Solid,1.0,9.66560795903206,Object_Land_Solid_Large,2,0,1,11133081.0,11133352.0,271.0
139,choice,choice,34,5.0,Solid,1.0,9.66560795903206,Animal_Sea_Pattern_Small,0,0,0,11133389.0,11134068.0,679.0
139,choice,choice,34,5.0,Solid,1.0,9.66560795903206,Object_Land_Solid_Large,2,0,1,11134138.0,11134704.0,566.0
139,choice,choice,34,5.0,Solid,1.0,9.66560795903206,Animal_Sea_Pattern_Small,0,0,0,11135724.0,11136350.0,626.0
139,choice,choice,34,5.0,Solid,1.0,9.66560795903206,Object_Sea_Pattern_Small,3,0,0,11136762.0,11137053.0,291.0
139,choice,choice,34,5.0,Solid,1.0,9.66560795903206,fixation,-1,1,0,11137090.0,11137975.0,885.0
139,choice,choice,34,5.0,Solid,1.0,9.66560795903206,Animal_Sea_Pattern_Small,0,0,0,11138511.0,11139992.0,1481.0
139,choice,choice,34,5.0,Solid,1.0,9.66560795903206,Object_Land_Solid_Large,2,0,1,11140783.0,11141093.0,310.0
139,choice,choice,34,5.0,Solid,1.0,9.66560795903206,Animal_Sea_Pattern_Small,0,0,0,11141114.0,11142405.0,1291.0
139,choice,choice,35,5.0,Sea,2.0,3.170865916996263,Animal_Sea_Pattern_Small,0,0,1,11145521.0,11147057.0,1536.0
139,choice,choice,35,5.0,Sea,2.0,3.170865916996263,Animal_Land_Solid_Large,1,0,0,11147367.0,11147549.0,182.0
139,choice,choice,35,5.0,Sea,2.0,3.170865916996263,Animal_Sea_Pattern_Small,0,0,1,11147823.0,11148318.0,495.0
139,choice,choice,36,5.0,Object,1.0,10.10255062498618,Animal_Sea_Pattern_Small,0,0,0,11153042.0,11153433.0,391.0
139,choice,choice,36,5.0,Object,1.0,10.10255062498618,Object_Land_Solid_Large,2,0,1,11153467.0,11153923.0,456.0
139,choice,choice,36,5.0,Object,1.0,10.10255062498618,Animal_Sea_Pattern_Small,0,0,0,11153975.0,11155811.0,1836.0
139,choice,choice,36,5.0,Object,1.0,10.10255062498618,Object_Land_Solid_Large,2,0,1,11156632.0,11156848.0,216.0
139,choice,choice,36,5.0,Object,1.0,10.10255062498618,Animal_Sea_Pattern_Small,0,0,0,11156864.0,11158680.0,1816.0
139,choice,choice,36,5.0,Object,1.0,10.10255062498618,Animal_Land_Solid_Large,1,0,0,11159059.0,11159404.0,345.0
139,choice,choice,36,5.0,Object,1.0,10.10255062498618,Animal_Sea_Pattern_Small,0,0,0,11159429.0,11160039.0,610.0
139,choice,choice,36,5.0,Object,1.0,10.10255062498618,Object_Land_Solid_Large,2,0,1,11160080.0,11160458.0,378.0
139,choice,choice,36,5.0,Object,1.0,10.10255062498618,Animal_Sea_Pattern_Small,0,0,0,11160491.0,11160975.0,484.0
139,choice,choice,37,5.0,Land,1.0,3.884441874921322,Animal_Sea_Pattern_Small,0,0,0,11164115.0,11164375.0,260.0
139,choice,choice,37,5.0,Land,1.0,3.884441874921322,Object_Land_Solid_Large,2,0,1,11164415.0,11164447.0,32.0
139,choice,choice,37,5.0,Land,1.0,3.884441874921322,Animal_Sea_Pattern_Small,0,0,0,11164459.0,11166255.0,1796.0
139,choice,choice,37,5.0,Land,1.0,3.884441874921322,Object_Land_Solid_Large,2,0,1,11166589.0,11166759.0,170.0
139,choice,choice,37,5.0,Land,1.0,3.884441874921322,Animal_Sea_Pattern_Small,0,0,0,11166777.0,11167879.0,1102.0
139,choice,choice,38,5.0,Small,2.0,1.297528958064504,Animal_Sea_Pattern_Small,0,0,1,11171873.0,11172254.0,381.0
139,choice,choice,39,5.0,Large,1.0,6.261785458074883,Animal_Sea_Pattern_Small,0,0,0,11179273.0,11181297.0,2024.0
139,choice,choice,40,5.0,Pattern,2.0,4.716926499968395,Animal_Sea_Pattern_Small,0,0,1,11185201.0,11185893.0,692.0
139,choice,choice,40,5.0,Pattern,2.0,4.716926499968395,Animal_Land_Solid_Large,1,0,0,11186246.0,11186437.0,191.0
139,choice,choice,40,5.0,Pattern,2.0,4.716926499968395,Animal_Sea_Pattern_Small,0,0,1,11186510.0,11186752.0,242.0
139,choice,choice,40,5.0,Pattern,2.0,4.716926499968395,Animal_Land_Solid_Large,1,0,0,11186798.0,11187059.0,261.0
139,choice,choice,40,5.0,Pattern,2.0,4.716926499968395,Animal_Sea_Pattern_Small,0,0,1,11187101.0,11188371.0,1270.0
139,choice,choice,41,6.0,Small,1.0,25.026503833942115,Object_Land_Pattern_Large,0,0,0,11481517.0,11483172.0,1655.0
139,choice,choice,41,6.0,Small,1.0,25.026503833942115,Animal_Sea_Solid_Small,1,0,1,11483568.0,11483839.0,271.0
139,choice,choice,41,6.0,Small,1.0,25.026503833942115,Object_Land_Pattern_Large,0,0,0,11483874.0,11484219.0,345.0
139,choice,choice,41,6.0,Small,1.0,25.026503833942115,Animal_Sea_Solid_Small,1,0,1,11484438.0,11484749.0,311.0
139,choice,choice,41,6.0,Small,1.0,25.026503833942115,Object_Land_Pattern_Large,0,0,0,11484786.0,11484990.0,204.0
139,choice,choice,41,6.0,Small,1.0,25.026503833942115,Animal_Land_Solid_Large,2,0,0,11485047.0,11485458.0,411.0
139,choice,choice,41,6.0,Small,1.0,25.026503833942115,Object_Land_Pattern_Large,0,0,0,11485832.0,11488133.0,2301.0
139,choice,choice,41,6.0,Small,1.0,25.026503833942115,Animal_Sea_Solid_Small,1,0,1,11489018.0,11489330.0,312.0
139,choice,choice,41,6.0,Small,1.0,25.026503833942115,Object_Land_Pattern_Large,0,0,0,11489582.0,11489947.0,365.0
139,choice,choice,41,6.0,Small,1.0,25.026503833942115,Animal_Land_Solid_Large,2,0,0,11489992.0,11490216.0,224.0
139,choice,choice,41,6.0,Small,1.0,25.026503833942115,Object_Land_Pattern_Large,0,0,0,11490247.0,11490547.0,300.0
139,choice,choice,41,6.0,Small,1.0,25.026503833942115,Animal_Sea_Solid_Small,1,0,1,11490789.0,11491086.0,297.0
139,choice,choice,41,6.0,Small,1.0,25.026503833942115,Object_Land_Pattern_Large,0,0,0,11491124.0,11491388.0,264.0
139,choice,choice,41,6.0,Small,1.0,25.026503833942115,Animal_Sea_Solid_Small,1,0,1,11491420.0,11492421.0,1001.0
139,choice,choice,41,6.0,Small,1.0,25.026503833942115,Object_Land_Pattern_Small,3,0,1,11493112.0,11493539.0,427.0
139,choice,choice,41,6.0,Small,1.0,25.026503833942115,Object_Sea_Pattern_Small,4,0,1,11493582.0,11493609.0,27.0
139,choice,choice,41,6.0,Small,1.0,25.026503833942115,Object_Land_Pattern_Large,0,0,0,11493949.0,11494407.0,458.0
139,choice,choice,41,6.0,Small,1.0,25.026503833942115,Animal_Land_Solid_Large,2,0,0,11494452.0,11494614.0,162.0
139,choice,choice,41,6.0,Small,1.0,25.026503833942115,Object_Land_Pattern_Large,0,0,0,11494852.0,11495156.0,304.0
139,choice,choice,41,6.0,Small,1.0,25.026503833942115,Animal_Land_Solid_Large,2,0,0,11495227.0,11495438.0,211.0
139,choice,choice,41,6.0,Small,1.0,25.026503833942115,Object_Land_Pattern_Large,0,0,0,11497508.0,11498382.0,874.0
139,choice,choice,41,6.0,Small,1.0,25.026503833942115,Animal_Sea_Solid_Small,1,0,1,11498793.0,11499078.0,285.0
139,choice,choice,41,6.0,Small,1.0,25.026503833942115,Animal_Sea_Solid_Large,5,0,0,11499116.0,11499756.0,640.0
139,choice,choice,41,6.0,Small,1.0,25.026503833942115,Object_Land_Pattern_Large,0,0,0,11499832.0,11500645.0,813.0
139,choice,choice,41,6.0,Small,1.0,25.026503833942115,Animal_Land_Solid_Large,2,0,0,11500940.0,11501129.0,189.0
139,choice,choice,41,6.0,Small,1.0,25.026503833942115,Animal_Sea_Solid_Small,1,0,1,11501909.0,11502297.0,388.0
139,choice,choice,41,6.0,Small,1.0,25.026503833942115,Object_Land_Pattern_Large,0,0,0,11502586.0,11503547.0,961.0
139,choice,choice,41,6.0,Small,1.0,25.026503833942115,Animal_Sea_Solid_Small,1,0,1,11503836.0,11504000.0,164.0
139,choice,choice,41,6.0,Small,1.0,25.026503833942115,Object_Land_Pattern_Large,0,0,0,11504018.0,11506273.0,2255.0
139,choice,choice,42,6.0,Object,2.0,7.085417208028957,Object_Land_Pattern_Large,0,0,1,11509026.0,11509745.0,719.0
139,choice,choice,42,6.0,Object,2.0,7.085417208028957,Animal_Land_Solid_Large,2,0,0,11510150.0,11510447.0,297.0
139,choice,choice,42,6.0,Object,2.0,7.085417208028957,Object_Land_Pattern_Large,0,0,1,11510466.0,11511615.0,1149.0
139,choice,choice,42,6.0,Object,2.0,7.085417208028957,Animal_Sea_Solid_Small,1,0,0,11512017.0,11512434.0,417.0
139,choice,choice,42,6.0,Object,2.0,7.085417208028957,Object_Land_Pattern_Large,0,0,1,11512899.0,11513345.0,446.0
139,choice,choice,42,6.0,Object,2.0,7.085417208028957,Animal_Land_Solid_Large,2,0,0,11513368.0,11513611.0,243.0
139,choice,choice,42,6.0,Object,2.0,7.085417208028957,Animal_Sea_Solid_Small,1,0,0,11513945.0,11514116.0,171.0
139,choice,choice,42,6.0,Object,2.0,7.085417208028957,Object_Land_Pattern_Large,0,0,1,11514583.0,11515882.0,1299.0
139,choice,choice,44,6.0,Land,1.0,6.820393625064753,Animal_Land_Solid_Large,2,0,1,11523495.0,11524334.0,839.0
139,choice,choice,44,6.0,Land,1.0,6.820393625064753,Object_Land_Pattern_Large,0,0,1,11525307.0,11525860.0,553.0
139,choice,choice,44,6.0,Land,1.0,6.820393625064753,Animal_Land_Solid_Large,2,0,1,11525884.0,11526309.0,425.0
139,choice,choice,44,6.0,Land,1.0,6.820393625064753,Object_Land_Pattern_Large,0,0,1,11526731.0,11527169.0,438.0
139,choice,choice,44,6.0,Land,1.0,6.820393625064753,Animal_Land_Solid_Large,2,0,1,11527184.0,11527547.0,363.0
139,choice,choice,44,6.0,Land,1.0,6.820393625064753,Object_Land_Pattern_Large,0,0,1,11527793.0,11529262.0,1469.0
139,choice,choice,45,6.0,Large,1.0,5.538371833972633,Object_Land_Pattern_Large,0,0,1,11532923.0,11533431.0,508.0
139,choice,choice,45,6.0,Large,1.0,5.538371833972633,Animal_Land_Solid_Large,2,0,1,11533448.0,11533764.0,316.0
139,choice,choice,45,6.0,Large,1.0,5.538371833972633,Object_Land_Pattern_Large,0,0,1,11533772.0,11534141.0,369.0
139,choice,choice,45,6.0,Large,1.0,5.538371833972633,Animal_Sea_Solid_Small,1,0,0,11534165.0,11534415.0,250.0
139,choice,choice,45,6.0,Large,1.0,5.538371833972633,fixation,-1,1,0,11534439.0,11535145.0,706.0
139,choice,choice,45,6.0,Large,1.0,5.538371833972633,Object_Land_Pattern_Large,0,0,1,11535412.0,11535900.0,488.0
139,choice,choice,45,6.0,Large,1.0,5.538371833972633,Animal_Land_Solid_Large,2,0,1,11535950.0,11536237.0,287.0
139,choice,choice,45,6.0,Large,1.0,5.538371833972633,Object_Land_Pattern_Large,0,0,1,11536291.0,11536543.0,252.0
139,choice,choice,45,6.0,Large,1.0,5.538371833972633,Animal_Sea_Solid_Small,1,0,0,11536869.0,11536943.0,74.0
139,choice,choice,45,6.0,Large,1.0,5.538371833972633,Object_Land_Pattern_Large,0,0,1,11536970.0,11537647.0,677.0
139,choice,choice,46,6.0,Solid,1.0,2.090272832894698,Object_Land_Pattern_Large,0,0,0,11541241.0,11541931.0,690.0
139,choice,choice,46,6.0,Solid,1.0,2.090272832894698,Animal_Sea_Solid_Small,1,0,1,11542417.0,11542698.0,281.0
139,choice,choice,46,6.0,Solid,1.0,2.090272832894698,Object_Land_Pattern_Large,0,0,0,11542739.0,11543040.0,301.0
139,choice,choice,47,6.0,Sea,2.0,1.8115533329546452,Object_Land_Pattern_Large,0,0,0,11547088.0,11548145.0,1057.0
139,choice,choice,48,6.0,Animal,1.0,6.17744037497323,Object_Land_Pattern_Large,0,0,0,11552087.0,11553310.0,1223.0
139,choice,choice,48,6.0,Animal,1.0,6.17744037497323,Animal_Land_Solid_Large,2,0,1,11553745.0,11554094.0,349.0
139,choice,choice,48,6.0,Animal,1.0,6.17744037497323,Animal_Sea_Solid_Small,1,0,1,11554116.0,11554235.0,119.0
139,choice,choice,48,6.0,Animal,1.0,6.17744037497323,Object_Land_Pattern_Large,0,0,0,11554521.0,11554997.0,476.0
139,choice,choice,48,6.0,Animal,1.0,6.17744037497323,Animal_Land_Solid_Large,2,0,1,11555280.0,11555628.0,348.0
139,choice,choice,48,6.0,Animal,1.0,6.17744037497323,fixation,-1,1,0,11555736.0,11556173.0,437.0
139,choice,choice,48,6.0,Animal,1.0,6.17744037497323,Object_Land_Pattern_Large,0,0,0,11556217.0,11557095.0,878.0
139,choice,choice,48,6.0,Animal,1.0,6.17744037497323,Animal_Sea_Solid_Small,1,0,1,11557632.0,11557758.0,126.0
139,choice,choice,49,7.0,Large,2.0,8.983049000031315,Animal_Land_Solid_Small,0,0,0,11809942.0,11810482.0,540.0
139,choice,choice,49,7.0,Large,2.0,8.983049000031315,Object_Sea_Solid_Large,1,0,1,11810520.0,11811598.0,1078.0
139,choice,choice,49,7.0,Large,2.0,8.983049000031315,Animal_Land_Solid_Small,0,0,0,11812027.0,11812251.0,224.0
139,choice,choice,49,7.0,Large,2.0,8.983049000031315,Object_Sea_Solid_Large,1,0,1,11812833.0,11812918.0,85.0
139,choice,choice,49,7.0,Large,2.0,8.983049000031315,Animal_Land_Solid_Small,0,0,0,11813197.0,11813591.0,394.0
139,choice,choice,49,7.0,Large,2.0,8.983049000031315,Object_Sea_Solid_Small,2,0,0,11813810.0,11814171.0,361.0
139,choice,choice,49,7.0,Large,2.0,8.983049000031315,Object_Sea_Solid_Large,1,0,1,11814210.0,11814625.0,415.0
139,choice,choice,49,7.0,Large,2.0,8.983049000031315,Animal_Land_Solid_Small,0,0,0,11814646.0,11814851.0,205.0
139,choice,choice,49,7.0,Large,2.0,8.983049000031315,Object_Sea_Solid_Large,1,0,1,11815955.0,11816006.0,51.0
139,choice,choice,49,7.0,Large,2.0,8.983049000031315,fixation,-1,1,0,11816037.0,11816458.0,421.0
139,choice,choice,49,7.0,Large,2.0,8.983049000031315,Object_Sea_Solid_Large,1,0,1,11816492.0,11817801.0,1309.0
139,choice,choice,49,7.0,Large,2.0,8.983049000031315,Animal_Land_Solid_Small,0,0,0,11818080.0,11818293.0,213.0
139,choice,choice,50,7.0,Solid,2.0,2.2772546251071617,Animal_Land_Solid_Small,0,0,1,11822148.0,11822684.0,536.0
139,choice,choice,50,7.0,Solid,2.0,2.2772546251071617,Object_Sea_Solid_Large,1,0,1,11822715.0,11822905.0,190.0
139,choice,choice,51,7.0,Animal,1.0,3.088992708013393,Animal_Land_Solid_Small,0,0,1,11826176.0,11827630.0,1454.0
139,choice,choice,52,7.0,Small,1.0,2.756942500011064,Animal_Land_Solid_Small,0,0,1,11832138.0,11833075.0,937.0
139,choice,choice,52,7.0,Small,1.0,2.756942500011064,Object_Sea_Solid_Small,2,0,1,11833625.0,11833970.0,345.0
139,choice,choice,52,7.0,Small,1.0,2.756942500011064,Animal_Land_Pattern_Small,3,0,1,11834019.0,11834249.0,230.0
139,choice,choice,52,7.0,Small,1.0,2.756942500011064,Animal_Land_Solid_Small,0,0,1,11834278.0,11834574.0,296.0
139,choice,choice,53,7.0,Land,1.0,2.466326124966145,Animal_Land_Solid_Small,0,0,1,11839329.0,11839537.0,208.0
139,choice,choice,53,7.0,Land,1.0,2.466326124966145,Object_Sea_Solid_Large,1,0,0,11839806.0,11839985.0,179.0
