phase,event,onset,offset,trial_number,game,image,outcome,choice,correct,rt,letter,match,response,option,true_value,true_position,recalled_position,
encoding,fixation,10.889957250095904,11.407916458090767,1,1,Object_Sea_Solid_Large,5,,,,,,,,,,,
encoding,image,11.408041540998966,12.429143249988556,1,1,Object_Sea_Solid_Large,5,,,,,,,,,,,
encoding,value,12.429255333030596,18.446031458093785,1,1,Object_Sea_Solid_Large,5,,,,,,,,,,,
encoding,attention,18.446163750020787,21.46805845806375,1,1,Object_Sea_Solid_Large,5,+5,1,2.134125875076279,,,,,,,,
encoding,fixation,21.46821720805019,22.223700875067152,2,1,Animal_Land_Pattern_Small,9,,,,,,,,,,,
encoding,image,22.223807791015133,23.237297291052528,2,1,Animal_Land_Pattern_Small,9,,,,,,,,,,,
encoding,value,23.23740462504793,29.249645541072823,2,1,Animal_Land_Pattern_Small,9,,,,,,,,,,,
encoding,attention,29.24977433308959,32.26751091598999,2,1,Animal_Land_Pattern_Small,9,+9,1,0.9772193749668077,,,,,,,,
encoding,fixation,32.26767650002148,32.77341379108839,3,1,Animal_Land_Solid_Small,-7,,,,,,,,,,,
encoding,image,32.773515916080214,33.78352758300025,3,1,Animal_Land_Solid_Small,-7,,,,,,,,,,,
encoding,value,33.783633958082646,39.7949066250585,3,1,Animal_Land_Solid_Small,-7,,,,,,,,,,,
encoding,attention,39.79502366599627,42.81223266606685,3,1,Animal_Land_Solid_Small,-7,-7,1,0.692218792042695,,,,,,,,
encoding,fixation,42.812433875049464,43.56766466598492,4,1,Object_Sea_Solid_Small,-1,,,,,,,,,,,
encoding,image,43.56778545805719,44.57773862499744,4,1,Object_Sea_Solid_Small,-1,,,,,,,,,,,
encoding,value,44.57785741600674,50.588865916011855,4,1,Object_Sea_Solid_Small,-1,,,,,,,,,,,
encoding,attention,50.588972833007574,53.605215250048786,4,1,Object_Sea_Solid_Small,-1,-1,1,1.8516966250026599,,,,,,,,
encoding,fixation,53.60535891598556,54.110680625075474,5,1,Object_Sea_Pattern_Large,3,,,,,,,,,,,
encoding,image,54.110779665992595,55.121911458089016,5,1,Object_Sea_Pattern_Large,3,,,,,,,,,,,
encoding,value,55.12208879098762,61.133670083014295,5,1,Object_Sea_Pattern_Large,3,,,,,,,,,,,
encoding,attention,61.13383770803921,64.19760475005023,5,1,Object_Sea_Pattern_Large,3,+3,1,0.6598802499938756,,,,,,,,
encoding,fixation,64.1978300830815,65.2050706250593,6,1,Animal_Land_Pattern_Large,-9,,,,,,,,,,,
encoding,image,65.20518366608303,66.21645437506959,6,1,Animal_Land_Pattern_Large,-9,,,,,,,,,,,
encoding,value,66.21658658306114,72.22816487506498,6,1,Animal_Land_Pattern_Large,-9,,,,,,,,,,,
encoding,attention,72.228334958083,75.24609441601206,6,1,Animal_Land_Pattern_Large,-9,-9,1,1.2785290830070153,,,,,,,,
n-back,,,,1,1,,,,1,None,C,False,None,,,,,
n-back,,,,2,1,,,,1,None,C,False,None,,,,,
n-back,,,,3,1,,,,1,None,Z,False,None,,,,,
n-back,,,,4,1,,,,1,0.9559019580483437,C,True,1,,,,,
n-back,,,,5,1,,,,1,None,C,False,None,,,,,
n-back,,,,6,1,,,,1,None,N,False,None,,,,,
n-back,,,,7,1,,,,1,0.5437035830691457,C,True,1,,,,,
n-back,,,,8,1,,,,1,None,B,False,None,,,,,
n-back,,,,9,1,,,,1,0.5342842910904437,C,True,1,,,,,
n-back,,,,10,1,,,,1,None,N,False,None,,,,,
n-back,,,,11,1,,,,0,None,C,True,None,,,,,
n-back,,,,12,1,,,,1,0.9549237920437008,N,True,1,,,,,
n-back,,,,13,1,,,,1,0.8442493750480935,C,True,1,,,,,
n-back,,,,14,1,,,,1,None,X,False,None,,,,,
n-back,,,,15,1,,,,1,None,N,False,None,,,,,
n-back,,,,16,1,,,,0,None,X,True,None,,,,,
n-back,,,,17,1,,,,1,None,B,False,None,,,,,
n-back,,,,18,1,,,,1,None,B,False,None,,,,,
n-back,,,,19,1,,,,1,None,V,False,None,,,,,
n-back,,,,20,1,,,,1,0.45245250000152737,B,True,1,,,,,
n-back,,,,21,1,,,,1,None,X,False,None,,,,,
n-back,,,,22,1,,,,1,None,Z,False,None,,,,,
n-back,,,,23,1,,,,1,None,B,False,None,,,,,
n-back,,,,24,1,,,,1,None,V,False,None,,,,,
n-back,,,,25,1,,,,1,0.7821648749522865,B,True,1,,,,,
n-back,,,,26,1,,,,0,None,V,True,None,,,,,
n-back,,,,27,1,,,,1,None,V,False,None,,,,,
n-back,,,,28,1,,,,1,None,C,False,None,,,,,
n-back,,,,29,1,,,,1,None,X,False,None,,,,,
n-back,,,,30,1,,,,1,None,Z,False,None,,,,,
choice,fixation,144.1559230410494,144.9111834160285,1,1,,,,,,,,,Land,,,,
choice,option,144.9207864580676,146.16104766598437,1,1,,,,,,,,,Land,,,,
choice,choice,146.16116808308288,163.57773145800456,1,1,,,2,1,16.40457420796156,,,,Land,,,,
choice,fixation,163.57787195802666,164.3329096660018,2,1,,,,,,,,,Animal,,,,
choice,option,164.34268766606692,165.37112129107118,2,1,,,,,,,,,Animal,,,,
choice,choice,165.3712381250225,172.04427633306477,2,1,,,2,1,5.663683333899826,,,,Animal,,,,
choice,fixation,172.0443915000651,173.29949375009164,3,1,,,,,,,,,Solid,,,,
choice,option,173.30913537507877,174.338780833059,3,1,,,,,,,,,Solid,,,,
choice,choice,174.33891166606918,199.46708112501074,3,1,,,2,1,24.117047999985516,,,,Solid,,,,
choice,fixation,199.46721700008493,199.97210133308545,4,1,,,,,,,,,Sea,,,,
choice,option,199.98058808303904,201.0069716660073,4,1,,,,,,,,,Sea,,,,
choice,choice,201.00709179101977,207.4151176250307,4,1,,,1,1,5.398523999960162,,,,Sea,,,,
choice,fixation,207.41523895808496,208.17181775008794,5,1,,,,,,,,,Pattern,,,,
choice,option,208.18099387502298,209.2077403330477,5,1,,,,,,,,,Pattern,,,,
choice,choice,209.20786325004883,218.7686393330805,5,1,,,2,0,8.549671791028231,,,,Pattern,,,,
choice,fixation,218.76878466608468,220.273770291009,6,1,,,,,,,,,Large,,,,
choice,option,220.28260054101702,221.30947429104708,6,1,,,,,,,,,Large,,,,
choice,choice,221.30961425008718,235.57194579101633,6,1,,,1,0,13.249937833985314,,,,Large,,,,
choice,fixation,235.57207166601438,236.3270673750667,7,1,,,,,,,,,Object,,,,
choice,option,236.33700025000144,237.3634708330501,7,1,,,,,,,,,Object,,,,
choice,choice,237.36359212500975,253.36912237503566,7,1,,,1,1,14.992575249983929,,,,Object,,,,
choice,fixation,253.36932308308315,254.87446233304217,8,1,,,,,,,,,Small,,,,
choice,option,254.8835636250442,255.9105785000138,8,1,,,,,,,,,Small,,,,
choice,choice,255.91070204100106,264.176651916001,8,1,,,1,1,7.255897916969843,,,,Small,,,,
memory,free_recall,328.18628591601737,336.48636908305343,0,1,,,,,,,,,,,,,
memory,value_recall,441.1890671250876,449.0035181250423,1,1,Object_Sea_Solid_Large,,,,7.811213708017021,,,,,5,,,
memory,value_recall,450.7996944580227,454.406216665986,2,1,Animal_Land_Pattern_Small,,,,3.602516583050601,,,,,9,,,
memory,value_recall,455.704240375082,467.50805379101075,3,1,Animal_Land_Solid_Small,,,,11.79976333398372,,,,,-7,,,
memory,value_recall,469.30498120805714,476.7302736249985,4,1,Object_Sea_Pattern_Large,,,,7.421374665922485,,,,,3,,,
memory,value_recall,478.77887333300896,494.82651708310004,5,1,Object_Sea_Solid_Small,,,,16.043479292071424,,,,,-1,,,
memory,value_recall,496.3751797910081,503.1308501660824,6,1,Animal_Land_Pattern_Large,,,,6.751577459042892,,,,,-9,,,
memory,spatial_recall,525.4830198750133,529.6983360000886,6,1,Animal_Land_Pattern_Small,,,1,4.211238541058265,,,,,,"[-329, -190]","[-329, -190]",
memory,spatial_recall,531.2531193330651,536.698162375018,6,1,Animal_Land_Solid_Small,,,1,5.440306709031574,,,,,,"[0, 380]","[0, 380]",
memory,spatial_recall,538.5083632910391,542.4417961660074,6,1,Animal_Land_Pattern_Large,,,1,3.929518042015843,,,,,,"[329, -190]","[329, -190]",
memory,spatial_recall,544.0013012500713,548.7985719580902,6,1,Object_Sea_Pattern_Large,,,1,4.79283554200083,,,,,,"[0, -380]","[0, -380]",
memory,spatial_recall,550.8543506250717,554.0231006660033,6,1,Object_Sea_Solid_Small,,,1,3.164922000025399,,,,,,"[-329, 190]","[-329, 190]",
memory,spatial_recall,556.0887832500739,558.6397790410556,6,1,Object_Sea_Solid_Large,,,1,2.5465009580366313,,,,,,"[329, 189]","[329, 189]",
encoding,fixation,9.67981758294627,10.435272292001173,7,2,Animal_Land_Solid_Large,-9,,,,,,,,,,,
encoding,image,10.435389667050913,11.448344249976799,7,2,Animal_Land_Solid_Large,-9,,,,,,,,,,,
encoding,value,11.44845499994699,17.465540000004694,7,2,Animal_Land_Solid_Large,-9,,,,,,,,,,,
encoding,attention,17.465675667044707,20.487044041976333,7,2,Animal_Land_Solid_Large,-9,-9,1,1.427610250073485,,,,,,,,
encoding,fixation,20.487200667033903,21.492379958042875,8,2,Object_Land_Solid_Large,1,,,,,,,,,,,
encoding,image,21.49247983295936,22.50268966704607,8,2,Object_Land_Solid_Large,1,,,,,,,,,,,
encoding,value,22.50280408305116,28.513839249964803,8,2,Object_Land_Solid_Large,1,,,,,,,,,,,
encoding,attention,28.513979249983095,31.530824166955426,8,2,Object_Land_Solid_Large,1,+1,1,0.7420749999582767,,,,,,,,
encoding,fixation,31.53098283300642,32.286643374944106,9,2,Object_Land_Solid_Small,1,,,,,,,,,,,
encoding,image,32.286817542044446,33.29818129201885,9,2,Object_Land_Solid_Small,1,,,,,,,,,,,
encoding,value,33.298280250048265,39.31029329204466,9,2,Object_Land_Solid_Small,1,,,,,,,,,,,
encoding,attention,39.310443333000876,42.32812566694338,9,2,Object_Land_Solid_Small,1,+1,1,1.0637772500049323,,,,,,,,
encoding,fixation,42.328265791991726,43.83320045797154,10,2,Animal_Sea_Pattern_Large,-6,,,,,,,,,,,
encoding,image,43.833335542003624,44.84403212496545,10,2,Animal_Sea_Pattern_Large,-6,,,,,,,,,,,
encoding,value,44.84413687500637,50.85473133297637,10,2,Animal_Sea_Pattern_Large,-6,,,,,,,,,,,
encoding,attention,50.85486695799045,53.87305054196622,10,2,Animal_Sea_Pattern_Large,-6,-6,1,1.5129162080120295,,,,,,,,
encoding,fixation,53.873198417015374,54.87827379198279,11,2,Animal_Sea_Pattern_Small,9,,,,,,,,,,,
encoding,image,54.878372750012204,55.88957566698082,11,2,Animal_Sea_Pattern_Small,9,,,,,,,,,,,
encoding,value,55.88977062504273,61.901690916973166,11,2,Animal_Sea_Pattern_Small,9,,,,,,,,,,,
encoding,attention,61.90180895803496,64.91996091697365,11,2,Animal_Sea_Pattern_Small,9,+9,1,0.8157632920192555,,,,,,,,
encoding,fixation,64.92027220805176,65.42556300002616,12,2,Object_Sea_Pattern_Small,-9,,,,,,,,,,,
encoding,image,65.42566229205113,66.43651529203635,12,2,Object_Sea_Pattern_Small,-9,,,,,,,,,,,
encoding,value,66.43662108294666,72.44835433294065,12,2,Object_Sea_Pattern_Small,-9,,,,,,,,,,,
encoding,attention,72.44845554197673,75.46944400004577,12,2,Object_Sea_Pattern_Small,-9,-9,1,1.594718832988292,,,,,,,,
n-back,,,,31,2,,,,0,None,C,True,None,,,,,
n-back,,,,32,2,,,,0,None,V,True,None,,,,,
n-back,,,,33,2,,,,1,None,Z,False,None,,,,,
n-back,,,,34,2,,,,1,None,B,False,None,,,,,
n-back,,,,35,2,,,,1,0.5212478749454021,Z,True,1,,,,,
n-back,,,,36,2,,,,1,None,N,False,None,,,,,
n-back,,,,37,2,,,,0,None,Z,True,None,,,,,
n-back,,,,38,2,,,,0,0.13578508305363357,C,False,1,,,,,
n-back,,,,39,2,,,,1,None,B,False,None,,,,,
n-back,,,,40,2,,,,1,0.4286097079748288,C,True,1,,,,,
n-back,,,,41,2,,,,1,None,N,False,None,,,,,
n-back,,,,42,2,,,,1,0.7558114170096815,C,True,1,,,,,
n-back,,,,43,2,,,,1,None,Z,False,None,,,,,
n-back,,,,44,2,,,,1,None,N,False,None,,,,,
n-back,,,,45,2,,,,1,None,V,False,None,,,,,
n-back,,,,46,2,,,,1,0.592572542023845,N,True,1,,,,,
n-back,,,,47,2,,,,1,None,X,False,None,,,,,
n-back,,,,48,2,,,,1,None,B,False,None,,,,,
n-back,,,,49,2,,,,1,None,B,False,None,,,,,
n-back,,,,50,2,,,,1,None,N,False,None,,,,,
n-back,,,,51,2,,,,1,None,Z,False,None,,,,,
n-back,,,,52,2,,,,1,None,C,False,None,,,,,
n-back,,,,53,2,,,,1,0.454353625071235,Z,True,1,,,,,
n-back,,,,54,2,,,,1,None,X,False,None,,,,,
n-back,,,,55,2,,,,1,None,C,False,None,,,,,
n-back,,,,56,2,,,,1,None,B,False,None,,,,,
n-back,,,,57,2,,,,1,0.6791855830233544,C,True,1,,,,,
n-back,,,,58,2,,,,1,None,N,False,None,,,,,
n-back,,,,59,2,,,,0,None,C,True,None,,,,,
n-back,,,,60,2,,,,1,None,C,False,None,,,,,
choice,fixation,151.17408962501213,152.4304275419563,9,2,,,,,,,,,Small,,,,
choice,option,152.43868079199456,153.46759666700382,9,2,,,,,,,,,Small,,,,
choice,choice,153.467709791963,172.35391916695517,9,2,,,2,0,17.87555108300876,,,,Small,,,,
choice,fixation,172.35405016702134,173.8595602499554,10,2,,,,,,,,,Large,,,,
choice,option,173.86847279197536,174.8974316669628,10,2,,,,,,,,,Large,,,,
choice,choice,174.89755737502128,188.40300754201598,10,2,,,2,1,12.495305708027445,,,,Large,,,,
choice,fixation,188.4031275829766,189.90808883297723,11,2,,,,,,,,,Solid,,,,
choice,option,189.91768924996722,190.94475108303595,11,2,,,,,,,,,Solid,,,,
choice,choice,190.94485791702755,214.4506782919634,11,2,,,1,0,22.494870958966203,,,,Solid,,,,
choice,fixation,214.45081295794807,215.70577816700097,12,2,,,,,,,,,Animal,,,,
choice,option,215.71540758304764,216.74276712501887,12,2,,,,,,,,,Animal,,,,
choice,choice,216.74287208297756,222.41705874993932,12,2,,,2,1,4.663727542036213,,,,Animal,,,,
choice,fixation,222.41718733299058,223.17209374997765,13,2,,,,,,,,,Object,,,,
choice,option,223.18179262499325,224.20895300002303,13,2,,,,,,,,,Object,,,,
choice,choice,224.20906995795667,237.7320961250225,13,2,,,1,0,12.508625208050944,,,,Object,,,,
choice,fixation,237.73223262501415,238.23764137504622,14,2,,,,,,,,,Land,,,,
choice,option,238.24705804197583,239.27342166705057,14,2,,,,,,,,,Land,,,,
choice,choice,239.27358224999625,244.50469645799603,14,2,,,2,1,4.218381665996276,,,,Land,,,,
choice,fixation,244.50483208301011,245.01015470793936,15,2,,,,,,,,,Sea,,,,
choice,option,245.01887954201084,246.048123207991,15,2,,,,,,,,,Sea,,,,
choice,choice,246.04823787498754,247.82569891703315,15,2,,,1,0,0.767328166984953,,,,Sea,,,,
choice,fixation,247.82583858293947,249.3322119580116,16,2,,,,,,,,,Pattern,,,,
choice,option,249.34138687502127,250.36773395794444,16,2,,,,,,,,,Pattern,,,,
choice,choice,250.36785737494938,251.8014301250223,16,2,,,2,1,0.4241163330152631,,,,Pattern,,,,
memory,free_recall,267.70770537503995,294.06207054201514,6,2,,,,,,,,,,,,,
memory,value_recall,299.56533841695637,304.97173350001685,7,2,Animal_Sea_Pattern_Small,,,,5.402141249971464,,,,,9,,,
memory,value_recall,306.7687268749578,316.9546231669374,8,2,Object_Land_Solid_Large,,,,10.18191329203546,,,,,1,,,
memory,value_recall,318.2520477080252,329.6590373329818,9,2,Object_Sea_Pattern_Small,,,,11.402118499972858,,,,,-9,,,
memory,value_recall,331.20701008301694,337.1165219999384,10,2,Animal_Sea_Pattern_Large,,,,5.901648666942492,,,,,-6,,,
memory,value_recall,338.6637991670286,344.6515531250043,11,2,Animal_Land_Solid_Large,,,,5.983489542035386,,,,,-9,,,
memory,value_recall,346.6972852499457,350.5726610419806,12,2,Object_Land_Solid_Small,,,,3.8712352499132976,,,,,1,,,
memory,spatial_recall,358.1223614170449,365.2168867919827,12,2,Animal_Sea_Pattern_Large,,,1,7.0905361250042915,,,,,,"[0, -380]","[0, -380]",
memory,spatial_recall,366.28102541703265,368.7999862500001,12,2,Object_Land_Solid_Small,,,1,2.516176583012566,,,,,,"[329, -190]","[329, -190]",
memory,spatial_recall,369.863874041941,373.6150089999428,12,2,Animal_Sea_Pattern_Small,,,1,3.7473590839654207,,,,,,"[0, 380]","[0, 380]",
memory,spatial_recall,375.6732382499613,378.09294695802964,12,2,Animal_Land_Solid_Large,,,1,2.4156315840082243,,,,,,"[-329, 190]","[-329, 190]",
memory,spatial_recall,379.14675950002857,381.1162188750459,12,2,Object_Land_Solid_Large,,,1,1.9668594589456916,,,,,,"[329, 189]","[329, 189]",
memory,spatial_recall,382.67741787503473,385.6466220000293,12,2,Object_Sea_Pattern_Small,,,1,2.965089041972533,,,,,,"[-329, -190]","[-329, -190]",
encoding,fixation,6.5948934169719,7.850134207983501,13,3,Animal_Sea_Solid_Small,6,,,,,,,,,,,
encoding,image,7.850290708011016,8.86214762495365,13,3,Animal_Sea_Solid_Small,6,,,,,,,,,,,
encoding,value,8.862276874948293,14.876800833037123,13,3,Animal_Sea_Solid_Small,6,,,,,,,,,,,
encoding,attention,14.876917624962516,17.895085916970856,13,3,Animal_Sea_Solid_Small,6,+6,1,1.193014958058484,,,,,,,,
encoding,fixation,17.895317499991506,18.400514582986943,14,3,Object_Land_Pattern_Large,9,,,,,,,,,,,
encoding,image,18.400625208043493,19.41155349998735,14,3,Object_Land_Pattern_Large,9,,,,,,,,,,,
encoding,value,19.41166470805183,25.424171207938343,14,3,Object_Land_Pattern_Large,9,,,,,,,,,,,
encoding,attention,25.424310124944896,28.443310417002067,14,3,Object_Land_Pattern_Large,9,+9,1,0.6768702080007643,,,,,,,,
encoding,fixation,28.443465000018477,29.948511917027645,15,3,Object_Land_Pattern_Small,-2,,,,,,,,,,,
encoding,image,29.94862970802933,30.960398541996256,15,3,Object_Land_Pattern_Small,-2,,,,,,,,,,,
encoding,value,30.960562916938215,36.972419500001706,15,3,Object_Land_Pattern_Small,-2,,,,,,,,,,,
encoding,attention,36.97258579195477,39.99045162496623,15,3,Object_Land_Pattern_Small,-2,-2,1,1.0765286249807104,,,,,,,,
encoding,fixation,39.990623707999475,41.245564999990165,16,3,Animal_Sea_Solid_Large,6,,,,,,,,,,,
encoding,image,41.24567570805084,42.25705937494058,16,3,Animal_Sea_Solid_Large,6,,,,,,,,,,,
encoding,value,42.25717708305456,48.26883345795795,16,3,Animal_Sea_Solid_Large,6,,,,,,,,,,,
encoding,attention,48.26894612493925,51.28641358297318,16,3,Animal_Sea_Solid_Large,6,+6,1,0.7226207500789315,,,,,,,,
encoding,fixation,51.28655941702891,52.79457516700495,17,3,Object_Sea_Pattern_Small,-3,,,,,,,,,,,
encoding,image,52.794762250036,53.805730542051606,17,3,Object_Sea_Pattern_Small,-3,,,,,,,,,,,
encoding,value,53.80583679198753,59.8171711670002,17,3,Object_Sea_Pattern_Small,-3,,,,,,,,,,,
encoding,attention,59.81729666702449,62.83430274995044,17,3,Object_Sea_Pattern_Small,-3,-3,1,0.8789382498944178,,,,,,,,
encoding,fixation,62.834485374973156,63.83954020799138,18,3,Animal_Land_Solid_Large,-9,,,,,,,,,,,
encoding,image,63.83966312499251,64.85134083300363,18,3,Animal_Land_Solid_Large,-9,,,,,,,,,,,
encoding,value,64.85146691696718,70.86376929201651,18,3,Animal_Land_Solid_Large,-9,,,,,,,,,,,
encoding,attention,70.86392562498804,73.88248466700315,18,3,Animal_Land_Solid_Large,-9,-9,1,0.6151181659661233,,,,,,,,
n-back,,,,61,3,,,,1,None,X,False,None,,,,,
n-back,,,,62,3,,,,1,None,Z,False,None,,,,,
n-back,,,,63,3,,,,1,0.7944492499809712,X,True,1,,,,,
n-back,,,,64,3,,,,1,None,V,False,None,,,,,
n-back,,,,65,3,,,,1,None,Z,False,None,,,,,
n-back,,,,66,3,,,,1,None,C,False,None,,,,,
n-back,,,,67,3,,,,1,0.4157010830240324,Z,True,1,,,,,
n-back,,,,68,3,,,,1,1.2761844170745462,C,True,1,,,,,
n-back,,,,69,3,,,,1,None,B,False,None,,,,,
n-back,,,,70,3,,,,1,None,N,False,None,,,,,
n-back,,,,71,3,,,,1,None,X,False,None,,,,,
n-back,,,,72,3,,,,1,None,C,False,None,,,,,
n-back,,,,73,3,,,,1,0.375647958018817,X,True,1,,,,,
n-back,,,,74,3,,,,1,None,N,False,None,,,,,
n-back,,,,75,3,,,,0,None,X,True,None,,,,,
n-back,,,,76,3,,,,1,0.45673983299639076,N,True,1,,,,,
n-back,,,,77,3,,,,1,None,C,False,None,,,,,
n-back,,,,78,3,,,,1,None,C,False,None,,,,,
n-back,,,,79,3,,,,1,0.7248520000139251,C,True,1,,,,,
n-back,,,,80,3,,,,1,None,V,False,None,,,,,
n-back,,,,81,3,,,,1,0.39650675002485514,C,True,1,,,,,
n-back,,,,82,3,,,,1,None,N,False,None,,,,,
n-back,,,,83,3,,,,1,None,X,False,None,,,,,
n-back,,,,84,3,,,,1,0.4426502090645954,N,True,1,,,,,
n-back,,,,85,3,,,,1,None,C,False,None,,,,,
n-back,,,,86,3,,,,0,None,N,True,None,,,,,
n-back,,,,87,3,,,,1,None,Z,False,None,,,,,
n-back,,,,88,3,,,,1,None,V,False,None,,,,,
n-back,,,,89,3,,,,1,None,N,False,None,,,,,
n-back,,,,90,3,,,,1,None,X,False,None,,,,,
choice,fixation,149.5835122920107,150.3369629579829,17,3,,,,,,,,,Solid,,,,
choice,option,150.34659645799547,151.37272120802663,17,3,,,,,,,,,Solid,,,,
choice,choice,151.37283633300103,164.8818105000537,17,3,,,1,1,12.498270708951168,,,,Solid,,,,
choice,fixation,164.88192729197908,165.8876254579518,18,3,,,,,,,,,Object,,,,
choice,option,165.89694925001822,166.924208041979,18,3,,,,,,,,,Object,,,,
choice,choice,166.92432529199868,172.301153916982,18,3,,,1,1,4.3672501250403,,,,Object,,,,
choice,fixation,172.3012812079396,173.55654108303133,19,3,,,,,,,,,Animal,,,,
choice,option,173.56629587500356,174.59522904199548,19,3,,,,,,,,,Animal,,,,
choice,choice,174.59535887499806,176.08183254196774,19,3,,,2,0,0.4763536669779569,,,,Animal,,,,
choice,fixation,176.08195266698021,177.08717149996664,20,3,,,,,,,,,Large,,,,
choice,option,177.09618408302777,178.1220077079488,20,3,,,,,,,,,Large,,,,
choice,choice,178.12216179200914,195.6837482500123,20,3,,,1,1,16.54979220801033,,,,Large,,,,
choice,fixation,195.68386937503237,196.43947983300313,21,3,,,,,,,,,Small,,,,
choice,option,196.44880066695623,197.47605916694738,21,3,,,,,,,,,Small,,,,
choice,choice,197.47618841694202,199.11469829198904,21,3,,,1,1,0.628080916008912,,,,Small,,,,
choice,fixation,199.11483016703278,199.61974270804785,22,3,,,,,,,,,Sea,,,,
choice,option,199.62795324996114,200.6542467919644,22,3,,,,,,,,,Sea,,,,
choice,choice,200.65435049997177,205.50095833302476,22,3,,,1,1,3.835043999948539,,,,Sea,,,,
choice,fixation,205.5011470830068,206.50647108303383,23,3,,,,,,,,,Land,,,,
choice,option,206.51532079197932,207.54133212496527,23,3,,,,,,,,,Land,,,,
choice,choice,207.5414531249553,209.46044441696722,23,3,,,2,1,0.9064202499575913,,,,Land,,,,
choice,fixation,209.4605870830128,209.9656196249416,24,3,,,,,,,,,Pattern,,,,
choice,option,209.97481020796113,211.0006179580232,24,3,,,,,,,,,Pattern,,,,
choice,choice,211.00072858296335,212.48147512495052,24,3,,,2,0,0.4711831660242751,,,,Pattern,,,,
memory,free_recall,224.73792758304626,264.8598040830111,12,3,,,,,,,,,,,,,
memory,value_recall,269.20068908296525,277.0954259999562,13,3,Object_Land_Pattern_Small,,,,7.890676375012845,,,,,-2,,,
memory,value_recall,278.8914446249837,290.4917557919398,14,3,Object_Sea_Pattern_Small,,,,11.596184166963212,,,,,-3,,,
memory,value_recall,291.53890854201745,295.1252077500103,15,3,Animal_Sea_Solid_Small,,,,3.582905500079505,,,,,6,,,
memory,value_recall,296.42071037495043,300.6785169580253,16,3,Object_Land_Pattern_Large,,,,4.252152499975637,,,,,9,,,
memory,value_recall,302.2266960829729,307.188105624984,17,3,Animal_Sea_Solid_Large,,,,4.9568913750117645,,,,,6,,,
memory,value_recall,308.7346591670066,311.92504687502515,18,3,Animal_Land_Solid_Large,,,,3.186125708045438,,,,,-9,,,
memory,spatial_recall,315.7370393750025,321.9434927080292,18,3,Animal_Sea_Solid_Small,,,1,6.1997229169355705,,,,,,"[329, 189]","[329, 189]",
memory,spatial_recall,323.5039674169384,329.6383381249616,18,3,Object_Land_Pattern_Small,,,1,6.127819083048962,,,,,,"[0, -380]","[0, -380]",
memory,spatial_recall,330.6975212499965,333.221631375025,18,3,Animal_Land_Solid_Large,,,1,2.521725125028752,,,,,,"[-329, 190]","[-329, 190]",
memory,spatial_recall,334.7784400000237,337.78806525003165,18,3,Object_Sea_Pattern_Small,,,1,3.0055482500465587,,,,,,"[-329, -190]","[-329, -190]",
memory,spatial_recall,339.84708562504966,342.3289946250152,18,3,Animal_Sea_Solid_Large,,,1,2.4776727919233963,,,,,,"[329, -190]","[329, -190]",
memory,spatial_recall,343.393152249977,345.1634808749659,18,3,Object_Land_Pattern_Large,,,1,1.7662599999457598,,,,,,"[0, 380]","[0, 380]",
encoding,fixation,6.026347124949098,7.032191165955737,19,4,Animal_Land_Solid_Small,-1,,,,,,,,,,,
encoding,image,7.032408333034255,8.048024707939476,19,4,Animal_Land_Solid_Small,-1,,,,,,,,,,,
encoding,value,8.048190457979217,14.061740041011944,19,4,Animal_Land_Solid_Small,-1,,,,,,,,,,,
encoding,attention,14.061852540937252,17.08004675002303,19,4,Animal_Land_Solid_Small,-1,-1,1,0.6211285419994965,,,,,,,,
encoding,fixation,17.080199165968224,17.837298208032735,20,4,Animal_Land_Pattern_Large,9,,,,,,,,,,,
encoding,image,17.837407125043683,18.848564915941097,20,4,Animal_Land_Pattern_Large,9,,,,,,,,,,,
encoding,value,18.84871991595719,24.86080708296504,20,4,Animal_Land_Pattern_Large,9,,,,,,,,,,,
encoding,attention,24.860925415996462,27.878400916000828,20,4,Animal_Land_Pattern_Large,9,+9,1,0.5975311669753864,,,,,,,,
encoding,fixation,27.87856229103636,28.88617087493185,21,4,Animal_Land_Pattern_Small,-2,,,,,,,,,,,
encoding,image,28.886366624967195,29.896601957967505,21,4,Animal_Land_Pattern_Small,-2,,,,,,,,,,,
encoding,value,29.89672012499068,35.90862462494988,21,4,Animal_Land_Pattern_Small,-2,,,,,,,,,,,
encoding,attention,35.90874374995474,38.926142666023225,21,4,Animal_Land_Pattern_Small,-2,-2,1,0.9492515840101987,,,,,,,,
encoding,fixation,38.92629316600505,39.431950540980324,22,4,Object_Sea_Solid_Large,-2,,,,,,,,,,,
encoding,image,39.43206820799969,40.443768957979046,22,4,Object_Sea_Solid_Large,-2,,,,,,,,,,,
encoding,value,40.443867290974595,46.456139583024196,22,4,Object_Sea_Solid_Large,-2,,,,,,,,,,,
encoding,attention,46.456244291039184,49.473902832949534,22,4,Object_Sea_Solid_Large,-2,-2,1,1.8125261249952018,,,,,,,,
encoding,fixation,49.47405108297244,50.479591125040315,23,4,Object_Sea_Pattern_Large,-8,,,,,,,,,,,
encoding,image,50.4796915409388,51.490848124958575,23,4,Object_Sea_Pattern_Large,-8,,,,,,,,,,,
encoding,value,51.490956958034076,57.503168541006744,23,4,Object_Sea_Pattern_Large,-8,,,,,,,,,,,
encoding,attention,57.50328616600018,60.523299040971324,23,4,Object_Sea_Pattern_Large,-8,-8,1,1.0088803339749575,,,,,,,,
encoding,fixation,60.52344729099423,61.27926837501582,24,4,Object_Sea_Solid_Small,8,,,,,,,,,,,
encoding,image,61.279376541031525,62.28969424997922,24,4,Object_Sea_Solid_Small,8,,,,,,,,,,,
encoding,value,62.28979116596747,68.30337716604117,24,4,Object_Sea_Solid_Small,8,,,,,,,,,,,
encoding,attention,68.30349466600455,71.31934741593432,24,4,Object_Sea_Solid_Small,8,+8,1,0.8535554159898311,,,,,,,,
n-back,,,,91,4,,,,1,None,V,False,None,,,,,
n-back,,,,92,4,,,,1,None,N,False,None,,,,,
n-back,,,,93,4,,,,1,0.5360655840486288,V,True,1,,,,,
n-back,,,,94,4,,,,1,0.4977742920164019,N,True,1,,,,,
n-back,,,,95,4,,,,1,0.9006368749542162,V,True,1,,,,,
n-back,,,,96,4,,,,1,0.732380082947202,N,True,1,,,,,
n-back,,,,97,4,,,,1,None,C,False,None,,,,,
n-back,,,,98,4,,,,1,None,Z,False,None,,,,,
n-back,,,,99,4,,,,1,None,N,False,None,,,,,
n-back,,,,100,4,,,,1,None,B,False,None,,,,,
n-back,,,,101,4,,,,1,0.30850525002460927,N,True,1,,,,,
n-back,,,,102,4,,,,1,None,N,False,None,,,,,
n-back,,,,103,4,,,,1,None,Z,False,None,,,,,
n-back,,,,104,4,,,,1,None,C,False,None,,,,,
n-back,,,,105,4,,,,1,None,B,False,None,,,,,
n-back,,,,106,4,,,,1,None,N,False,None,,,,,
n-back,,,,107,4,,,,1,0.35349825001321733,B,True,1,,,,,
n-back,,,,108,4,,,,1,None,C,False,None,,,,,
n-back,,,,109,4,,,,1,0.39429291698616,B,True,1,,,,,
n-back,,,,110,4,,,,1,None,Z,False,None,,,,,
n-back,,,,111,4,,,,1,None,V,False,None,,,,,
n-back,,,,112,4,,,,1,None,X,False,None,,,,,
n-back,,,,113,4,,,,1,None,X,False,None,,,,,
n-back,,,,114,4,,,,1,None,Z,False,None,,,,,
n-back,,,,115,4,,,,1,0.4046380000654608,X,True,1,,,,,
n-back,,,,116,4,,,,1,None,B,False,None,,,,,
n-back,,,,117,4,,,,1,0.48193145799450576,X,True,1,,,,,
n-back,,,,118,4,,,,0,None,B,True,None,,,,,
n-back,,,,119,4,,,,1,None,B,False,None,,,,,
n-back,,,,120,4,,,,1,None,Z,False,None,,,,,
choice,fixation,148.0824240410002,148.8364451660309,25,4,,,,,,,,,Land,,,,
choice,option,148.8450745829614,149.92320037493482,25,4,,,,,,,,,Land,,,,
choice,choice,149.92332141601946,158.6768417910207,25,4,,,1,1,7.742663290933706,,,,Land,,,,
choice,fixation,158.67695370793808,159.4326351659838,26,4,,,,,,,,,Sea,,,,
choice,option,159.44120474997908,160.4691490830155,26,4,,,,,,,,,Sea,,,,
choice,choice,160.46927366603632,161.99676945793908,26,4,,,2,1,0.5174155839486048,,,,Sea,,,,
choice,fixation,161.9969034580281,162.75182216602843,27,4,,,,,,,,,Pattern,,,,
choice,option,162.7617603749968,163.78815958299674,27,4,,,,,,,,,Pattern,,,,
choice,choice,163.78832208295353,172.53687016596086,27,4,,,1,0,7.735466583049856,,,,Pattern,,,,
choice,fixation,172.53705591603648,174.04208737495355,28,4,,,,,,,,,Object,,,,
choice,option,174.05192550003994,175.079409457976,28,4,,,,,,,,,Object,,,,
choice,choice,175.0795083330013,178.01319691597018,28,4,,,2,1,1.9226810419932008,,,,Object,,,,
choice,fixation,178.0133166250307,179.27051062497776,29,4,,,,,,,,,Large,,,,
choice,option,179.28024383296724,180.30738716595806,29,4,,,,,,,,,Large,,,,
choice,choice,180.30749974993523,182.7924065409461,29,4,,,2,1,1.474760957993567,,,,Large,,,,
choice,fixation,182.792604999966,183.29798612499144,30,4,,,,,,,,,Solid,,,,
choice,option,183.307263124967,184.33541325002443,30,4,,,,,,,,,Solid,,,,
choice,choice,184.33556475001387,186.02752762497403,30,4,,,2,0,0.6819148750510067,,,,Solid,,,,
choice,fixation,186.02764233294874,187.53262666601222,31,4,,,,,,,,,Small,,,,
choice,option,187.54120804101694,188.56923408294097,31,4,,,,,,,,,Small,,,,
choice,choice,188.5693287079921,190.27528800000437,31,4,,,2,0,0.6964864999754354,,,,Small,,,,
choice,fixation,190.2754126249347,190.78056454099715,32,4,,,,,,,,,Animal,,,,
choice,option,190.78993679094128,191.81858399999328,32,4,,,,,,,,,Animal,,,,
choice,choice,191.81870795798022,198.64403170801234,32,4,,,2,0,5.815444124978967,,,,Animal,,,,
memory,free_recall,211.8455353330355,242.65391074994113,18,4,,,,,,,,,,,,,
memory,value_recall,246.1626813749317,254.567807000014,19,4,Object_Sea_Pattern_Large,,,,8.399198167026043,,,,,-8,,,
memory,value_recall,255.8665396659635,266.1428782909643,20,4,Animal_Land_Pattern_Small,,,,10.27227208390832,,,,,-2,,,
memory,value_recall,268.18898724997416,272.2630493330071,21,4,Object_Sea_Solid_Large,,,,4.069893874926493,,,,,-2,,,
memory,value_recall,273.3089844159549,275.9676550410222,22,4,Animal_Land_Solid_Small,,,,2.655083958990872,,,,,-1,,,
memory,value_recall,277.76522491592914,279.9346624999307,23,4,Animal_Land_Pattern_Large,,,,2.165537582943216,,,,,9,,,
memory,value_recall,280.9806903329445,288.07935224997345,24,4,Object_Sea_Solid_Small,,,,7.095276374951936,,,,,8,,,
memory,spatial_recall,292.23038304096553,295.8965642079711,24,4,Object_Sea_Solid_Large,,,1,3.66211979102809,,,,,,"[329, 189]","[329, 189]",
memory,spatial_recall,297.45508550002705,299.3182694159914,24,4,Animal_Land_Pattern_Small,,,1,1.8591756250243634,,,,,,"[-329, -190]","[-329, -190]",
memory,spatial_recall,301.37512229103595,304.00313495798036,24,4,Object_Sea_Pattern_Large,,,0,2.6237807919969782,,,,,,"[0, -380]","[329, 189]",
memory,spatial_recall,305.8094107910292,310.80385283299256,24,4,Animal_Land_Pattern_Large,,,1,4.990248291986063,,,,,,"[329, -190]","[329, -190]",
memory,spatial_recall,312.35800516593736,315.2797578750178,24,4,Animal_Land_Solid_Small,,,1,2.917644083034247,,,,,,"[0, 380]","[0, 380]",
memory,spatial_recall,316.33410233294126,318.6628378749592,24,4,Object_Sea_Solid_Small,,,1,2.326413542032242,,,,,,"[-329, 190]","[-329, 190]",
encoding,fixation,8.018366707954556,8.77397220802959,25,5,Object_Land_Solid_Large,-8,,,,,,,,,,,
encoding,image,8.774089999962598,9.785064290976152,25,5,Object_Land_Solid_Large,-8,,,,,,,,,,,
encoding,value,9.785174750024453,15.79767916596029,25,5,Object_Land_Solid_Large,-8,,,,,,,,,,,
encoding,attention,15.797782207955606,18.815582165960222,25,5,Object_Land_Solid_Large,-8,-8,1,0.7520184589084238,,,,,,,,
encoding,fixation,18.815815582987852,19.32025424996391,26,5,Animal_Sea_Pattern_Small,-8,,,,,,,,,,,
encoding,image,19.320361832971685,20.332021291018464,26,5,Animal_Sea_Pattern_Small,-8,,,,,,,,,,,
encoding,value,20.332140582962893,26.346555624972098,26,5,Animal_Sea_Pattern_Small,-8,,,,,,,,,,,
encoding,attention,26.346678041038103,29.364564249990508,26,5,Animal_Sea_Pattern_Small,-8,-8,1,0.5873920829035342,,,,,,,,
encoding,fixation,29.364717290969566,30.369949957937934,27,5,Animal_Sea_Pattern_Large,1,,,,,,,,,,,
encoding,image,30.37005875003524,31.380122540984303,27,5,Animal_Sea_Pattern_Large,1,,,,,,,,,,,
encoding,value,31.380244874977507,37.39169762504753,27,5,Animal_Sea_Pattern_Large,1,,,,,,,,,,,
encoding,attention,37.39181349996943,40.404080332955346,27,5,Animal_Sea_Pattern_Large,1,None,None,None,,,,,,,,
encoding,fixation,40.40425204101484,40.90999270800967,28,5,Object_Land_Solid_Small,5,,,,,,,,,,,
encoding,image,40.91011754097417,41.921920832945034,28,5,Object_Land_Solid_Small,5,,,,,,,,,,,
encoding,value,41.92203895794228,47.93371341598686,28,5,Object_Land_Solid_Small,5,,,,,,,,,,,
encoding,attention,47.933831625035964,50.95180820801761,28,5,Object_Land_Solid_Small,5,+5,1,1.2322657499462366,,,,,,,,
encoding,fixation,50.95197283301968,51.70752758299932,29,5,Object_Sea_Pattern_Small,5,,,,,,,,,,,
encoding,image,51.7076980000129,52.71907829097472,29,5,Object_Sea_Pattern_Small,5,,,,,,,,,,,
encoding,value,52.719185000052676,58.730247249943204,29,5,Object_Sea_Pattern_Small,5,,,,,,,,,,,
encoding,attention,58.730343624949455,61.74994087498635,29,5,Object_Sea_Pattern_Small,5,+5,1,0.6401927910046652,,,,,,,,
encoding,fixation,61.75008762499783,63.255308374995366,30,5,Animal_Land_Solid_Large,4,,,,,,,,,,,
encoding,image,63.25542708300054,64.26718366600107,30,5,Animal_Land_Solid_Large,4,,,,,,,,,,,
encoding,value,64.26728808297776,70.27941937500145,30,5,Animal_Land_Solid_Large,4,,,,,,,,,,,
encoding,attention,70.27954725001473,73.29189916595351,30,5,Animal_Land_Solid_Large,4,None,None,None,,,,,,,,
n-back,,,,121,5,,,,0,None,V,True,None,,,,,
n-back,,,,122,5,,,,1,None,X,False,None,,,,,
n-back,,,,123,5,,,,1,None,X,False,None,,,,,
n-back,,,,124,5,,,,1,None,B,False,None,,,,,
n-back,,,,125,5,,,,1,None,Z,False,None,,,,,
n-back,,,,126,5,,,,1,0.5575247090309858,B,True,1,,,,,
n-back,,,,127,5,,,,1,None,B,False,None,,,,,
n-back,,,,128,5,,,,1,None,C,False,None,,,,,
n-back,,,,129,5,,,,1,None,V,False,None,,,,,
n-back,,,,130,5,,,,1,None,Z,False,None,,,,,
n-back,,,,131,5,,,,1,0.4565289579331875,V,True,1,,,,,
n-back,,,,132,5,,,,1,None,N,False,None,,,,,
n-back,,,,133,5,,,,1,None,Z,False,None,,,,,
n-back,,,,134,5,,,,1,None,B,False,None,,,,,
n-back,,,,135,5,,,,1,None,C,False,None,,,,,
n-back,,,,136,5,,,,1,0.5248065829509869,B,True,1,,,,,
n-back,,,,137,5,,,,1,0.6107453339500353,C,True,1,,,,,
n-back,,,,138,5,,,,1,None,Z,False,None,,,,,
n-back,,,,139,5,,,,1,None,B,False,None,,,,,
n-back,,,,140,5,,,,1,0.3896221669856459,Z,True,1,,,,,
n-back,,,,141,5,,,,1,0.5635571250459179,B,True,1,,,,,
n-back,,,,142,5,,,,1,0.973165791016072,Z,True,1,,,,,
n-back,,,,143,5,,,,1,None,C,False,None,,,,,
n-back,,,,144,5,,,,1,0.4362389590824023,Z,True,1,,,,,
n-back,,,,145,5,,,,1,0.6243654580321163,C,True,1,,,,,
n-back,,,,146,5,,,,1,None,C,False,None,,,,,
n-back,,,,147,5,,,,1,None,V,False,None,,,,,
n-back,,,,148,5,,,,1,None,B,False,None,,,,,
n-back,,,,149,5,,,,1,None,C,False,None,,,,,
n-back,,,,150,5,,,,1,None,N,False,None,,,,,
choice,fixation,141.32895262504462,142.58212395804003,33,5,,,,,,,,,Animal,,,,
choice,option,142.59122333303094,143.62030950002372,33,5,,,,,,,,,Animal,,,,
choice,choice,143.6204826659523,152.5514069159981,33,5,,,1,0,7.9201919590123,,,,Animal,,,,
choice,fixation,152.5515299999388,154.05655249999836,34,5,,,,,,,,,Solid,,,,
choice,option,154.0656106659444,155.09385562501848,34,5,,,,,,,,,Solid,,,,
choice,choice,155.0939930829918,165.7707094999496,34,5,,,1,1,9.665607959032059,,,,Solid,,,,
choice,fixation,165.77086220798083,166.27647812501527,35,5,,,,,,,,,Sea,,,,
choice,option,166.28480645804666,167.31338874995708,35,5,,,,,,,,,Sea,,,,
choice,choice,167.31350520800333,171.49592062504962,35,5,,,2,1,3.170865916996263,,,,Sea,,,,
choice,fixation,171.49606641603168,172.00116858293768,36,5,,,,,,,,,Object,,,,
choice,option,172.01065104093868,173.03785533295013,36,5,,,,,,,,,Object,,,,
choice,choice,173.037998875021,184.15078174998052,36,5,,,1,1,10.10255062498618,,,,Object,,,,
choice,fixation,184.15092091599945,185.15596004098188,37,5,,,,,,,,,Land,,,,
choice,option,185.16471512499265,186.1915608330164,37,5,,,,,,,,,Land,,,,
choice,choice,186.1916848749388,191.08594766596798,37,5,,,1,1,3.884441874921322,,,,Land,,,,
choice,fixation,191.0860591660021,192.09099091601092,38,5,,,,,,,,,Small,,,,
choice,option,192.10005058301613,193.13008849998005,38,5,,,,,,,,,Small,,,,
choice,choice,193.13018912496045,195.43911224999465,38,5,,,2,0,1.297528958064504,,,,Small,,,,
choice,fixation,195.43924295797478,196.44686504104175,39,5,,,,,,,,,Large,,,,
choice,option,196.4555446660379,197.48197937500663,39,5,,,,,,,,,Large,,,,
choice,choice,197.48209962504916,204.75368220801465,39,5,,,1,0,6.261785458074883,,,,Large,,,,
choice,fixation,204.75379858294036,205.25896674999967,40,5,,,,,,,,,Pattern,,,,
choice,option,205.26835799997207,206.29646012501325,40,5,,,,,,,,,Pattern,,,,
choice,choice,206.296565208002,212.02329012495466,40,5,,,2,1,4.716926499968395,,,,Pattern,,,,
memory,free_recall,227.22633941599634,251.017045665998,24,5,,,,,,,,,,,,,
memory,value_recall,256.9879818330519,260.17023254104424,25,5,Object_Land_Solid_Large,,,,3.178062833030708,,,,,-8,,,
memory,value_recall,261.21653850004077,264.53751945798285,26,5,Animal_Sea_Pattern_Large,,,,3.317655249964446,,,,,1,,,
memory,value_recall,265.8338061659597,270.9842272909591,27,5,Object_Sea_Pattern_Small,,,,5.146314417012036,,,,,5,,,
memory,value_recall,272.53072920802515,276.81194904097356,28,5,Animal_Land_Solid_Large,,,,4.276939708041027,,,,,4,,,
memory,value_recall,278.35784141602926,280.4322271250421,29,5,Animal_Sea_Pattern_Small,,,,2.0689945420017466,,,,,-8,,,
memory,value_recall,281.4796146249864,285.45612400001846,30,5,Object_Land_Solid_Small,,,,3.9731080000055954,,,,,5,,,
memory,spatial_recall,288.2017938749632,290.87997854105197,30,5,Animal_Land_Solid_Large,,,1,2.6739753329893574,,,,,,"[-329, 190]","[-329, 190]",
memory,spatial_recall,292.1921385830501,293.61026312503964,30,5,Animal_Sea_Pattern_Large,,,1,1.414082375005819,,,,,,"[0, -380]","[0, -380]",
memory,spatial_recall,294.6555238330038,298.98297625000123,30,5,Animal_Sea_Pattern_Small,,,1,4.3214429169893265,,,,,,"[0, 380]","[0, 380]",
memory,spatial_recall,300.79526199994143,302.0810782080516,30,5,Object_Sea_Pattern_Small,,,1,1.281677084043622,,,,,,"[-329, -190]","[-329, -190]",
memory,spatial_recall,303.63830179104116,304.5977047079941,30,5,Object_Land_Solid_Large,,,1,0.9550577499903738,,,,,,"[329, 189]","[329, 189]",
memory,spatial_recall,306.6560047500534,309.00962333299685,30,5,Object_Land_Solid_Small,,,1,2.347753959009424,,,,,,"[329, -190]","[329, -190]",
encoding,fixation,2.9633949589915574,3.9688756249379367,31,6,Animal_Sea_Solid_Large,2,,,,,,,,,,,
encoding,image,3.9690111249219626,4.9811672089854255,31,6,Animal_Sea_Solid_Large,2,,,,,,,,,,,
encoding,value,4.981315374956466,10.995529333944432,31,6,Animal_Sea_Solid_Large,2,,,,,,,,,,,
encoding,attention,10.99564516695682,14.014981125015765,31,6,Animal_Sea_Solid_Large,2,+2,1,0.612992792041041,,,,,,,,
encoding,fixation,14.015164833981544,14.7704555420205,32,6,Object_Land_Pattern_Small,2,,,,,,,,,,,
encoding,image,14.770565000013448,15.783046041964553,32,6,Object_Land_Pattern_Small,2,,,,,,,,,,,
encoding,value,15.783156167017296,21.79486712499056,32,6,Object_Land_Pattern_Small,2,,,,,,,,,,,
encoding,attention,21.794985792017542,24.81330816692207,32,6,Object_Land_Pattern_Small,2,+2,1,0.5485470830462873,,,,,,,,
encoding,fixation,24.813446959014982,26.318757624947466,33,6,Animal_Land_Solid_Large,-5,,,,,,,,,,,
encoding,image,26.318871999974363,27.330227667000145,33,6,Animal_Land_Solid_Large,-5,,,,,,,,,,,
encoding,value,27.330353749915957,33.34272820898332,33,6,Animal_Land_Solid_Large,-5,,,,,,,,,,,
encoding,attention,33.34282775002066,36.36083920893725,33,6,Animal_Land_Solid_Large,-5,-5,1,1.1680298749124631,,,,,,,,
encoding,fixation,36.36100379191339,37.616007249918766,34,6,Object_Sea_Pattern_Small,-9,,,,,,,,,,,
encoding,image,37.61613229196519,38.626996416947804,34,6,Object_Sea_Pattern_Small,-9,,,,,,,,,,,
encoding,value,38.627135833958164,44.63908779202029,34,6,Object_Sea_Pattern_Small,-9,,,,,,,,,,,
encoding,attention,44.63919091701973,47.65615020901896,34,6,Object_Sea_Pattern_Small,-9,-9,1,1.1611732080345973,,,,,,,,
encoding,fixation,47.656297458917834,48.66151166695636,35,6,Animal_Sea_Solid_Small,4,,,,,,,,,,,
encoding,image,48.661668333923444,49.674527999944985,35,6,Animal_Sea_Solid_Small,4,,,,,,,,,,,
encoding,value,49.674655374954455,55.68612658395432,35,6,Animal_Sea_Solid_Small,4,,,,,,,,,,,
encoding,attention,55.68623679201119,58.707628958974965,35,6,Animal_Sea_Solid_Small,4,+4,1,0.7351512499153614,,,,,,,,
encoding,fixation,58.707777458941564,59.96309004200157,36,6,Object_Land_Pattern_Large,4,,,,,,,,,,,
encoding,image,59.963189916918054,60.975036834017374,36,6,Object_Land_Pattern_Large,4,,,,,,,,,,,
encoding,value,60.97513512498699,66.98748404195067,36,6,Object_Land_Pattern_Large,4,,,,,,,,,,,
encoding,attention,66.98759541695472,70.00566487491596,36,6,Object_Land_Pattern_Large,4,+4,1,0.7633056250633672,,,,,,,,
n-back,,,,151,6,,,,1,None,C,False,None,,,,,
n-back,,,,152,6,,,,1,None,V,False,None,,,,,
n-back,,,,153,6,,,,1,None,B,False,None,,,,,
n-back,,,,154,6,,,,1,None,B,False,None,,,,,
n-back,,,,155,6,,,,1,None,C,False,None,,,,,
n-back,,,,156,6,,,,1,None,X,False,None,,,,,
n-back,,,,157,6,,,,1,0.3829424580326304,C,True,1,,,,,
n-back,,,,158,6,,,,1,0.64685020793695,X,True,1,,,,,
n-back,,,,159,6,,,,1,0.4159634170355275,C,True,1,,,,,
n-back,,,,160,6,,,,1,0.7066229999763891,X,True,1,,,,,
n-back,,,,161,6,,,,1,None,Z,False,None,,,,,
n-back,,,,162,6,,,,1,None,C,False,None,,,,,
n-back,,,,163,6,,,,1,None,B,False,None,,,,,
n-back,,,,164,6,,,,1,0.40651229198556393,C,True,1,,,,,
n-back,,,,165,6,,,,1,0.34214912506286055,B,True,1,,,,,
n-back,,,,166,6,,,,1,0.4955093750031665,C,True,1,,,,,
n-back,,,,167,6,,,,1,None,V,False,None,,,,,
n-back,,,,168,6,,,,1,None,N,False,None,,,,,
n-back,,,,169,6,,,,1,None,Z,False,None,,,,,
n-back,,,,170,6,,,,1,None,Z,False,None,,,,,
n-back,,,,171,6,,,,1,None,C,False,None,,,,,
n-back,,,,172,6,,,,1,None,C,False,None,,,,,
n-back,,,,173,6,,,,1,0.4293537080520764,C,True,1,,,,,
n-back,,,,174,6,,,,1,None,B,False,None,,,,,
n-back,,,,175,6,,,,1,None,V,False,None,,,,,
n-back,,,,176,6,,,,1,0.4509394579799846,B,True,1,,,,,
n-back,,,,177,6,,,,1,None,X,False,None,,,,,
n-back,,,,178,6,,,,1,None,Z,False,None,,,,,
n-back,,,,179,6,,,,1,0.4669864160241559,X,True,1,,,,,
n-back,,,,180,6,,,,1,None,C,False,None,,,,,
choice,fixation,139.69803170894738,140.7023820419563,41,6,,,,,,,,,Small,,,,
choice,option,140.71149808401242,141.74228366697207,41,6,,,,,,,,,Small,,,,
choice,choice,141.74238158401567,167.7798262919532,41,6,,,1,0,25.026503833942115,,,,Small,,,,
choice,fixation,167.77997029200196,168.2855465839384,42,6,,,,,,,,,Object,,,,
choice,option,168.29494404199068,169.32213145901915,42,6,,,,,,,,,Object,,,,
choice,choice,169.3222571669612,177.41766537493095,42,6,,,2,1,7.085417208028957,,,,Object,,,,
choice,fixation,177.41783895890694,178.92496849992312,43,6,,,,,,,,,Pattern,,,,
choice,option,178.9341681249207,179.95998299994972,43,6,,,,,,,,,Pattern,,,,
choice,choice,179.9601057919208,181.44232120900415,43,6,,,2,1,0.47020091593731195,,,,Pattern,,,,
choice,fixation,181.44245354190934,182.197485917015,44,6,,,,,,,,,Land,,,,
choice,option,182.20687499991618,183.23355241701938,44,6,,,,,,,,,Land,,,,
choice,choice,183.23366833396722,191.0639062919654,44,6,,,1,1,6.820393625064753,,,,Land,,,,
choice,fixation,191.0640325419372,191.56892383401282,45,6,,,,,,,,,Large,,,,
choice,option,191.57774637499824,192.60330366692506,45,6,,,,,,,,,Large,,,,
choice,choice,192.60342120891437,199.1512726249639,45,6,,,1,1,5.538371833972633,,,,Large,,,,
choice,fixation,199.15138658392243,200.40876562497579,46,6,,,,,,,,,Solid,,,,
choice,option,200.4181195839774,201.44444241700694,46,6,,,,,,,,,Solid,,,,
choice,choice,201.44455137499608,204.5444011669606,46,6,,,1,1,2.090272832894698,,,,Solid,,,,
choice,fixation,204.5445232919883,205.7997098750202,47,6,,,,,,,,,Sea,,,,
choice,option,205.80777129193302,206.83392595895566,47,6,,,,,,,,,Sea,,,,
choice,choice,206.834034416941,209.65582354192156,47,6,,,2,1,1.8115533329546452,,,,Sea,,,,
choice,fixation,209.65594204200897,211.16104483394884,48,6,,,,,,,,,Animal,,,,
choice,option,211.17038687493186,212.19702024990693,48,6,,,,,,,,,Animal,,,,
choice,choice,212.1971304169856,219.38431925000623,48,6,,,1,1,6.17744037497323,,,,Animal,,,,
memory,free_recall,232.85190137499012,254.0524172919104,30,6,,,,,,,,,,,,,
memory,value_recall,256.29844949999824,260.6682119999314,31,6,Object_Land_Pattern_Large,,,,4.366369624971412,,,,,4,,,
memory,value_recall,261.71398291701917,263.4909765420016,32,6,Animal_Sea_Solid_Large,,,,1.7736170419957489,,,,,2,,,
memory,value_recall,265.2868623340037,270.7100187499309,33,6,Animal_Land_Solid_Large,,,,5.4189915410242975,,,,,-5,,,
memory,value_recall,272.008439874975,273.4600632919464,34,6,Object_Land_Pattern_Small,,,,1.4474134169286117,,,,,2,,,
memory,value_recall,274.50265770894475,277.10022787493654,35,6,Object_Sea_Pattern_Small,,,,2.5930703330086544,,,,,-9,,,
memory,value_recall,278.6477127089165,281.52447049994953,36,6,Animal_Sea_Solid_Small,,,,2.872622666065581,,,,,4,,,
memory,spatial_recall,284.7533470420167,288.8420309999492,36,6,Animal_Land_Solid_Large,,,1,4.084503291989677,,,,,,"[-329, 190]","[-329, 190]",
memory,spatial_recall,290.65095083392225,292.5933192499215,36,6,Animal_Sea_Solid_Small,,,1,1.9346168329939246,,,,,,"[329, 189]","[329, 189]",
memory,spatial_recall,293.9030317919096,296.27521491691004,36,6,Object_Sea_Pattern_Small,,,1,2.3667847079923376,,,,,,"[-329, -190]","[-329, -190]",
memory,spatial_recall,298.0829894170165,299.0523118339479,36,6,Object_Land_Pattern_Small,,,1,0.9651322909630835,,,,,,"[0, -380]","[0, -380]",
memory,spatial_recall,301.1098545419518,304.6246481669368,36,6,Object_Land_Pattern_Large,,,1,3.51051350007765,,,,,,"[0, 380]","[0, 380]",
memory,spatial_recall,306.43243495898787,309.6091501249466,36,6,Animal_Sea_Solid_Large,,,1,3.172786582959816,,,,,,"[329, -190]","[329, -190]",
encoding,fixation,4.76847262494266,5.274373000022024,37,7,Object_Sea_Solid_Large,-2,,,,,,,,,,,
encoding,image,5.2745342089328915,6.287089333985932,37,7,Object_Sea_Solid_Large,-2,,,,,,,,,,,
encoding,value,6.287202833918855,12.30093012494035,37,7,Object_Sea_Solid_Large,-2,,,,,,,,,,,
encoding,attention,12.301062125014141,15.319560666917823,37,7,Object_Sea_Solid_Large,-2,-2,1,0.8921005410375074,,,,,,,,
encoding,fixation,15.319703291985206,15.824889583978802,38,7,Object_Sea_Solid_Small,-2,,,,,,,,,,,
encoding,image,15.82499899994582,16.83646499994211,38,7,Object_Sea_Solid_Small,-2,,,,,,,,,,,
encoding,value,16.836581166950054,22.84684745897539,38,7,Object_Sea_Solid_Small,-2,,,,,,,,,,,
encoding,attention,22.84697079192847,25.863896541995928,38,7,Object_Sea_Solid_Small,-2,-2,1,0.6125726249301806,,,,,,,,
encoding,fixation,25.864043041947298,27.12124120898079,39,7,Animal_Land_Solid_Small,9,,,,,,,,,,,
encoding,image,27.12134845892433,28.132605833932757,39,7,Animal_Land_Solid_Small,9,,,,,,,,,,,
encoding,value,28.132722500013188,34.14442504197359,39,7,Animal_Land_Solid_Small,9,,,,,,,,,,,
encoding,attention,34.14453037502244,37.16153141693212,39,7,Animal_Land_Solid_Small,9,+9,1,0.5622229590080678,,,,,,,,
encoding,fixation,37.16167783399578,37.66705954191275,40,7,Animal_Land_Pattern_Small,-4,,,,,,,,,,,
encoding,image,37.66717020899523,38.678229167009704,40,7,Animal_Land_Pattern_Small,-4,,,,,,,,,,,
encoding,value,38.67837191699073,44.689609208959155,40,7,Animal_Land_Pattern_Small,-4,,,,,,,,,,,
encoding,attention,44.68979416694492,47.78806712501682,40,7,Animal_Land_Pattern_Small,-4,-4,1,0.8258843750227243,,,,,,,,
encoding,fixation,47.78823374991771,48.54358749999665,41,7,Animal_Land_Pattern_Large,-2,,,,,,,,,,,
encoding,image,48.54370283393655,49.554969833930954,41,7,Animal_Land_Pattern_Large,-2,,,,,,,,,,,
encoding,value,49.55509695899673,55.566703583928756,41,7,Animal_Land_Pattern_Large,-2,,,,,,,,,,,
encoding,attention,55.5668306669686,58.57826679199934,41,7,Animal_Land_Pattern_Large,-2,None,None,None,,,,,,,,
encoding,fixation,58.57840379199479,60.08412412495818,42,7,Object_Sea_Pattern_Large,5,,,,,,,,,,,
encoding,image,60.08424833393656,61.095586791983806,42,7,Object_Sea_Pattern_Large,5,,,,,,,,,,,
encoding,value,61.09572283399757,67.10691749991383,42,7,Object_Sea_Pattern_Large,5,,,,,,,,,,,
encoding,attention,67.10703137493692,70.11941570893396,42,7,Object_Sea_Pattern_Large,5,None,None,None,,,,,,,,
n-back,,,,181,7,,,,0,None,Z,True,None,,,,,
n-back,,,,182,7,,,,0,None,N,True,None,,,,,
n-back,,,,183,7,,,,1,None,V,False,None,,,,,
n-back,,,,184,7,,,,1,0.6163742499193177,N,True,1,,,,,
n-back,,,,185,7,,,,1,None,Z,False,None,,,,,
n-back,,,,186,7,,,,1,0.47514154098462313,N,True,1,,,,,
n-back,,,,187,7,,,,1,None,C,False,None,,,,,
n-back,,,,188,7,,,,1,None,B,False,None,,,,,
n-back,,,,189,7,,,,1,None,V,False,None,,,,,
n-back,,,,190,7,,,,1,None,N,False,None,,,,,
n-back,,,,191,7,,,,1,0.5083614999894053,V,True,1,,,,,
n-back,,,,192,7,,,,1,None,B,False,None,,,,,
n-back,,,,193,7,,,,1,None,B,False,None,,,,,
n-back,,,,194,7,,,,1,0.48269416706170887,B,True,1,,,,,
n-back,,,,195,7,,,,1,0.58066633308772,B,True,1,,,,,
n-back,,,,196,7,,,,1,None,V,False,None,,,,,
n-back,,,,197,7,,,,1,0.4748955830000341,B,True,1,,,,,
n-back,,,,198,7,,,,1,None,C,False,None,,,,,
n-back,,,,199,7,,,,1,None,X,False,None,,,,,
n-back,,,,200,7,,,,1,None,B,False,None,,,,,
n-back,,,,201,7,,,,1,None,N,False,None,,,,,
n-back,,,,202,7,,,,1,None,Z,False,None,,,,,
n-back,,,,203,7,,,,1,1.0053403340280056,N,True,1,,,,,
n-back,,,,204,7,,,,1,None,V,False,None,,,,,
n-back,,,,205,7,,,,1,None,B,False,None,,,,,
n-back,,,,206,7,,,,1,None,N,False,None,,,,,
n-back,,,,207,7,,,,1,None,Z,False,None,,,,,
n-back,,,,208,7,,,,1,None,Z,False,None,,,,,
n-back,,,,209,7,,,,1,None,X,False,None,,,,,
n-back,,,,210,7,,,,1,0.40653720893897116,Z,True,1,,,,,
choice,fixation,137.7978573340224,138.5532768749399,49,7,,,,,,,,,Large,,,,
choice,option,138.56186629191507,139.58744808391202,49,7,,,,,,,,,Large,,,,
choice,choice,139.58765279198997,149.582847249927,49,7,,,2,0,8.983049000031315,,,,Large,,,,
choice,fixation,149.58298912493046,150.08854729193263,50,7,,,,,,,,,Solid,,,,
choice,option,150.09809020895045,151.12489408394322,50,7,,,,,,,,,Solid,,,,
choice,choice,151.125071791932,154.4123069170164,50,7,,,2,0,2.2772546251071617,,,,Solid,,,,
choice,fixation,154.41244966699742,154.91753158392385,51,7,,,,,,,,,Animal,,,,
choice,option,154.92663237499073,155.95392045902554,51,7,,,,,,,,,Animal,,,,
choice,choice,155.95403945900034,160.0529087500181,51,7,,,1,1,3.088992708013393,,,,Animal,,,,
choice,fixation,160.05303829198238,161.05807595897932,52,7,,,,,,,,,Small,,,,
choice,option,161.0668623339152,162.09390370897017,52,7,,,,,,,,,Small,,,,
choice,choice,162.0940128340153,165.8606499999296,52,7,,,1,1,2.756942500011064,,,,Small,,,,
choice,fixation,165.8607727920171,167.3656670419732,53,7,,,,,,,,,Land,,,,
choice,option,167.37413191702217,168.4002849169774,53,7,,,,,,,,,Land,,,,
choice,choice,168.4003986249445,171.87660916696768,53,7,,,1,1,2.4663261249661446,,,,Land,,,,
choice,fixation,171.87673287501093,172.63225395896006,54,7,,,,,,,,,Sea,,,,
choice,option,172.64070170896593,173.6667999170022,54,7,,,,,,,,,Sea,,,,
choice,choice,173.66698537499178,175.12401720893104,54,7,,,2,0,0.447706958046183,,,,Sea,,,,
choice,fixation,175.1241344169248,175.6291429590201,55,7,,,,,,,,,Object,,,,
choice,option,175.63844612496905,176.66488941700663,55,7,,,,,,,,,Object,,,,
choice,choice,176.66498816700187,178.82683491695207,55,7,,,2,0,1.1522765000117943,,,,Object,,,,
choice,fixation,178.82699104200583,180.33230000000913,56,7,,,,,,,,,Pattern,,,,
choice,option,180.34158141701482,181.36770241695922,56,7,,,,,,,,,Pattern,,,,
choice,choice,181.36782383394893,183.1078789589228,56,7,,,2,1,0.7305282499874011,,,,Pattern,,,,
memory,free_recall,197.0050259999698,220.82189516699873,36,7,,,,,,,,,,,,,
memory,value_recall,224.50117479194887,232.01576879201457,37,7,Animal_Land_Pattern_Large,,,,7.51040299993474,,,,,-2,,,
memory,value_recall,233.31197891698685,238.18164908397011,38,7,Animal_Land_Pattern_Small,,,,4.8653509999858215,,,,,-4,,,
memory,value_recall,239.72810745891184,244.2882486669114,39,7,Object_Sea_Solid_Small,,,,4.555373792070895,,,,,-2,,,
memory,value_recall,246.3343732500216,253.64714262494817,40,7,Object_Sea_Pattern_Large,,,,7.308594041038305,,,,,5,,,
memory,value_recall,255.69548366696108,265.57456154201645,41,7,Object_Sea_Solid_Large,,,,9.874886667006649,,,,,-2,,,
memory,value_recall,267.1216579169268,271.90520891698543,42,7,Animal_Land_Solid_Small,,,,4.779453333001584,,,,,9,,,
memory,spatial_recall,275.10774749994744,276.7321509999456,42,7,Animal_Land_Solid_Small,,,1,1.6204104999778792,,,,,,"[0, 380]","[0, 380]",
memory,spatial_recall,278.0401872500079,281.90143841691315,42,7,Object_Sea_Pattern_Large,,,1,3.8572741250973195,,,,,,"[0, -380]","[0, -380]",
memory,spatial_recall,283.2089652499417,284.9176959169563,42,7,Object_Sea_Solid_Large,,,1,1.7047142080264166,,,,,,"[329, 189]","[329, 189]",
memory,spatial_recall,286.97084545891266,288.4644698749762,42,7,Object_Sea_Solid_Small,,,1,1.4894274160033092,,,,,,"[-329, 190]","[-329, 190]",
memory,spatial_recall,289.770747249946,291.68123062502127,42,7,Animal_Land_Pattern_Small,,,1,1.9061713749542832,,,,,,"[-329, -190]","[-329, -190]",
memory,spatial_recall,292.987502458971,295.32061395898927,42,7,Animal_Land_Pattern_Large,,,1,2.3291364159667864,,,,,,"[329, -190]","[329, -190]",
