phase,event,trial_number,eyetracker_onset,eyetracker_offset,fix_start,fix_end,fix_duration_full,fix_duration_bounded,fix_x,fix_y,roi_x,roi_y,roi_content,onset,offset,game,image,outcome,choice,correct,rt,letter,match,response,option,true_value,true_position,recalled_position,Unnamed: 18
encoding,fixation,1,2159275,2160286,2159495.0,2159663.0,169.0,169.0,1857.7,1171.1,1591.0,891.0,Animal_Sea_Pattern_Small,9.066622167010792,10.07699595799204,1.0,Animal_Land_Pattern_Small,3.0,,,,,,,,,,,
encoding,fixation,1,2159275,2160286,2159678.0,2159768.0,91.0,91.0,1906.6,1125.7,1920.0,1080.0,fixation,9.066622167010792,10.07699595799204,1.0,Animal_Land_Pattern_Small,3.0,,,,,,,,,,,
encoding,fixation,1,2159275,2160286,2159945.0,2160140.0,196.0,196.0,1878.9,1131.6,1920.0,1080.0,fixation,9.066622167010792,10.07699595799204,1.0,Animal_Land_Pattern_Small,3.0,,,,,,,,,,,
encoding,fixation,1,2159275,2160286,2160167.0,2160479.0,313.0,119.0,1811.2,1361.8,1920.0,700.0,Animal_Land_Pattern_Small,9.066622167010792,10.07699595799204,1.0,Animal_Land_Pattern_Small,3.0,,,,,,,,,,,
encoding,image,1,2160286,2161305,2160503.0,2160901.0,399.0,399.0,1862.2,1504.7,1920.0,700.0,Animal_Land_Pattern_Small,10.07714012498036,11.09642287506722,1.0,Animal_Land_Pattern_Small,3.0,,,,,,,,,,,
encoding,image,1,2160286,2161305,2160911.0,2161352.0,442.0,394.0,1905.3,1490.9,1920.0,700.0,Animal_Land_Pattern_Small,10.07714012498036,11.09642287506722,1.0,Animal_Land_Pattern_Small,3.0,,,,,,,,,,,
encoding,value,1,2161305,2167321,2161365.0,2161534.0,170.0,170.0,1848.2,1485.0,1920.0,700.0,Animal_Land_Pattern_Small,11.096600332995877,17.111736249993555,1.0,Animal_Land_Pattern_Small,3.0,,,,,,,,,,,
encoding,value,1,2161305,2167321,2161555.0,2161816.0,262.0,262.0,1871.4,1382.7,1920.0,700.0,Animal_Land_Pattern_Small,11.096600332995877,17.111736249993555,1.0,Animal_Land_Pattern_Small,3.0,,,,,,,,,,,
encoding,value,1,2161305,2167321,2161977.0,2163043.0,1067.0,1067.0,1864.1,1370.6,1920.0,700.0,Animal_Land_Pattern_Small,11.096600332995877,17.111736249993555,1.0,Animal_Land_Pattern_Small,3.0,,,,,,,,,,,
encoding,value,1,2161305,2167321,2163050.0,2163260.0,211.0,211.0,1854.4,1375.3,1920.0,700.0,Animal_Land_Pattern_Small,11.096600332995877,17.111736249993555,1.0,Animal_Land_Pattern_Small,3.0,,,,,,,,,,,
encoding,value,1,2161305,2167321,2163271.0,2163368.0,98.0,98.0,1856.2,1407.9,1920.0,700.0,Animal_Land_Pattern_Small,11.096600332995877,17.111736249993555,1.0,Animal_Land_Pattern_Small,3.0,,,,,,,,,,,
encoding,value,1,2161305,2167321,2163527.0,2163700.0,174.0,174.0,1861.6,1383.7,1920.0,700.0,Animal_Land_Pattern_Small,11.096600332995877,17.111736249993555,1.0,Animal_Land_Pattern_Small,3.0,,,,,,,,,,,
encoding,value,1,2161305,2167321,2163716.0,2163983.0,268.0,268.0,1854.2,1468.2,1920.0,700.0,Animal_Land_Pattern_Small,11.096600332995877,17.111736249993555,1.0,Animal_Land_Pattern_Small,3.0,,,,,,,,,,,
encoding,value,1,2161305,2167321,2163991.0,2164370.0,380.0,380.0,1869.4,1491.9,1920.0,700.0,Animal_Land_Pattern_Small,11.096600332995877,17.111736249993555,1.0,Animal_Land_Pattern_Small,3.0,,,,,,,,,,,
encoding,value,1,2161305,2167321,2164552.0,2164689.0,138.0,138.0,1833.7,1386.2,1920.0,700.0,Animal_Land_Pattern_Small,11.096600332995877,17.111736249993555,1.0,Animal_Land_Pattern_Small,3.0,,,,,,,,,,,
encoding,value,1,2161305,2167321,2164699.0,2164850.0,152.0,152.0,1861.1,1354.2,1920.0,700.0,Animal_Land_Pattern_Small,11.096600332995877,17.111736249993555,1.0,Animal_Land_Pattern_Small,3.0,,,,,,,,,,,
encoding,value,1,2161305,2167321,2164874.0,2165189.0,316.0,316.0,1837.6,1482.8,1920.0,700.0,Animal_Land_Pattern_Small,11.096600332995877,17.111736249993555,1.0,Animal_Land_Pattern_Small,3.0,,,,,,,,,,,
encoding,value,1,2161305,2167321,2165196.0,2165550.0,355.0,355.0,1834.4,1487.2,1920.0,700.0,Animal_Land_Pattern_Small,11.096600332995877,17.111736249993555,1.0,Animal_Land_Pattern_Small,3.0,,,,,,,,,,,
encoding,value,1,2161305,2167321,2165568.0,2165792.0,225.0,225.0,1858.3,1373.7,1920.0,700.0,Animal_Land_Pattern_Small,11.096600332995877,17.111736249993555,1.0,Animal_Land_Pattern_Small,3.0,,,,,,,,,,,
encoding,value,1,2161305,2167321,2165812.0,2165949.0,138.0,138.0,1828.8,1483.5,1920.0,700.0,Animal_Land_Pattern_Small,11.096600332995877,17.111736249993555,1.0,Animal_Land_Pattern_Small,3.0,,,,,,,,,,,
encoding,value,1,2161305,2167321,2166110.0,2166137.0,28.0,28.0,1807.7,1446.8,1920.0,700.0,Animal_Land_Pattern_Small,11.096600332995877,17.111736249993555,1.0,Animal_Land_Pattern_Small,3.0,,,,,,,,,,,
encoding,value,1,2161305,2167321,2166156.0,2167044.0,889.0,889.0,1857.8,1360.1,1920.0,700.0,Animal_Land_Pattern_Small,11.096600332995877,17.111736249993555,1.0,Animal_Land_Pattern_Small,3.0,,,,,,,,,,,
encoding,value,1,2161305,2167321,2167071.0,2167338.0,268.0,250.0,1885.6,1113.8,1920.0,1080.0,fixation,11.096600332995877,17.111736249993555,1.0,Animal_Land_Pattern_Small,3.0,,,,,,,,,,,
encoding,attention,1,2167321,2170333,2167529.0,2167758.0,230.0,230.0,1836.4,1375.5,1920.0,700.0,Animal_Land_Pattern_Small,17.11184404208325,20.124182042083703,1.0,Animal_Land_Pattern_Small,3.0,,,,,,,,,,,
encoding,attention,1,2167321,2170333,2167769.0,2168035.0,267.0,267.0,1909.9,1359.3,1920.0,700.0,Animal_Land_Pattern_Small,17.11184404208325,20.124182042083703,1.0,Animal_Land_Pattern_Small,3.0,,,,,,,,,,,
encoding,attention,1,2167321,2170333,2168049.0,2168252.0,204.0,204.0,1842.8,1363.3,1920.0,700.0,Animal_Land_Pattern_Small,17.11184404208325,20.124182042083703,1.0,Animal_Land_Pattern_Small,3.0,,,,,,,,,,,
encoding,attention,1,2167321,2170333,2168265.0,2168723.0,459.0,459.0,1803.7,1361.3,1920.0,700.0,Animal_Land_Pattern_Small,17.11184404208325,20.124182042083703,1.0,Animal_Land_Pattern_Small,3.0,,,,,,,,,,,
encoding,attention,1,2167321,2170333,2168732.0,2168907.0,176.0,176.0,1777.6,1373.7,1920.0,700.0,Animal_Land_Pattern_Small,17.11184404208325,20.124182042083703,1.0,Animal_Land_Pattern_Small,3.0,,,,,,,,,,,
encoding,attention,1,2167321,2170333,2169076.0,2169105.0,30.0,30.0,1750.1,1457.7,1920.0,700.0,Animal_Land_Pattern_Small,17.11184404208325,20.124182042083703,1.0,Animal_Land_Pattern_Small,3.0,,,,,,,,,,,
encoding,attention,1,2167321,2170333,2169124.0,2169514.0,391.0,391.0,1787.0,1359.9,1920.0,700.0,Animal_Land_Pattern_Small,17.11184404208325,20.124182042083703,1.0,Animal_Land_Pattern_Small,3.0,,,,,,,,,,,
encoding,attention,1,2167321,2170333,2169529.0,2169944.0,416.0,416.0,1790.8,1355.0,1920.0,700.0,Animal_Land_Pattern_Small,17.11184404208325,20.124182042083703,1.0,Animal_Land_Pattern_Small,3.0,,,,,,,,,,,
encoding,attention,1,2167321,2170333,2169982.0,2170180.0,199.0,199.0,1894.7,1110.2,1920.0,1080.0,fixation,17.11184404208325,20.124182042083703,1.0,Animal_Land_Pattern_Small,3.0,,,,,,,,,,,
encoding,attention,1,2167321,2170333,2170224.0,2170280.0,57.0,57.0,1830.7,1354.1,1920.0,700.0,Animal_Land_Pattern_Small,17.11184404208325,20.124182042083703,1.0,Animal_Land_Pattern_Small,3.0,,,,,,,,,,,
encoding,fixation,2,2170334,2171589,2170436.0,2170561.0,126.0,126.0,1794.1,1378.9,1920.0,700.0,Animal_Land_Pattern_Small,20.124331167084165,21.37968329200521,1.0,Animal_Land_Solid_Large,-8.0,,,,,,,,,,,
encoding,fixation,2,2170334,2171589,2170592.0,2170955.0,364.0,364.0,1873.7,1111.9,1920.0,1080.0,fixation,20.124331167084165,21.37968329200521,1.0,Animal_Land_Solid_Large,-8.0,,,,,,,,,,,
encoding,fixation,2,2170334,2171589,2170982.0,2171548.0,567.0,567.0,1814.1,1382.2,1920.0,700.0,Animal_Land_Pattern_Small,20.124331167084165,21.37968329200521,1.0,Animal_Land_Solid_Large,-8.0,,,,,,,,,,,
encoding,fixation,2,2170334,2171589,2171561.0,2171759.0,199.0,28.0,1832.3,1410.4,1920.0,700.0,Animal_Land_Pattern_Small,20.124331167084165,21.37968329200521,1.0,Animal_Land_Solid_Large,-8.0,,,,,,,,,,,
encoding,image,2,2171589,2172601,2171813.0,2172117.0,305.0,305.0,2219.4,1281.3,2249.0,891.0,Animal_Land_Solid_Large,21.37979208305478,22.39138616702985,1.0,Animal_Land_Solid_Large,-8.0,,,,,,,,,,,
encoding,image,2,2171589,2172601,2172264.0,2172770.0,507.0,337.0,2223.4,1301.9,2249.0,891.0,Animal_Land_Solid_Large,21.37979208305478,22.39138616702985,1.0,Animal_Land_Solid_Large,-8.0,,,,,,,,,,,
encoding,value,2,2172601,2178613,2172791.0,2173614.0,824.0,824.0,2211.2,1189.5,2249.0,891.0,Animal_Land_Solid_Large,22.391489624977112,28.40338116697967,1.0,Animal_Land_Solid_Large,-8.0,,,,,,,,,,,
encoding,value,2,2172601,2178613,2173750.0,2173955.0,206.0,206.0,2234.6,1279.5,2249.0,891.0,Animal_Land_Solid_Large,22.391489624977112,28.40338116697967,1.0,Animal_Land_Solid_Large,-8.0,,,,,,,,,,,
encoding,value,2,2172601,2178613,2173968.0,2174252.0,285.0,285.0,2237.6,1312.0,2249.0,891.0,Animal_Land_Solid_Large,22.391489624977112,28.40338116697967,1.0,Animal_Land_Solid_Large,-8.0,,,,,,,,,,,
encoding,value,2,2172601,2178613,2174274.0,2174878.0,605.0,605.0,2213.1,1187.9,2249.0,891.0,Animal_Land_Solid_Large,22.391489624977112,28.40338116697967,1.0,Animal_Land_Solid_Large,-8.0,,,,,,,,,,,
encoding,value,2,2172601,2178613,2175031.0,2175223.0,193.0,193.0,2229.7,1265.6,2249.0,891.0,Animal_Land_Solid_Large,22.391489624977112,28.40338116697967,1.0,Animal_Land_Solid_Large,-8.0,,,,,,,,,,,
encoding,value,2,2172601,2178613,2175234.0,2175652.0,419.0,419.0,2240.4,1285.1,2249.0,891.0,Animal_Land_Solid_Large,22.391489624977112,28.40338116697967,1.0,Animal_Land_Solid_Large,-8.0,,,,,,,,,,,
encoding,value,2,2172601,2178613,2175668.0,2176695.0,1028.0,1028.0,2221.9,1173.1,2249.0,891.0,Animal_Land_Solid_Large,22.391489624977112,28.40338116697967,1.0,Animal_Land_Solid_Large,-8.0,,,,,,,,,,,
encoding,value,2,2172601,2178613,2176718.0,2177855.0,1138.0,1138.0,2247.5,1326.3,2249.0,891.0,Animal_Land_Solid_Large,22.391489624977112,28.40338116697967,1.0,Animal_Land_Solid_Large,-8.0,,,,,,,,,,,
encoding,value,2,2172601,2178613,2178020.0,2178433.0,414.0,414.0,2232.3,1286.2,2249.0,891.0,Animal_Land_Solid_Large,22.391489624977112,28.40338116697967,1.0,Animal_Land_Solid_Large,-8.0,,,,,,,,,,,
encoding,value,2,2172601,2178613,2178453.0,2179168.0,716.0,160.0,2222.4,1173.7,2249.0,891.0,Animal_Land_Solid_Large,22.391489624977112,28.40338116697967,1.0,Animal_Land_Solid_Large,-8.0,,,,,,,,,,,
encoding,attention,2,2178613,2181625,2179179.0,2179958.0,780.0,780.0,2263.6,1160.8,2249.0,891.0,Animal_Land_Solid_Large,28.403492250014096,31.41524845804088,1.0,Animal_Land_Solid_Large,-8.0,,,,,,,,,,,
encoding,attention,2,2178613,2181625,2179973.0,2180078.0,106.0,106.0,2175.1,1176.2,2249.0,891.0,Animal_Land_Solid_Large,28.403492250014096,31.41524845804088,1.0,Animal_Land_Solid_Large,-8.0,,,,,,,,,,,
encoding,attention,2,2178613,2181625,2180258.0,2180925.0,668.0,668.0,2232.1,1298.5,2249.0,891.0,Animal_Land_Solid_Large,28.403492250014096,31.41524845804088,1.0,Animal_Land_Solid_Large,-8.0,,,,,,,,,,,
encoding,fixation,3,2181625,2182630,2181854.0,2182805.0,952.0,776.0,1893.8,1092.0,1920.0,1080.0,fixation,31.415363291976973,32.42051058297511,1.0,Animal_Sea_Pattern_Small,1.0,,,,,,,,,,,
encoding,image,3,2182630,2183641,2182841.0,2183110.0,270.0,270.0,1486.8,1319.7,1591.0,891.0,Animal_Sea_Pattern_Small,32.420615207985975,33.43149083305616,1.0,Animal_Sea_Pattern_Small,1.0,,,,,,,,,,,
encoding,image,3,2182630,2183641,2183316.0,2183467.0,152.0,152.0,1528.2,1275.1,1591.0,891.0,Animal_Sea_Pattern_Small,32.420615207985975,33.43149083305616,1.0,Animal_Sea_Pattern_Small,1.0,,,,,,,,,,,
encoding,image,3,2182630,2183641,2183480.0,2184062.0,583.0,161.0,1544.7,1193.6,1591.0,891.0,Animal_Sea_Pattern_Small,32.420615207985975,33.43149083305616,1.0,Animal_Sea_Pattern_Small,1.0,,,,,,,,,,,
encoding,value,3,2183641,2189654,2184289.0,2184917.0,629.0,629.0,1535.1,1189.2,1591.0,891.0,Animal_Sea_Pattern_Small,33.43159904202912,39.44406400003936,1.0,Animal_Sea_Pattern_Small,1.0,,,,,,,,,,,
encoding,value,3,2183641,2189654,2184936.0,2185133.0,198.0,198.0,1509.2,1259.6,1591.0,891.0,Animal_Sea_Pattern_Small,33.43159904202912,39.44406400003936,1.0,Animal_Sea_Pattern_Small,1.0,,,,,,,,,,,
encoding,value,3,2183641,2189654,2185147.0,2185620.0,474.0,474.0,1545.4,1310.8,1591.0,891.0,Animal_Sea_Pattern_Small,33.43159904202912,39.44406400003936,1.0,Animal_Sea_Pattern_Small,1.0,,,,,,,,,,,
encoding,value,3,2183641,2189654,2185826.0,2186450.0,625.0,625.0,1542.7,1292.6,1591.0,891.0,Animal_Sea_Pattern_Small,33.43159904202912,39.44406400003936,1.0,Animal_Sea_Pattern_Small,1.0,,,,,,,,,,,
encoding,value,3,2183641,2189654,2186470.0,2186768.0,299.0,299.0,1541.8,1191.6,1591.0,891.0,Animal_Sea_Pattern_Small,33.43159904202912,39.44406400003936,1.0,Animal_Sea_Pattern_Small,1.0,,,,,,,,,,,
encoding,value,3,2183641,2189654,2186777.0,2186838.0,62.0,62.0,1502.8,1190.3,1591.0,891.0,Animal_Sea_Pattern_Small,33.43159904202912,39.44406400003936,1.0,Animal_Sea_Pattern_Small,1.0,,,,,,,,,,,
encoding,value,3,2183641,2189654,2187072.0,2187690.0,619.0,619.0,1542.0,1182.7,1591.0,891.0,Animal_Sea_Pattern_Small,33.43159904202912,39.44406400003936,1.0,Animal_Sea_Pattern_Small,1.0,,,,,,,,,,,
encoding,value,3,2183641,2189654,2187720.0,2187981.0,262.0,262.0,1800.8,1368.8,1920.0,700.0,Animal_Land_Pattern_Small,33.43159904202912,39.44406400003936,1.0,Animal_Sea_Pattern_Small,1.0,,,,,,,,,,,
encoding,value,3,2183641,2189654,2188008.0,2188576.0,569.0,569.0,1546.4,1193.1,1591.0,891.0,Animal_Sea_Pattern_Small,33.43159904202912,39.44406400003936,1.0,Animal_Sea_Pattern_Small,1.0,,,,,,,,,,,
encoding,value,3,2183641,2189654,2188586.0,2188888.0,303.0,303.0,1532.7,1193.0,1591.0,891.0,Animal_Sea_Pattern_Small,33.43159904202912,39.44406400003936,1.0,Animal_Sea_Pattern_Small,1.0,,,,,,,,,,,
encoding,value,3,2183641,2189654,2188941.0,2189389.0,449.0,449.0,1894.1,1383.7,1920.0,700.0,Animal_Land_Pattern_Small,33.43159904202912,39.44406400003936,1.0,Animal_Sea_Pattern_Small,1.0,,,,,,,,,,,
encoding,value,3,2183641,2189654,2189436.0,2189705.0,270.0,218.0,2229.7,1168.5,2249.0,891.0,Animal_Land_Solid_Large,33.43159904202912,39.44406400003936,1.0,Animal_Sea_Pattern_Small,1.0,,,,,,,,,,,
encoding,attention,3,2189654,2192667,2189759.0,2190186.0,428.0,428.0,1566.1,1225.0,1591.0,891.0,Animal_Sea_Pattern_Small,39.44416579208337,42.45690433308482,1.0,Animal_Sea_Pattern_Small,1.0,,,,,,,,,,,
encoding,attention,3,2189654,2192667,2190410.0,2190581.0,172.0,172.0,1532.3,1206.8,1591.0,891.0,Animal_Sea_Pattern_Small,39.44416579208337,42.45690433308482,1.0,Animal_Sea_Pattern_Small,1.0,,,,,,,,,,,
encoding,attention,3,2189654,2192667,2190599.0,2190972.0,374.0,374.0,1541.2,1297.5,1591.0,891.0,Animal_Sea_Pattern_Small,39.44416579208337,42.45690433308482,1.0,Animal_Sea_Pattern_Small,1.0,,,,,,,,,,,
encoding,attention,3,2189654,2192667,2191007.0,2191251.0,245.0,245.0,1817.7,1361.2,1920.0,700.0,Animal_Land_Pattern_Small,39.44416579208337,42.45690433308482,1.0,Animal_Sea_Pattern_Small,1.0,,,,,,,,,,,
encoding,attention,3,2189654,2192667,2191266.0,2191496.0,231.0,231.0,1885.5,1395.7,1920.0,700.0,Animal_Land_Pattern_Small,39.44416579208337,42.45690433308482,1.0,Animal_Sea_Pattern_Small,1.0,,,,,,,,,,,
encoding,attention,3,2189654,2192667,2191510.0,2191711.0,202.0,202.0,1825.5,1432.4,1920.0,700.0,Animal_Land_Pattern_Small,39.44416579208337,42.45690433308482,1.0,Animal_Sea_Pattern_Small,1.0,,,,,,,,,,,
encoding,attention,3,2189654,2192667,2191752.0,2192307.0,556.0,556.0,2138.0,1252.0,2249.0,891.0,Animal_Land_Solid_Large,39.44416579208337,42.45690433308482,1.0,Animal_Sea_Pattern_Small,1.0,,,,,,,,,,,
encoding,attention,3,2189654,2192667,2192321.0,2192461.0,141.0,141.0,2222.0,1251.7,2249.0,891.0,Animal_Land_Solid_Large,39.44416579208337,42.45690433308482,1.0,Animal_Sea_Pattern_Small,1.0,,,,,,,,,,,
encoding,fixation,4,2192667,2193923,2192909.0,2193047.0,139.0,139.0,1887.2,1113.1,1920.0,1080.0,fixation,42.45703129202593,43.71255079202819,1.0,Object_Sea_Pattern_Large,-5.0,,,,,,,,,,,
encoding,fixation,4,2192667,2193923,2193303.0,2193328.0,26.0,26.0,1811.8,1208.0,1591.0,891.0,Animal_Sea_Pattern_Small,42.45703129202593,43.71255079202819,1.0,Object_Sea_Pattern_Large,-5.0,,,,,,,,,,,
encoding,fixation,4,2192667,2193923,2193338.0,2193460.0,123.0,123.0,1855.9,1114.5,1591.0,891.0,Animal_Sea_Pattern_Small,42.45703129202593,43.71255079202819,1.0,Object_Sea_Pattern_Large,-5.0,,,,,,,,,,,
encoding,fixation,4,2192667,2193923,2193469.0,2193652.0,184.0,184.0,1896.2,1092.2,1920.0,1080.0,fixation,42.45703129202593,43.71255079202819,1.0,Object_Sea_Pattern_Large,-5.0,,,,,,,,,,,
encoding,fixation,4,2192667,2193923,2193874.0,2194031.0,158.0,49.0,1866.7,1070.4,1920.0,1080.0,fixation,42.45703129202593,43.71255079202819,1.0,Object_Sea_Pattern_Large,-5.0,,,,,,,,,,,
encoding,image,4,2193923,2194935,2194042.0,2194191.0,150.0,150.0,1908.6,1074.8,1920.0,1080.0,fixation,43.71265962498728,44.7246524579823,1.0,Object_Sea_Pattern_Large,-5.0,,,,,,,,,,,
encoding,image,4,2193923,2194935,2194227.0,2194444.0,218.0,218.0,1952.4,733.4000000000001,1920.0,1460.0,Object_Sea_Pattern_Large,43.71265962498728,44.7246524579823,1.0,Object_Sea_Pattern_Large,-5.0,,,,,,,,,,,
encoding,image,4,2193923,2194935,2194460.0,2195171.0,712.0,475.0,1923.2,647.0999999999999,1920.0,1460.0,Object_Sea_Pattern_Large,43.71265962498728,44.7246524579823,1.0,Object_Sea_Pattern_Large,-5.0,,,,,,,,,,,
encoding,value,4,2194935,2200947,2195184.0,2196053.0,870.0,870.0,1931.7,574.0,1920.0,1460.0,Object_Sea_Pattern_Large,44.724766125087626,50.73675554199144,1.0,Object_Sea_Pattern_Large,-5.0,,,,,,,,,,,
encoding,value,4,2194935,2200947,2196068.0,2197573.0,1506.0,1506.0,1932.7,586.5999999999999,1920.0,1460.0,Object_Sea_Pattern_Large,44.724766125087626,50.73675554199144,1.0,Object_Sea_Pattern_Large,-5.0,,,,,,,,,,,
encoding,value,4,2194935,2200947,2197585.0,2197819.0,235.0,235.0,1941.3,620.5999999999999,1920.0,1460.0,Object_Sea_Pattern_Large,44.724766125087626,50.73675554199144,1.0,Object_Sea_Pattern_Large,-5.0,,,,,,,,,,,
encoding,value,4,2194935,2200947,2197828.0,2198081.0,254.0,254.0,1933.7,575.9000000000001,1920.0,1460.0,Object_Sea_Pattern_Large,44.724766125087626,50.73675554199144,1.0,Object_Sea_Pattern_Large,-5.0,,,,,,,,,,,
encoding,value,4,2194935,2200947,2198101.0,2198692.0,592.0,592.0,1956.9,674.8,1920.0,1460.0,Object_Sea_Pattern_Large,44.724766125087626,50.73675554199144,1.0,Object_Sea_Pattern_Large,-5.0,,,,,,,,,,,
encoding,value,4,2194935,2200947,2198746.0,2198842.0,97.0,97.0,2049.8,1185.3,2249.0,891.0,Animal_Land_Solid_Large,44.724766125087626,50.73675554199144,1.0,Object_Sea_Pattern_Large,-5.0,,,,,,,,,,,
encoding,value,4,2194935,2200947,2198869.0,2199213.0,345.0,345.0,1862.4,1437.5,1920.0,700.0,Animal_Land_Pattern_Small,44.724766125087626,50.73675554199144,1.0,Object_Sea_Pattern_Large,-5.0,,,,,,,,,,,
encoding,value,4,2194935,2200947,2199245.0,2199855.0,611.0,611.0,2193.4,1232.9,2249.0,891.0,Animal_Land_Solid_Large,44.724766125087626,50.73675554199144,1.0,Object_Sea_Pattern_Large,-5.0,,,,,,,,,,,
encoding,value,4,2194935,2200947,2199919.0,2200119.0,201.0,201.0,1564.7,1168.0,1591.0,891.0,Animal_Sea_Pattern_Small,44.724766125087626,50.73675554199144,1.0,Object_Sea_Pattern_Large,-5.0,,,,,,,,,,,
encoding,value,4,2194935,2200947,2200141.0,2200510.0,370.0,370.0,1413.9,1221.6,1591.0,891.0,Animal_Sea_Pattern_Small,44.724766125087626,50.73675554199144,1.0,Object_Sea_Pattern_Large,-5.0,,,,,,,,,,,
encoding,value,4,2194935,2200947,2200558.0,2201372.0,815.0,389.0,1926.9,582.7,1920.0,1460.0,Object_Sea_Pattern_Large,44.724766125087626,50.73675554199144,1.0,Object_Sea_Pattern_Large,-5.0,,,,,,,,,,,
encoding,attention,4,2200947,2203961,2201381.0,2201658.0,278.0,278.0,1887.3,570.0999999999999,1920.0,1460.0,Object_Sea_Pattern_Large,50.736868917010725,53.75031279202085,1.0,Object_Sea_Pattern_Large,-5.0,,,,,,,,,,,
encoding,attention,4,2200947,2203961,2201829.0,2202422.0,594.0,594.0,1791.9,1214.3,1591.0,891.0,Animal_Sea_Pattern_Small,50.736868917010725,53.75031279202085,1.0,Object_Sea_Pattern_Large,-5.0,,,,,,,,,,,
encoding,attention,4,2200947,2203961,2202441.0,2202752.0,312.0,312.0,1939.1,1168.7,1920.0,700.0,Animal_Land_Pattern_Small,50.736868917010725,53.75031279202085,1.0,Object_Sea_Pattern_Large,-5.0,,,,,,,,,,,
encoding,attention,4,2200947,2203961,2202760.0,2203947.0,1188.0,1188.0,1923.2,1089.0,1920.0,1080.0,fixation,50.736868917010725,53.75031279202085,1.0,Object_Sea_Pattern_Large,-5.0,,,,,,,,,,,
encoding,fixation,5,2203961,2204966,2204128.0,2204262.0,135.0,135.0,1882.5,979.4000000000001,1920.0,1460.0,Object_Sea_Pattern_Large,53.750434083049186,54.75562737497967,1.0,Object_Land_Solid_Small,-3.0,,,,,,,,,,,
encoding,fixation,5,2203961,2204966,2204283.0,2204858.0,576.0,576.0,1903.5,1093.8,1920.0,1080.0,fixation,53.750434083049186,54.75562737497967,1.0,Object_Land_Solid_Small,-3.0,,,,,,,,,,,
encoding,fixation,5,2203961,2204966,2204876.0,2205050.0,175.0,90.0,1798.0,1131.8,1591.0,891.0,Animal_Sea_Pattern_Small,53.750434083049186,54.75562737497967,1.0,Object_Land_Solid_Small,-3.0,,,,,,,,,,,
encoding,image,5,2204967,2205978,2205068.0,2205211.0,144.0,144.0,1906.3,1106.0,1920.0,1080.0,fixation,54.75580312497914,55.76711224997416,1.0,Object_Land_Solid_Small,-3.0,,,,,,,,,,,
encoding,image,5,2204967,2205978,2205251.0,2205873.0,623.0,623.0,2244.6,912.8,2249.0,1269.0,Object_Land_Solid_Small,54.75580312497914,55.76711224997416,1.0,Object_Land_Solid_Small,-3.0,,,,,,,,,,,
encoding,image,5,2204967,2205978,2205884.0,2206200.0,317.0,94.0,2205.7,905.2,2249.0,1269.0,Object_Land_Solid_Small,54.75580312497914,55.76711224997416,1.0,Object_Land_Solid_Small,-3.0,,,,,,,,,,,
encoding,value,5,2205978,2211990,2206215.0,2206537.0,323.0,323.0,2265.5,827.7,2249.0,1269.0,Object_Land_Solid_Small,55.76723279198632,61.77942083298694,1.0,Object_Land_Solid_Small,-3.0,,,,,,,,,,,
encoding,value,5,2205978,2211990,2206580.0,2206786.0,207.0,207.0,1907.8,1014.5999999999999,1920.0,1080.0,fixation,55.76723279198632,61.77942083298694,1.0,Object_Land_Solid_Small,-3.0,,,,,,,,,,,
encoding,value,5,2205978,2211990,2206832.0,2207024.0,193.0,193.0,2295.0,773.9000000000001,2249.0,1269.0,Object_Land_Solid_Small,55.76723279198632,61.77942083298694,1.0,Object_Land_Solid_Small,-3.0,,,,,,,,,,,
encoding,value,5,2205978,2211990,2207034.0,2207423.0,390.0,390.0,2270.0,779.5999999999999,2249.0,1269.0,Object_Land_Solid_Small,55.76723279198632,61.77942083298694,1.0,Object_Land_Solid_Small,-3.0,,,,,,,,,,,
encoding,value,5,2205978,2211990,2207433.0,2207688.0,256.0,256.0,2272.0,813.4000000000001,2249.0,1269.0,Object_Land_Solid_Small,55.76723279198632,61.77942083298694,1.0,Object_Land_Solid_Small,-3.0,,,,,,,,,,,
encoding,value,5,2205978,2211990,2207704.0,2208145.0,442.0,442.0,2259.9,884.5,2249.0,1269.0,Object_Land_Solid_Small,55.76723279198632,61.77942083298694,1.0,Object_Land_Solid_Small,-3.0,,,,,,,,,,,
encoding,value,5,2205978,2211990,2208194.0,2208548.0,355.0,355.0,1823.3,1331.3,1920.0,700.0,Animal_Land_Pattern_Small,55.76723279198632,61.77942083298694,1.0,Object_Land_Solid_Small,-3.0,,,,,,,,,,,
encoding,value,5,2205978,2211990,2208561.0,2208786.0,226.0,226.0,1898.8,1336.6,1920.0,700.0,Animal_Land_Pattern_Small,55.76723279198632,61.77942083298694,1.0,Object_Land_Solid_Small,-3.0,,,,,,,,,,,
encoding,value,5,2205978,2211990,2208802.0,2209161.0,360.0,360.0,1843.8,1371.9,1920.0,700.0,Animal_Land_Pattern_Small,55.76723279198632,61.77942083298694,1.0,Object_Land_Solid_Small,-3.0,,,,,,,,,,,
encoding,value,5,2205978,2211990,2209199.0,2210703.0,1505.0,1505.0,2112.5,1226.7,2249.0,891.0,Animal_Land_Solid_Large,55.76723279198632,61.77942083298694,1.0,Object_Land_Solid_Small,-3.0,,,,,,,,,,,
encoding,value,5,2205978,2211990,2210736.0,2210913.0,178.0,178.0,2241.4,871.4000000000001,2249.0,1269.0,Object_Land_Solid_Small,55.76723279198632,61.77942083298694,1.0,Object_Land_Solid_Small,-3.0,,,,,,,,,,,
encoding,value,5,2205978,2211990,2210924.0,2212089.0,1166.0,1066.0,2268.0,790.9000000000001,2249.0,1269.0,Object_Land_Solid_Small,55.76723279198632,61.77942083298694,1.0,Object_Land_Solid_Small,-3.0,,,,,,,,,,,
encoding,attention,5,2211990,2215054,2212248.0,2212413.0,166.0,166.0,2247.0,844.8,2249.0,1269.0,Object_Land_Solid_Small,61.77952666708734,64.8423392920522,1.0,Object_Land_Solid_Small,-3.0,,,,,,,,,,,
encoding,attention,5,2211990,2215054,2212423.0,2212885.0,463.0,463.0,2206.2,816.0999999999999,2249.0,1269.0,Object_Land_Solid_Small,61.77952666708734,64.8423392920522,1.0,Object_Land_Solid_Small,-3.0,,,,,,,,,,,
encoding,attention,5,2211990,2215054,2212911.0,2213325.0,415.0,415.0,1861.8,685.5,1920.0,1460.0,Object_Sea_Pattern_Large,61.77952666708734,64.8423392920522,1.0,Object_Land_Solid_Small,-3.0,,,,,,,,,,,
encoding,attention,5,2211990,2215054,2213369.0,2213574.0,206.0,206.0,2232.4,832.7,2249.0,1269.0,Object_Land_Solid_Small,61.77952666708734,64.8423392920522,1.0,Object_Land_Solid_Small,-3.0,,,,,,,,,,,
encoding,attention,5,2211990,2215054,2213594.0,2213740.0,147.0,147.0,2189.0,826.8,2249.0,1269.0,Object_Land_Solid_Small,61.77952666708734,64.8423392920522,1.0,Object_Land_Solid_Small,-3.0,,,,,,,,,,,
encoding,attention,5,2211990,2215054,2213790.0,2214051.0,262.0,262.0,2057.3,1195.1,2249.0,891.0,Animal_Land_Solid_Large,61.77952666708734,64.8423392920522,1.0,Object_Land_Solid_Small,-3.0,,,,,,,,,,,
encoding,attention,5,2211990,2215054,2214076.0,2214344.0,269.0,269.0,1908.0,1199.1,1920.0,700.0,Animal_Land_Pattern_Small,61.77952666708734,64.8423392920522,1.0,Object_Land_Solid_Small,-3.0,,,,,,,,,,,
encoding,attention,5,2211990,2215054,2214361.0,2214561.0,201.0,201.0,1845.6,1253.0,1920.0,700.0,Animal_Land_Pattern_Small,61.77952666708734,64.8423392920522,1.0,Object_Land_Solid_Small,-3.0,,,,,,,,,,,
encoding,fixation,6,2215054,2216562,2215113.0,2215439.0,327.0,327.0,2186.6,857.4000000000001,2249.0,1269.0,Object_Land_Solid_Small,64.84246733307373,66.35027116700076,1.0,Object_Sea_Solid_Large,9.0,,,,,,,,,,,
encoding,fixation,6,2215054,2216562,2215463.0,2216007.0,545.0,545.0,1982.0,952.4000000000001,1920.0,1460.0,Object_Sea_Pattern_Large,64.84246733307373,66.35027116700076,1.0,Object_Sea_Solid_Large,9.0,,,,,,,,,,,
encoding,fixation,6,2215054,2216562,2216030.0,2216194.0,165.0,165.0,2098.9,1095.4,2249.0,891.0,Animal_Land_Solid_Large,64.84246733307373,66.35027116700076,1.0,Object_Sea_Solid_Large,9.0,,,,,,,,,,,
encoding,fixation,6,2215054,2216562,2216218.0,2216359.0,142.0,142.0,1845.7,1259.3,1920.0,700.0,Animal_Land_Pattern_Small,64.84246733307373,66.35027116700076,1.0,Object_Sea_Solid_Large,9.0,,,,,,,,,,,
encoding,fixation,6,2215054,2216562,2216497.0,2216846.0,350.0,65.0,1786.4,1366.6,1920.0,700.0,Animal_Land_Pattern_Small,64.84246733307373,66.35027116700076,1.0,Object_Sea_Solid_Large,9.0,,,,,,,,,,,
encoding,image,6,2216562,2217574,2216895.0,2217121.0,227.0,227.0,2283.0,1168.6,2249.0,891.0,Animal_Land_Solid_Large,66.35043266706634,67.36243612505496,1.0,Object_Sea_Solid_Large,9.0,,,,,,,,,,,
encoding,image,6,2216562,2217574,2217143.0,2217237.0,95.0,95.0,2337.5,1076.4,2249.0,1269.0,Object_Land_Solid_Small,66.35043266706634,67.36243612505496,1.0,Object_Sea_Solid_Large,9.0,,,,,,,,,,,
encoding,image,6,2216562,2217574,2217263.0,2217530.0,268.0,268.0,2267.0,850.5999999999999,2249.0,1269.0,Object_Land_Solid_Small,66.35043266706634,67.36243612505496,1.0,Object_Sea_Solid_Large,9.0,,,,,,,,,,,
encoding,image,6,2216562,2217574,2217542.0,2217774.0,233.0,32.0,2200.3,817.2,2249.0,1269.0,Object_Land_Solid_Small,66.35043266706634,67.36243612505496,1.0,Object_Sea_Solid_Large,9.0,,,,,,,,,,,
encoding,value,6,2217574,2223587,2217802.0,2218020.0,219.0,219.0,1794.4,772.5,1920.0,1460.0,Object_Sea_Pattern_Large,67.36254295799881,73.3750258750515,1.0,Object_Sea_Solid_Large,9.0,,,,,,,,,,,
encoding,value,6,2217574,2223587,2218040.0,2218298.0,259.0,259.0,1644.0,804.7,1591.0,1269.0,Object_Sea_Solid_Large,67.36254295799881,73.3750258750515,1.0,Object_Sea_Solid_Large,9.0,,,,,,,,,,,
encoding,value,6,2217574,2223587,2218307.0,2218918.0,612.0,612.0,1629.3,816.4000000000001,1591.0,1269.0,Object_Sea_Solid_Large,67.36254295799881,73.3750258750515,1.0,Object_Sea_Solid_Large,9.0,,,,,,,,,,,
encoding,value,6,2217574,2223587,2219152.0,2220251.0,1100.0,1100.0,1626.4,827.8,1591.0,1269.0,Object_Sea_Solid_Large,67.36254295799881,73.3750258750515,1.0,Object_Sea_Solid_Large,9.0,,,,,,,,,,,
encoding,value,6,2217574,2223587,2220272.0,2220672.0,401.0,401.0,1592.4,958.5999999999999,1591.0,1269.0,Object_Sea_Solid_Large,67.36254295799881,73.3750258750515,1.0,Object_Sea_Solid_Large,9.0,,,,,,,,,,,
encoding,value,6,2217574,2223587,2220692.0,2221076.0,385.0,385.0,1632.7,834.2,1591.0,1269.0,Object_Sea_Solid_Large,67.36254295799881,73.3750258750515,1.0,Object_Sea_Solid_Large,9.0,,,,,,,,,,,
encoding,value,6,2217574,2223587,2221086.0,2221319.0,234.0,234.0,1599.5,856.3,1591.0,1269.0,Object_Sea_Solid_Large,67.36254295799881,73.3750258750515,1.0,Object_Sea_Solid_Large,9.0,,,,,,,,,,,
encoding,value,6,2217574,2223587,2221327.0,2221852.0,526.0,526.0,1629.0,826.7,1591.0,1269.0,Object_Sea_Solid_Large,67.36254295799881,73.3750258750515,1.0,Object_Sea_Solid_Large,9.0,,,,,,,,,,,
encoding,value,6,2217574,2223587,2222056.0,2222340.0,285.0,285.0,1561.1,1080.4,1591.0,891.0,Animal_Sea_Pattern_Small,67.36254295799881,73.3750258750515,1.0,Object_Sea_Solid_Large,9.0,,,,,,,,,,,
encoding,value,6,2217574,2223587,2222384.0,2222566.0,183.0,183.0,1895.6,1189.8,1920.0,700.0,Animal_Land_Pattern_Small,67.36254295799881,73.3750258750515,1.0,Object_Sea_Solid_Large,9.0,,,,,,,,,,,
encoding,value,6,2217574,2223587,2222582.0,2222802.0,221.0,221.0,1916.5,1260.4,1920.0,700.0,Animal_Land_Pattern_Small,67.36254295799881,73.3750258750515,1.0,Object_Sea_Solid_Large,9.0,,,,,,,,,,,
encoding,value,6,2217574,2223587,2222845.0,2223600.0,756.0,742.0,2205.0,1187.3,2249.0,891.0,Animal_Land_Solid_Large,67.36254295799881,73.3750258750515,1.0,Object_Sea_Solid_Large,9.0,,,,,,,,,,,
encoding,attention,6,2223587,2226600,2223620.0,2223796.0,177.0,177.0,2234.9,1040.2,2249.0,1269.0,Object_Land_Solid_Small,73.375138583011,76.38812520797364,1.0,Object_Sea_Solid_Large,9.0,,,,,,,,,,,
encoding,attention,6,2223587,2226600,2223816.0,2224070.0,255.0,255.0,2163.2,929.0999999999999,2249.0,1269.0,Object_Land_Solid_Small,73.375138583011,76.38812520797364,1.0,Object_Sea_Solid_Large,9.0,,,,,,,,,,,
encoding,attention,6,2223587,2226600,2224111.0,2224323.0,213.0,213.0,1795.8,806.2,1920.0,1460.0,Object_Sea_Pattern_Large,73.375138583011,76.38812520797364,1.0,Object_Sea_Solid_Large,9.0,,,,,,,,,,,
encoding,attention,6,2223587,2226600,2224344.0,2224844.0,501.0,501.0,1593.4,806.7,1591.0,1269.0,Object_Sea_Solid_Large,73.375138583011,76.38812520797364,1.0,Object_Sea_Solid_Large,9.0,,,,,,,,,,,
encoding,attention,6,2223587,2226600,2225003.0,2225361.0,359.0,359.0,1693.1,827.2,1591.0,1269.0,Object_Sea_Solid_Large,73.375138583011,76.38812520797364,1.0,Object_Sea_Solid_Large,9.0,,,,,,,,,,,
encoding,attention,6,2223587,2226600,2225410.0,2225733.0,324.0,324.0,1662.9,1166.0,1591.0,891.0,Animal_Sea_Pattern_Small,73.375138583011,76.38812520797364,1.0,Object_Sea_Solid_Large,9.0,,,,,,,,,,,
encoding,attention,6,2223587,2226600,2225769.0,2226319.0,551.0,551.0,1909.0,1119.2,1920.0,1080.0,fixation,73.375138583011,76.38812520797364,1.0,Object_Sea_Solid_Large,9.0,,,,,,,,,,,
encoding,fixation,7,2714610,2715866,2714860.0,2715065.0,206.0,206.0,1863.4,1155.8,1591.0,891.0,Animal_Sea_Pattern_Small,8.084706000052392,9.34010179201141,2.0,Animal_Sea_Pattern_Small,9.0,,,,,,,,,,,
encoding,fixation,7,2714610,2715866,2715260.0,2715502.0,243.0,243.0,1833.6,1210.3,1591.0,891.0,Animal_Sea_Pattern_Small,8.084706000052392,9.34010179201141,2.0,Animal_Sea_Pattern_Small,9.0,,,,,,,,,,,
encoding,fixation,7,2714610,2715866,2715512.0,2715680.0,169.0,169.0,1864.0,1157.4,1591.0,891.0,Animal_Sea_Pattern_Small,8.084706000052392,9.34010179201141,2.0,Animal_Sea_Pattern_Small,9.0,,,,,,,,,,,
encoding,fixation,7,2714610,2715866,2715712.0,2716033.0,322.0,154.0,1804.1,1425.3,1920.0,700.0,Object_Sea_Pattern_Small,8.084706000052392,9.34010179201141,2.0,Animal_Sea_Pattern_Small,9.0,,,,,,,,,,,
encoding,image,7,2715866,2716877,2716063.0,2717058.0,996.0,814.0,1527.2,1320.1,1591.0,891.0,Animal_Sea_Pattern_Small,9.340279167052358,10.351606416981667,2.0,Animal_Sea_Pattern_Small,9.0,,,,,,,,,,,
encoding,value,7,2716877,2722891,2717076.0,2717386.0,311.0,311.0,1518.2,1215.5,1591.0,891.0,Animal_Sea_Pattern_Small,10.351705334032886,16.36504479206633,2.0,Animal_Sea_Pattern_Small,9.0,,,,,,,,,,,
encoding,value,7,2716877,2722891,2717567.0,2717881.0,315.0,315.0,1518.7,1218.0,1591.0,891.0,Animal_Sea_Pattern_Small,10.351705334032886,16.36504479206633,2.0,Animal_Sea_Pattern_Small,9.0,,,,,,,,,,,
encoding,value,7,2716877,2722891,2717900.0,2718170.0,271.0,271.0,1510.8,1292.4,1591.0,891.0,Animal_Sea_Pattern_Small,10.351705334032886,16.36504479206633,2.0,Animal_Sea_Pattern_Small,9.0,,,,,,,,,,,
encoding,value,7,2716877,2722891,2718181.0,2718352.0,172.0,172.0,1503.2,1240.6,1591.0,891.0,Animal_Sea_Pattern_Small,10.351705334032886,16.36504479206633,2.0,Animal_Sea_Pattern_Small,9.0,,,,,,,,,,,
encoding,value,7,2716877,2722891,2718370.0,2718712.0,343.0,343.0,1504.0,1331.5,1591.0,891.0,Animal_Sea_Pattern_Small,10.351705334032886,16.36504479206633,2.0,Animal_Sea_Pattern_Small,9.0,,,,,,,,,,,
encoding,value,7,2716877,2722891,2718730.0,2719224.0,495.0,495.0,1517.4,1226.6,1591.0,891.0,Animal_Sea_Pattern_Small,10.351705334032886,16.36504479206633,2.0,Animal_Sea_Pattern_Small,9.0,,,,,,,,,,,
encoding,value,7,2716877,2722891,2719242.0,2719294.0,53.0,53.0,1495.7,1292.3,1591.0,891.0,Animal_Sea_Pattern_Small,10.351705334032886,16.36504479206633,2.0,Animal_Sea_Pattern_Small,9.0,,,,,,,,,,,
encoding,value,7,2716877,2722891,2719456.0,2719648.0,193.0,193.0,1508.3,1284.5,1591.0,891.0,Animal_Sea_Pattern_Small,10.351705334032886,16.36504479206633,2.0,Animal_Sea_Pattern_Small,9.0,,,,,,,,,,,
encoding,value,7,2716877,2722891,2719664.0,2720019.0,356.0,356.0,1535.1,1205.8,1591.0,891.0,Animal_Sea_Pattern_Small,10.351705334032886,16.36504479206633,2.0,Animal_Sea_Pattern_Small,9.0,,,,,,,,,,,
encoding,value,7,2716877,2722891,2720040.0,2720697.0,658.0,658.0,1493.9,1298.5,1591.0,891.0,Animal_Sea_Pattern_Small,10.351705334032886,16.36504479206633,2.0,Animal_Sea_Pattern_Small,9.0,,,,,,,,,,,
encoding,value,7,2716877,2722891,2720712.0,2721023.0,312.0,312.0,1512.0,1326.5,1591.0,891.0,Animal_Sea_Pattern_Small,10.351705334032886,16.36504479206633,2.0,Animal_Sea_Pattern_Small,9.0,,,,,,,,,,,
encoding,value,7,2716877,2722891,2721201.0,2721572.0,372.0,372.0,1525.4,1308.0,1591.0,891.0,Animal_Sea_Pattern_Small,10.351705334032886,16.36504479206633,2.0,Animal_Sea_Pattern_Small,9.0,,,,,,,,,,,
encoding,value,7,2716877,2722891,2721587.0,2722440.0,854.0,854.0,1510.6,1238.3,1591.0,891.0,Animal_Sea_Pattern_Small,10.351705334032886,16.36504479206633,2.0,Animal_Sea_Pattern_Small,9.0,,,,,,,,,,,
encoding,value,7,2716877,2722891,2722450.0,2723123.0,674.0,441.0,1523.0,1236.2,1591.0,891.0,Animal_Sea_Pattern_Small,10.351705334032886,16.36504479206633,2.0,Animal_Sea_Pattern_Small,9.0,,,,,,,,,,,
encoding,attention,7,2722891,2725908,2723135.0,2723344.0,210.0,210.0,1476.3,1230.4,1591.0,891.0,Animal_Sea_Pattern_Small,16.365139708970673,19.381968875066377,2.0,Animal_Sea_Pattern_Small,9.0,-4.0,0.0,2.8209167500026524,,,,,,,,
encoding,attention,7,2722891,2725908,2723357.0,2723539.0,183.0,183.0,1566.6,1222.9,1591.0,891.0,Animal_Sea_Pattern_Small,16.365139708970673,19.381968875066377,2.0,Animal_Sea_Pattern_Small,9.0,-4.0,0.0,2.8209167500026524,,,,,,,,
encoding,attention,7,2722891,2725908,2723702.0,2724089.0,388.0,388.0,1542.0,1221.0,1591.0,891.0,Animal_Sea_Pattern_Small,16.365139708970673,19.381968875066377,2.0,Animal_Sea_Pattern_Small,9.0,-4.0,0.0,2.8209167500026524,,,,,,,,
encoding,attention,7,2722891,2725908,2724103.0,2724516.0,414.0,414.0,1468.9,1237.9,1591.0,891.0,Animal_Sea_Pattern_Small,16.365139708970673,19.381968875066377,2.0,Animal_Sea_Pattern_Small,9.0,-4.0,0.0,2.8209167500026524,,,,,,,,
encoding,attention,7,2722891,2725908,2724527.0,2724835.0,309.0,309.0,1552.5,1233.9,1591.0,891.0,Animal_Sea_Pattern_Small,16.365139708970673,19.381968875066377,2.0,Animal_Sea_Pattern_Small,9.0,-4.0,0.0,2.8209167500026524,,,,,,,,
encoding,fixation,8,2725908,2726663,2726448.0,2726697.0,250.0,215.0,1866.2,1153.6,1591.0,891.0,Animal_Sea_Pattern_Small,19.38211904198397,20.13711100001819,2.0,Object_Land_Solid_Large,5.0,,,,,,,,,,,
encoding,image,8,2726663,2727672,2726844.0,2727044.0,201.0,201.0,1853.7,1152.3,1591.0,891.0,Animal_Sea_Pattern_Small,20.137222083983943,21.14640883402899,2.0,Object_Land_Solid_Large,5.0,,,,,,,,,,,
encoding,image,8,2726663,2727672,2727082.0,2727363.0,282.0,282.0,1915.1,728.2,1920.0,1460.0,Object_Land_Solid_Large,20.137222083983943,21.14640883402899,2.0,Object_Land_Solid_Large,5.0,,,,,,,,,,,
encoding,image,8,2726663,2727672,2727375.0,2727718.0,344.0,297.0,1874.0,662.3,1920.0,1460.0,Object_Land_Solid_Large,20.137222083983943,21.14640883402899,2.0,Object_Land_Solid_Large,5.0,,,,,,,,,,,
encoding,value,8,2727672,2733684,2727728.0,2728188.0,461.0,461.0,1931.0,665.3,1920.0,1460.0,Object_Land_Solid_Large,21.146523709059693,27.157764291972853,2.0,Object_Land_Solid_Large,5.0,,,,,,,,,,,
encoding,value,8,2727672,2733684,2728206.0,2728455.0,250.0,250.0,1900.1,544.5999999999999,1920.0,1460.0,Object_Land_Solid_Large,21.146523709059693,27.157764291972853,2.0,Object_Land_Solid_Large,5.0,,,,,,,,,,,
encoding,value,8,2727672,2733684,2728472.0,2728638.0,167.0,167.0,1906.6,626.8,1920.0,1460.0,Object_Land_Solid_Large,21.146523709059693,27.157764291972853,2.0,Object_Land_Solid_Large,5.0,,,,,,,,,,,
encoding,value,8,2727672,2733684,2728653.0,2728872.0,220.0,220.0,1901.2,547.8,1920.0,1460.0,Object_Land_Solid_Large,21.146523709059693,27.157764291972853,2.0,Object_Land_Solid_Large,5.0,,,,,,,,,,,
encoding,value,8,2727672,2733684,2729074.0,2729212.0,139.0,139.0,1887.0,577.5,1920.0,1460.0,Object_Land_Solid_Large,21.146523709059693,27.157764291972853,2.0,Object_Land_Solid_Large,5.0,,,,,,,,,,,
encoding,value,8,2727672,2733684,2729233.0,2729515.0,283.0,283.0,1907.0,676.5999999999999,1920.0,1460.0,Object_Land_Solid_Large,21.146523709059693,27.157764291972853,2.0,Object_Land_Solid_Large,5.0,,,,,,,,,,,
encoding,value,8,2727672,2733684,2729523.0,2729685.0,163.0,163.0,1890.3,683.5999999999999,1920.0,1460.0,Object_Land_Solid_Large,21.146523709059693,27.157764291972853,2.0,Object_Land_Solid_Large,5.0,,,,,,,,,,,
encoding,value,8,2727672,2733684,2729703.0,2730132.0,430.0,430.0,1903.8,554.4000000000001,1920.0,1460.0,Object_Land_Solid_Large,21.146523709059693,27.157764291972853,2.0,Object_Land_Solid_Large,5.0,,,,,,,,,,,
encoding,value,8,2727672,2733684,2730149.0,2730421.0,273.0,273.0,1892.2,629.4000000000001,1920.0,1460.0,Object_Land_Solid_Large,21.146523709059693,27.157764291972853,2.0,Object_Land_Solid_Large,5.0,,,,,,,,,,,
encoding,value,8,2727672,2733684,2730429.0,2730624.0,196.0,196.0,1897.3,580.0,1920.0,1460.0,Object_Land_Solid_Large,21.146523709059693,27.157764291972853,2.0,Object_Land_Solid_Large,5.0,,,,,,,,,,,
encoding,value,8,2727672,2733684,2730813.0,2731246.0,434.0,434.0,1893.9,682.9000000000001,1920.0,1460.0,Object_Land_Solid_Large,21.146523709059693,27.157764291972853,2.0,Object_Land_Solid_Large,5.0,,,,,,,,,,,
encoding,value,8,2727672,2733684,2731264.0,2732127.0,864.0,864.0,1907.4,562.0,1920.0,1460.0,Object_Land_Solid_Large,21.146523709059693,27.157764291972853,2.0,Object_Land_Solid_Large,5.0,,,,,,,,,,,
encoding,value,8,2727672,2733684,2732149.0,2732482.0,334.0,334.0,1922.5,694.0999999999999,1920.0,1460.0,Object_Land_Solid_Large,21.146523709059693,27.157764291972853,2.0,Object_Land_Solid_Large,5.0,,,,,,,,,,,
encoding,value,8,2727672,2733684,2732638.0,2733007.0,370.0,370.0,1910.0,604.5,1920.0,1460.0,Object_Land_Solid_Large,21.146523709059693,27.157764291972853,2.0,Object_Land_Solid_Large,5.0,,,,,,,,,,,
encoding,value,8,2727672,2733684,2733021.0,2733294.0,274.0,274.0,1907.0,639.8,1920.0,1460.0,Object_Land_Solid_Large,21.146523709059693,27.157764291972853,2.0,Object_Land_Solid_Large,5.0,,,,,,,,,,,
encoding,value,8,2727672,2733684,2733309.0,2733549.0,241.0,241.0,1899.8,549.0999999999999,1920.0,1460.0,Object_Land_Solid_Large,21.146523709059693,27.157764291972853,2.0,Object_Land_Solid_Large,5.0,,,,,,,,,,,
encoding,value,8,2727672,2733684,2733566.0,2733780.0,215.0,118.0,1908.4,629.5999999999999,1920.0,1460.0,Object_Land_Solid_Large,21.146523709059693,27.157764291972853,2.0,Object_Land_Solid_Large,5.0,,,,,,,,,,,
encoding,attention,8,2733684,2736700,2733789.0,2734000.0,212.0,212.0,1916.9,578.8,1920.0,1460.0,Object_Land_Solid_Large,27.15786425000988,30.173665791982785,2.0,Object_Land_Solid_Large,5.0,5.0,1.0,0.8202752500073984,,,,,,,,
encoding,attention,8,2733684,2736700,2734009.0,2734179.0,171.0,171.0,1958.2,560.2,1920.0,1460.0,Object_Land_Solid_Large,27.15786425000988,30.173665791982785,2.0,Object_Land_Solid_Large,5.0,5.0,1.0,0.8202752500073984,,,,,,,,
encoding,attention,8,2733684,2736700,2734393.0,2735078.0,686.0,686.0,1945.0,593.5,1920.0,1460.0,Object_Land_Solid_Large,27.15786425000988,30.173665791982785,2.0,Object_Land_Solid_Large,5.0,5.0,1.0,0.8202752500073984,,,,,,,,
encoding,attention,8,2733684,2736700,2735085.0,2735547.0,463.0,463.0,1916.3,568.0999999999999,1920.0,1460.0,Object_Land_Solid_Large,27.15786425000988,30.173665791982785,2.0,Object_Land_Solid_Large,5.0,5.0,1.0,0.8202752500073984,,,,,,,,
encoding,attention,8,2733684,2736700,2735556.0,2735866.0,311.0,311.0,1952.0,562.2,1920.0,1460.0,Object_Land_Solid_Large,27.15786425000988,30.173665791982785,2.0,Object_Land_Solid_Large,5.0,5.0,1.0,0.8202752500073984,,,,,,,,
encoding,attention,8,2733684,2736700,2736066.0,2736551.0,486.0,486.0,1945.1,588.4000000000001,1920.0,1460.0,Object_Land_Solid_Large,27.15786425000988,30.173665791982785,2.0,Object_Land_Solid_Large,5.0,5.0,1.0,0.8202752500073984,,,,,,,,
encoding,fixation,9,2736700,2737205,2736803.0,2736929.0,127.0,127.0,1911.0,683.5,1920.0,1460.0,Object_Land_Solid_Large,30.173830750049092,30.67907800001558,2.0,Object_Sea_Pattern_Small,-9.0,,,,,,,,,,,
encoding,image,9,2737205,2738216,2737231.0,2737356.0,126.0,126.0,1828.8,1156.9,1591.0,891.0,Animal_Sea_Pattern_Small,30.67922270903364,31.689983542077243,2.0,Object_Sea_Pattern_Small,-9.0,,,,,,,,,,,
encoding,image,9,2737205,2738216,2737364.0,2737487.0,124.0,124.0,1880.2,1133.5,1920.0,1080.0,fixation,30.67922270903364,31.689983542077243,2.0,Object_Sea_Pattern_Small,-9.0,,,,,,,,,,,
encoding,image,9,2737205,2738216,2737532.0,2737711.0,180.0,180.0,1852.5,1451.7,1920.0,700.0,Object_Sea_Pattern_Small,30.67922270903364,31.689983542077243,2.0,Object_Sea_Pattern_Small,-9.0,,,,,,,,,,,
encoding,image,9,2737205,2738216,2737722.0,2737998.0,277.0,277.0,1854.4,1485.6,1920.0,700.0,Object_Sea_Pattern_Small,30.67922270903364,31.689983542077243,2.0,Object_Sea_Pattern_Small,-9.0,,,,,,,,,,,
encoding,value,9,2738216,2744228,2738255.0,2738473.0,219.0,219.0,1853.8,1447.3,1920.0,700.0,Object_Sea_Pattern_Small,31.69007720903028,37.70166091702413,2.0,Object_Sea_Pattern_Small,-9.0,,,,,,,,,,,
encoding,value,9,2738216,2744228,2738488.0,2738748.0,261.0,261.0,1876.4,1356.0,1920.0,700.0,Object_Sea_Pattern_Small,31.69007720903028,37.70166091702413,2.0,Object_Sea_Pattern_Small,-9.0,,,,,,,,,,,
encoding,value,9,2738216,2744228,2738931.0,2739639.0,709.0,709.0,1865.9,1364.8,1920.0,700.0,Object_Sea_Pattern_Small,31.69007720903028,37.70166091702413,2.0,Object_Sea_Pattern_Small,-9.0,,,,,,,,,,,
encoding,value,9,2738216,2744228,2739649.0,2740198.0,550.0,550.0,1867.8,1367.2,1920.0,700.0,Object_Sea_Pattern_Small,31.69007720903028,37.70166091702413,2.0,Object_Sea_Pattern_Small,-9.0,,,,,,,,,,,
encoding,value,9,2738216,2744228,2740208.0,2740530.0,323.0,323.0,1867.8,1392.9,1920.0,700.0,Object_Sea_Pattern_Small,31.69007720903028,37.70166091702413,2.0,Object_Sea_Pattern_Small,-9.0,,,,,,,,,,,
encoding,value,9,2738216,2744228,2740540.0,2741033.0,494.0,494.0,1867.0,1408.5,1920.0,700.0,Object_Sea_Pattern_Small,31.69007720903028,37.70166091702413,2.0,Object_Sea_Pattern_Small,-9.0,,,,,,,,,,,
encoding,value,9,2738216,2744228,2741045.0,2741245.0,201.0,201.0,1867.0,1438.9,1920.0,700.0,Object_Sea_Pattern_Small,31.69007720903028,37.70166091702413,2.0,Object_Sea_Pattern_Small,-9.0,,,,,,,,,,,
encoding,value,9,2738216,2744228,2741255.0,2741895.0,641.0,641.0,1866.6,1457.6,1920.0,700.0,Object_Sea_Pattern_Small,31.69007720903028,37.70166091702413,2.0,Object_Sea_Pattern_Small,-9.0,,,,,,,,,,,
encoding,value,9,2738216,2744228,2741914.0,2742492.0,579.0,579.0,1866.7,1365.4,1920.0,700.0,Object_Sea_Pattern_Small,31.69007720903028,37.70166091702413,2.0,Object_Sea_Pattern_Small,-9.0,,,,,,,,,,,
encoding,value,9,2738216,2744228,2742685.0,2743551.0,867.0,867.0,1853.5,1348.8,1920.0,700.0,Object_Sea_Pattern_Small,31.69007720903028,37.70166091702413,2.0,Object_Sea_Pattern_Small,-9.0,,,,,,,,,,,
encoding,value,9,2738216,2744228,2743711.0,2744524.0,814.0,517.0,1854.9,1364.3,1920.0,700.0,Object_Sea_Pattern_Small,31.69007720903028,37.70166091702413,2.0,Object_Sea_Pattern_Small,-9.0,,,,,,,,,,,
encoding,attention,9,2744229,2747245,2744535.0,2744726.0,192.0,192.0,1903.5,1370.4,1920.0,700.0,Object_Sea_Pattern_Small,37.70178233401384,40.718666000058874,2.0,Object_Sea_Pattern_Small,-9.0,-9.0,1.0,0.7564102499745786,,,,,,,,
encoding,attention,9,2744229,2747245,2744885.0,2745406.0,522.0,522.0,1890.1,1382.7,1920.0,700.0,Object_Sea_Pattern_Small,37.70178233401384,40.718666000058874,2.0,Object_Sea_Pattern_Small,-9.0,-9.0,1.0,0.7564102499745786,,,,,,,,
encoding,attention,9,2744229,2747245,2745575.0,2745901.0,327.0,327.0,1884.8,1396.1,1920.0,700.0,Object_Sea_Pattern_Small,37.70178233401384,40.718666000058874,2.0,Object_Sea_Pattern_Small,-9.0,-9.0,1.0,0.7564102499745786,,,,,,,,
encoding,attention,9,2744229,2747245,2745916.0,2746114.0,199.0,199.0,1804.9,1394.8,1920.0,700.0,Object_Sea_Pattern_Small,37.70178233401384,40.718666000058874,2.0,Object_Sea_Pattern_Small,-9.0,-9.0,1.0,0.7564102499745786,,,,,,,,
encoding,attention,9,2744229,2747245,2746130.0,2746640.0,511.0,511.0,1899.4,1382.9,1920.0,700.0,Object_Sea_Pattern_Small,37.70178233401384,40.718666000058874,2.0,Object_Sea_Pattern_Small,-9.0,-9.0,1.0,0.7564102499745786,,,,,,,,
encoding,attention,9,2744229,2747245,2746659.0,2746852.0,194.0,194.0,1854.6,1462.2,1920.0,700.0,Object_Sea_Pattern_Small,37.70178233401384,40.718666000058874,2.0,Object_Sea_Pattern_Small,-9.0,-9.0,1.0,0.7564102499745786,,,,,,,,
encoding,fixation,10,2747245,2748501,2747472.0,2747617.0,146.0,146.0,1897.3,1169.7,1920.0,700.0,Object_Sea_Pattern_Small,40.71879608405288,41.97391499998048,2.0,Animal_Land_Solid_Large,-1.0,,,,,,,,,,,
encoding,fixation,10,2747245,2748501,2747895.0,2748021.0,127.0,127.0,1911.9,1160.7,1920.0,700.0,Object_Sea_Pattern_Small,40.71879608405288,41.97391499998048,2.0,Animal_Land_Solid_Large,-1.0,,,,,,,,,,,
encoding,fixation,10,2747245,2748501,2748030.0,2748714.0,685.0,471.0,1871.3,1112.1,1920.0,1080.0,fixation,40.71879608405288,41.97391499998048,2.0,Animal_Land_Solid_Large,-1.0,,,,,,,,,,,
encoding,image,10,2748501,2749512,2748747.0,2748914.0,168.0,168.0,2194.0,1284.8,2249.0,891.0,Animal_Land_Solid_Large,41.97403562499676,42.98536141705699,2.0,Animal_Land_Solid_Large,-1.0,,,,,,,,,,,
encoding,image,10,2748501,2749512,2749055.0,2749485.0,431.0,431.0,2232.6,1327.0,2249.0,891.0,Animal_Land_Solid_Large,41.97403562499676,42.98536141705699,2.0,Animal_Land_Solid_Large,-1.0,,,,,,,,,,,
encoding,image,10,2748501,2749512,2749494.0,2749708.0,215.0,18.0,2223.2,1337.5,2249.0,891.0,Animal_Land_Solid_Large,41.97403562499676,42.98536141705699,2.0,Animal_Land_Solid_Large,-1.0,,,,,,,,,,,
encoding,value,10,2749512,2755526,2749725.0,2752459.0,2735.0,2735.0,2200.5,1207.0,2249.0,891.0,Animal_Land_Solid_Large,42.985462584067136,48.998527084011585,2.0,Animal_Land_Solid_Large,-1.0,,,,,,,,,,,
encoding,value,10,2749512,2755526,2752624.0,2754627.0,2004.0,2004.0,2200.2,1220.9,2249.0,891.0,Animal_Land_Solid_Large,42.985462584067136,48.998527084011585,2.0,Animal_Land_Solid_Large,-1.0,,,,,,,,,,,
encoding,value,10,2749512,2755526,2754766.0,2756619.0,1854.0,760.0,2228.6,1215.8,2249.0,891.0,Animal_Land_Solid_Large,42.985462584067136,48.998527084011585,2.0,Animal_Land_Solid_Large,-1.0,,,,,,,,,,,
encoding,attention,10,2755526,2758543,2756771.0,2757451.0,681.0,681.0,2243.0,1343.2,2249.0,891.0,Animal_Land_Solid_Large,48.99864112504292,52.015407041995786,2.0,Animal_Land_Solid_Large,-1.0,-1.0,1.0,0.8118027499876916,,,,,,,,
encoding,attention,10,2755526,2758543,2757468.0,2757757.0,290.0,290.0,2257.7,1228.0,2249.0,891.0,Animal_Land_Solid_Large,48.99864112504292,52.015407041995786,2.0,Animal_Land_Solid_Large,-1.0,-1.0,1.0,0.8118027499876916,,,,,,,,
encoding,attention,10,2755526,2758543,2757898.0,2758036.0,139.0,139.0,2219.9,1260.8,2249.0,891.0,Animal_Land_Solid_Large,48.99864112504292,52.015407041995786,2.0,Animal_Land_Solid_Large,-1.0,-1.0,1.0,0.8118027499876916,,,,,,,,
encoding,attention,10,2755526,2758543,2758043.0,2758268.0,226.0,226.0,2259.4,1237.7,2249.0,891.0,Animal_Land_Solid_Large,48.99864112504292,52.015407041995786,2.0,Animal_Land_Solid_Large,-1.0,-1.0,1.0,0.8118027499876916,,,,,,,,
encoding,fixation,11,2758543,2759048,2758557.0,2758772.0,216.0,216.0,2237.0,1351.6,2249.0,891.0,Animal_Land_Solid_Large,52.01555062504485,52.521046709036455,2.0,Object_Sea_Solid_Small,7.0,,,,,,,,,,,
encoding,fixation,11,2758543,2759048,2758994.0,2759250.0,257.0,54.0,1884.7,1110.2,1920.0,1080.0,fixation,52.01555062504485,52.521046709036455,2.0,Object_Sea_Solid_Small,7.0,,,,,,,,,,,
encoding,image,11,2759048,2760059,2759406.0,2759632.0,227.0,227.0,2226.8,959.3,2249.0,1269.0,Object_Sea_Solid_Small,52.52114437497221,53.53127370902803,2.0,Object_Sea_Solid_Small,7.0,,,,,,,,,,,
encoding,image,11,2759048,2760059,2759640.0,2759787.0,148.0,148.0,2195.0,938.5,2249.0,1269.0,Object_Sea_Solid_Small,52.52114437497221,53.53127370902803,2.0,Object_Sea_Solid_Small,7.0,,,,,,,,,,,
encoding,image,11,2759048,2760059,2759979.0,2760504.0,526.0,80.0,2210.8,925.8,2249.0,1269.0,Object_Sea_Solid_Small,52.52114437497221,53.53127370902803,2.0,Object_Sea_Solid_Small,7.0,,,,,,,,,,,
encoding,value,11,2760059,2766071,2760690.0,2761081.0,392.0,392.0,2227.7,825.7,2249.0,1269.0,Object_Sea_Solid_Small,53.53138666704763,59.54357624996919,2.0,Object_Sea_Solid_Small,7.0,,,,,,,,,,,
encoding,value,11,2760059,2766071,2761100.0,2761537.0,438.0,438.0,2221.7,944.5999999999999,2249.0,1269.0,Object_Sea_Solid_Small,53.53138666704763,59.54357624996919,2.0,Object_Sea_Solid_Small,7.0,,,,,,,,,,,
encoding,value,11,2760059,2766071,2761557.0,2761973.0,417.0,417.0,2234.4,810.0,2249.0,1269.0,Object_Sea_Solid_Small,53.53138666704763,59.54357624996919,2.0,Object_Sea_Solid_Small,7.0,,,,,,,,,,,
encoding,value,11,2760059,2766071,2761994.0,2762226.0,233.0,233.0,2226.7,927.0,2249.0,1269.0,Object_Sea_Solid_Small,53.53138666704763,59.54357624996919,2.0,Object_Sea_Solid_Small,7.0,,,,,,,,,,,
encoding,value,11,2760059,2766071,2762437.0,2762979.0,543.0,543.0,2241.6,814.0,2249.0,1269.0,Object_Sea_Solid_Small,53.53138666704763,59.54357624996919,2.0,Object_Sea_Solid_Small,7.0,,,,,,,,,,,
encoding,value,11,2760059,2766071,2763213.0,2763359.0,147.0,147.0,2225.8,880.8,2249.0,1269.0,Object_Sea_Solid_Small,53.53138666704763,59.54357624996919,2.0,Object_Sea_Solid_Small,7.0,,,,,,,,,,,
encoding,value,11,2760059,2766071,2763370.0,2763792.0,423.0,423.0,2233.5,797.5999999999999,2249.0,1269.0,Object_Sea_Solid_Small,53.53138666704763,59.54357624996919,2.0,Object_Sea_Solid_Small,7.0,,,,,,,,,,,
encoding,value,11,2760059,2766071,2763816.0,2764432.0,617.0,617.0,2223.5,936.0999999999999,2249.0,1269.0,Object_Sea_Solid_Small,53.53138666704763,59.54357624996919,2.0,Object_Sea_Solid_Small,7.0,,,,,,,,,,,
encoding,value,11,2760059,2766071,2764645.0,2767044.0,2400.0,1426.0,2232.7,784.3,2249.0,1269.0,Object_Sea_Solid_Small,53.53138666704763,59.54357624996919,2.0,Object_Sea_Solid_Small,7.0,,,,,,,,,,,
encoding,attention,11,2766071,2769089,2767273.0,2767496.0,224.0,224.0,2232.6,878.5999999999999,2249.0,1269.0,Object_Sea_Solid_Small,59.54370208398905,62.56165858404711,2.0,Object_Sea_Solid_Small,7.0,7.0,1.0,0.6687852500472218,,,,,,,,
encoding,attention,11,2766071,2769089,2767505.0,2767992.0,488.0,488.0,2219.0,870.3,2249.0,1269.0,Object_Sea_Solid_Small,59.54370208398905,62.56165858404711,2.0,Object_Sea_Solid_Small,7.0,7.0,1.0,0.6687852500472218,,,,,,,,
encoding,attention,11,2766071,2769089,2768008.0,2768968.0,961.0,961.0,2242.9,896.9000000000001,2249.0,1269.0,Object_Sea_Solid_Small,59.54370208398905,62.56165858404711,2.0,Object_Sea_Solid_Small,7.0,7.0,1.0,0.6687852500472218,,,,,,,,
encoding,fixation,12,2769089,2769845,2769234.0,2769417.0,184.0,184.0,1814.7,1021.5,1591.0,1269.0,Animal_Land_Pattern_Large,62.56181079207454,63.31740145897493,2.0,Animal_Land_Pattern_Large,-3.0,,,,,,,,,,,
encoding,fixation,12,2769089,2769845,2769439.0,2770014.0,576.0,406.0,1838.5,1165.8,1591.0,891.0,Animal_Sea_Pattern_Small,62.56181079207454,63.31740145897493,2.0,Animal_Land_Pattern_Large,-3.0,,,,,,,,,,,
encoding,image,12,2769845,2770856,2770042.0,2770857.0,816.0,814.0,1544.3,976.2,1591.0,1269.0,Animal_Land_Pattern_Large,63.31749362498522,64.32810308400076,2.0,Animal_Land_Pattern_Large,-3.0,,,,,,,,,,,
encoding,value,12,2770856,2776868,2771905.0,2771951.0,47.0,47.0,1537.9,965.0,1591.0,1269.0,Animal_Land_Pattern_Large,64.32822329201736,70.33957608405035,2.0,Animal_Land_Pattern_Large,-3.0,,,,,,,,,,,
encoding,value,12,2770856,2776868,2771974.0,2772084.0,111.0,111.0,1548.1,942.3,1591.0,1269.0,Animal_Land_Pattern_Large,64.32822329201736,70.33957608405035,2.0,Animal_Land_Pattern_Large,-3.0,,,,,,,,,,,
encoding,value,12,2770856,2776868,2772126.0,2773768.0,1643.0,1643.0,1584.2,827.3,1591.0,1269.0,Animal_Land_Pattern_Large,64.32822329201736,70.33957608405035,2.0,Animal_Land_Pattern_Large,-3.0,,,,,,,,,,,
encoding,value,12,2770856,2776868,2773783.0,2773930.0,148.0,148.0,1573.3,870.9000000000001,1591.0,1269.0,Animal_Land_Pattern_Large,64.32822329201736,70.33957608405035,2.0,Animal_Land_Pattern_Large,-3.0,,,,,,,,,,,
encoding,value,12,2770856,2776868,2774127.0,2774566.0,440.0,440.0,1588.5,848.5999999999999,1591.0,1269.0,Animal_Land_Pattern_Large,64.32822329201736,70.33957608405035,2.0,Animal_Land_Pattern_Large,-3.0,,,,,,,,,,,
encoding,value,12,2770856,2776868,2774587.0,2775071.0,485.0,485.0,1558.8,966.0,1591.0,1269.0,Animal_Land_Pattern_Large,64.32822329201736,70.33957608405035,2.0,Animal_Land_Pattern_Large,-3.0,,,,,,,,,,,
encoding,value,12,2770856,2776868,2775390.0,2775878.0,489.0,489.0,1590.5,842.0999999999999,1591.0,1269.0,Animal_Land_Pattern_Large,64.32822329201736,70.33957608405035,2.0,Animal_Land_Pattern_Large,-3.0,,,,,,,,,,,
encoding,value,12,2770856,2776868,2775900.0,2776172.0,273.0,273.0,1547.0,932.7,1591.0,1269.0,Animal_Land_Pattern_Large,64.32822329201736,70.33957608405035,2.0,Animal_Land_Pattern_Large,-3.0,,,,,,,,,,,
encoding,value,12,2770856,2776868,2776189.0,2776307.0,119.0,119.0,1593.7,836.8,1591.0,1269.0,Animal_Land_Pattern_Large,64.32822329201736,70.33957608405035,2.0,Animal_Land_Pattern_Large,-3.0,,,,,,,,,,,
encoding,attention,12,2776868,2779885,2777044.0,2777183.0,140.0,140.0,1561.1,949.3,1591.0,1269.0,Animal_Land_Pattern_Large,70.33972958405502,73.35671750002075,2.0,Animal_Land_Pattern_Large,-3.0,-3.0,1.0,1.4862725000130013,,,,,,,,
encoding,attention,12,2776868,2779885,2777244.0,2777442.0,199.0,199.0,1616.8,875.5999999999999,1591.0,1269.0,Animal_Land_Pattern_Large,70.33972958405502,73.35671750002075,2.0,Animal_Land_Pattern_Large,-3.0,-3.0,1.0,1.4862725000130013,,,,,,,,
encoding,attention,12,2776868,2779885,2777812.0,2778635.0,824.0,824.0,1543.6,840.7,1591.0,1269.0,Animal_Land_Pattern_Large,70.33972958405502,73.35671750002075,2.0,Animal_Land_Pattern_Large,-3.0,-3.0,1.0,1.4862725000130013,,,,,,,,
encoding,attention,12,2776868,2779885,2778655.0,2779028.0,374.0,374.0,1537.3,865.0,1591.0,1269.0,Animal_Land_Pattern_Large,70.33972958405502,73.35671750002075,2.0,Animal_Land_Pattern_Large,-3.0,-3.0,1.0,1.4862725000130013,,,,,,,,
encoding,attention,12,2776868,2779885,2779383.0,2779663.0,281.0,281.0,1553.1,852.5,1591.0,1269.0,Animal_Land_Pattern_Large,70.33972958405502,73.35671750002075,2.0,Animal_Land_Pattern_Large,-3.0,-3.0,1.0,1.4862725000130013,,,,,,,,
encoding,attention,12,2776868,2779885,2779676.0,2779827.0,152.0,152.0,1638.7,810.8,1591.0,1269.0,Animal_Land_Pattern_Large,70.33972958405502,73.35671750002075,2.0,Animal_Land_Pattern_Large,-3.0,-3.0,1.0,1.4862725000130013,,,,,,,,
encoding,fixation,13,3422689,3424195,3422931.0,3423062.0,132.0,132.0,1882.4,1197.2,1920.0,700.0,Object_Land_Pattern_Large,11.339550041011536,12.845488165970892,3.0,Animal_Sea_Solid_Large,1.0,,,,,,,,,,,
encoding,fixation,13,3422689,3424195,3423198.0,3423332.0,135.0,135.0,1906.7,1146.0,1920.0,1080.0,fixation,11.339550041011536,12.845488165970892,3.0,Animal_Sea_Solid_Large,1.0,,,,,,,,,,,
encoding,fixation,13,3422689,3424195,3423491.0,3423818.0,328.0,328.0,1883.7,1149.4,1920.0,700.0,Object_Land_Pattern_Large,11.339550041011536,12.845488165970892,3.0,Animal_Sea_Solid_Large,1.0,,,,,,,,,,,
encoding,fixation,13,3422689,3424195,3424003.0,3424200.0,198.0,192.0,1889.9,1164.1,1920.0,700.0,Object_Land_Pattern_Large,11.339550041011536,12.845488165970892,3.0,Animal_Sea_Solid_Large,1.0,,,,,,,,,,,
encoding,image,13,3424195,3425208,3424211.0,3424391.0,181.0,181.0,1853.6,1155.2,1591.0,891.0,Animal_Sea_Solid_Large,12.845685624983162,13.858725290978327,3.0,Animal_Sea_Solid_Large,1.0,,,,,,,,,,,
encoding,image,13,3424195,3425208,3424433.0,3424693.0,261.0,261.0,1536.7,1360.1,1591.0,891.0,Animal_Sea_Solid_Large,12.845685624983162,13.858725290978327,3.0,Animal_Sea_Solid_Large,1.0,,,,,,,,,,,
encoding,image,13,3424195,3425208,3424703.0,3425053.0,351.0,351.0,1539.5,1393.4,1591.0,891.0,Animal_Sea_Solid_Large,12.845685624983162,13.858725290978327,3.0,Animal_Sea_Solid_Large,1.0,,,,,,,,,,,
encoding,image,13,3424195,3425208,3425060.0,3425638.0,579.0,148.0,1543.2,1357.1,1591.0,891.0,Animal_Sea_Solid_Large,12.845685624983162,13.858725290978327,3.0,Animal_Sea_Solid_Large,1.0,,,,,,,,,,,
encoding,value,13,3425208,3431221,3425802.0,3426054.0,253.0,253.0,1543.2,1343.9,1591.0,891.0,Animal_Sea_Solid_Large,13.858830875018612,19.871727291028947,3.0,Animal_Sea_Solid_Large,1.0,,,,,,,,,,,
encoding,value,13,3425208,3431221,3426067.0,3426240.0,174.0,174.0,1572.4,1297.4,1591.0,891.0,Animal_Sea_Solid_Large,13.858830875018612,19.871727291028947,3.0,Animal_Sea_Solid_Large,1.0,,,,,,,,,,,
encoding,value,13,3425208,3431221,3426258.0,3426589.0,332.0,332.0,1539.5,1378.4,1591.0,891.0,Animal_Sea_Solid_Large,13.858830875018612,19.871727291028947,3.0,Animal_Sea_Solid_Large,1.0,,,,,,,,,,,
encoding,value,13,3425208,3431221,3426597.0,3426762.0,166.0,166.0,1524.6,1368.5,1591.0,891.0,Animal_Sea_Solid_Large,13.858830875018612,19.871727291028947,3.0,Animal_Sea_Solid_Large,1.0,,,,,,,,,,,
encoding,value,13,3425208,3431221,3426779.0,3426960.0,182.0,182.0,1534.2,1278.9,1591.0,891.0,Animal_Sea_Solid_Large,13.858830875018612,19.871727291028947,3.0,Animal_Sea_Solid_Large,1.0,,,,,,,,,,,
encoding,value,13,3425208,3431221,3426982.0,3427292.0,311.0,311.0,1520.6,1381.9,1591.0,891.0,Animal_Sea_Solid_Large,13.858830875018612,19.871727291028947,3.0,Animal_Sea_Solid_Large,1.0,,,,,,,,,,,
encoding,value,13,3425208,3431221,3427441.0,3427608.0,168.0,168.0,1541.7,1371.5,1591.0,891.0,Animal_Sea_Solid_Large,13.858830875018612,19.871727291028947,3.0,Animal_Sea_Solid_Large,1.0,,,,,,,,,,,
encoding,value,13,3425208,3431221,3427633.0,3427881.0,249.0,249.0,1547.6,1232.4,1591.0,891.0,Animal_Sea_Solid_Large,13.858830875018612,19.871727291028947,3.0,Animal_Sea_Solid_Large,1.0,,,,,,,,,,,
encoding,value,13,3425208,3431221,3427898.0,3428287.0,390.0,390.0,1534.4,1253.9,1591.0,891.0,Animal_Sea_Solid_Large,13.858830875018612,19.871727291028947,3.0,Animal_Sea_Solid_Large,1.0,,,,,,,,,,,
encoding,value,13,3425208,3431221,3428470.0,3430057.0,1588.0,1588.0,1542.3,1271.8,1591.0,891.0,Animal_Sea_Solid_Large,13.858830875018612,19.871727291028947,3.0,Animal_Sea_Solid_Large,1.0,,,,,,,,,,,
encoding,value,13,3425208,3431221,3430194.0,3430924.0,731.0,731.0,1541.9,1277.1,1591.0,891.0,Animal_Sea_Solid_Large,13.858830875018612,19.871727291028947,3.0,Animal_Sea_Solid_Large,1.0,,,,,,,,,,,
encoding,value,13,3425208,3431221,3431073.0,3431446.0,374.0,148.0,1549.2,1287.5,1591.0,891.0,Animal_Sea_Solid_Large,13.858830875018612,19.871727291028947,3.0,Animal_Sea_Solid_Large,1.0,,,,,,,,,,,
encoding,attention,13,3431221,3434239,3431457.0,3431757.0,301.0,301.0,1596.4,1282.5,1591.0,891.0,Animal_Sea_Solid_Large,19.87184525001794,22.88942954095546,3.0,Animal_Sea_Solid_Large,1.0,1.0,1.0,1.0995846249861645,,,,,,,,
encoding,attention,13,3431221,3434239,3431778.0,3432022.0,245.0,245.0,1488.2,1285.2,1591.0,891.0,Animal_Sea_Solid_Large,19.87184525001794,22.88942954095546,3.0,Animal_Sea_Solid_Large,1.0,1.0,1.0,1.0995846249861645,,,,,,,,
encoding,attention,13,3431221,3434239,3432165.0,3432635.0,471.0,471.0,1484.4,1278.0,1591.0,891.0,Animal_Sea_Solid_Large,19.87184525001794,22.88942954095546,3.0,Animal_Sea_Solid_Large,1.0,1.0,1.0,1.0995846249861645,,,,,,,,
encoding,attention,13,3431221,3434239,3432765.0,3433020.0,256.0,256.0,1594.7,1281.7,1591.0,891.0,Animal_Sea_Solid_Large,19.87184525001794,22.88942954095546,3.0,Animal_Sea_Solid_Large,1.0,1.0,1.0,1.0995846249861645,,,,,,,,
encoding,attention,13,3431221,3434239,3433036.0,3433223.0,188.0,188.0,1492.6,1291.1,1591.0,891.0,Animal_Sea_Solid_Large,19.87184525001794,22.88942954095546,3.0,Animal_Sea_Solid_Large,1.0,1.0,1.0,1.0995846249861645,,,,,,,,
encoding,attention,13,3431221,3434239,3433244.0,3434005.0,762.0,762.0,1541.1,1398.3,1591.0,891.0,Animal_Sea_Solid_Large,19.87184525001794,22.88942954095546,3.0,Animal_Sea_Solid_Large,1.0,1.0,1.0,1.0995846249861645,,,,,,,,
encoding,fixation,14,3434239,3434996,3434406.0,3434641.0,236.0,236.0,1547.1,1356.5,1591.0,891.0,Animal_Sea_Solid_Large,22.88957895792555,23.646466290927492,3.0,Animal_Land_Pattern_Large,9.0,,,,,,,,,,,
encoding,fixation,14,3434239,3434996,3434800.0,3435014.0,215.0,196.0,1788.7,1187.7,1591.0,891.0,Animal_Sea_Solid_Large,22.88957895792555,23.646466290927492,3.0,Animal_Land_Pattern_Large,9.0,,,,,,,,,,,
encoding,image,14,3434996,3436008,3435235.0,3435437.0,203.0,203.0,1818.9,1434.6,1920.0,700.0,Object_Land_Pattern_Large,23.64656320796348,24.658430624986067,3.0,Animal_Land_Pattern_Large,9.0,,,,,,,,,,,
encoding,image,14,3434996,3436008,3435498.0,3435762.0,265.0,265.0,1544.2,882.7,1591.0,1269.0,Animal_Land_Pattern_Large,23.64656320796348,24.658430624986067,3.0,Animal_Land_Pattern_Large,9.0,,,,,,,,,,,
encoding,image,14,3434996,3436008,3435772.0,3436195.0,424.0,236.0,1522.5,909.2,1591.0,1269.0,Animal_Land_Pattern_Large,23.64656320796348,24.658430624986067,3.0,Animal_Land_Pattern_Large,9.0,,,,,,,,,,,
encoding,value,14,3436008,3442020,3436215.0,3436458.0,244.0,244.0,1568.3,777.2,1591.0,1269.0,Animal_Land_Pattern_Large,24.658610332990065,30.6701204580022,3.0,Animal_Land_Pattern_Large,9.0,,,,,,,,,,,
encoding,value,14,3436008,3442020,3436658.0,3436908.0,251.0,251.0,1552.2,800.7,1591.0,1269.0,Animal_Land_Pattern_Large,24.658610332990065,30.6701204580022,3.0,Animal_Land_Pattern_Large,9.0,,,,,,,,,,,
encoding,value,14,3436008,3442020,3436932.0,3437322.0,391.0,391.0,1509.6,957.0999999999999,1591.0,1269.0,Animal_Land_Pattern_Large,24.658610332990065,30.6701204580022,3.0,Animal_Land_Pattern_Large,9.0,,,,,,,,,,,
encoding,value,14,3436008,3442020,3437333.0,3437686.0,354.0,354.0,1554.5,914.4000000000001,1591.0,1269.0,Animal_Land_Pattern_Large,24.658610332990065,30.6701204580022,3.0,Animal_Land_Pattern_Large,9.0,,,,,,,,,,,
encoding,value,14,3436008,3442020,3437707.0,3440573.0,2867.0,2867.0,1567.8,767.2,1591.0,1269.0,Animal_Land_Pattern_Large,24.658610332990065,30.6701204580022,3.0,Animal_Land_Pattern_Large,9.0,,,,,,,,,,,
encoding,value,14,3436008,3442020,3440582.0,3442357.0,1776.0,1438.0,1576.5,767.0,1591.0,1269.0,Animal_Land_Pattern_Large,24.658610332990065,30.6701204580022,3.0,Animal_Land_Pattern_Large,9.0,,,,,,,,,,,
encoding,attention,14,3442020,3445039,3442546.0,3442983.0,438.0,438.0,1529.4,785.7,1591.0,1269.0,Animal_Land_Pattern_Large,30.670238040969707,33.68893299996853,3.0,Animal_Land_Pattern_Large,9.0,9.0,1.0,0.6746500830631703,,,,,,,,
encoding,attention,14,3442020,3445039,3443001.0,3443220.0,220.0,220.0,1543.5,867.5999999999999,1591.0,1269.0,Animal_Land_Pattern_Large,30.670238040969707,33.68893299996853,3.0,Animal_Land_Pattern_Large,9.0,9.0,1.0,0.6746500830631703,,,,,,,,
encoding,attention,14,3442020,3445039,3443441.0,3443687.0,247.0,247.0,1536.2,934.5,1591.0,1269.0,Animal_Land_Pattern_Large,30.670238040969707,33.68893299996853,3.0,Animal_Land_Pattern_Large,9.0,9.0,1.0,0.6746500830631703,,,,,,,,
encoding,attention,14,3442020,3445039,3443707.0,3443922.0,216.0,216.0,1538.2,802.2,1591.0,1269.0,Animal_Land_Pattern_Large,30.670238040969707,33.68893299996853,3.0,Animal_Land_Pattern_Large,9.0,9.0,1.0,0.6746500830631703,,,,,,,,
encoding,attention,14,3442020,3445039,3444151.0,3444672.0,522.0,522.0,1534.8,904.5,1591.0,1269.0,Animal_Land_Pattern_Large,30.670238040969707,33.68893299996853,3.0,Animal_Land_Pattern_Large,9.0,9.0,1.0,0.6746500830631703,,,,,,,,
encoding,attention,14,3442020,3445039,3444695.0,3444891.0,197.0,197.0,1546.8,774.5999999999999,1591.0,1269.0,Animal_Land_Pattern_Large,30.670238040969707,33.68893299996853,3.0,Animal_Land_Pattern_Large,9.0,9.0,1.0,0.6746500830631703,,,,,,,,
encoding,fixation,15,3445039,3446297,3445278.0,3445417.0,140.0,140.0,1498.9,826.5,1591.0,1269.0,Animal_Land_Pattern_Large,33.689081541029736,34.946547040948644,3.0,Object_Sea_Solid_Small,1.0,,,,,,,,,,,
encoding,fixation,15,3445039,3446297,3445466.0,3445499.0,34.0,34.0,1871.6,1225.6,1920.0,700.0,Object_Land_Pattern_Large,33.689081541029736,34.946547040948644,3.0,Object_Sea_Solid_Small,1.0,,,,,,,,,,,
encoding,fixation,15,3445039,3446297,3445774.0,3445974.0,201.0,201.0,1914.5,1155.0,1920.0,700.0,Object_Land_Pattern_Large,33.689081541029736,34.946547040948644,3.0,Object_Sea_Solid_Small,1.0,,,,,,,,,,,
encoding,fixation,15,3445039,3446297,3445986.0,3446150.0,165.0,165.0,1857.7,1156.6,1591.0,891.0,Animal_Sea_Solid_Large,33.689081541029736,34.946547040948644,3.0,Object_Sea_Solid_Small,1.0,,,,,,,,,,,
encoding,image,15,3446297,3447307,3446326.0,3446368.0,43.0,43.0,1818.1,1218.0,1591.0,891.0,Animal_Sea_Solid_Large,34.946725958026946,35.957069415948354,3.0,Object_Sea_Solid_Small,1.0,,,,,,,,,,,
encoding,image,15,3446297,3447307,3446376.0,3446429.0,54.0,54.0,1835.8,1171.8,1591.0,891.0,Animal_Sea_Solid_Large,34.946725958026946,35.957069415948354,3.0,Object_Sea_Solid_Small,1.0,,,,,,,,,,,
encoding,image,15,3446297,3447307,3446446.0,3446549.0,104.0,104.0,1916.3,1149.0,1920.0,1080.0,fixation,34.946725958026946,35.957069415948354,3.0,Object_Sea_Solid_Small,1.0,,,,,,,,,,,
encoding,image,15,3446297,3447307,3446590.0,3447064.0,475.0,475.0,2204.4,890.9000000000001,2249.0,1269.0,Object_Sea_Solid_Small,34.946725958026946,35.957069415948354,3.0,Object_Sea_Solid_Small,1.0,,,,,,,,,,,
encoding,image,15,3446297,3447307,3447261.0,3447669.0,409.0,46.0,2215.3,901.0999999999999,2249.0,1269.0,Object_Sea_Solid_Small,34.946725958026946,35.957069415948354,3.0,Object_Sea_Solid_Small,1.0,,,,,,,,,,,
encoding,value,15,3447307,3453319,3447688.0,3447960.0,273.0,273.0,2232.1,752.0999999999999,2249.0,1269.0,Object_Sea_Solid_Small,35.95718412497081,41.96786912495736,3.0,Object_Sea_Solid_Small,1.0,,,,,,,,,,,
encoding,value,15,3447307,3453319,3448127.0,3448315.0,189.0,189.0,2200.7,940.3,2249.0,1269.0,Object_Sea_Solid_Small,35.95718412497081,41.96786912495736,3.0,Object_Sea_Solid_Small,1.0,,,,,,,,,,,
encoding,value,15,3447307,3453319,3448326.0,3448700.0,375.0,375.0,2229.1,886.7,2249.0,1269.0,Object_Sea_Solid_Small,35.95718412497081,41.96786912495736,3.0,Object_Sea_Solid_Small,1.0,,,,,,,,,,,
encoding,value,15,3447307,3453319,3448936.0,3449429.0,494.0,494.0,2239.4,752.5999999999999,2249.0,1269.0,Object_Sea_Solid_Small,35.95718412497081,41.96786912495736,3.0,Object_Sea_Solid_Small,1.0,,,,,,,,,,,
encoding,value,15,3447307,3453319,3449654.0,3450113.0,460.0,460.0,2234.0,767.8,2249.0,1269.0,Object_Sea_Solid_Small,35.95718412497081,41.96786912495736,3.0,Object_Sea_Solid_Small,1.0,,,,,,,,,,,
encoding,value,15,3447307,3453319,3450136.0,3450457.0,322.0,322.0,2238.1,861.4000000000001,2249.0,1269.0,Object_Sea_Solid_Small,35.95718412497081,41.96786912495736,3.0,Object_Sea_Solid_Small,1.0,,,,,,,,,,,
encoding,value,15,3447307,3453319,3450476.0,3450758.0,283.0,283.0,2233.2,724.9000000000001,2249.0,1269.0,Object_Sea_Solid_Small,35.95718412497081,41.96786912495736,3.0,Object_Sea_Solid_Small,1.0,,,,,,,,,,,
encoding,value,15,3447307,3453319,3450780.0,3451071.0,292.0,292.0,2245.8,846.8,2249.0,1269.0,Object_Sea_Solid_Small,35.95718412497081,41.96786912495736,3.0,Object_Sea_Solid_Small,1.0,,,,,,,,,,,
encoding,value,15,3447307,3453319,3451087.0,3451676.0,590.0,590.0,2236.3,742.9000000000001,2249.0,1269.0,Object_Sea_Solid_Small,35.95718412497081,41.96786912495736,3.0,Object_Sea_Solid_Small,1.0,,,,,,,,,,,
encoding,value,15,3447307,3453319,3451697.0,3452866.0,1170.0,1170.0,2239.0,843.9000000000001,2249.0,1269.0,Object_Sea_Solid_Small,35.95718412497081,41.96786912495736,3.0,Object_Sea_Solid_Small,1.0,,,,,,,,,,,
encoding,value,15,3447307,3453319,3452886.0,3453076.0,191.0,191.0,2247.8,739.4000000000001,2249.0,1269.0,Object_Sea_Solid_Small,35.95718412497081,41.96786912495736,3.0,Object_Sea_Solid_Small,1.0,,,,,,,,,,,
encoding,value,15,3447307,3453319,3453252.0,3453563.0,312.0,67.0,2242.7,767.7,2249.0,1269.0,Object_Sea_Solid_Small,35.95718412497081,41.96786912495736,3.0,Object_Sea_Solid_Small,1.0,,,,,,,,,,,
encoding,attention,15,3453319,3456337,3453574.0,3454016.0,443.0,443.0,2204.8,730.4000000000001,2249.0,1269.0,Object_Sea_Solid_Small,41.967984332935885,44.986337375012226,3.0,Object_Sea_Solid_Small,1.0,9.0,0.0,2.2328998330049217,,,,,,,,
encoding,attention,15,3453319,3456337,3454223.0,3454346.0,124.0,124.0,2181.8,777.0999999999999,2249.0,1269.0,Object_Sea_Solid_Small,41.967984332935885,44.986337375012226,3.0,Object_Sea_Solid_Small,1.0,9.0,0.0,2.2328998330049217,,,,,,,,
encoding,attention,15,3453319,3456337,3454367.0,3454780.0,414.0,414.0,2231.1,879.2,2249.0,1269.0,Object_Sea_Solid_Small,41.967984332935885,44.986337375012226,3.0,Object_Sea_Solid_Small,1.0,9.0,0.0,2.2328998330049217,,,,,,,,
encoding,attention,15,3453319,3456337,3454798.0,3455820.0,1023.0,1023.0,2199.4,726.3,2249.0,1269.0,Object_Sea_Solid_Small,41.967984332935885,44.986337375012226,3.0,Object_Sea_Solid_Small,1.0,9.0,0.0,2.2328998330049217,,,,,,,,
encoding,attention,15,3453319,3456337,3455834.0,3456034.0,201.0,201.0,2297.8,735.5,2249.0,1269.0,Object_Sea_Solid_Small,41.967984332935885,44.986337375012226,3.0,Object_Sea_Solid_Small,1.0,9.0,0.0,2.2328998330049217,,,,,,,,
encoding,fixation,16,3456337,3457843,3456406.0,3456546.0,141.0,141.0,2278.2,748.2,2249.0,1269.0,Object_Sea_Solid_Small,44.98647991602775,46.491964958026074,3.0,Animal_Sea_Solid_Small,-9.0,,,,,,,,,,,
encoding,fixation,16,3456337,3457843,3456748.0,3456809.0,62.0,62.0,1876.5,1197.5,1920.0,700.0,Object_Land_Pattern_Large,44.98647991602775,46.491964958026074,3.0,Animal_Sea_Solid_Small,-9.0,,,,,,,,,,,
encoding,fixation,16,3456337,3457843,3456820.0,3457358.0,539.0,539.0,1907.4,1126.6,1920.0,1080.0,fixation,44.98647991602775,46.491964958026074,3.0,Animal_Sea_Solid_Small,-9.0,,,,,,,,,,,
encoding,fixation,16,3456337,3457843,3457399.0,3457753.0,355.0,355.0,1944.2,789.0999999999999,1920.0,1460.0,Animal_Sea_Solid_Small,44.98647991602775,46.491964958026074,3.0,Animal_Sea_Solid_Small,-9.0,,,,,,,,,,,
encoding,fixation,16,3456337,3457843,3457769.0,3458047.0,279.0,74.0,1863.0,783.4000000000001,1920.0,1460.0,Animal_Sea_Solid_Small,44.98647991602775,46.491964958026074,3.0,Animal_Sea_Solid_Small,-9.0,,,,,,,,,,,
encoding,image,16,3457843,3458854,3458068.0,3459062.0,995.0,786.0,1937.7,660.5999999999999,1920.0,1460.0,Animal_Sea_Solid_Small,46.49207416595891,47.50330058299005,3.0,Animal_Sea_Solid_Small,-9.0,,,,,,,,,,,
encoding,value,16,3458854,3464865,3459073.0,3459511.0,439.0,439.0,1917.2,596.8,1920.0,1460.0,Animal_Sea_Solid_Small,47.50341866596136,53.51432291592937,3.0,Animal_Sea_Solid_Small,-9.0,,,,,,,,,,,
encoding,value,16,3458854,3464865,3459757.0,3460229.0,473.0,473.0,1925.7,662.2,1920.0,1460.0,Animal_Sea_Solid_Small,47.50341866596136,53.51432291592937,3.0,Animal_Sea_Solid_Small,-9.0,,,,,,,,,,,
encoding,value,16,3458854,3464865,3460239.0,3461480.0,1242.0,1242.0,1924.0,623.3,1920.0,1460.0,Animal_Sea_Solid_Small,47.50341866596136,53.51432291592937,3.0,Animal_Sea_Solid_Small,-9.0,,,,,,,,,,,
encoding,value,16,3458854,3464865,3461493.0,3462046.0,554.0,554.0,1920.0,591.8,1920.0,1460.0,Animal_Sea_Solid_Small,47.50341866596136,53.51432291592937,3.0,Animal_Sea_Solid_Small,-9.0,,,,,,,,,,,
encoding,value,16,3458854,3464865,3462244.0,3462817.0,574.0,574.0,1923.7,673.7,1920.0,1460.0,Animal_Sea_Solid_Small,47.50341866596136,53.51432291592937,3.0,Animal_Sea_Solid_Small,-9.0,,,,,,,,,,,
encoding,value,16,3458854,3464865,3462830.0,3463035.0,206.0,206.0,1945.2,588.8,1920.0,1460.0,Animal_Sea_Solid_Small,47.50341866596136,53.51432291592937,3.0,Animal_Sea_Solid_Small,-9.0,,,,,,,,,,,
encoding,value,16,3458854,3464865,3463047.0,3463456.0,410.0,410.0,1926.1,641.0999999999999,1920.0,1460.0,Animal_Sea_Solid_Small,47.50341866596136,53.51432291592937,3.0,Animal_Sea_Solid_Small,-9.0,,,,,,,,,,,
encoding,value,16,3458854,3464865,3463716.0,3463915.0,200.0,200.0,1929.4,600.5,1920.0,1460.0,Animal_Sea_Solid_Small,47.50341866596136,53.51432291592937,3.0,Animal_Sea_Solid_Small,-9.0,,,,,,,,,,,
encoding,value,16,3458854,3464865,3463926.0,3464459.0,534.0,534.0,1918.2,615.4000000000001,1920.0,1460.0,Animal_Sea_Solid_Small,47.50341866596136,53.51432291592937,3.0,Animal_Sea_Solid_Small,-9.0,,,,,,,,,,,
encoding,value,16,3458854,3464865,3464473.0,3464715.0,243.0,243.0,1925.1,646.8,1920.0,1460.0,Animal_Sea_Solid_Small,47.50341866596136,53.51432291592937,3.0,Animal_Sea_Solid_Small,-9.0,,,,,,,,,,,
encoding,value,16,3458854,3464865,3464727.0,3465090.0,364.0,138.0,1926.8,592.8,1920.0,1460.0,Animal_Sea_Solid_Small,47.50341866596136,53.51432291592937,3.0,Animal_Sea_Solid_Small,-9.0,,,,,,,,,,,
encoding,attention,16,3464866,3467883,3465100.0,3465293.0,194.0,194.0,1880.2,591.3,1920.0,1460.0,Animal_Sea_Solid_Small,53.5144289159216,56.53164816601202,3.0,Animal_Sea_Solid_Small,-9.0,-9.0,1.0,0.7863753749988973,,,,,,,,
encoding,attention,16,3464866,3467883,3465307.0,3466198.0,892.0,892.0,1966.4,595.5,1920.0,1460.0,Animal_Sea_Solid_Small,53.5144289159216,56.53164816601202,3.0,Animal_Sea_Solid_Small,-9.0,-9.0,1.0,0.7863753749988973,,,,,,,,
encoding,attention,16,3464866,3467883,3466492.0,3466947.0,456.0,456.0,1942.5,639.2,1920.0,1460.0,Animal_Sea_Solid_Small,53.5144289159216,56.53164816601202,3.0,Animal_Sea_Solid_Small,-9.0,-9.0,1.0,0.7863753749988973,,,,,,,,
encoding,attention,16,3464866,3467883,3466957.0,3467578.0,622.0,622.0,1926.7,623.8,1920.0,1460.0,Animal_Sea_Solid_Small,53.5144289159216,56.53164816601202,3.0,Animal_Sea_Solid_Small,-9.0,-9.0,1.0,0.7863753749988973,,,,,,,,
encoding,fixation,17,3467883,3469388,3468120.0,3468245.0,126.0,126.0,1899.8,1070.3,1920.0,1080.0,fixation,56.531796625000425,58.036769790924154,3.0,Object_Land_Pattern_Large,-9.0,,,,,,,,,,,
encoding,fixation,17,3467883,3469388,3468455.0,3468496.0,42.0,42.0,1862.5,1286.4,1920.0,700.0,Object_Land_Pattern_Large,56.531796625000425,58.036769790924154,3.0,Object_Land_Pattern_Large,-9.0,,,,,,,,,,,
encoding,fixation,17,3467883,3469388,3468503.0,3468709.0,207.0,207.0,1889.5,1225.8,1920.0,700.0,Object_Land_Pattern_Large,56.531796625000425,58.036769790924154,3.0,Object_Land_Pattern_Large,-9.0,,,,,,,,,,,
encoding,fixation,17,3467883,3469388,3468716.0,3469199.0,484.0,484.0,1880.6,1180.2,1920.0,700.0,Object_Land_Pattern_Large,56.531796625000425,58.036769790924154,3.0,Object_Land_Pattern_Large,-9.0,,,,,,,,,,,
encoding,fixation,17,3467883,3469388,3469208.0,3469482.0,275.0,180.0,1917.5,1166.3,1920.0,700.0,Object_Land_Pattern_Large,56.531796625000425,58.036769790924154,3.0,Object_Land_Pattern_Large,-9.0,,,,,,,,,,,
encoding,image,17,3469388,3470400,3469495.0,3469622.0,128.0,128.0,1897.0,1185.1,1920.0,700.0,Object_Land_Pattern_Large,58.03687712491955,59.04901354096364,3.0,Object_Land_Pattern_Large,-9.0,,,,,,,,,,,
encoding,image,17,3469388,3470400,3469652.0,3470836.0,1185.0,748.0,1876.1,1522.4,1920.0,700.0,Object_Land_Pattern_Large,58.03687712491955,59.04901354096364,3.0,Object_Land_Pattern_Large,-9.0,,,,,,,,,,,
encoding,value,17,3470400,3476414,3470846.0,3471266.0,421.0,421.0,1865.7,1475.4,1920.0,700.0,Object_Land_Pattern_Large,59.04912508302368,65.06292754097376,3.0,Object_Land_Pattern_Large,-9.0,,,,,,,,,,,
encoding,value,17,3470400,3476414,3471392.0,3472293.0,902.0,902.0,1874.2,1444.9,1920.0,700.0,Object_Land_Pattern_Large,59.04912508302368,65.06292754097376,3.0,Object_Land_Pattern_Large,-9.0,,,,,,,,,,,
encoding,value,17,3470400,3476414,3472442.0,3472941.0,500.0,500.0,1877.5,1483.8,1920.0,700.0,Object_Land_Pattern_Large,59.04912508302368,65.06292754097376,3.0,Object_Land_Pattern_Large,-9.0,,,,,,,,,,,
encoding,value,17,3470400,3476414,3472955.0,3474023.0,1069.0,1069.0,1862.6,1537.2,1920.0,700.0,Object_Land_Pattern_Large,59.04912508302368,65.06292754097376,3.0,Object_Land_Pattern_Large,-9.0,,,,,,,,,,,
encoding,value,17,3470400,3476414,3474161.0,3474685.0,525.0,525.0,1869.5,1502.0,1920.0,700.0,Object_Land_Pattern_Large,59.04912508302368,65.06292754097376,3.0,Object_Land_Pattern_Large,-9.0,,,,,,,,,,,
encoding,value,17,3470400,3476414,3474698.0,3474923.0,226.0,226.0,1879.8,1522.8,1920.0,700.0,Object_Land_Pattern_Large,59.04912508302368,65.06292754097376,3.0,Object_Land_Pattern_Large,-9.0,,,,,,,,,,,
encoding,value,17,3470400,3476414,3474938.0,3475336.0,399.0,399.0,1876.3,1463.3,1920.0,700.0,Object_Land_Pattern_Large,59.04912508302368,65.06292754097376,3.0,Object_Land_Pattern_Large,-9.0,,,,,,,,,,,
encoding,value,17,3470400,3476414,3475489.0,3476373.0,885.0,885.0,1882.5,1432.4,1920.0,700.0,Object_Land_Pattern_Large,59.04912508302368,65.06292754097376,3.0,Object_Land_Pattern_Large,-9.0,,,,,,,,,,,
encoding,value,17,3470400,3476414,3476380.0,3476537.0,158.0,34.0,1889.6,1438.2,1920.0,700.0,Object_Land_Pattern_Large,59.04912508302368,65.06292754097376,3.0,Object_Land_Pattern_Large,-9.0,,,,,,,,,,,
encoding,attention,17,3476415,3479428,3476555.0,3477405.0,851.0,851.0,1899.4,1487.1,1920.0,700.0,Object_Land_Pattern_Large,65.06305137497839,68.07567987497896,3.0,Object_Land_Pattern_Large,-9.0,,,,,,,,,,,
encoding,attention,17,3476415,3479428,3477573.0,3477749.0,177.0,177.0,1884.9,1453.3,1920.0,700.0,Object_Land_Pattern_Large,65.06305137497839,68.07567987497896,3.0,Object_Land_Pattern_Large,-9.0,,,,,,,,,,,
encoding,attention,17,3476415,3479428,3477760.0,3478154.0,395.0,395.0,1920.6,1420.5,1920.0,700.0,Object_Land_Pattern_Large,65.06305137497839,68.07567987497896,3.0,Object_Land_Pattern_Large,-9.0,,,,,,,,,,,
encoding,attention,17,3476415,3479428,3478341.0,3478579.0,239.0,239.0,1830.2,1412.7,1920.0,700.0,Object_Land_Pattern_Large,65.06305137497839,68.07567987497896,3.0,Object_Land_Pattern_Large,-9.0,,,,,,,,,,,
encoding,attention,17,3476415,3479428,3478595.0,3478893.0,299.0,299.0,1931.0,1405.1,1920.0,700.0,Object_Land_Pattern_Large,65.06305137497839,68.07567987497896,3.0,Object_Land_Pattern_Large,-9.0,,,,,,,,,,,
encoding,attention,17,3476415,3479428,3478908.0,3479185.0,278.0,278.0,1862.2,1409.0,1920.0,700.0,Object_Land_Pattern_Large,65.06305137497839,68.07567987497896,3.0,Object_Land_Pattern_Large,-9.0,,,,,,,,,,,
encoding,fixation,18,3479428,3480433,3480013.0,3480092.0,80.0,80.0,1501.7,1381.1,1591.0,891.0,Animal_Sea_Solid_Large,68.07584362500347,69.08086495799944,3.0,Object_Land_Pattern_Small,-8.0,,,,,,,,,,,
encoding,fixation,18,3479428,3480433,3480106.0,3480296.0,191.0,191.0,1528.6,1347.4,1591.0,891.0,Animal_Sea_Solid_Large,68.07584362500347,69.08086495799944,3.0,Object_Land_Pattern_Small,-8.0,,,,,,,,,,,
encoding,fixation,18,3479428,3480433,3480336.0,3480713.0,378.0,97.0,1881.6,1253.8,1920.0,700.0,Object_Land_Pattern_Large,68.07584362500347,69.08086495799944,3.0,Object_Land_Pattern_Small,-8.0,,,,,,,,,,,
encoding,image,18,3480433,3481444,3480752.0,3481021.0,270.0,270.0,2209.9,1314.0,2249.0,891.0,Object_Land_Pattern_Small,69.08095999993384,70.09247858298477,3.0,Object_Land_Pattern_Small,-8.0,,,,,,,,,,,
encoding,image,18,3480433,3481444,3481054.0,3481275.0,222.0,222.0,1896.3,1131.2,1920.0,1080.0,fixation,69.08095999993384,70.09247858298477,3.0,Object_Land_Pattern_Small,-8.0,,,,,,,,,,,
encoding,image,18,3480433,3481444,3481319.0,3481500.0,182.0,125.0,2223.3,1316.2,2249.0,891.0,Object_Land_Pattern_Small,69.08095999993384,70.09247858298477,3.0,Object_Land_Pattern_Small,-8.0,,,,,,,,,,,
encoding,value,18,3481444,3487457,3481658.0,3483058.0,1401.0,1401.0,2228.3,1204.1,2249.0,891.0,Object_Land_Pattern_Small,70.09257724997588,76.10493591602426,3.0,Object_Land_Pattern_Small,-8.0,,,,,,,,,,,
encoding,value,18,3481444,3487457,3483195.0,3484552.0,1358.0,1358.0,2232.8,1204.0,2249.0,891.0,Object_Land_Pattern_Small,70.09257724997588,76.10493591602426,3.0,Object_Land_Pattern_Small,-8.0,,,,,,,,,,,
encoding,value,18,3481444,3487457,3484734.0,3485042.0,309.0,309.0,2210.4,1227.4,2249.0,891.0,Object_Land_Pattern_Small,70.09257724997588,76.10493591602426,3.0,Object_Land_Pattern_Small,-8.0,,,,,,,,,,,
encoding,value,18,3481444,3487457,3485052.0,3486947.0,1896.0,1896.0,2236.5,1220.7,2249.0,891.0,Object_Land_Pattern_Small,70.09257724997588,76.10493591602426,3.0,Object_Land_Pattern_Small,-8.0,,,,,,,,,,,
encoding,value,18,3481444,3487457,3486970.0,3487062.0,93.0,93.0,2074.2,1208.3,2249.0,891.0,Object_Land_Pattern_Small,70.09257724997588,76.10493591602426,3.0,Object_Land_Pattern_Small,-8.0,,,,,,,,,,,
encoding,value,18,3481444,3487457,3487200.0,3487701.0,502.0,257.0,2230.1,1240.2,2249.0,891.0,Object_Land_Pattern_Small,70.09257724997588,76.10493591602426,3.0,Object_Land_Pattern_Small,-8.0,,,,,,,,,,,
encoding,attention,18,3487457,3490475,3487708.0,3487871.0,164.0,164.0,2209.3,1245.9,2249.0,891.0,Object_Land_Pattern_Small,76.10504729102831,79.12325833295472,3.0,Object_Land_Pattern_Small,-8.0,-8.0,1.0,0.7502216249704361,,,,,,,,
encoding,attention,18,3487457,3490475,3487884.0,3488039.0,156.0,156.0,2285.6,1255.9,2249.0,891.0,Object_Land_Pattern_Small,76.10504729102831,79.12325833295472,3.0,Object_Land_Pattern_Small,-8.0,-8.0,1.0,0.7502216249704361,,,,,,,,
encoding,attention,18,3487457,3490475,3488204.0,3489023.0,820.0,820.0,2274.4,1261.3,2249.0,891.0,Object_Land_Pattern_Small,76.10504729102831,79.12325833295472,3.0,Object_Land_Pattern_Small,-8.0,-8.0,1.0,0.7502216249704361,,,,,,,,
encoding,attention,18,3487457,3490475,3489033.0,3489207.0,175.0,175.0,2249.9,1303.0,2249.0,891.0,Object_Land_Pattern_Small,76.10504729102831,79.12325833295472,3.0,Object_Land_Pattern_Small,-8.0,-8.0,1.0,0.7502216249704361,,,,,,,,
encoding,attention,18,3487457,3490475,3489216.0,3489548.0,333.0,333.0,2283.4,1253.2,2249.0,891.0,Object_Land_Pattern_Small,76.10504729102831,79.12325833295472,3.0,Object_Land_Pattern_Small,-8.0,-8.0,1.0,0.7502216249704361,,,,,,,,
encoding,attention,18,3487457,3490475,3489750.0,3490051.0,302.0,302.0,2254.7,1276.7,2249.0,891.0,Object_Land_Pattern_Small,76.10504729102831,79.12325833295472,3.0,Object_Land_Pattern_Small,-8.0,-8.0,1.0,0.7502216249704361,,,,,,,,
encoding,attention,18,3487457,3490475,3490058.0,3490248.0,191.0,191.0,2289.2,1258.7,2249.0,891.0,Object_Land_Pattern_Small,76.10504729102831,79.12325833295472,3.0,Object_Land_Pattern_Small,-8.0,-8.0,1.0,0.7502216249704361,,,,,,,,
encoding,fixation,19,3787546,3788801,3787777.0,3787853.0,77.0,77.0,1904.9,1096.5,1920.0,1080.0,fixation,3.5714880420127884,4.826524334028363,4.0,Object_Land_Pattern_Small,9.0,,,,,,,,,,,
encoding,fixation,19,3787546,3788801,3788032.0,3788072.0,41.0,41.0,1841.8,1193.6,1591.0,891.0,Animal_Sea_Solid_Large,3.5714880420127884,4.826524334028363,4.0,Object_Land_Pattern_Small,9.0,,,,,,,,,,,
encoding,fixation,19,3787546,3788801,3788080.0,3788555.0,476.0,476.0,1883.3,1123.2,1920.0,1080.0,fixation,3.5714880420127884,4.826524334028363,4.0,Object_Land_Pattern_Small,9.0,,,,,,,,,,,
encoding,fixation,19,3787546,3788801,3788581.0,3788993.0,413.0,220.0,1834.5,1385.4,1920.0,700.0,Animal_Land_Pattern_Small,3.5714880420127884,4.826524334028363,4.0,Object_Land_Pattern_Small,9.0,,,,,,,,,,,
encoding,image,19,3788801,3789813,3789034.0,3790021.0,988.0,779.0,2208.9,1310.5,2249.0,891.0,Object_Land_Pattern_Small,4.8266255420167,5.8383743750164285,4.0,Object_Land_Pattern_Small,9.0,,,,,,,,,,,
encoding,value,19,3789813,3795831,3790034.0,3790325.0,292.0,292.0,2216.2,1219.1,2249.0,891.0,Object_Land_Pattern_Small,5.838535959017463,11.856240874971265,4.0,Object_Land_Pattern_Small,9.0,,,,,,,,,,,
encoding,value,19,3789813,3795831,3790464.0,3792526.0,2063.0,2063.0,2209.5,1221.7,2249.0,891.0,Object_Land_Pattern_Small,5.838535959017463,11.856240874971265,4.0,Object_Land_Pattern_Small,9.0,,,,,,,,,,,
encoding,value,19,3789813,3795831,3792533.0,3793030.0,498.0,498.0,2200.3,1217.1,2249.0,891.0,Object_Land_Pattern_Small,5.838535959017463,11.856240874971265,4.0,Object_Land_Pattern_Small,9.0,,,,,,,,,,,
encoding,value,19,3789813,3795831,3793190.0,3793833.0,644.0,644.0,2215.5,1202.5,2249.0,891.0,Object_Land_Pattern_Small,5.838535959017463,11.856240874971265,4.0,Object_Land_Pattern_Small,9.0,,,,,,,,,,,
encoding,value,19,3789813,3795831,3793859.0,3794073.0,215.0,215.0,1911.9,1132.2,1920.0,1080.0,fixation,5.838535959017463,11.856240874971265,4.0,Object_Land_Pattern_Small,9.0,,,,,,,,,,,
encoding,value,19,3789813,3795831,3794110.0,3794641.0,532.0,532.0,2229.6,1221.1,2249.0,891.0,Object_Land_Pattern_Small,5.838535959017463,11.856240874971265,4.0,Object_Land_Pattern_Small,9.0,,,,,,,,,,,
encoding,value,19,3789813,3795831,3794649.0,3795709.0,1061.0,1061.0,2210.2,1209.7,2249.0,891.0,Object_Land_Pattern_Small,5.838535959017463,11.856240874971265,4.0,Object_Land_Pattern_Small,9.0,,,,,,,,,,,
encoding,attention,19,3795831,3798849,3795854.0,3796137.0,284.0,284.0,2216.4,1208.2,2249.0,891.0,Object_Land_Pattern_Small,11.856349666952156,14.874328374979086,4.0,Object_Land_Pattern_Small,9.0,9.0,1.0,1.1023130840621889,,,,,,,,
encoding,attention,19,3795831,3798849,3796147.0,3796798.0,652.0,652.0,2172.8,1198.9,2249.0,891.0,Object_Land_Pattern_Small,11.856349666952156,14.874328374979086,4.0,Object_Land_Pattern_Small,9.0,9.0,1.0,1.1023130840621889,,,,,,,,
encoding,attention,19,3795831,3798849,3796814.0,3797138.0,325.0,325.0,2272.3,1215.5,2249.0,891.0,Object_Land_Pattern_Small,11.856349666952156,14.874328374979086,4.0,Object_Land_Pattern_Small,9.0,9.0,1.0,1.1023130840621889,,,,,,,,
encoding,attention,19,3795831,3798849,3797154.0,3797390.0,237.0,237.0,2179.7,1217.5,2249.0,891.0,Object_Land_Pattern_Small,11.856349666952156,14.874328374979086,4.0,Object_Land_Pattern_Small,9.0,9.0,1.0,1.1023130840621889,,,,,,,,
encoding,attention,19,3795831,3798849,3797558.0,3798044.0,487.0,487.0,2163.7,1226.9,2249.0,891.0,Object_Land_Pattern_Small,11.856349666952156,14.874328374979086,4.0,Object_Land_Pattern_Small,9.0,9.0,1.0,1.1023130840621889,,,,,,,,
encoding,attention,19,3795831,3798849,3798051.0,3798190.0,140.0,140.0,2169.4,1221.2,2249.0,891.0,Object_Land_Pattern_Small,11.856349666952156,14.874328374979086,4.0,Object_Land_Pattern_Small,9.0,9.0,1.0,1.1023130840621889,,,,,,,,
encoding,attention,19,3795831,3798849,3798492.0,3798797.0,306.0,306.0,2170.3,1174.2,2249.0,891.0,Object_Land_Pattern_Small,11.856349666952156,14.874328374979086,4.0,Object_Land_Pattern_Small,9.0,9.0,1.0,1.1023130840621889,,,,,,,,
encoding,fixation,20,3798849,3799854,3799301.0,3799548.0,248.0,248.0,1894.4,1056.6,1920.0,1080.0,fixation,14.874486292013898,15.87973195896484,4.0,Animal_Land_Pattern_Small,-6.0,,,,,,,,,,,
encoding,fixation,20,3798849,3799854,3799748.0,3800026.0,279.0,106.0,1919.9,1098.9,1920.0,1080.0,fixation,14.874486292013898,15.87973195896484,4.0,Animal_Land_Pattern_Small,-6.0,,,,,,,,,,,
encoding,image,20,3799854,3800866,3800063.0,3800326.0,264.0,264.0,1862.8,1477.2,1920.0,700.0,Animal_Land_Pattern_Small,15.879847791977229,16.891111459000967,4.0,Animal_Land_Pattern_Small,-6.0,,,,,,,,,,,
encoding,image,20,3799854,3800866,3800488.0,3800871.0,384.0,378.0,1873.5,1485.7,1920.0,700.0,Animal_Land_Pattern_Small,15.879847791977229,16.891111459000967,4.0,Animal_Land_Pattern_Small,-6.0,,,,,,,,,,,
encoding,value,20,3800866,3806880,3801028.0,3801233.0,206.0,206.0,1874.3,1463.1,1920.0,700.0,Animal_Land_Pattern_Small,16.891217374941334,22.90476566704456,4.0,Animal_Land_Pattern_Small,-6.0,,,,,,,,,,,
encoding,value,20,3800866,3806880,3801246.0,3801680.0,435.0,435.0,1883.0,1418.3,1920.0,700.0,Animal_Land_Pattern_Small,16.891217374941334,22.90476566704456,4.0,Animal_Land_Pattern_Small,-6.0,,,,,,,,,,,
encoding,value,20,3800866,3806880,3801842.0,3802037.0,196.0,196.0,1868.8,1416.9,1920.0,700.0,Animal_Land_Pattern_Small,16.891217374941334,22.90476566704456,4.0,Animal_Land_Pattern_Small,-6.0,,,,,,,,,,,
encoding,value,20,3800866,3806880,3802052.0,3802389.0,338.0,338.0,1881.7,1480.0,1920.0,700.0,Animal_Land_Pattern_Small,16.891217374941334,22.90476566704456,4.0,Animal_Land_Pattern_Small,-6.0,,,,,,,,,,,
encoding,value,20,3800866,3806880,3802553.0,3802739.0,187.0,187.0,1877.0,1437.9,1920.0,700.0,Animal_Land_Pattern_Small,16.891217374941334,22.90476566704456,4.0,Animal_Land_Pattern_Small,-6.0,,,,,,,,,,,
encoding,value,20,3800866,3806880,3802751.0,3803055.0,305.0,305.0,1873.8,1482.9,1920.0,700.0,Animal_Land_Pattern_Small,16.891217374941334,22.90476566704456,4.0,Animal_Land_Pattern_Small,-6.0,,,,,,,,,,,
encoding,value,20,3800866,3806880,3803254.0,3803754.0,501.0,501.0,1862.2,1400.0,1920.0,700.0,Animal_Land_Pattern_Small,16.891217374941334,22.90476566704456,4.0,Animal_Land_Pattern_Small,-6.0,,,,,,,,,,,
encoding,value,20,3800866,3806880,3803769.0,3804271.0,503.0,503.0,1868.5,1454.3,1920.0,700.0,Animal_Land_Pattern_Small,16.891217374941334,22.90476566704456,4.0,Animal_Land_Pattern_Small,-6.0,,,,,,,,,,,
encoding,value,20,3800866,3806880,3804459.0,3805927.0,1469.0,1469.0,1876.0,1406.3,1920.0,700.0,Animal_Land_Pattern_Small,16.891217374941334,22.90476566704456,4.0,Animal_Land_Pattern_Small,-6.0,,,,,,,,,,,
encoding,value,20,3800866,3806880,3805941.0,3806255.0,315.0,315.0,1860.1,1478.5,1920.0,700.0,Animal_Land_Pattern_Small,16.891217374941334,22.90476566704456,4.0,Animal_Land_Pattern_Small,-6.0,,,,,,,,,,,
encoding,value,20,3800866,3806880,3806272.0,3807155.0,884.0,608.0,1865.6,1413.8,1920.0,700.0,Animal_Land_Pattern_Small,16.891217374941334,22.90476566704456,4.0,Animal_Land_Pattern_Small,-6.0,,,,,,,,,,,
encoding,attention,20,3806880,3809897,3807307.0,3807446.0,140.0,140.0,1820.5,1436.3,1920.0,700.0,Animal_Land_Pattern_Small,22.904869041987695,25.922319291974414,4.0,Animal_Land_Pattern_Small,-6.0,-6.0,1.0,0.918583249906078,,,,,,,,
encoding,attention,20,3806880,3809897,3807459.0,3808043.0,585.0,585.0,1915.1,1414.3,1920.0,700.0,Animal_Land_Pattern_Small,22.904869041987695,25.922319291974414,4.0,Animal_Land_Pattern_Small,-6.0,-6.0,1.0,0.918583249906078,,,,,,,,
encoding,attention,20,3806880,3809897,3808189.0,3808771.0,583.0,583.0,1860.7,1481.6,1920.0,700.0,Animal_Land_Pattern_Small,22.904869041987695,25.922319291974414,4.0,Animal_Land_Pattern_Small,-6.0,-6.0,1.0,0.918583249906078,,,,,,,,
encoding,attention,20,3806880,3809897,3808949.0,3809484.0,536.0,536.0,1889.9,1497.2,1920.0,700.0,Animal_Land_Pattern_Small,22.904869041987695,25.922319291974414,4.0,Animal_Land_Pattern_Small,-6.0,-6.0,1.0,0.918583249906078,,,,,,,,
encoding,fixation,21,3809898,3810403,3810346.0,3810493.0,148.0,57.0,1801.1,1236.1,1591.0,891.0,Animal_Sea_Solid_Large,25.92246520903427,26.427707583992746,4.0,Object_Sea_Solid_Large,-7.0,,,,,,,,,,,
encoding,image,21,3810403,3811414,3810514.0,3810645.0,132.0,132.0,1892.6,1129.3,1920.0,1080.0,fixation,26.42781462497078,27.439149625017308,4.0,Object_Sea_Solid_Large,-7.0,,,,,,,,,,,
encoding,image,21,3810403,3811414,3810682.0,3811034.0,353.0,353.0,1587.5,891.8,1591.0,1269.0,Object_Sea_Solid_Large,26.42781462497078,27.439149625017308,4.0,Object_Sea_Solid_Large,-7.0,,,,,,,,,,,
encoding,image,21,3810403,3811414,3811045.0,3811840.0,796.0,369.0,1554.5,847.8,1591.0,1269.0,Object_Sea_Solid_Large,26.42781462497078,27.439149625017308,4.0,Object_Sea_Solid_Large,-7.0,,,,,,,,,,,
encoding,value,21,3811414,3817427,3812091.0,3812745.0,655.0,655.0,1591.4,762.0999999999999,1591.0,1269.0,Object_Sea_Solid_Large,27.439271416980773,33.45161437499337,4.0,Object_Sea_Solid_Large,-7.0,,,,,,,,,,,
encoding,value,21,3811414,3817427,3812752.0,3813123.0,372.0,372.0,1578.7,753.3,1591.0,1269.0,Object_Sea_Solid_Large,27.439271416980773,33.45161437499337,4.0,Object_Sea_Solid_Large,-7.0,,,,,,,,,,,
encoding,value,21,3811414,3817427,3813681.0,3813743.0,63.0,63.0,1551.6,855.4000000000001,1591.0,1269.0,Object_Sea_Solid_Large,27.439271416980773,33.45161437499337,4.0,Object_Sea_Solid_Large,-7.0,,,,,,,,,,,
encoding,value,21,3811414,3817427,3813760.0,3814004.0,245.0,245.0,1550.0,895.0,1591.0,1269.0,Object_Sea_Solid_Large,27.439271416980773,33.45161437499337,4.0,Object_Sea_Solid_Large,-7.0,,,,,,,,,,,
encoding,value,21,3811414,3817427,3814022.0,3814236.0,215.0,215.0,1585.6,755.8,1591.0,1269.0,Object_Sea_Solid_Large,27.439271416980773,33.45161437499337,4.0,Object_Sea_Solid_Large,-7.0,,,,,,,,,,,
encoding,value,21,3811414,3817427,3814259.0,3814946.0,688.0,688.0,1573.1,859.5,1591.0,1269.0,Object_Sea_Solid_Large,27.439271416980773,33.45161437499337,4.0,Object_Sea_Solid_Large,-7.0,,,,,,,,,,,
encoding,value,21,3811414,3817427,3815264.0,3816694.0,1431.0,1431.0,1573.6,755.7,1591.0,1269.0,Object_Sea_Solid_Large,27.439271416980773,33.45161437499337,4.0,Object_Sea_Solid_Large,-7.0,,,,,,,,,,,
encoding,value,21,3811414,3817427,3817132.0,3817635.0,504.0,295.0,1567.6,824.0,1591.0,1269.0,Object_Sea_Solid_Large,27.439271416980773,33.45161437499337,4.0,Object_Sea_Solid_Large,-7.0,,,,,,,,,,,
encoding,attention,21,3817427,3820447,3817643.0,3818003.0,361.0,361.0,1533.7,815.2,1591.0,1269.0,Object_Sea_Solid_Large,33.45175124995876,36.471038041985594,4.0,Object_Sea_Solid_Large,-7.0,-7.0,1.0,2.883863625000231,,,,,,,,
encoding,attention,21,3817427,3820447,3818013.0,3818143.0,131.0,131.0,1595.3,835.9000000000001,1591.0,1269.0,Object_Sea_Solid_Large,33.45175124995876,36.471038041985594,4.0,Object_Sea_Solid_Large,-7.0,-7.0,1.0,2.883863625000231,,,,,,,,
encoding,attention,21,3817427,3820447,3818417.0,3818552.0,136.0,136.0,1588.9,813.0999999999999,1591.0,1269.0,Object_Sea_Solid_Large,33.45175124995876,36.471038041985594,4.0,Object_Sea_Solid_Large,-7.0,-7.0,1.0,2.883863625000231,,,,,,,,
encoding,attention,21,3817427,3820447,3818562.0,3818825.0,264.0,264.0,1615.6,743.9000000000001,1591.0,1269.0,Object_Sea_Solid_Large,33.45175124995876,36.471038041985594,4.0,Object_Sea_Solid_Large,-7.0,-7.0,1.0,2.883863625000231,,,,,,,,
encoding,attention,21,3817427,3820447,3819105.0,3819636.0,532.0,532.0,1531.4,754.5999999999999,1591.0,1269.0,Object_Sea_Solid_Large,33.45175124995876,36.471038041985594,4.0,Object_Sea_Solid_Large,-7.0,-7.0,1.0,2.883863625000231,,,,,,,,
encoding,attention,21,3817427,3820447,3819735.0,3819790.0,56.0,56.0,1583.3,818.4000000000001,1591.0,1269.0,Object_Sea_Solid_Large,33.45175124995876,36.471038041985594,4.0,Object_Sea_Solid_Large,-7.0,-7.0,1.0,2.883863625000231,,,,,,,,
encoding,fixation,22,3820447,3820951,3820697.0,3821177.0,481.0,254.0,1865.3,1094.4,1920.0,1080.0,fixation,36.471164916991256,36.97573520895094,4.0,Object_Sea_Pattern_Large,-1.0,,,,,,,,,,,
encoding,image,22,3820951,3821961,3821215.0,3822334.0,1120.0,746.0,1887.3,642.5,1920.0,1460.0,Object_Sea_Pattern_Large,36.97583741694689,37.98556437494699,4.0,Object_Sea_Pattern_Large,-1.0,,,,,,,,,,,
encoding,value,22,3821961,3827973,3822569.0,3824471.0,1903.0,1903.0,1902.0,602.7,1920.0,1460.0,Object_Sea_Pattern_Large,37.98566508397926,43.997466334025376,4.0,Object_Sea_Pattern_Large,-1.0,,,,,,,,,,,
encoding,value,22,3821961,3827973,3824714.0,3825330.0,617.0,617.0,1908.4,614.8,1920.0,1460.0,Object_Sea_Pattern_Large,37.98566508397926,43.997466334025376,4.0,Object_Sea_Pattern_Large,-1.0,,,,,,,,,,,
encoding,value,22,3821961,3827973,3825752.0,3826670.0,919.0,919.0,1915.0,620.8,1920.0,1460.0,Object_Sea_Pattern_Large,37.98566508397926,43.997466334025376,4.0,Object_Sea_Pattern_Large,-1.0,,,,,,,,,,,
encoding,value,22,3821961,3827973,3826678.0,3827518.0,841.0,841.0,1907.4,632.8,1920.0,1460.0,Object_Sea_Pattern_Large,37.98566508397926,43.997466334025376,4.0,Object_Sea_Pattern_Large,-1.0,,,,,,,,,,,
encoding,value,22,3821961,3827973,3827793.0,3828066.0,274.0,180.0,1906.0,690.4000000000001,1920.0,1460.0,Object_Sea_Pattern_Large,37.98566508397926,43.997466334025376,4.0,Object_Sea_Pattern_Large,-1.0,,,,,,,,,,,
encoding,attention,22,3827973,3830991,3828310.0,3828659.0,350.0,350.0,1928.8,604.3,1920.0,1460.0,Object_Sea_Pattern_Large,43.99757620901801,47.01470437494572,4.0,Object_Sea_Pattern_Large,-1.0,-1.0,1.0,2.1136632909765467,,,,,,,,
encoding,attention,22,3827973,3830991,3828920.0,3828968.0,49.0,49.0,1805.4,728.5999999999999,1920.0,1460.0,Object_Sea_Pattern_Large,43.99757620901801,47.01470437494572,4.0,Object_Sea_Pattern_Large,-1.0,-1.0,1.0,2.1136632909765467,,,,,,,,
encoding,fixation,23,3830991,3832496,3831249.0,3831281.0,33.0,33.0,1864.5,1087.6,1920.0,1080.0,fixation,47.01485583395697,48.51995095901657,4.0,Animal_Land_Solid_Small,-8.0,,,,,,,,,,,
encoding,fixation,23,3830991,3832496,3831671.0,3832681.0,1011.0,825.0,1897.4,1096.3,1920.0,1080.0,fixation,47.01485583395697,48.51995095901657,4.0,Animal_Land_Solid_Small,-8.0,,,,,,,,,,,
encoding,image,23,3832496,3833507,3832719.0,3832954.0,236.0,236.0,2242.6,863.9000000000001,2249.0,1269.0,Animal_Land_Solid_Small,48.52008708403446,49.53098224999849,4.0,Animal_Land_Solid_Small,-8.0,,,,,,,,,,,
encoding,image,23,3832496,3833507,3833180.0,3833353.0,174.0,174.0,2226.8,848.2,2249.0,1269.0,Animal_Land_Solid_Small,48.52008708403446,49.53098224999849,4.0,Animal_Land_Solid_Small,-8.0,,,,,,,,,,,
encoding,image,23,3832496,3833507,3833368.0,3834336.0,969.0,139.0,2248.0,718.5999999999999,2249.0,1269.0,Animal_Land_Solid_Small,48.52008708403446,49.53098224999849,4.0,Animal_Land_Solid_Small,-8.0,,,,,,,,,,,
encoding,value,23,3833507,3839519,3834359.0,3835275.0,917.0,917.0,2264.0,871.4000000000001,2249.0,1269.0,Animal_Land_Solid_Small,49.53109399997629,55.542436209041625,4.0,Animal_Land_Solid_Small,-8.0,,,,,,,,,,,
encoding,value,23,3833507,3839519,3835559.0,3835651.0,93.0,93.0,2270.0,832.5,2249.0,1269.0,Animal_Land_Solid_Small,49.53109399997629,55.542436209041625,4.0,Animal_Land_Solid_Small,-8.0,,,,,,,,,,,
encoding,value,23,3833507,3839519,3835669.0,3836387.0,719.0,719.0,2236.4,727.9000000000001,2249.0,1269.0,Animal_Land_Solid_Small,49.53109399997629,55.542436209041625,4.0,Animal_Land_Solid_Small,-8.0,,,,,,,,,,,
encoding,value,23,3833507,3839519,3836396.0,3841167.0,4772.0,3123.0,2255.2,719.4000000000001,2249.0,1269.0,Animal_Land_Solid_Small,49.53109399997629,55.542436209041625,4.0,Animal_Land_Solid_Small,-8.0,,,,,,,,,,,
encoding,attention,23,3839519,3842539,,,,,,,,,none,55.54254287504591,58.56288899993524,4.0,Animal_Land_Solid_Small,-8.0,-8.0,1.0,0.7919176659779623,,,,,,,,
encoding,fixation,24,3842540,3843295,3842798.0,3842919.0,122.0,122.0,1922.2,1123.5,1920.0,1080.0,fixation,58.563033833983354,59.318188291974366,4.0,Animal_Sea_Solid_Large,9.0,,,,,,,,,,,
encoding,fixation,24,3842540,3843295,3843245.0,3843392.0,148.0,50.0,1495.0,1214.8,1591.0,891.0,Animal_Sea_Solid_Large,58.563033833983354,59.318188291974366,4.0,Animal_Sea_Solid_Large,9.0,,,,,,,,,,,
encoding,image,24,3843295,3844306,3843420.0,3843561.0,142.0,142.0,1717.7,1180.2,1591.0,891.0,Animal_Sea_Solid_Large,59.31830483395606,60.32955229200888,4.0,Animal_Sea_Solid_Large,9.0,,,,,,,,,,,
encoding,image,24,3843295,3844306,3843588.0,3843777.0,190.0,190.0,1535.4,1395.2,1591.0,891.0,Animal_Sea_Solid_Large,59.31830483395606,60.32955229200888,4.0,Animal_Sea_Solid_Large,9.0,,,,,,,,,,,
encoding,image,24,3843295,3844306,3843797.0,3844318.0,522.0,509.0,1537.6,1377.2,1591.0,891.0,Animal_Sea_Solid_Large,59.31830483395606,60.32955229200888,4.0,Animal_Sea_Solid_Large,9.0,,,,,,,,,,,
encoding,value,24,3844306,3850318,3844333.0,3844524.0,192.0,192.0,1572.0,1285.9,1591.0,891.0,Animal_Sea_Solid_Large,60.329662833944894,66.34079329203814,4.0,Animal_Sea_Solid_Large,9.0,,,,,,,,,,,
encoding,value,24,3844306,3850318,3844533.0,3844854.0,322.0,322.0,1549.6,1256.1,1591.0,891.0,Animal_Sea_Solid_Large,60.329662833944894,66.34079329203814,4.0,Animal_Sea_Solid_Large,9.0,,,,,,,,,,,
encoding,value,24,3844306,3850318,3845033.0,3845085.0,53.0,53.0,1533.8,1395.4,1591.0,891.0,Animal_Sea_Solid_Large,60.329662833944894,66.34079329203814,4.0,Animal_Sea_Solid_Large,9.0,,,,,,,,,,,
encoding,value,24,3844306,3850318,3845094.0,3845708.0,615.0,615.0,1542.3,1351.9,1591.0,891.0,Animal_Sea_Solid_Large,60.329662833944894,66.34079329203814,4.0,Animal_Sea_Solid_Large,9.0,,,,,,,,,,,
