phase,event,onset,offset,trial_number,game,image,outcome,choice,correct,rt,letter,match,response,option,true_value,true_position,recalled_position,
encoding,fixation,9.066622167010792,10.07699595799204,1,1,Animal_Land_Pattern_Small,3,,,,,,,,,,,
encoding,image,10.07714012498036,11.09642287506722,1,1,Animal_Land_Pattern_Small,3,,,,,,,,,,,
encoding,value,11.096600332995877,17.111736249993555,1,1,Animal_Land_Pattern_Small,3,,,,,,,,,,,
encoding,attention,17.11184404208325,20.124182042083703,1,1,Animal_Land_Pattern_Small,3,None,None,None,,,,,,,,
encoding,fixation,20.124331167084165,21.37968329200521,2,1,Animal_Land_Solid_Large,-8,,,,,,,,,,,
encoding,image,21.37979208305478,22.39138616702985,2,1,Animal_Land_Solid_Large,-8,,,,,,,,,,,
encoding,value,22.391489624977112,28.40338116697967,2,1,Animal_Land_Solid_Large,-8,,,,,,,,,,,
encoding,attention,28.403492250014096,31.415248458040878,2,1,Animal_Land_Solid_Large,-8,None,None,None,,,,,,,,
encoding,fixation,31.415363291976973,32.42051058297511,3,1,Animal_Sea_Pattern_Small,1,,,,,,,,,,,
encoding,image,32.420615207985975,33.43149083305616,3,1,Animal_Sea_Pattern_Small,1,,,,,,,,,,,
encoding,value,33.43159904202912,39.44406400003936,3,1,Animal_Sea_Pattern_Small,1,,,,,,,,,,,
encoding,attention,39.44416579208337,42.45690433308482,3,1,Animal_Sea_Pattern_Small,1,None,None,None,,,,,,,,
encoding,fixation,42.45703129202593,43.712550792028196,4,1,Object_Sea_Pattern_Large,-5,,,,,,,,,,,
encoding,image,43.71265962498728,44.7246524579823,4,1,Object_Sea_Pattern_Large,-5,,,,,,,,,,,
encoding,value,44.724766125087626,50.73675554199144,4,1,Object_Sea_Pattern_Large,-5,,,,,,,,,,,
encoding,attention,50.736868917010725,53.75031279202085,4,1,Object_Sea_Pattern_Large,-5,None,None,None,,,,,,,,
encoding,fixation,53.750434083049186,54.75562737497967,5,1,Object_Land_Solid_Small,-3,,,,,,,,,,,
encoding,image,54.75580312497914,55.76711224997416,5,1,Object_Land_Solid_Small,-3,,,,,,,,,,,
encoding,value,55.767232791986316,61.77942083298694,5,1,Object_Land_Solid_Small,-3,,,,,,,,,,,
encoding,attention,61.77952666708734,64.8423392920522,5,1,Object_Land_Solid_Small,-3,None,None,None,,,,,,,,
encoding,fixation,64.84246733307373,66.35027116700076,6,1,Object_Sea_Solid_Large,9,,,,,,,,,,,
encoding,image,66.35043266706634,67.36243612505496,6,1,Object_Sea_Solid_Large,9,,,,,,,,,,,
encoding,value,67.36254295799881,73.3750258750515,6,1,Object_Sea_Solid_Large,9,,,,,,,,,,,
encoding,attention,73.375138583011,76.38812520797364,6,1,Object_Sea_Solid_Large,9,None,None,None,,,,,,,,
n-back,,,,1,1,,,,1,None,C,False,None,,,,,
n-back,,,,2,1,,,,1,None,V,False,None,,,,,
n-back,,,,3,1,,,,0,None,C,True,None,,,,,
n-back,,,,4,1,,,,1,None,C,False,None,,,,,
n-back,,,,5,1,,,,1,1.133525124983862,C,True,1,,,,,
n-back,,,,6,1,,,,1,None,N,False,None,,,,,
n-back,,,,7,1,,,,0,None,C,True,None,,,,,
n-back,,,,8,1,,,,1,None,X,False,None,,,,,
n-back,,,,9,1,,,,1,None,V,False,None,,,,,
n-back,,,,10,1,,,,1,1.2648916250327602,X,True,1,,,,,
n-back,,,,11,1,,,,0,None,V,True,None,,,,,
n-back,,,,12,1,,,,1,None,V,False,None,,,,,
n-back,,,,13,1,,,,1,1.2347374169621617,V,True,1,,,,,
n-back,,,,14,1,,,,1,None,X,False,None,,,,,
n-back,,,,15,1,,,,0,None,V,True,None,,,,,
n-back,,,,16,1,,,,1,None,N,False,None,,,,,
n-back,,,,17,1,,,,1,None,C,False,None,,,,,
n-back,,,,18,1,,,,1,None,C,False,None,,,,,
n-back,,,,19,1,,,,1,None,N,False,None,,,,,
n-back,,,,20,1,,,,0,0.5454700000118464,Z,False,1,,,,,
n-back,,,,21,1,,,,1,None,B,False,None,,,,,
n-back,,,,22,1,,,,1,None,V,False,None,,,,,
n-back,,,,23,1,,,,1,None,V,False,None,,,,,
n-back,,,,24,1,,,,1,None,X,False,None,,,,,
n-back,,,,25,1,,,,1,None,C,False,None,,,,,
n-back,,,,26,1,,,,1,None,V,False,None,,,,,
n-back,,,,27,1,,,,0,None,C,True,None,,,,,
n-back,,,,28,1,,,,0,None,V,True,None,,,,,
n-back,,,,29,1,,,,0,None,C,True,None,,,,,
n-back,,,,30,1,,,,1,None,C,False,None,,,,,
choice,fixation,180.24866579205263,180.75527441699523,1,1,,,,,,,,,Pattern,,,,
choice,option,180.76488450006582,181.8835026670713,1,1,,,,,,,,,Pattern,,,,
choice,choice,181.88362012500875,199.43938400002662,1,1,,,1,0,16.544949540984817,,,,Pattern,,,,
choice,fixation,199.4395070420578,200.6947772500571,2,1,,,,,,,,,Animal,,,,
choice,option,200.70454783306923,201.73300537501927,2,1,,,,,,,,,Animal,,,,
choice,choice,201.73312816699035,207.25541845802218,2,1,,,2,1,4.512906415970065,,,,Animal,,,,
choice,fixation,207.2555360830156,208.76075320807286,3,1,,,,,,,,,Object,,,,
choice,option,208.77042375004385,209.79936833307147,3,1,,,,,,,,,Object,,,,
choice,choice,209.79948462499306,215.25086837506387,3,1,,,1,1,4.437966166995466,,,,Object,,,,
choice,fixation,215.25099312502425,216.50598441704642,4,1,,,,,,,,,Large,,,,
choice,option,216.51461304200348,217.5413367500296,4,1,,,,,,,,,Large,,,,
choice,choice,217.5414408330107,219.62397245806642,4,1,,,2,1,1.070014207973145,,,,Large,,,,
choice,fixation,219.624082208029,220.87915962503757,5,1,,,,,,,,,Sea,,,,
choice,option,220.88735445798375,221.91571491700597,5,1,,,,,,,,,Sea,,,,
choice,choice,221.91584837506525,230.08898683299776,5,1,,,1,1,7.161886542104185,,,,Sea,,,,
choice,fixation,230.0891169999959,230.84446445805952,6,1,,,,,,,,,Solid,,,,
choice,option,230.85391770803835,231.88136133307125,6,1,,,,,,,,,Solid,,,,
choice,choice,231.88145758304745,235.96831458306406,6,1,,,2,1,3.077405083924532,,,,Solid,,,,
choice,fixation,235.96844091708772,237.47370054200292,7,1,,,,,,,,,Land,,,,
choice,option,237.48258299997542,238.5096575000789,7,1,,,,,,,,,Land,,,,
choice,choice,238.5098388750339,241.56832945800852,7,1,,,2,1,2.048711417010054,,,,Land,,,,
choice,fixation,241.5684556249762,242.32353470800444,8,1,,,,,,,,,Small,,,,
choice,option,242.33237954205833,243.35924691706896,8,1,,,,,,,,,Small,,,,
choice,choice,243.35935287503526,248.63127562508453,8,1,,,1,1,4.262192249996588,,,,Small,,,,
memory,free_recall,344.5475679580122,368.5478876250563,0,1,,,,,,,,,,,,,
memory,value_recall,425.58242633298505,433.33677412499674,1,1,Object_Sea_Pattern_Large,,,,7.750467584002763,,,,,-5,,,
memory,value_recall,435.38392345805187,439.8284036250552,2,1,Object_Land_Solid_Small,,,,4.440491665969603,,,,,-3,,,
memory,value_recall,441.87496749998536,447.8578540420858,3,1,Object_Sea_Solid_Large,,,,5.978044708957896,,,,,9,,,
memory,value_recall,449.40460658306256,453.8810072920751,4,1,Animal_Land_Pattern_Small,,,,4.472108000074513,,,,,3,,,
memory,value_recall,455.92746295803227,457.7705822500866,5,1,Animal_Sea_Pattern_Small,,,,1.8390477080829442,,,,,1,,,
memory,value_recall,459.31783345807344,462.2586139580235,6,1,Animal_Land_Solid_Large,,,,2.936622624984011,,,,,-8,,,
memory,spatial_recall,482.49896720808465,491.4105306250276,6,1,Object_Sea_Solid_Large,,,1,8.907139583025128,,,,,,"[-329, -190]","[-329, -190]",
memory,spatial_recall,493.4715330420295,499.61055362503976,6,1,Animal_Land_Pattern_Small,,,1,6.13469645800069,,,,,,"[0, 380]","[0, 380]",
memory,spatial_recall,501.6691105000209,506.1503755419981,6,1,Object_Sea_Pattern_Large,,,1,4.4771852910052985,,,,,,"[0, -380]","[0, -380]",
memory,spatial_recall,507.95749987498857,510.9855068749748,6,1,Object_Land_Solid_Small,,,1,3.0235544580500573,,,,,,"[329, -190]","[329, -190]",
memory,spatial_recall,512.5465929580387,518.4773616250604,6,1,Animal_Sea_Pattern_Small,,,1,5.92696033406537,,,,,,"[-329, 190]","[-329, 190]",
memory,spatial_recall,520.0351737079909,525.6036562080262,6,1,Animal_Land_Solid_Large,,,1,5.5644380419980735,,,,,,"[329, 189]","[329, 189]",
encoding,fixation,8.084706000052392,9.34010179201141,7,2,Animal_Sea_Pattern_Small,9,,,,,,,,,,,
encoding,image,9.340279167052358,10.351606416981667,7,2,Animal_Sea_Pattern_Small,9,,,,,,,,,,,
encoding,value,10.351705334032886,16.36504479206633,7,2,Animal_Sea_Pattern_Small,9,,,,,,,,,,,
encoding,attention,16.365139708970673,19.381968875066377,7,2,Animal_Sea_Pattern_Small,9,-4,0,2.8209167500026524,,,,,,,,
encoding,fixation,19.38211904198397,20.137111000018194,8,2,Object_Land_Solid_Large,5,,,,,,,,,,,
encoding,image,20.137222083983943,21.14640883402899,8,2,Object_Land_Solid_Large,5,,,,,,,,,,,
encoding,value,21.146523709059693,27.157764291972853,8,2,Object_Land_Solid_Large,5,,,,,,,,,,,
encoding,attention,27.15786425000988,30.173665791982785,8,2,Object_Land_Solid_Large,5,+5,1,0.8202752500073984,,,,,,,,
encoding,fixation,30.173830750049092,30.67907800001558,9,2,Object_Sea_Pattern_Small,-9,,,,,,,,,,,
encoding,image,30.67922270903364,31.689983542077243,9,2,Object_Sea_Pattern_Small,-9,,,,,,,,,,,
encoding,value,31.690077209030278,37.70166091702413,9,2,Object_Sea_Pattern_Small,-9,,,,,,,,,,,
encoding,attention,37.70178233401384,40.718666000058874,9,2,Object_Sea_Pattern_Small,-9,-9,1,0.7564102499745786,,,,,,,,
encoding,fixation,40.71879608405288,41.97391499998048,10,2,Animal_Land_Solid_Large,-1,,,,,,,,,,,
encoding,image,41.97403562499676,42.98536141705699,10,2,Animal_Land_Solid_Large,-1,,,,,,,,,,,
encoding,value,42.985462584067136,48.998527084011585,10,2,Animal_Land_Solid_Large,-1,,,,,,,,,,,
encoding,attention,48.99864112504292,52.015407041995786,10,2,Animal_Land_Solid_Large,-1,-1,1,0.8118027499876916,,,,,,,,
encoding,fixation,52.01555062504485,52.521046709036455,11,2,Object_Sea_Solid_Small,7,,,,,,,,,,,
encoding,image,52.52114437497221,53.53127370902803,11,2,Object_Sea_Solid_Small,7,,,,,,,,,,,
encoding,value,53.53138666704763,59.54357624996919,11,2,Object_Sea_Solid_Small,7,,,,,,,,,,,
encoding,attention,59.54370208398905,62.56165858404711,11,2,Object_Sea_Solid_Small,7,+7,1,0.6687852500472218,,,,,,,,
encoding,fixation,62.56181079207454,63.31740145897493,12,2,Animal_Land_Pattern_Large,-3,,,,,,,,,,,
encoding,image,63.31749362498522,64.32810308400076,12,2,Animal_Land_Pattern_Large,-3,,,,,,,,,,,
encoding,value,64.32822329201736,70.33957608405035,12,2,Animal_Land_Pattern_Large,-3,,,,,,,,,,,
encoding,attention,70.33972958405502,73.35671750002075,12,2,Animal_Land_Pattern_Large,-3,-3,1,1.4862725000130013,,,,,,,,
n-back,,,,31,2,,,,1,None,Z,False,None,,,,,
n-back,,,,32,2,,,,1,None,Z,False,None,,,,,
n-back,,,,33,2,,,,1,None,C,False,None,,,,,
n-back,,,,34,2,,,,1,None,N,False,None,,,,,
n-back,,,,35,2,,,,1,None,Z,False,None,,,,,
n-back,,,,36,2,,,,0,None,N,True,None,,,,,
n-back,,,,37,2,,,,1,1.0172797499690205,Z,True,1,,,,,
n-back,,,,38,2,,,,0,None,N,True,None,,,,,
n-back,,,,39,2,,,,1,None,X,False,None,,,,,
n-back,,,,40,2,,,,1,None,V,False,None,,,,,
n-back,,,,41,2,,,,1,None,N,False,None,,,,,
n-back,,,,42,2,,,,1,None,Z,False,None,,,,,
n-back,,,,43,2,,,,1,None,C,False,None,,,,,
n-back,,,,44,2,,,,1,None,B,False,None,,,,,
n-back,,,,45,2,,,,1,None,B,False,None,,,,,
n-back,,,,46,2,,,,1,1.0665249159792438,B,True,1,,,,,
n-back,,,,47,2,,,,1,None,Z,False,None,,,,,
n-back,,,,48,2,,,,1,None,Z,False,None,,,,,
n-back,,,,49,2,,,,1,None,B,False,None,,,,,
n-back,,,,50,2,,,,1,None,V,False,None,,,,,
n-back,,,,51,2,,,,1,None,V,False,None,,,,,
n-back,,,,52,2,,,,1,0.6218304589856416,V,True,1,,,,,
n-back,,,,53,2,,,,0,None,V,True,None,,,,,
n-back,,,,54,2,,,,1,1.0677989170653746,V,True,1,,,,,
n-back,,,,55,2,,,,1,None,C,False,None,,,,,
n-back,,,,56,2,,,,0,None,V,True,None,,,,,
n-back,,,,57,2,,,,1,None,B,False,None,,,,,
n-back,,,,58,2,,,,1,0.818036500015296,V,True,1,,,,,
n-back,,,,59,2,,,,1,None,Z,False,None,,,,,
n-back,,,,60,2,,,,1,0.3828613330842927,V,True,1,,,,,
choice,fixation,153.73111158399843,154.234410709003,9,2,,,,,,,,,Sea,,,,
choice,option,154.2424747090554,155.2685940420488,9,2,,,,,,,,,Sea,,,,
choice,choice,155.26878962502815,162.87598487501964,9,2,,,2,0,6.597624249989167,,,,Sea,,,,
choice,fixation,162.87610487500206,163.88107962498907,10,2,,,,,,,,,Solid,,,,
choice,option,163.89076300000306,164.91711079201195,10,2,,,,,,,,,Solid,,,,
choice,choice,164.91728300007526,173.78713658405468,10,2,,,2,0,7.85979649994988,,,,Solid,,,,
choice,fixation,173.78725070902146,175.0430086250417,11,2,,,,,,,,,Object,,,,
choice,option,175.05236779199913,176.0793489170028,11,2,,,,,,,,,Object,,,,
choice,choice,176.0794739590492,179.04198504204396,11,2,,,1,1,1.9530777919571847,,,,Object,,,,
choice,fixation,179.04210029204842,180.54725158400834,12,2,,,,,,,,,Large,,,,
choice,option,180.55599379201885,181.5822418750031,12,2,,,,,,,,,Large,,,,
choice,choice,181.58234616706613,184.05078499997035,12,2,,,2,0,1.457680999999866,,,,Large,,,,
choice,fixation,184.0508989590453,185.05749341705814,13,2,,,,,,,,,Animal,,,,
choice,option,185.0668252920732,186.09412204206455,13,2,,,,,,,,,Animal,,,,
choice,choice,186.09421962499619,193.2185683749849,13,2,,,1,1,6.114788833074272,,,,Animal,,,,
choice,fixation,193.21868787507992,194.2244311249815,14,2,,,,,,,,,Land,,,,
choice,option,194.2329829169903,195.25939504196867,14,2,,,,,,,,,Land,,,,
choice,choice,195.25950479204766,199.97142950003035,14,2,,,2,0,3.7024967500474304,,,,Land,,,,
choice,fixation,199.97154437506106,201.2258365000598,15,2,,,,,,,,,Small,,,,
choice,option,201.23473987507168,202.26149337505922,15,2,,,,,,,,,Small,,,,
choice,choice,202.26160654204432,203.87813154200558,15,2,,,1,1,0.6068211669335142,,,,Small,,,,
choice,fixation,203.87824808398727,204.38374995905906,16,2,,,,,,,,,Pattern,,,,
choice,option,204.39278724999167,205.41938433400355,16,2,,,,,,,,,Pattern,,,,
choice,choice,205.41955950006377,213.79417991708033,16,2,,,2,1,7.364240666967817,,,,Pattern,,,,
memory,free_recall,235.40782270906493,258.73407829203643,6,2,,,,,,,,,,,,,
memory,value_recall,267.0441530420212,276.92663258407265,7,2,Object_Land_Solid_Large,,,,9.87828362500295,,,,,5,,,
memory,value_recall,278.7238366670208,282.92619904200546,8,2,Object_Sea_Pattern_Small,,,,4.198269792017527,,,,,-9,,,
memory,value_recall,284.2223868750734,288.67079000000376,9,2,Animal_Land_Pattern_Large,,,,4.444369791075587,,,,,-3,,,
memory,value_recall,289.71746225003153,293.7254354170291,10,2,Animal_Sea_Pattern_Small,,,,4.004698041011579,,,,,9,,,
memory,value_recall,295.2707925840514,301.02490974997636,11,2,Animal_Land_Solid_Large,,,,5.750029790913686,,,,,-1,,,
memory,value_recall,303.07223520905245,305.4705897090025,12,2,Object_Sea_Solid_Small,,,,2.3941802500048652,,,,,7,,,
memory,spatial_recall,312.17689066706225,319.80235208407976,12,2,Object_Land_Solid_Large,,,1,7.621426875004545,,,,,,"[0, -380]","[0, -380]",
memory,spatial_recall,321.3655054590199,324.93468137504533,12,2,Animal_Land_Solid_Large,,,1,3.5652134590782225,,,,,,"[329, 189]","[329, 189]",
memory,spatial_recall,326.74155354197137,329.987313834019,12,2,Object_Sea_Pattern_Small,,,1,3.2418123750248924,,,,,,"[0, 380]","[0, 380]",
memory,spatial_recall,332.0442962499801,333.6759981249925,12,2,Animal_Sea_Pattern_Small,,,1,1.6276794580044225,,,,,,"[-329, 190]","[-329, 190]",
memory,spatial_recall,334.9830702500185,339.6395246250322,12,2,Animal_Land_Pattern_Large,,,1,4.652216041926295,,,,,,"[-329, -190]","[-329, -190]",
memory,spatial_recall,340.69254449999426,349.1374704170739,12,2,Object_Sea_Solid_Small,,,1,8.44220633408986,,,,,,"[329, -190]","[329, -190]",
encoding,fixation,11.339550041011535,12.845488165970892,13,3,Animal_Sea_Solid_Large,1,,,,,,,,,,,
encoding,image,12.845685624983162,13.858725290978327,13,3,Animal_Sea_Solid_Large,1,,,,,,,,,,,
encoding,value,13.858830875018612,19.871727291028947,13,3,Animal_Sea_Solid_Large,1,,,,,,,,,,,
encoding,attention,19.87184525001794,22.88942954095546,13,3,Animal_Sea_Solid_Large,1,+1,1,1.0995846249861643,,,,,,,,
encoding,fixation,22.88957895792555,23.646466290927492,14,3,Animal_Land_Pattern_Large,9,,,,,,,,,,,
encoding,image,23.64656320796348,24.658430624986067,14,3,Animal_Land_Pattern_Large,9,,,,,,,,,,,
encoding,value,24.658610332990065,30.670120458002202,14,3,Animal_Land_Pattern_Large,9,,,,,,,,,,,
encoding,attention,30.670238040969707,33.68893299996853,14,3,Animal_Land_Pattern_Large,9,+9,1,0.6746500830631703,,,,,,,,
encoding,fixation,33.689081541029736,34.946547040948644,15,3,Object_Sea_Solid_Small,1,,,,,,,,,,,
encoding,image,34.946725958026946,35.957069415948354,15,3,Object_Sea_Solid_Small,1,,,,,,,,,,,
encoding,value,35.95718412497081,41.96786912495736,15,3,Object_Sea_Solid_Small,1,,,,,,,,,,,
encoding,attention,41.967984332935885,44.986337375012226,15,3,Object_Sea_Solid_Small,1,+9,0,2.2328998330049217,,,,,,,,
encoding,fixation,44.98647991602775,46.491964958026074,16,3,Animal_Sea_Solid_Small,-9,,,,,,,,,,,
encoding,image,46.49207416595891,47.50330058299005,16,3,Animal_Sea_Solid_Small,-9,,,,,,,,,,,
encoding,value,47.50341866596136,53.51432291592937,16,3,Animal_Sea_Solid_Small,-9,,,,,,,,,,,
encoding,attention,53.5144289159216,56.53164816601202,16,3,Animal_Sea_Solid_Small,-9,-9,1,0.7863753749988973,,,,,,,,
encoding,fixation,56.531796625000425,58.036769790924154,17,3,Object_Land_Pattern_Large,-9,,,,,,,,,,,
encoding,image,58.036877124919556,59.04901354096364,17,3,Object_Land_Pattern_Large,-9,,,,,,,,,,,
encoding,value,59.04912508302368,65.06292754097376,17,3,Object_Land_Pattern_Large,-9,,,,,,,,,,,
encoding,attention,65.06305137497839,68.07567987497896,17,3,Object_Land_Pattern_Large,-9,None,None,None,,,,,,,,
encoding,fixation,68.07584362500347,69.08086495799944,18,3,Object_Land_Pattern_Small,-8,,,,,,,,,,,
encoding,image,69.08095999993384,70.09247858298477,18,3,Object_Land_Pattern_Small,-8,,,,,,,,,,,
encoding,value,70.09257724997588,76.10493591602426,18,3,Object_Land_Pattern_Small,-8,,,,,,,,,,,
encoding,attention,76.10504729102831,79.12325833295472,18,3,Object_Land_Pattern_Small,-8,-8,1,0.7502216249704361,,,,,,,,
n-back,,,,61,3,,,,0,None,B,True,None,,,,,
n-back,,,,62,3,,,,1,None,Z,False,None,,,,,
n-back,,,,63,3,,,,1,1.2323950830614194,B,True,1,,,,,
n-back,,,,64,3,,,,1,None,B,False,None,,,,,
n-back,,,,65,3,,,,0,None,B,True,None,,,,,
n-back,,,,66,3,,,,1,None,N,False,None,,,,,
n-back,,,,67,3,,,,1,None,V,False,None,,,,,
n-back,,,,68,3,,,,1,None,V,False,None,,,,,
n-back,,,,69,3,,,,1,None,B,False,None,,,,,
n-back,,,,70,3,,,,1,None,X,False,None,,,,,
n-back,,,,71,3,,,,0,None,B,True,None,,,,,
n-back,,,,72,3,,,,1,None,Z,False,None,,,,,
n-back,,,,73,3,,,,1,None,Z,False,None,,,,,
n-back,,,,74,3,,,,1,None,N,False,None,,,,,
n-back,,,,75,3,,,,1,None,N,False,None,,,,,
n-back,,,,76,3,,,,1,None,B,False,None,,,,,
n-back,,,,77,3,,,,0,None,N,True,None,,,,,
n-back,,,,78,3,,,,1,None,N,False,None,,,,,
n-back,,,,79,3,,,,1,None,C,False,None,,,,,
n-back,,,,80,3,,,,0,0.26740070804953575,Z,False,1,,,,,
n-back,,,,81,3,,,,0,None,C,True,None,,,,,
n-back,,,,82,3,,,,0,None,Z,True,None,,,,,
n-back,,,,83,3,,,,1,None,N,False,None,,,,,
n-back,,,,84,3,,,,1,None,B,False,None,,,,,
n-back,,,,85,3,,,,0,None,N,True,None,,,,,
n-back,,,,86,3,,,,1,None,V,False,None,,,,,
n-back,,,,87,3,,,,0,None,N,True,None,,,,,
n-back,,,,88,3,,,,1,None,C,False,None,,,,,
n-back,,,,89,3,,,,0,None,N,True,None,,,,,
n-back,,,,90,3,,,,1,None,X,False,None,,,,,
choice,fixation,162.33219149999786,163.33552237495314,17,3,,,,,,,,,Small,,,,
choice,option,163.34438162494916,164.3734504999593,17,3,,,,,,,,,Small,,,,
choice,choice,164.37355245801155,170.16983974992763,17,3,,,2,1,4.785282915923744,,,,Small,,,,
choice,fixation,170.16996704100166,171.1749343329575,18,3,,,,,,,,,Sea,,,,
choice,option,171.18331566592678,172.2098550000228,18,3,,,,,,,,,Sea,,,,
choice,choice,172.2099573329324,174.83664312493056,18,3,,,2,1,1.6167775000212714,,,,Sea,,,,
choice,fixation,174.83675749995746,175.59183349995874,19,3,,,,,,,,,Solid,,,,
choice,option,175.60093866602983,176.6275394159602,19,3,,,,,,,,,Solid,,,,
choice,choice,176.62763383297715,184.1168254999211,19,3,,,2,1,6.479659083997831,,,,Solid,,,,
choice,fixation,184.11693970800843,185.62173258292023,20,3,,,,,,,,,Animal,,,,
choice,option,185.63097004103474,186.65808870794717,20,3,,,,,,,,,Animal,,,,
choice,choice,186.65819570794702,189.05644995800685,20,3,,,1,1,1.388225584058091,,,,Animal,,,,
choice,fixation,189.0566457499517,190.06421095796395,21,3,,,,,,,,,Pattern,,,,
choice,option,190.07316687493585,191.0996686660219,21,3,,,,,,,,,Pattern,,,,
choice,choice,191.09977591596544,202.485501499963,21,3,,,1,0,10.375034458003938,,,,Pattern,,,,
choice,fixation,202.48562637495343,203.24062862503342,22,3,,,,,,,,,Object,,,,
choice,option,203.25009462493472,204.27730608300772,22,3,,,,,,,,,Object,,,,
choice,choice,204.2774395829765,220.05708891595714,22,3,,,2,1,14.769500542082824,,,,Object,,,,
choice,fixation,220.0572099579731,220.56317924999166,23,3,,,,,,,,,Land,,,,
choice,option,220.5717355000088,221.5984768329654,23,3,,,,,,,,,Land,,,,
choice,choice,221.5985917079961,223.64243416592944,23,3,,,2,1,1.033396500046365,,,,Land,,,,
choice,fixation,223.6425525000086,225.14761470793746,24,3,,,,,,,,,Large,,,,
choice,option,225.15620537498035,226.18254754098598,24,3,,,,,,,,,Large,,,,
choice,choice,226.18265004095156,231.89011387492064,24,3,,,1,1,4.697648083092645,,,,Large,,,,
memory,free_recall,250.78720391599927,263.8368029160192,12,3,,,,,,,,,,,,,
memory,value_recall,268.7857256659772,274.5569304579403,13,3,Object_Land_Pattern_Large,,,,5.767477666027844,,,,,-9,,,
memory,value_recall,276.604277416016,280.19490704103373,14,3,Animal_Land_Pattern_Large,,,,3.586529624997638,,,,,9,,,
memory,value_recall,281.4908046249766,287.0369562909473,15,3,Object_Sea_Solid_Small,,,,5.542200666968711,,,,,1,,,
memory,value_recall,288.5836006249301,294.8848805000307,16,3,Animal_Sea_Solid_Small,,,,6.297247000038624,,,,,-9,,,
memory,value_recall,296.9316766249249,303.00311583292205,17,3,Object_Land_Pattern_Small,,,,6.067229124950245,,,,,-8,,,
memory,value_recall,305.0491691250354,310.0683221659856,18,3,Animal_Sea_Solid_Large,,,,5.014931209036149,,,,,1,,,
memory,spatial_recall,314.6735374160344,326.4976314579835,18,3,Object_Sea_Solid_Small,,,1,11.820964333950542,,,,,,"[329, -190]","[329, -190]",
memory,spatial_recall,327.5637892499799,333.02803962503094,18,3,Animal_Sea_Solid_Large,,,1,5.461811542045325,,,,,,"[-329, 190]","[-329, 190]",
memory,spatial_recall,334.5835314160213,337.917515499983,18,3,Object_Land_Pattern_Small,,,1,3.3299424579599872,,,,,,"[329, 189]","[329, 189]",
memory,spatial_recall,339.2278600829886,341.430848415941,18,3,Animal_Land_Pattern_Large,,,1,2.1989516250323504,,,,,,"[-329, -190]","[-329, -190]",
memory,spatial_recall,342.99192962492816,344.89450841594953,18,3,Object_Land_Pattern_Large,,,1,1.8985966669861227,,,,,,"[0, 380]","[0, 380]",
memory,spatial_recall,345.9500934999669,347.5413641249761,18,3,Animal_Sea_Solid_Small,,,1,1.5888662920333445,,,,,,"[0, -380]","[0, -380]",
encoding,fixation,3.5714880420127884,4.826524334028363,19,4,Object_Land_Pattern_Small,9,,,,,,,,,,,
encoding,image,4.8266255420167,5.8383743750164285,19,4,Object_Land_Pattern_Small,9,,,,,,,,,,,
encoding,value,5.838535959017463,11.856240874971263,19,4,Object_Land_Pattern_Small,9,,,,,,,,,,,
encoding,attention,11.856349666952156,14.874328374979086,19,4,Object_Land_Pattern_Small,9,+9,1,1.1023130840621889,,,,,,,,
encoding,fixation,14.874486292013898,15.87973195896484,20,4,Animal_Land_Pattern_Small,-6,,,,,,,,,,,
encoding,image,15.879847791977227,16.891111459000967,20,4,Animal_Land_Pattern_Small,-6,,,,,,,,,,,
encoding,value,16.891217374941334,22.904765667044558,20,4,Animal_Land_Pattern_Small,-6,,,,,,,,,,,
encoding,attention,22.904869041987695,25.922319291974418,20,4,Animal_Land_Pattern_Small,-6,-6,1,0.918583249906078,,,,,,,,
encoding,fixation,25.92246520903427,26.427707583992742,21,4,Object_Sea_Solid_Large,-7,,,,,,,,,,,
encoding,image,26.42781462497078,27.439149625017308,21,4,Object_Sea_Solid_Large,-7,,,,,,,,,,,
encoding,value,27.439271416980773,33.45161437499337,21,4,Object_Sea_Solid_Large,-7,,,,,,,,,,,
encoding,attention,33.45175124995876,36.471038041985594,21,4,Object_Sea_Solid_Large,-7,-7,1,2.883863625000231,,,,,,,,
encoding,fixation,36.471164916991256,36.97573520895094,22,4,Object_Sea_Pattern_Large,-1,,,,,,,,,,,
encoding,image,36.97583741694689,37.98556437494699,22,4,Object_Sea_Pattern_Large,-1,,,,,,,,,,,
encoding,value,37.98566508397926,43.997466334025376,22,4,Object_Sea_Pattern_Large,-1,,,,,,,,,,,
encoding,attention,43.99757620901801,47.01470437494572,22,4,Object_Sea_Pattern_Large,-1,-1,1,2.1136632909765467,,,,,,,,
encoding,fixation,47.01485583395697,48.51995095901657,23,4,Animal_Land_Solid_Small,-8,,,,,,,,,,,
encoding,image,48.52008708403446,49.53098224999849,23,4,Animal_Land_Solid_Small,-8,,,,,,,,,,,
encoding,value,49.53109399997629,55.542436209041625,23,4,Animal_Land_Solid_Small,-8,,,,,,,,,,,
encoding,attention,55.54254287504591,58.56288899993524,23,4,Animal_Land_Solid_Small,-8,-8,1,0.7919176659779623,,,,,,,,
encoding,fixation,58.563033833983354,59.318188291974366,24,4,Animal_Sea_Solid_Large,9,,,,,,,,,,,
encoding,image,59.31830483395606,60.329552292008884,24,4,Animal_Sea_Solid_Large,9,,,,,,,,,,,
encoding,value,60.329662833944894,66.34079329203814,24,4,Animal_Sea_Solid_Large,9,,,,,,,,,,,
encoding,attention,66.3409112499794,69.36017316696234,24,4,Animal_Sea_Solid_Large,9,+9,1,0.9126642500050366,,,,,,,,
n-back,,,,91,4,,,,0,None,V,True,None,,,,,
n-back,,,,92,4,,,,1,None,Z,False,None,,,,,
n-back,,,,93,4,,,,1,1.2712512080324814,V,True,1,,,,,
n-back,,,,94,4,,,,1,None,C,False,None,,,,,
n-back,,,,95,4,,,,1,None,C,False,None,,,,,
n-back,,,,96,4,,,,1,None,Z,False,None,,,,,
n-back,,,,97,4,,,,1,None,N,False,None,,,,,
n-back,,,,98,4,,,,1,0.8931969159748405,Z,True,1,,,,,
n-back,,,,99,4,,,,1,None,X,False,None,,,,,
n-back,,,,100,4,,,,0,None,Z,True,None,,,,,
n-back,,,,101,4,,,,0,0.10638424998614937,V,False,1,,,,,
n-back,,,,102,4,,,,1,None,C,False,None,,,,,
n-back,,,,103,4,,,,1,None,Z,False,None,,,,,
n-back,,,,104,4,,,,1,None,N,False,None,,,,,
n-back,,,,105,4,,,,0,1.2319104579510167,V,False,1,,,,,
n-back,,,,106,4,,,,1,None,X,False,None,,,,,
n-back,,,,107,4,,,,1,None,B,False,None,,,,,
n-back,,,,108,4,,,,1,0.684508791891858,X,True,1,,,,,
n-back,,,,109,4,,,,0,None,B,True,None,,,,,
n-back,,,,110,4,,,,1,None,N,False,None,,,,,
n-back,,,,111,4,,,,1,0.6836624590214342,B,True,1,,,,,
n-back,,,,112,4,,,,1,None,V,False,None,,,,,
n-back,,,,113,4,,,,1,None,V,False,None,,,,,
n-back,,,,114,4,,,,1,0.44276033306960016,V,True,1,,,,,
n-back,,,,115,4,,,,1,None,X,False,None,,,,,
n-back,,,,116,4,,,,1,None,C,False,None,,,,,
n-back,,,,117,4,,,,1,None,Z,False,None,,,,,
n-back,,,,118,4,,,,1,0.8505529999965802,C,True,1,,,,,
n-back,,,,119,4,,,,1,None,N,False,None,,,,,
n-back,,,,120,4,,,,0,None,C,True,None,,,,,
choice,fixation,144.647625374957,145.6542233750224,25,4,,,,,,,,,Small,,,,
choice,option,145.66266891697887,146.69095516693778,25,4,,,,,,,,,Small,,,,
choice,choice,146.69106737500988,159.2840350420447,25,4,,,2,1,11.579669083934277,,,,Small,,,,
choice,fixation,159.28415616694838,160.28913154196925,26,4,,,,,,,,,Animal,,,,
choice,option,160.29884295898955,161.32618133397773,26,4,,,,,,,,,Animal,,,,
choice,choice,161.32628387503792,163.52895591699053,26,4,,,1,0,1.1928892920259386,,,,Animal,,,,
choice,fixation,163.52906358393375,164.03402462496888,27,4,,,,,,,,,Large,,,,
choice,option,164.04252920893487,165.0699368340429,27,4,,,,,,,,,Large,,,,
choice,choice,165.07005666696932,170.4285345840035,27,4,,,1,1,4.348825666937046,,,,Large,,,,
choice,fixation,170.42866583401337,171.6837240839377,28,4,,,,,,,,,Pattern,,,,
choice,option,171.69418433401734,172.72353091696277,28,4,,,,,,,,,Pattern,,,,
choice,choice,172.7236524169566,179.38650504196994,28,4,,,1,1,5.651283791987225,,,,Pattern,,,,
choice,fixation,179.38670875004027,180.1423981669359,29,4,,,,,,,,,Object,,,,
choice,option,180.15273633401375,181.17957929195836,29,4,,,,,,,,,Object,,,,
choice,choice,181.17967720900197,189.94378679199144,29,4,,,2,0,7.7543689999729395,,,,Object,,,,
choice,fixation,189.94390974997077,191.4488215839956,30,4,,,,,,,,,Land,,,,
choice,option,191.45768720901106,192.48455599998124,30,4,,,,,,,,,Land,,,,
choice,choice,192.48465774999931,202.94511462503579,30,4,,,2,1,9.45024233404547,,,,Land,,,,
choice,fixation,202.94522391702048,203.7003585420316,31,4,,,,,,,,,Solid,,,,
choice,option,203.7100027500419,204.73746120894793,31,4,,,,,,,,,Solid,,,,
choice,choice,204.73763654194772,208.473656999995,31,4,,,1,0,2.726367582916282,,,,Solid,,,,
choice,fixation,208.47378645895515,209.478696458973,32,4,,,,,,,,,Sea,,,,
choice,option,209.48684191703796,210.51488379202783,32,4,,,,,,,,,Sea,,,,
choice,choice,210.51501162501518,211.86535962496419,32,4,,,1,1,0.3405817080056295,,,,Sea,,,,
memory,free_recall,222.1627995839808,237.45333237503655,18,4,,,,,,,,,,,,,
memory,value_recall,242.83238970895763,246.78000191703904,19,4,Object_Land_Pattern_Small,,,,3.9442397920647636,,,,,9,,,
memory,value_recall,248.0770455839811,255.85295870900154,20,4,Object_Sea_Pattern_Large,,,,7.771508750040084,,,,,-1,,,
memory,value_recall,257.8994625839405,261.10695958393626,21,4,Animal_Sea_Solid_Large,,,,3.203361332998611,,,,,9,,,
memory,value_recall,262.90501474996563,265.827977500041,22,4,Object_Sea_Solid_Large,,,,2.9188173749716952,,,,,-7,,,
memory,value_recall,267.3746614169795,270.1079028749373,23,4,Animal_Land_Pattern_Small,,,,2.7288486250909045,,,,,-6,,,
memory,value_recall,271.40499320894014,277.4587310840143,24,4,Animal_Land_Solid_Small,,,,6.049619666999206,,,,,-8,,,
memory,spatial_recall,282.3838635419961,291.41900945897214,24,4,Animal_Land_Pattern_Small,,,1,9.031110833049752,,,,,,"[0, 380]","[0, 380]",
memory,spatial_recall,292.72915499994997,297.11589545896277,24,4,Object_Sea_Solid_Large,,,1,4.382608041050844,,,,,,"[-329, -190]","[-329, -190]",
memory,spatial_recall,298.6731606669491,302.1658526250394,24,4,Animal_Land_Solid_Small,,,1,3.4887520420597866,,,,,,"[329, -190]","[329, -190]",
memory,spatial_recall,303.470200959011,307.7069509589346,24,4,Object_Sea_Pattern_Large,,,1,4.232737416983582,,,,,,"[0, -380]","[0, -380]",
memory,spatial_recall,309.26506208395585,311.2074394590454,24,4,Animal_Sea_Solid_Large,,,1,1.9383517500245944,,,,,,"[-329, 190]","[-329, 190]",
memory,spatial_recall,313.0141729169991,318.3654028750025,24,4,Object_Land_Pattern_Small,,,1,5.345068666036241,,,,,,"[329, 189]","[329, 189]",
encoding,fixation,3.7553421669872478,4.2605811670655385,25,5,Animal_Sea_Pattern_Small,5,,,,,,,,,,,
encoding,image,4.260678917053156,5.273001292021945,25,5,Animal_Sea_Pattern_Small,5,,,,,,,,,,,
encoding,value,5.273101375089027,11.286224625073373,25,5,Animal_Sea_Pattern_Small,5,,,,,,,,,,,
encoding,attention,11.286359542049468,14.30483804200776,25,5,Animal_Sea_Pattern_Small,5,+5,1,0.8074562919791788,,,,,,,,
encoding,fixation,14.304974667029455,15.30937391705811,26,5,Animal_Sea_Pattern_Large,2,,,,,,,,,,,
encoding,image,15.309476625057869,16.3194684170885,26,5,Animal_Sea_Pattern_Large,2,,,,,,,,,,,
encoding,value,16.31958225008566,22.33119841699954,26,5,Animal_Sea_Pattern_Large,2,,,,,,,,,,,
encoding,attention,22.33130987500772,25.34796579205431,26,5,Animal_Sea_Pattern_Large,2,+2,1,0.7637654159916565,,,,,,,,
encoding,fixation,25.34812049998436,26.35358025005553,27,5,Object_Sea_Solid_Large,-6,,,,,,,,,,,
encoding,image,26.353706374997273,27.36517366708722,27,5,Object_Sea_Solid_Large,-6,,,,,,,,,,,
encoding,value,27.365299125085585,33.37697520805523,27,5,Object_Sea_Solid_Large,-6,,,,,,,,,,,
encoding,attention,33.37714637501631,36.394468166981824,27,5,Object_Sea_Solid_Large,-6,-6,1,0.7138872500509024,,,,,,,,
encoding,fixation,36.394614458084106,37.39992858306505,28,5,Object_Land_Solid_Small,3,,,,,,,,,,,
encoding,image,37.400115708005615,38.41135670803487,28,5,Object_Land_Solid_Small,3,,,,,,,,,,,
encoding,value,38.41145562508609,44.4235940000508,28,5,Object_Land_Solid_Small,3,,,,,,,,,,,
encoding,attention,44.42370124999434,47.44023295806255,28,5,Object_Land_Solid_Small,3,+3,1,0.6392772910185158,,,,,,,,
encoding,fixation,47.44044933305122,47.94613125000615,29,5,Animal_Land_Pattern_Small,-5,,,,,,,,,,,
encoding,image,47.946234208066016,48.956983375013806,29,5,Animal_Land_Pattern_Small,-5,,,,,,,,,,,
encoding,value,48.95708270801697,54.96814550005365,29,5,Animal_Land_Pattern_Small,-5,,,,,,,,,,,
encoding,attention,54.968258292065,57.985524917021394,29,5,Animal_Land_Pattern_Small,-5,-5,1,0.5748523339862004,,,,,,,,
encoding,fixation,57.98565683304332,58.991023167036474,30,5,Object_Land_Solid_Large,1,,,,,,,,,,,
encoding,image,58.99115041701589,60.0038342080079,30,5,Object_Land_Solid_Large,1,,,,,,,,,,,
encoding,value,60.003949625068344,66.01521824998781,30,5,Object_Land_Solid_Large,1,,,,,,,,,,,
encoding,attention,66.01533675007522,69.0310850830283,30,5,Object_Land_Solid_Large,1,+1,1,1.1792372920317575,,,,,,,,
n-back,,,,121,5,,,,0,None,B,True,None,,,,,
n-back,,,,122,5,,,,1,None,X,False,None,,,,,
n-back,,,,123,5,,,,1,None,Z,False,None,,,,,
n-back,,,,124,5,,,,1,None,Z,False,None,,,,,
n-back,,,,125,5,,,,1,0.6481194579973817,Z,True,1,,,,,
n-back,,,,126,5,,,,0,None,Z,True,None,,,,,
n-back,,,,127,5,,,,1,None,V,False,None,,,,,
n-back,,,,128,5,,,,1,None,N,False,None,,,,,
n-back,,,,129,5,,,,1,None,X,False,None,,,,,
n-back,,,,130,5,,,,1,0.74271512508858,N,True,1,,,,,
n-back,,,,131,5,,,,0,None,X,True,None,,,,,
n-back,,,,132,5,,,,0,0.23540629202034324,B,False,1,,,,,
n-back,,,,133,5,,,,1,None,B,False,None,,,,,
n-back,,,,134,5,,,,1,None,V,False,None,,,,,
n-back,,,,135,5,,,,1,None,C,False,None,,,,,
n-back,,,,136,5,,,,1,0.7492901249788702,V,True,1,,,,,
n-back,,,,137,5,,,,1,None,Z,False,None,,,,,
n-back,,,,138,5,,,,1,None,C,False,None,,,,,
n-back,,,,139,5,,,,1,None,V,False,None,,,,,
n-back,,,,140,5,,,,1,0.5068288330221549,C,True,1,,,,,
n-back,,,,141,5,,,,1,None,X,False,None,,,,,
n-back,,,,142,5,,,,1,0.7151320410193875,C,True,1,,,,,
n-back,,,,143,5,,,,0,None,X,True,None,,,,,
n-back,,,,144,5,,,,1,None,B,False,None,,,,,
n-back,,,,145,5,,,,1,None,N,False,None,,,,,
n-back,,,,146,5,,,,1,None,N,False,None,,,,,
n-back,,,,147,5,,,,1,None,C,False,None,,,,,
n-back,,,,148,5,,,,1,0.7638771669007838,N,True,1,,,,,
n-back,,,,149,5,,,,1,None,V,False,None,,,,,
n-back,,,,150,5,,,,1,None,C,False,None,,,,,
choice,fixation,135.69525454204995,136.70050483301748,33,5,,,,,,,,,Large,,,,
choice,option,136.70898370805662,137.7355070420308,33,5,,,,,,,,,Large,,,,
choice,choice,137.73560916702263,145.61045366700273,33,5,,,2,1,6.865040999953635,,,,Large,,,,
choice,fixation,145.61056820803788,146.86581920809112,34,5,,,,,,,,,Sea,,,,
choice,option,146.87455250008497,147.90454300004058,34,5,,,,,,,,,Sea,,,,
choice,choice,147.90468687505927,152.44691354199313,34,5,,,1,1,3.531796459108591,,,,Sea,,,,
choice,fixation,152.44707891705912,153.7048622079892,35,5,,,,,,,,,Pattern,,,,
choice,option,153.71377579204272,154.74085841700435,35,5,,,,,,,,,Pattern,,,,
choice,choice,154.74100541707594,157.11207475000992,35,5,,,1,1,1.361399665940553,,,,Pattern,,,,
choice,fixation,157.11219904199243,158.61731691705063,36,5,,,,,,,,,Small,,,,
choice,option,158.62622016703244,159.6532948750537,36,5,,,,,,,,,Small,,,,
choice,choice,159.65339620807208,162.16919308307115,36,5,,,2,0,1.5053846660302952,,,,Small,,,,
choice,fixation,162.16931783303153,163.17458087508567,37,5,,,,,,,,,Land,,,,
choice,option,163.1829927500803,164.20990087499376,37,5,,,,,,,,,Land,,,,
choice,choice,164.20999958307948,168.7105176670011,37,5,,,2,1,3.49068620800972,,,,Land,,,,
choice,fixation,168.71064120798837,169.96576370799448,38,5,,,,,,,,,Solid,,,,
choice,option,169.9751322499942,171.00436424999498,38,5,,,,,,,,,Solid,,,,
choice,choice,171.00446800002828,175.3362047080882,38,5,,,2,1,3.321417084080167,,,,Solid,,,,
choice,fixation,175.33632812509313,175.8413837919943,39,5,,,,,,,,,Object,,,,
choice,option,175.8502739580581,176.87650587502867,39,5,,,,,,,,,Object,,,,
choice,choice,176.8766125830589,185.7278532499913,39,5,,,2,1,7.841273959027603,,,,Object,,,,
choice,fixation,185.72798816708382,186.73469095805194,40,5,,,,,,,,,Animal,,,,
choice,option,186.74433704209514,187.77290900005028,40,5,,,,,,,,,Animal,,,,
choice,choice,187.7730273330817,189.71219375007786,40,5,,,2,0,0.9296420000027865,,,,Animal,,,,
memory,free_recall,204.9229501670925,214.94509379204828,24,5,,,,,,,,,,,,,
memory,value_recall,219.615426375065,224.67456412501633,25,5,Object_Sea_Solid_Large,,,,5.055726708029397,,,,,-6,,,
memory,value_recall,226.72107562504243,231.0334115830483,26,5,Animal_Land_Pattern_Small,,,,4.308294833055697,,,,,-5,,,
memory,value_recall,232.0797071250854,236.55304400005843,27,5,Object_Land_Solid_Large,,,,4.4694492920534685,,,,,1,,,
memory,value_recall,237.84932333300821,239.97113225003704,28,5,Animal_Sea_Pattern_Small,,,,2.117817292106338,,,,,5,,,
memory,value_recall,241.766558000003,249.26925179199316,29,5,Object_Land_Solid_Small,,,,7.497843082994223,,,,,3,,,
memory,value_recall,251.31612612504978,257.26722875004634,30,5,Animal_Sea_Pattern_Large,,,,5.947066165972501,,,,,2,,,
memory,spatial_recall,261.6714391250862,267.1860927500529,30,5,Animal_Sea_Pattern_Small,,,1,5.511440749978647,,,,,,"[-329, 190]","[-329, 190]",
memory,spatial_recall,268.7424702499993,275.3222905000439,30,5,Animal_Sea_Pattern_Large,,,1,6.575639792019501,,,,,,"[329, 189]","[329, 189]",
memory,spatial_recall,277.13162491703406,279.60546879202593,30,5,Object_Sea_Solid_Large,,,1,2.4699388339649886,,,,,,"[-329, -190]","[-329, -190]",
memory,spatial_recall,281.410952208098,283.9075414170511,30,5,Animal_Land_Pattern_Small,,,1,2.492294167052023,,,,,,"[0, 380]","[0, 380]",
memory,spatial_recall,284.96997916698456,286.13477570808027,30,5,Object_Land_Solid_Small,,,1,1.1606903329957277,,,,,,"[329, -190]","[329, -190]",
memory,spatial_recall,287.1869967500679,289.1543607499916,30,5,Object_Land_Solid_Large,,,1,1.9634510420728475,,,,,,"[0, -380]","[0, -380]",
encoding,fixation,4.527014042017981,5.03220004204195,31,6,Animal_Land_Pattern_Large,-8,,,,,,,,,,,
encoding,image,5.032312958966941,6.044223417062312,31,6,Animal_Land_Pattern_Large,-8,,,,,,,,,,,
encoding,value,6.044336584047414,12.057611166965216,31,6,Animal_Land_Pattern_Large,-8,,,,,,,,,,,
encoding,attention,12.057777791982517,15.075899083982222,31,6,Animal_Land_Pattern_Large,-8,-8,1,1.0370026250602677,,,,,,,,
encoding,fixation,15.076040792046115,15.581658625043929,32,6,Object_Land_Pattern_Large,4,,,,,,,,,,,
encoding,image,15.581759416963905,16.593806416960433,32,6,Object_Land_Pattern_Large,4,,,,,,,,,,,
encoding,value,16.593910000054166,22.606974167050794,32,6,Object_Land_Pattern_Large,4,,,,,,,,,,,
encoding,attention,22.607082167058252,25.62557866703719,32,6,Object_Land_Pattern_Large,4,+4,1,0.5434257499873638,,,,,,,,
encoding,fixation,25.6257295840187,26.381115500000305,33,6,Animal_Sea_Solid_Large,3,,,,,,,,,,,
encoding,image,26.38122870901134,27.39327795896679,33,6,Animal_Sea_Solid_Large,3,,,,,,,,,,,
encoding,value,27.393389916978776,33.40499187505338,33,6,Animal_Sea_Solid_Large,3,,,,,,,,,,,
encoding,attention,33.40509545896202,36.4232699170243,33,6,Animal_Sea_Solid_Large,3,+3,1,0.4821655839914456,,,,,,,,
encoding,fixation,36.423408666974865,37.17951741698198,34,6,Animal_Sea_Solid_Small,4,,,,,,,,,,,
encoding,image,37.17961483402178,38.19088675000239,34,6,Animal_Sea_Solid_Small,4,,,,,,,,,,,
encoding,value,38.19102212495636,44.202423249953426,34,6,Animal_Sea_Solid_Small,4,,,,,,,,,,,
encoding,attention,44.20252808404621,47.21949158399366,34,6,Animal_Sea_Solid_Small,4,+4,1,1.0125000000698492,,,,,,,,
encoding,fixation,47.21963133395184,48.22731324995402,35,6,Object_Land_Pattern_Small,3,,,,,,,,,,,
encoding,image,48.227428833954036,49.238599208998494,35,6,Object_Land_Pattern_Small,3,,,,,,,,,,,
encoding,value,49.23870183399413,55.250599708990194,35,6,Object_Land_Pattern_Small,3,,,,,,,,,,,
encoding,attention,55.25070683402009,58.26937670900952,35,6,Object_Land_Pattern_Small,3,+3,1,1.9885667921043932,,,,,,,,
encoding,fixation,58.269519875058904,59.77557787497062,36,6,Object_Sea_Solid_Small,-6,,,,,,,,,,,
encoding,image,59.77572066697758,60.78572141705081,36,6,Object_Sea_Solid_Small,-6,,,,,,,,,,,
encoding,value,60.785843209014274,66.79695908399299,36,6,Object_Sea_Solid_Small,-6,,,,,,,,,,,
encoding,attention,66.79706970904954,69.813064667047,36,6,Object_Sea_Solid_Small,-6,-6,1,0.4272759170271456,,,,,,,,
n-back,,,,151,6,,,,1,None,V,False,None,,,,,
n-back,,,,152,6,,,,1,None,C,False,None,,,,,
n-back,,,,153,6,,,,1,None,N,False,None,,,,,
n-back,,,,154,6,,,,1,None,X,False,None,,,,,
n-back,,,,155,6,,,,1,0.814098707982339,N,True,1,,,,,
n-back,,,,156,6,,,,0,None,X,True,None,,,,,
n-back,,,,157,6,,,,0,0.04080408299341798,B,False,1,,,,,
n-back,,,,158,6,,,,1,None,V,False,None,,,,,
n-back,,,,159,6,,,,1,None,X,False,None,,,,,
n-back,,,,160,6,,,,1,None,B,False,None,,,,,
n-back,,,,161,6,,,,1,0.5137041669804603,X,True,1,,,,,
n-back,,,,162,6,,,,1,None,N,False,None,,,,,
n-back,,,,163,6,,,,0,None,X,True,None,,,,,
n-back,,,,164,6,,,,0,None,N,True,None,,,,,
n-back,,,,165,6,,,,1,None,V,False,None,,,,,
n-back,,,,166,6,,,,1,0.6375964579638094,N,True,1,,,,,
n-back,,,,167,6,,,,0,None,V,True,None,,,,,
n-back,,,,168,6,,,,0,0.3437239589402452,B,False,1,,,,,
n-back,,,,169,6,,,,1,None,B,False,None,,,,,
n-back,,,,170,6,,,,1,None,N,False,None,,,,,
n-back,,,,171,6,,,,1,None,C,False,None,,,,,
n-back,,,,172,6,,,,1,None,V,False,None,,,,,
n-back,,,,173,6,,,,1,1.073741832980886,C,True,1,,,,,
n-back,,,,174,6,,,,0,None,V,True,None,,,,,
n-back,,,,175,6,,,,0,0.9560539170634001,X,False,1,,,,,
n-back,,,,176,6,,,,1,None,B,False,None,,,,,
n-back,,,,177,6,,,,1,None,Z,False,None,,,,,
n-back,,,,178,6,,,,1,0.6323882089927793,B,True,1,,,,,
n-back,,,,179,6,,,,1,None,N,False,None,,,,,
n-back,,,,180,6,,,,1,None,C,False,None,,,,,
choice,fixation,141.86394454201218,143.11723641701974,41,6,,,,,,,,,Object,,,,
choice,option,143.12630583404098,144.15477216697764,41,6,,,,,,,,,Object,,,,
choice,choice,144.15488024998922,147.74968691705726,41,6,,,2,0,2.5852706249570474,,,,Object,,,,
choice,fixation,147.74981295899488,148.50484575005248,42,6,,,,,,,,,Land,,,,
choice,option,148.51399412495084,149.54091900005005,42,6,,,,,,,,,Land,,,,
choice,choice,149.54103891702835,157.722883792012,42,6,,,2,1,7.171700541977771,,,,Land,,,,
choice,fixation,157.72301691700704,158.4780108339619,43,6,,,,,,,,,Small,,,,
choice,option,158.48733499995433,159.51528441696428,43,6,,,,,,,,,Small,,,,
choice,choice,159.5154072920559,161.51214050001,43,6,,,2,0,0.9872647919692099,,,,Small,,,,
choice,fixation,161.51226033398416,162.2671761669917,44,6,,,,,,,,,Solid,,,,
choice,option,162.2765168340411,163.30329866695683,44,6,,,,,,,,,Solid,,,,
choice,choice,163.30340866697952,173.21148391696624,44,6,,,2,0,8.898051833035424,,,,Solid,,,,
choice,fixation,173.2116073339712,174.21684683405329,45,6,,,,,,,,,Sea,,,,
choice,option,174.22519616701175,175.25292741705198,45,6,,,,,,,,,Sea,,,,
choice,choice,175.25304104201496,177.30492283403873,45,6,,,2,0,1.0425212080590427,,,,Sea,,,,
choice,fixation,177.30503175000194,178.81013604195323,46,6,,,,,,,,,Large,,,,
choice,option,178.81885958404746,179.8450155419996,46,6,,,,,,,,,Large,,,,
choice,choice,179.84511254203971,185.93800091696903,46,6,,,1,0,5.082920374930836,,,,Large,,,,
choice,fixation,185.93811587500386,186.94409437500872,47,6,,,,,,,,,Pattern,,,,
choice,option,186.9533692089608,187.9800641250331,47,6,,,,,,,,,Pattern,,,,
choice,choice,187.98016629205085,196.22629583405796,47,6,,,1,0,7.235050208051689,,,,Pattern,,,,
choice,fixation,196.22642933402676,197.7317398750456,48,6,,,,,,,,,Animal,,,,
choice,option,197.74166362499818,198.76898016699124,48,6,,,,,,,,,Animal,,,,
choice,choice,198.76909199997317,203.26518266706262,48,6,,,2,1,3.483419041032903,,,,Animal,,,,
memory,free_recall,219.05169062502682,224.12725699995644,30,6,,,,,,,,,,,,,
memory,value_recall,229.50469791702926,233.40765141695738,31,6,Animal_Sea_Solid_Small,,,,3.8988933749496937,,,,,4,,,
memory,value_recall,235.2033053750638,237.05236633401364,32,6,Object_Land_Pattern_Small,,,,1.8446404170244932,,,,,3,,,
memory,value_recall,238.34949520905502,241.16493254201487,33,6,Object_Sea_Solid_Small,,,,2.8113801250001416,,,,,-6,,,
memory,value_recall,242.9607251669513,245.29292875004467,34,6,Object_Land_Pattern_Large,,,,2.328137916047126,,,,,4,,,
memory,value_recall,246.33886558399536,251.5633108339971,35,6,Animal_Land_Pattern_Large,,,,5.221087791956961,,,,,-8,,,
memory,value_recall,253.35900941700675,259.89327058405615,36,6,Animal_Sea_Solid_Large,,,,6.530340374913067,,,,,3,,,
memory,spatial_recall,264.2201352090342,269.30322533403523,36,6,Animal_Sea_Solid_Large,,,1,5.078060833038762,,,,,,"[-329, 190]","[-329, 190]",
memory,spatial_recall,271.3646631250158,272.7283430839889,36,6,Object_Land_Pattern_Small,,,1,1.3595222079893574,,,,,,"[329, 189]","[329, 189]",
memory,spatial_recall,274.29339258396067,276.12861179199535,36,6,Object_Land_Pattern_Large,,,1,1.831154334009625,,,,,,"[0, 380]","[0, 380]",
memory,spatial_recall,277.683858250035,279.82782908400986,36,6,Animal_Sea_Solid_Small,,,1,2.1399527500616387,,,,,,"[0, -380]","[0, -380]",
memory,spatial_recall,281.1397776249796,282.8937950420659,36,6,Animal_Land_Pattern_Large,,,1,1.749881667084992,,,,,,"[-329, -190]","[-329, -190]",
memory,spatial_recall,284.4469364170218,285.32717070903163,36,6,Object_Sea_Solid_Small,,,1,0.8763226250885054,,,,,,"[329, -190]","[329, -190]",
encoding,fixation,8.114923417102545,8.620133417076431,37,7,Object_Sea_Solid_Large,-1,,,,,,,,,,,
encoding,image,8.620229250052944,9.632385625038296,37,7,Object_Sea_Solid_Large,-1,,,,,,,,,,,
encoding,value,9.632499500061385,15.648291749996133,37,7,Object_Sea_Solid_Large,-1,,,,,,,,,,,
encoding,attention,15.648394917021506,18.66629904205911,37,7,Object_Sea_Solid_Large,-1,-1,1,1.92313499993179,,,,,,,,
encoding,fixation,18.666465084068477,20.171494875103235,38,7,Animal_Land_Solid_Small,8,,,,,,,,,,,
encoding,image,20.171613500104286,21.182646209024824,38,7,Animal_Land_Solid_Small,8,,,,,,,,,,,
encoding,value,21.182775334105827,27.19474354200065,38,7,Animal_Land_Solid_Small,8,,,,,,,,,,,
encoding,attention,27.19486120902002,30.215774000040255,38,7,Animal_Land_Solid_Small,8,+8,1,0.6876397921005264,,,,,,,,
encoding,fixation,30.21591879206244,31.720097584067844,39,7,Animal_Land_Pattern_Small,-5,,,,,,,,,,,
encoding,image,31.72020262503065,32.73104779201094,39,7,Animal_Land_Pattern_Small,-5,,,,,,,,,,,
encoding,value,32.731154834036715,38.74229233409278,39,7,Animal_Land_Pattern_Small,-5,,,,,,,,,,,
encoding,attention,38.742399917100556,41.75934654206503,39,7,Animal_Land_Pattern_Small,-5,-5,1,0.5668629170395434,,,,,,,,
encoding,fixation,41.759500209009275,43.014671125099994,40,7,Animal_Sea_Solid_Large,-5,,,,,,,,,,,
encoding,image,43.01477650005836,44.02636554208584,40,7,Animal_Sea_Solid_Large,-5,,,,,,,,,,,
encoding,value,44.02649900002871,50.03807770903222,40,7,Animal_Sea_Solid_Large,-5,,,,,,,,,,,
encoding,attention,50.03818787506316,53.05578408401925,40,7,Animal_Sea_Solid_Large,-5,-5,1,1.4773278329521418,,,,,,,,
encoding,fixation,53.05597700004,54.31104275002144,41,7,Object_Sea_Pattern_Large,8,,,,,,,,,,,
encoding,image,54.31115258403588,55.32219316705596,41,7,Object_Sea_Pattern_Large,8,,,,,,,,,,,
encoding,value,55.32230458408594,61.3336278750794,41,7,Object_Sea_Pattern_Large,8,,,,,,,,,,,
encoding,attention,61.333737250068225,64.35281358403154,41,7,Object_Sea_Pattern_Large,8,+8,1,0.7992389580467716,,,,,,,,
encoding,fixation,64.35295775008854,65.60806304204743,42,7,Object_Land_Pattern_Small,-1,,,,,,,,,,,
encoding,image,65.6082007921068,66.62000075005926,42,7,Object_Land_Pattern_Small,-1,,,,,,,,,,,
encoding,value,66.62011183402501,72.63257570902351,42,7,Object_Land_Pattern_Small,-1,,,,,,,,,,,
encoding,attention,72.63272504205815,75.72239524999168,42,7,Object_Land_Pattern_Small,-1,None,None,None,,,,,,,,
n-back,,,,181,7,,,,0,None,N,True,None,,,,,
n-back,,,,182,7,,,,1,None,C,False,None,,,,,
n-back,,,,183,7,,,,1,0.6972557080443949,N,True,1,,,,,
n-back,,,,184,7,,,,1,None,V,False,None,,,,,
n-back,,,,185,7,,,,1,None,Z,False,None,,,,,
n-back,,,,186,7,,,,1,0.623400624957867,V,True,1,,,,,
n-back,,,,187,7,,,,1,None,V,False,None,,,,,
n-back,,,,188,7,,,,1,None,X,False,None,,,,,
n-back,,,,189,7,,,,1,None,C,False,None,,,,,
n-back,,,,190,7,,,,1,None,Z,False,None,,,,,
n-back,,,,191,7,,,,1,0.4475687498925254,C,True,1,,,,,
n-back,,,,192,7,,,,1,None,B,False,None,,,,,
n-back,,,,193,7,,,,1,None,X,False,None,,,,,
n-back,,,,194,7,,,,1,None,V,False,None,,,,,
n-back,,,,195,7,,,,1,None,C,False,None,,,,,
n-back,,,,196,7,,,,0,None,V,True,None,,,,,
n-back,,,,197,7,,,,1,None,X,False,None,,,,,
n-back,,,,198,7,,,,1,None,C,False,None,,,,,
n-back,,,,199,7,,,,1,0.530311041045934,X,True,1,,,,,
n-back,,,,200,7,,,,1,None,X,False,None,,,,,
n-back,,,,201,7,,,,0,None,X,True,None,,,,,
n-back,,,,202,7,,,,0,None,X,True,None,,,,,
n-back,,,,203,7,,,,1,0.901221957989037,X,True,1,,,,,
n-back,,,,204,7,,,,1,None,V,False,None,,,,,
n-back,,,,205,7,,,,1,None,N,False,None,,,,,
n-back,,,,206,7,,,,1,0.46481216698884964,V,True,1,,,,,
n-back,,,,207,7,,,,1,None,Z,False,None,,,,,
n-back,,,,208,7,,,,1,None,C,False,None,,,,,
n-back,,,,209,7,,,,1,None,B,False,None,,,,,
n-back,,,,210,7,,,,1,None,B,False,None,,,,,
choice,fixation,147.65025958407205,148.65513470908627,49,7,,,,,,,,,Large,,,,
choice,option,148.663929667091,149.69020591699518,49,7,,,,,,,,,Large,,,,
choice,choice,149.6903251670301,156.92199837509543,49,7,,,1,1,6.2217257500160486,,,,Large,,,,
choice,fixation,156.92213550000452,157.92730491701514,50,7,,,,,,,,,Object,,,,
choice,option,157.9375993750291,158.9656594170956,50,7,,,,,,,,,Object,,,,
choice,choice,158.96576162509155,171.7282962090103,50,7,,,1,1,11.751644957927056,,,,Object,,,,
choice,fixation,171.7284345420776,172.73343537503388,51,7,,,,,,,,,Animal,,,,
choice,option,172.74273608403746,173.77014070900623,51,7,,,,,,,,,Animal,,,,
choice,choice,173.770311166998,175.7104914590018,51,7,,,2,1,0.9304670830024406,,,,Animal,,,,
choice,fixation,175.71060291700996,176.4656393750338,52,7,,,,,,,,,Solid,,,,
choice,option,176.47474154201336,177.50130362506025,52,7,,,,,,,,,Solid,,,,
choice,choice,177.50140587508213,178.93292558402754,52,7,,,1,1,0.42186933394987136,,,,Solid,,,,
choice,fixation,178.93312583409715,179.4373548340518,53,7,,,,,,,,,Sea,,,,
choice,option,179.44567991700023,180.47174933401402,53,7,,,,,,,,,Sea,,,,
choice,choice,180.47185845905915,189.3984411250567,53,7,,,1,1,7.915533624938689,,,,Sea,,,,
choice,fixation,189.39857925008982,190.9035698750522,54,7,,,,,,,,,Land,,,,
choice,option,190.91221541701816,191.93910466704983,54,7,,,,,,,,,Land,,,,
choice,choice,191.9392237920547,194.23225433402695,54,7,,,2,0,1.2819223750848323,,,,Land,,,,
choice,fixation,194.2323741670698,194.98749275004957,55,7,,,,,,,,,Small,,,,
choice,option,194.99664579203818,196.0228812500136,55,7,,,,,,,,,Small,,,,
choice,choice,196.02300545899197,197.05289262509905,55,7,,,2,0,0.013683917000889778,,,,Small,,,,
choice,fixation,197.05302325007506,198.55721454205923,56,7,,,,,,,,,Pattern,,,,
choice,option,198.56631516700145,199.59284579206724,56,7,,,,,,,,,Pattern,,,,
choice,choice,199.59295587509405,201.222828334081,56,7,,,2,0,0.6197520410642028,,,,Pattern,,,,
memory,free_recall,218.64004200010095,223.97925308404956,36,7,,,,,,,,,,,,,
memory,value_recall,228.89787670900114,235.82512670906726,37,7,Object_Sea_Solid_Large,,,,6.922961583011784,,,,,-1,,,
memory,value_recall,237.87269725010265,244.79196808405686,38,7,Object_Sea_Pattern_Large,,,,6.914604916004464,,,,,8,,,
memory,value_recall,246.08828345907386,252.99944558402058,39,7,Animal_Land_Solid_Small,,,,6.906898541958071,,,,,8,,,
memory,value_recall,254.29868841706775,258.24173966702074,40,7,Object_Land_Pattern_Small,,,,3.938738666009158,,,,,-1,,,
memory,value_recall,259.5387229170883,263.26578516699374,41,7,Animal_Sea_Solid_Large,,,,3.722872417070903,,,,,-5,,,
memory,value_recall,265.3112916670507,267.69954554201104,42,7,Animal_Land_Pattern_Small,,,,2.3840748330112547,,,,,-5,,,
memory,spatial_recall,273.7721952920547,279.92686525010504,42,7,Object_Sea_Solid_Large,,,1,6.150334208039567,,,,,,"[-329, -190]","[-329, -190]",
memory,spatial_recall,281.48594995902386,283.20122179202735,42,7,Object_Land_Pattern_Small,,,1,1.7110830409219489,,,,,,"[329, 189]","[329, 189]",
memory,spatial_recall,285.0122492921073,287.60011325008236,42,7,Object_Sea_Pattern_Large,,,1,2.583665707963519,,,,,,"[0, -380]","[0, -380]",
memory,spatial_recall,288.9043268749956,295.4004124170169,42,7,Animal_Land_Solid_Small,,,1,6.4921407089568675,,,,,,"[329, -190]","[329, -190]",
memory,spatial_recall,296.70593550009653,297.6150773750851,42,7,Animal_Land_Pattern_Small,,,1,0.905094958958216,,,,,,"[0, 380]","[0, 380]",
memory,spatial_recall,299.6813987090718,301.1794352500001,42,7,Animal_Sea_Solid_Large,,,1,1.4938872499624267,,,,,,"[-329, 190]","[-329, 190]",
