phase,event,trial_number,eyetracker_onset,eyetracker_offset,fix_start,fix_end,fix_duration_full,fix_duration_bounded,fix_x,fix_y,roi_x,roi_y,roi_content,onset,offset,game,image,outcome,choice,correct,rt,letter,match,response,option,true_value,true_position,recalled_position,Unnamed: 18
encoding,fixation,1,10307165,10308429,10307770.0,10307981.0,212.0,212.0,1899.4,1167.6,1920.0,700.0,Object_Land_Pattern_Large,16.78899191704113,18.0526409590384,1.0,Animal_Land_Pattern_Large,6.0,,,,,,,,,,,
encoding,fixation,1,10307165,10308429,10308185.0,10308263.0,79.0,79.0,1719.9,1436.5,1920.0,700.0,Object_Land_Pattern_Large,16.78899191704113,18.0526409590384,1.0,Animal_Land_Pattern_Large,6.0,,,,,,,,,,,
encoding,fixation,1,10307165,10308429,10308291.0,10308448.0,158.0,138.0,1351.7,1432.5,,,none,16.78899191704113,18.0526409590384,1.0,Animal_Land_Pattern_Large,6.0,,,,,,,,,,,
encoding,image,1,10308429,10309447,10308575.0,10308664.0,90.0,90.0,1083.2,1568.6,,,none,18.052775959018614,19.0707257919712,1.0,Animal_Land_Pattern_Large,6.0,,,,,,,,,,,
encoding,image,1,10308429,10309447,10308799.0,10308890.0,92.0,92.0,1715.7,1128.6,1591.0,891.0,Animal_Sea_Solid_Small,18.052775959018614,19.0707257919712,1.0,Animal_Land_Pattern_Large,6.0,,,,,,,,,,,
encoding,image,1,10308429,10309447,10308920.0,10309202.0,283.0,283.0,1557.1,917.0999999999999,1591.0,1269.0,Animal_Land_Pattern_Large,18.052775959018614,19.0707257919712,1.0,Animal_Land_Pattern_Large,6.0,,,,,,,,,,,
encoding,image,1,10308429,10309447,10309403.0,10309631.0,229.0,44.0,1564.9,885.2,1591.0,1269.0,Animal_Land_Pattern_Large,18.052775959018614,19.0707257919712,1.0,Animal_Land_Pattern_Large,6.0,,,,,,,,,,,
encoding,value,1,10309447,10315462,10309647.0,10309796.0,150.0,150.0,1583.7,795.7,1591.0,1269.0,Animal_Land_Pattern_Large,19.07084549998399,25.08539975003805,1.0,Animal_Land_Pattern_Large,6.0,,,,,,,,,,,
encoding,value,1,10309447,10315462,10310686.0,10310706.0,21.0,21.0,1532.7,634.2,,,none,19.07084549998399,25.08539975003805,1.0,Animal_Land_Pattern_Large,6.0,,,,,,,,,,,
encoding,value,1,10309447,10315462,10310978.0,10311002.0,25.0,25.0,1532.3,559.4000000000001,,,none,19.07084549998399,25.08539975003805,1.0,Animal_Land_Pattern_Large,6.0,,,,,,,,,,,
encoding,value,1,10309447,10315462,10311277.0,10311609.0,333.0,333.0,1554.3,883.5,1591.0,1269.0,Animal_Land_Pattern_Large,19.07084549998399,25.08539975003805,1.0,Animal_Land_Pattern_Large,6.0,,,,,,,,,,,
encoding,value,1,10309447,10315462,10311631.0,10311841.0,211.0,211.0,1604.3,767.3,1591.0,1269.0,Animal_Land_Pattern_Large,19.07084549998399,25.08539975003805,1.0,Animal_Land_Pattern_Large,6.0,,,,,,,,,,,
encoding,value,1,10309447,10315462,10311883.0,10311959.0,77.0,77.0,1849.2,1092.6,1591.0,891.0,Animal_Sea_Solid_Small,19.07084549998399,25.08539975003805,1.0,Animal_Land_Pattern_Large,6.0,,,,,,,,,,,
encoding,value,1,10309447,10315462,10312092.0,10312197.0,106.0,106.0,1901.9,1083.0,1920.0,1080.0,fixation,19.07084549998399,25.08539975003805,1.0,Animal_Land_Pattern_Large,6.0,,,,,,,,,,,
encoding,value,1,10309447,10315462,10312237.0,10312556.0,320.0,320.0,1580.2,799.8,1591.0,1269.0,Animal_Land_Pattern_Large,19.07084549998399,25.08539975003805,1.0,Animal_Land_Pattern_Large,6.0,,,,,,,,,,,
encoding,value,1,10309447,10315462,10312749.0,10312861.0,113.0,113.0,1557.5,907.0,1591.0,1269.0,Animal_Land_Pattern_Large,19.07084549998399,25.08539975003805,1.0,Animal_Land_Pattern_Large,6.0,,,,,,,,,,,
encoding,value,1,10309447,10315462,10312880.0,10313086.0,207.0,207.0,1586.2,789.8,1591.0,1269.0,Animal_Land_Pattern_Large,19.07084549998399,25.08539975003805,1.0,Animal_Land_Pattern_Large,6.0,,,,,,,,,,,
encoding,value,1,10309447,10315462,10313117.0,10313276.0,160.0,160.0,1799.5,996.3,1591.0,1269.0,Animal_Land_Pattern_Large,19.07084549998399,25.08539975003805,1.0,Animal_Land_Pattern_Large,6.0,,,,,,,,,,,
encoding,value,1,10309447,10315462,10313302.0,10313558.0,257.0,257.0,1584.7,825.5999999999999,1591.0,1269.0,Animal_Land_Pattern_Large,19.07084549998399,25.08539975003805,1.0,Animal_Land_Pattern_Large,6.0,,,,,,,,,,,
encoding,value,1,10309447,10315462,10313762.0,10313827.0,66.0,66.0,1563.5,901.4000000000001,1591.0,1269.0,Animal_Land_Pattern_Large,19.07084549998399,25.08539975003805,1.0,Animal_Land_Pattern_Large,6.0,,,,,,,,,,,
encoding,value,1,10309447,10315462,10313860.0,10314169.0,310.0,310.0,1901.2,1053.9,1920.0,1080.0,fixation,19.07084549998399,25.08539975003805,1.0,Animal_Land_Pattern_Large,6.0,,,,,,,,,,,
encoding,value,1,10309447,10315462,10314203.0,10314268.0,66.0,66.0,1566.5,818.9000000000001,1591.0,1269.0,Animal_Land_Pattern_Large,19.07084549998399,25.08539975003805,1.0,Animal_Land_Pattern_Large,6.0,,,,,,,,,,,
encoding,value,1,10309447,10315462,10314456.0,10314573.0,118.0,118.0,1735.0,1030.7,1591.0,1269.0,Animal_Land_Pattern_Large,19.07084549998399,25.08539975003805,1.0,Animal_Land_Pattern_Large,6.0,,,,,,,,,,,
encoding,value,1,10309447,10315462,10314597.0,10314794.0,198.0,198.0,1576.2,868.3,1591.0,1269.0,Animal_Land_Pattern_Large,19.07084549998399,25.08539975003805,1.0,Animal_Land_Pattern_Large,6.0,,,,,,,,,,,
encoding,value,1,10309447,10315462,10314810.0,10315105.0,296.0,296.0,1579.2,779.0999999999999,1591.0,1269.0,Animal_Land_Pattern_Large,19.07084549998399,25.08539975003805,1.0,Animal_Land_Pattern_Large,6.0,,,,,,,,,,,
encoding,value,1,10309447,10315462,10315122.0,10315764.0,643.0,340.0,1542.0,900.0,1591.0,1269.0,Animal_Land_Pattern_Large,19.07084549998399,25.08539975003805,1.0,Animal_Land_Pattern_Large,6.0,,,,,,,,,,,
encoding,attention,1,10315462,10318478,10315785.0,10316044.0,260.0,260.0,1571.9,769.9000000000001,1591.0,1269.0,Animal_Land_Pattern_Large,25.085518874926493,28.10113474994432,1.0,Animal_Land_Pattern_Large,6.0,,,,,,,,,,,
encoding,attention,1,10315462,10318478,10316053.0,10316226.0,174.0,174.0,1630.9,775.2,1591.0,1269.0,Animal_Land_Pattern_Large,25.085518874926493,28.10113474994432,1.0,Animal_Land_Pattern_Large,6.0,,,,,,,,,,,
encoding,attention,1,10315462,10318478,10316239.0,10316355.0,117.0,117.0,1542.9,778.8,1591.0,1269.0,Animal_Land_Pattern_Large,25.085518874926493,28.10113474994432,1.0,Animal_Land_Pattern_Large,6.0,,,,,,,,,,,
encoding,attention,1,10315462,10318478,10316808.0,10316857.0,50.0,50.0,1611.3,746.9000000000001,1591.0,1269.0,Animal_Land_Pattern_Large,25.085518874926493,28.10113474994432,1.0,Animal_Land_Pattern_Large,6.0,,,,,,,,,,,
encoding,attention,1,10315462,10318478,10317298.0,10317318.0,21.0,21.0,1602.8,617.4000000000001,1591.0,1269.0,Animal_Land_Pattern_Large,25.085518874926493,28.10113474994432,1.0,Animal_Land_Pattern_Large,6.0,,,,,,,,,,,
encoding,attention,1,10315462,10318478,10317750.0,10318094.0,345.0,345.0,1655.9,795.4000000000001,1591.0,1269.0,Animal_Land_Pattern_Large,25.085518874926493,28.10113474994432,1.0,Animal_Land_Pattern_Large,6.0,,,,,,,,,,,
encoding,fixation,2,10318478,10319983,10319038.0,10319210.0,173.0,173.0,1651.0,795.0999999999999,1591.0,1269.0,Animal_Land_Pattern_Large,28.10129729192704,29.606392084038816,1.0,Object_Land_Pattern_Large,-3.0,,,,,,,,,,,
encoding,fixation,2,10318478,10319983,10319253.0,10319467.0,215.0,215.0,1912.1,1123.5,1920.0,1080.0,fixation,28.10129729192704,29.606392084038816,1.0,Object_Land_Pattern_Large,-3.0,,,,,,,,,,,
encoding,fixation,2,10318478,10319983,10319853.0,10319984.0,132.0,130.0,1791.3,918.0,1591.0,1269.0,Animal_Land_Pattern_Large,28.10129729192704,29.606392084038816,1.0,Object_Land_Pattern_Large,-3.0,,,,,,,,,,,
encoding,image,2,10319983,10320995,10320010.0,10320202.0,193.0,193.0,1910.0,1108.9,1920.0,1080.0,fixation,29.606500625028275,30.61849549994804,1.0,Object_Land_Pattern_Large,-3.0,,,,,,,,,,,
encoding,image,2,10319983,10320995,10320239.0,10320477.0,239.0,239.0,1917.5,1436.3,1920.0,700.0,Object_Land_Pattern_Large,29.606500625028275,30.61849549994804,1.0,Object_Land_Pattern_Large,-3.0,,,,,,,,,,,
encoding,image,2,10319983,10320995,10320512.0,10320563.0,52.0,52.0,1910.8,1089.4,1920.0,1080.0,fixation,29.606500625028275,30.61849549994804,1.0,Object_Land_Pattern_Large,-3.0,,,,,,,,,,,
encoding,value,2,10320995,10327009,10321116.0,10321141.0,26.0,26.0,1829.0,1274.6,1920.0,700.0,Object_Land_Pattern_Large,30.618621959001757,36.63177879201248,1.0,Object_Land_Pattern_Large,-3.0,,,,,,,,,,,
encoding,value,2,10320995,10327009,10321347.0,10321525.0,179.0,179.0,1931.0,1435.5,1920.0,700.0,Object_Land_Pattern_Large,30.618621959001757,36.63177879201248,1.0,Object_Land_Pattern_Large,-3.0,,,,,,,,,,,
encoding,value,2,10320995,10327009,10321540.0,10321696.0,157.0,157.0,1935.4,1368.2,1920.0,700.0,Object_Land_Pattern_Large,30.618621959001757,36.63177879201248,1.0,Object_Land_Pattern_Large,-3.0,,,,,,,,,,,
encoding,value,2,10320995,10327009,10321713.0,10321807.0,95.0,95.0,1943.3,1474.4,1920.0,700.0,Object_Land_Pattern_Large,30.618621959001757,36.63177879201248,1.0,Object_Land_Pattern_Large,-3.0,,,,,,,,,,,
encoding,value,2,10320995,10327009,10321984.0,10322036.0,53.0,53.0,1912.4,1464.4,1920.0,700.0,Object_Land_Pattern_Large,30.618621959001757,36.63177879201248,1.0,Object_Land_Pattern_Large,-3.0,,,,,,,,,,,
encoding,value,2,10320995,10327009,10322060.0,10322274.0,215.0,215.0,1642.2,1423.4,1591.0,891.0,Animal_Sea_Solid_Small,30.618621959001757,36.63177879201248,1.0,Object_Land_Pattern_Large,-3.0,,,,,,,,,,,
encoding,value,2,10320995,10327009,10322300.0,10323760.0,1461.0,1461.0,1916.9,1453.2,1920.0,700.0,Object_Land_Pattern_Large,30.618621959001757,36.63177879201248,1.0,Object_Land_Pattern_Large,-3.0,,,,,,,,,,,
encoding,value,2,10320995,10327009,10323843.0,10323998.0,156.0,156.0,1145.3,2414.0,,,none,30.618621959001757,36.63177879201248,1.0,Object_Land_Pattern_Large,-3.0,,,,,,,,,,,
encoding,value,2,10320995,10327009,10324075.0,10324247.0,173.0,173.0,2560.4,3331.9,,,none,30.618621959001757,36.63177879201248,1.0,Object_Land_Pattern_Large,-3.0,,,,,,,,,,,
encoding,value,2,10320995,10327009,10324306.0,10324946.0,641.0,641.0,1831.6,1953.9,,,none,30.618621959001757,36.63177879201248,1.0,Object_Land_Pattern_Large,-3.0,,,,,,,,,,,
encoding,value,2,10320995,10327009,10324974.0,10325307.0,334.0,334.0,2125.3,1880.8,,,none,30.618621959001757,36.63177879201248,1.0,Object_Land_Pattern_Large,-3.0,,,,,,,,,,,
encoding,value,2,10320995,10327009,10325358.0,10325562.0,205.0,205.0,2708.1,1878.9,,,none,30.618621959001757,36.63177879201248,1.0,Object_Land_Pattern_Large,-3.0,,,,,,,,,,,
encoding,value,2,10320995,10327009,10325882.0,10326132.0,251.0,251.0,1909.7,1414.2,1920.0,700.0,Object_Land_Pattern_Large,30.618621959001757,36.63177879201248,1.0,Object_Land_Pattern_Large,-3.0,,,,,,,,,,,
encoding,value,2,10320995,10327009,10326332.0,10326513.0,182.0,182.0,420.6,534.0999999999999,,,none,30.618621959001757,36.63177879201248,1.0,Object_Land_Pattern_Large,-3.0,,,,,,,,,,,
encoding,value,2,10320995,10327009,10326558.0,10326763.0,206.0,206.0,908.0,256.9000000000001,,,none,30.618621959001757,36.63177879201248,1.0,Object_Land_Pattern_Large,-3.0,,,,,,,,,,,
encoding,value,2,10320995,10327009,10326841.0,10327086.0,246.0,168.0,1822.2,1253.3,1920.0,700.0,Object_Land_Pattern_Large,30.618621959001757,36.63177879201248,1.0,Object_Land_Pattern_Large,-3.0,,,,,,,,,,,
encoding,attention,2,10327009,10330022,10327143.0,10327352.0,210.0,210.0,1275.6,773.5999999999999,,,none,36.63189533399418,39.644457958987914,1.0,Object_Land_Pattern_Large,-3.0,,,,,,,,,,,
encoding,attention,2,10327009,10330022,10327513.0,10327731.0,219.0,219.0,1973.0,1386.5,1920.0,700.0,Object_Land_Pattern_Large,36.63189533399418,39.644457958987914,1.0,Object_Land_Pattern_Large,-3.0,,,,,,,,,,,
encoding,attention,2,10327009,10330022,10327917.0,10327977.0,61.0,61.0,1927.2,1449.5,1920.0,700.0,Object_Land_Pattern_Large,36.63189533399418,39.644457958987914,1.0,Object_Land_Pattern_Large,-3.0,,,,,,,,,,,
encoding,attention,2,10327009,10330022,10329516.0,10329773.0,258.0,258.0,1847.8,1240.1,1920.0,700.0,Object_Land_Pattern_Large,36.63189533399418,39.644457958987914,1.0,Object_Land_Pattern_Large,-3.0,,,,,,,,,,,
encoding,attention,2,10327009,10330022,10329802.0,10329929.0,128.0,128.0,1907.7,1015.5999999999999,1920.0,1080.0,fixation,36.63189533399418,39.644457958987914,1.0,Object_Land_Pattern_Large,-3.0,,,,,,,,,,,
encoding,fixation,3,10330022,10331279,,,,,,,,,none,39.64465433394071,40.90211699996144,1.0,Animal_Sea_Solid_Small,1.0,,,,,,,,,,,
encoding,image,3,10331279,10332290,10331346.0,10331550.0,205.0,205.0,1510.7,1170.8,1591.0,891.0,Animal_Sea_Solid_Small,40.90223433403298,41.912693792022765,1.0,Animal_Sea_Solid_Small,1.0,,,,,,,,,,,
encoding,image,3,10331279,10332290,10331568.0,10332432.0,865.0,722.0,1599.2,1266.0,1591.0,891.0,Animal_Sea_Solid_Small,40.90223433403298,41.912693792022765,1.0,Animal_Sea_Solid_Small,1.0,,,,,,,,,,,
encoding,value,3,10332290,10338302,10332450.0,10332631.0,182.0,182.0,1593.8,1181.6,1591.0,891.0,Animal_Sea_Solid_Small,41.912809083936736,47.92449212493375,1.0,Animal_Sea_Solid_Small,1.0,,,,,,,,,,,
encoding,value,3,10332290,10338302,10332643.0,10332839.0,197.0,197.0,1587.3,1244.4,1591.0,891.0,Animal_Sea_Solid_Small,41.912809083936736,47.92449212493375,1.0,Animal_Sea_Solid_Small,1.0,,,,,,,,,,,
encoding,value,3,10332290,10338302,10333014.0,10333096.0,83.0,83.0,1428.1,1293.0,1591.0,891.0,Animal_Sea_Solid_Small,41.912809083936736,47.92449212493375,1.0,Animal_Sea_Solid_Small,1.0,,,,,,,,,,,
encoding,value,3,10332290,10338302,10333123.0,10333274.0,152.0,152.0,1163.2,1359.4,,,none,41.912809083936736,47.92449212493375,1.0,Animal_Sea_Solid_Small,1.0,,,,,,,,,,,
encoding,value,3,10332290,10338302,10333419.0,10333502.0,84.0,84.0,1136.6,1425.4,,,none,41.912809083936736,47.92449212493375,1.0,Animal_Sea_Solid_Small,1.0,,,,,,,,,,,
encoding,value,3,10332290,10338302,10333645.0,10333687.0,43.0,43.0,1071.4,1464.4,,,none,41.912809083936736,47.92449212493375,1.0,Animal_Sea_Solid_Small,1.0,,,,,,,,,,,
encoding,value,3,10332290,10338302,10333834.0,10333876.0,43.0,43.0,1018.5,1524.2,,,none,41.912809083936736,47.92449212493375,1.0,Animal_Sea_Solid_Small,1.0,,,,,,,,,,,
encoding,value,3,10332290,10338302,10334301.0,10334338.0,38.0,38.0,1063.5,1491.5,,,none,41.912809083936736,47.92449212493375,1.0,Animal_Sea_Solid_Small,1.0,,,,,,,,,,,
encoding,value,3,10332290,10338302,10334822.0,10334856.0,35.0,35.0,695.8,1337.3,,,none,41.912809083936736,47.92449212493375,1.0,Animal_Sea_Solid_Small,1.0,,,,,,,,,,,
encoding,value,3,10332290,10338302,10335196.0,10335251.0,56.0,56.0,1438.5,1198.2,1591.0,891.0,Animal_Sea_Solid_Small,41.912809083936736,47.92449212493375,1.0,Animal_Sea_Solid_Small,1.0,,,,,,,,,,,
encoding,value,3,10332290,10338302,10335420.0,10335533.0,114.0,114.0,1584.2,1147.2,1591.0,891.0,Animal_Sea_Solid_Small,41.912809083936736,47.92449212493375,1.0,Animal_Sea_Solid_Small,1.0,,,,,,,,,,,
encoding,value,3,10332290,10338302,10335717.0,10335741.0,25.0,25.0,1572.1,1114.3,1591.0,891.0,Animal_Sea_Solid_Small,41.912809083936736,47.92449212493375,1.0,Animal_Sea_Solid_Small,1.0,,,,,,,,,,,
encoding,value,3,10332290,10338302,10335921.0,10335947.0,27.0,27.0,1582.5,1263.2,1591.0,891.0,Animal_Sea_Solid_Small,41.912809083936736,47.92449212493375,1.0,Animal_Sea_Solid_Small,1.0,,,,,,,,,,,
encoding,value,3,10332290,10338302,10336145.0,10336165.0,21.0,21.0,2196.4,1175.2,2249.0,891.0,Object_Land_Pattern_Small,41.912809083936736,47.92449212493375,1.0,Animal_Sea_Solid_Small,1.0,,,,,,,,,,,
encoding,value,3,10332290,10338302,10336508.0,10336558.0,51.0,51.0,1629.1,1183.8,1591.0,891.0,Animal_Sea_Solid_Small,41.912809083936736,47.92449212493375,1.0,Animal_Sea_Solid_Small,1.0,,,,,,,,,,,
encoding,value,3,10332290,10338302,10336776.0,10336857.0,82.0,82.0,983.7,1195.2,,,none,41.912809083936736,47.92449212493375,1.0,Animal_Sea_Solid_Small,1.0,,,,,,,,,,,
encoding,value,3,10332290,10338302,10337007.0,10337032.0,26.0,26.0,1109.4,1274.3,,,none,41.912809083936736,47.92449212493375,1.0,Animal_Sea_Solid_Small,1.0,,,,,,,,,,,
encoding,value,3,10332290,10338302,10337086.0,10337218.0,133.0,133.0,401.7,1083.9,,,none,41.912809083936736,47.92449212493375,1.0,Animal_Sea_Solid_Small,1.0,,,,,,,,,,,
encoding,value,3,10332290,10338302,10337271.0,10337380.0,110.0,110.0,-413.0,1801.3,,,none,41.912809083936736,47.92449212493375,1.0,Animal_Sea_Solid_Small,1.0,,,,,,,,,,,
encoding,value,3,10332290,10338302,10337443.0,10337513.0,71.0,71.0,-196.2,862.3,,,none,41.912809083936736,47.92449212493375,1.0,Animal_Sea_Solid_Small,1.0,,,,,,,,,,,
encoding,value,3,10332290,10338302,10337672.0,10337807.0,136.0,136.0,1540.0,1130.4,1591.0,891.0,Animal_Sea_Solid_Small,41.912809083936736,47.92449212493375,1.0,Animal_Sea_Solid_Small,1.0,,,,,,,,,,,
encoding,value,3,10332290,10338302,10337818.0,10338001.0,184.0,184.0,1583.0,1164.6,1591.0,891.0,Animal_Sea_Solid_Small,41.912809083936736,47.92449212493375,1.0,Animal_Sea_Solid_Small,1.0,,,,,,,,,,,
encoding,value,3,10332290,10338302,10338016.0,10338188.0,173.0,173.0,1597.2,1227.3,1591.0,891.0,Animal_Sea_Solid_Small,41.912809083936736,47.92449212493375,1.0,Animal_Sea_Solid_Small,1.0,,,,,,,,,,,
encoding,value,3,10332290,10338302,10338204.0,10338404.0,201.0,98.0,1606.9,1153.8,1591.0,891.0,Animal_Sea_Solid_Small,41.912809083936736,47.92449212493375,1.0,Animal_Sea_Solid_Small,1.0,,,,,,,,,,,
encoding,attention,3,10338302,10341322,10338420.0,10338625.0,206.0,206.0,1613.5,1243.7,1591.0,891.0,Animal_Sea_Solid_Small,47.92463191703427,50.94386887503788,1.0,Animal_Sea_Solid_Small,1.0,1.0,1.0,2.168016624986194,,,,,,,,
encoding,attention,3,10338302,10341322,10338638.0,10338696.0,59.0,59.0,1631.9,1180.1,1591.0,891.0,Animal_Sea_Solid_Small,47.92463191703427,50.94386887503788,1.0,Animal_Sea_Solid_Small,1.0,1.0,1.0,2.168016624986194,,,,,,,,
encoding,attention,3,10338302,10341322,10339184.0,10339435.0,252.0,252.0,1605.0,1193.9,1591.0,891.0,Animal_Sea_Solid_Small,47.92463191703427,50.94386887503788,1.0,Animal_Sea_Solid_Small,1.0,1.0,1.0,2.168016624986194,,,,,,,,
encoding,attention,3,10338302,10341322,10339446.0,10339518.0,73.0,73.0,1539.4,1187.8,1591.0,891.0,Animal_Sea_Solid_Small,47.92463191703427,50.94386887503788,1.0,Animal_Sea_Solid_Small,1.0,1.0,1.0,2.168016624986194,,,,,,,,
encoding,attention,3,10338302,10341322,10339660.0,10339682.0,23.0,23.0,1529.1,1120.9,1591.0,891.0,Animal_Sea_Solid_Small,47.92463191703427,50.94386887503788,1.0,Animal_Sea_Solid_Small,1.0,1.0,1.0,2.168016624986194,,,,,,,,
encoding,attention,3,10338302,10341322,10340443.0,10340758.0,316.0,316.0,1548.4,1210.6,1591.0,891.0,Animal_Sea_Solid_Small,47.92463191703427,50.94386887503788,1.0,Animal_Sea_Solid_Small,1.0,1.0,1.0,2.168016624986194,,,,,,,,
encoding,attention,3,10338302,10341322,10340937.0,10341159.0,223.0,223.0,1549.6,1177.1,1591.0,891.0,Animal_Sea_Solid_Small,47.92463191703427,50.94386887503788,1.0,Animal_Sea_Solid_Small,1.0,1.0,1.0,2.168016624986194,,,,,,,,
encoding,fixation,4,10341322,10342329,10341459.0,10341541.0,83.0,83.0,1541.0,1176.8,1591.0,891.0,Animal_Sea_Solid_Small,50.94401487498544,51.95129029196687,1.0,Object_Sea_Solid_Small,4.0,,,,,,,,,,,
encoding,image,4,10342329,10343340,10342480.0,10342521.0,42.0,42.0,1692.3,1260.3,1591.0,891.0,Animal_Sea_Solid_Small,51.95140066696331,52.96202637499664,1.0,Object_Sea_Solid_Small,4.0,,,,,,,,,,,
encoding,image,4,10342329,10343340,10342847.0,10342906.0,60.0,60.0,1915.7,711.7,1920.0,1460.0,Object_Sea_Solid_Small,51.95140066696331,52.96202637499664,1.0,Object_Sea_Solid_Small,4.0,,,,,,,,,,,
encoding,image,4,10342329,10343340,10343335.0,10343448.0,114.0,5.0,1910.2,762.7,1920.0,1460.0,Object_Sea_Solid_Small,51.95140066696331,52.96202637499664,1.0,Object_Sea_Solid_Small,4.0,,,,,,,,,,,
encoding,value,4,10343340,10349351,10343457.0,10343618.0,162.0,162.0,1941.0,719.2,1920.0,1460.0,Object_Sea_Solid_Small,52.9621495839674,58.972655958961695,1.0,Object_Sea_Solid_Small,4.0,,,,,,,,,,,
encoding,value,4,10343340,10349351,10343638.0,10343894.0,257.0,257.0,1951.9,580.5,1920.0,1460.0,Object_Sea_Solid_Small,52.9621495839674,58.972655958961695,1.0,Object_Sea_Solid_Small,4.0,,,,,,,,,,,
encoding,value,4,10343340,10349351,10343914.0,10344136.0,223.0,223.0,1937.6,702.9000000000001,1920.0,1460.0,Object_Sea_Solid_Small,52.9621495839674,58.972655958961695,1.0,Object_Sea_Solid_Small,4.0,,,,,,,,,,,
encoding,value,4,10343340,10349351,10345080.0,10345195.0,116.0,116.0,1915.6,741.4000000000001,1920.0,1460.0,Object_Sea_Solid_Small,52.9621495839674,58.972655958961695,1.0,Object_Sea_Solid_Small,4.0,,,,,,,,,,,
encoding,value,4,10343340,10349351,10345203.0,10345422.0,220.0,220.0,1923.0,723.3,1920.0,1460.0,Object_Sea_Solid_Small,52.9621495839674,58.972655958961695,1.0,Object_Sea_Solid_Small,4.0,,,,,,,,,,,
encoding,value,4,10343340,10349351,10345443.0,10345706.0,264.0,264.0,1920.2,569.0,1920.0,1460.0,Object_Sea_Solid_Small,52.9621495839674,58.972655958961695,1.0,Object_Sea_Solid_Small,4.0,,,,,,,,,,,
encoding,value,4,10343340,10349351,10345726.0,10346237.0,512.0,512.0,1923.7,694.0999999999999,1920.0,1460.0,Object_Sea_Solid_Small,52.9621495839674,58.972655958961695,1.0,Object_Sea_Solid_Small,4.0,,,,,,,,,,,
encoding,value,4,10343340,10349351,10346486.0,10348376.0,1891.0,1891.0,1923.3,588.4000000000001,1920.0,1460.0,Object_Sea_Solid_Small,52.9621495839674,58.972655958961695,1.0,Object_Sea_Solid_Small,4.0,,,,,,,,,,,
encoding,value,4,10343340,10349351,10348394.0,10348729.0,336.0,336.0,1913.6,707.5,1920.0,1460.0,Object_Sea_Solid_Small,52.9621495839674,58.972655958961695,1.0,Object_Sea_Solid_Small,4.0,,,,,,,,,,,
encoding,value,4,10343340,10349351,10348748.0,10348905.0,158.0,158.0,1911.6,579.5,1920.0,1460.0,Object_Sea_Solid_Small,52.9621495839674,58.972655958961695,1.0,Object_Sea_Solid_Small,4.0,,,,,,,,,,,
encoding,attention,4,10349351,10352367,10349821.0,10350024.0,204.0,204.0,1966.5,622.4000000000001,1920.0,1460.0,Object_Sea_Solid_Small,58.97277604194824,61.98903920897283,1.0,Object_Sea_Solid_Small,4.0,4.0,1.0,0.965425958042033,,,,,,,,
encoding,attention,4,10349351,10352367,10350282.0,10350525.0,244.0,244.0,1883.7,592.9000000000001,1920.0,1460.0,Object_Sea_Solid_Small,58.97277604194824,61.98903920897283,1.0,Object_Sea_Solid_Small,4.0,4.0,1.0,0.965425958042033,,,,,,,,
encoding,attention,4,10349351,10352367,10350533.0,10350662.0,130.0,130.0,1953.3,593.3,1920.0,1460.0,Object_Sea_Solid_Small,58.97277604194824,61.98903920897283,1.0,Object_Sea_Solid_Small,4.0,4.0,1.0,0.965425958042033,,,,,,,,
encoding,attention,4,10349351,10352367,10350915.0,10350994.0,80.0,80.0,1931.3,770.7,1920.0,1460.0,Object_Sea_Solid_Small,58.97277604194824,61.98903920897283,1.0,Object_Sea_Solid_Small,4.0,4.0,1.0,0.965425958042033,,,,,,,,
encoding,attention,4,10349351,10352367,10351035.0,10351106.0,72.0,72.0,1917.6,1175.6,1920.0,700.0,Object_Land_Pattern_Large,58.97277604194824,61.98903920897283,1.0,Object_Sea_Solid_Small,4.0,4.0,1.0,0.965425958042033,,,,,,,,
encoding,attention,4,10349351,10352367,10351283.0,10351444.0,162.0,162.0,1804.3,1324.6,1920.0,700.0,Object_Land_Pattern_Large,58.97277604194824,61.98903920897283,1.0,Object_Sea_Solid_Small,4.0,4.0,1.0,0.965425958042033,,,,,,,,
encoding,attention,4,10349351,10352367,10351464.0,10351581.0,118.0,118.0,1652.5,1307.8,1591.0,891.0,Animal_Sea_Solid_Small,58.97277604194824,61.98903920897283,1.0,Object_Sea_Solid_Small,4.0,4.0,1.0,0.965425958042033,,,,,,,,
encoding,attention,4,10349351,10352367,10351627.0,10351803.0,177.0,177.0,1954.0,888.4000000000001,1920.0,1460.0,Object_Sea_Solid_Small,58.97277604194824,61.98903920897283,1.0,Object_Sea_Solid_Small,4.0,4.0,1.0,0.965425958042033,,,,,,,,
encoding,attention,4,10349351,10352367,10351831.0,10351968.0,138.0,138.0,1954.7,663.0,1920.0,1460.0,Object_Sea_Solid_Small,58.97277604194824,61.98903920897283,1.0,Object_Sea_Solid_Small,4.0,4.0,1.0,0.965425958042033,,,,,,,,
encoding,attention,4,10349351,10352367,10351982.0,10352176.0,195.0,195.0,1984.8,589.5,1920.0,1460.0,Object_Sea_Solid_Small,58.97277604194824,61.98903920897283,1.0,Object_Sea_Solid_Small,4.0,4.0,1.0,0.965425958042033,,,,,,,,
encoding,fixation,5,10352367,10353373,10352503.0,10352709.0,207.0,207.0,1943.5,1110.2,1920.0,1080.0,fixation,61.9891982920235,62.99485966702923,1.0,Object_Land_Pattern_Small,-2.0,,,,,,,,,,,
encoding,image,5,10353373,10354385,10353936.0,10354028.0,93.0,93.0,1833.5,1165.6,1591.0,891.0,Animal_Sea_Solid_Small,62.99496629193891,64.00675295898691,1.0,Object_Land_Pattern_Small,-2.0,,,,,,,,,,,
encoding,image,5,10353373,10354385,10354067.0,10354140.0,74.0,74.0,2257.7,1263.3,2249.0,891.0,Object_Land_Pattern_Small,62.99496629193891,64.00675295898691,1.0,Object_Land_Pattern_Small,-2.0,,,,,,,,,,,
encoding,image,5,10353373,10354385,10354309.0,10354333.0,25.0,25.0,2246.4,1238.1,2249.0,891.0,Object_Land_Pattern_Small,62.99496629193891,64.00675295898691,1.0,Object_Land_Pattern_Small,-2.0,,,,,,,,,,,
encoding,value,5,10354385,10360397,10354533.0,10354642.0,110.0,110.0,2099.2,1349.7,2249.0,891.0,Object_Land_Pattern_Small,64.00686129194219,70.01872062496841,1.0,Object_Land_Pattern_Small,-2.0,,,,,,,,,,,
encoding,value,5,10354385,10360397,10354668.0,10354763.0,96.0,96.0,1787.6,1388.5,1920.0,700.0,Object_Land_Pattern_Large,64.00686129194219,70.01872062496841,1.0,Object_Land_Pattern_Small,-2.0,,,,,,,,,,,
encoding,value,5,10354385,10360397,10354913.0,10355029.0,117.0,117.0,2277.6,1249.0,2249.0,891.0,Object_Land_Pattern_Small,64.00686129194219,70.01872062496841,1.0,Object_Land_Pattern_Small,-2.0,,,,,,,,,,,
encoding,value,5,10354385,10360397,10355037.0,10355145.0,109.0,109.0,2274.8,1208.8,2249.0,891.0,Object_Land_Pattern_Small,64.00686129194219,70.01872062496841,1.0,Object_Land_Pattern_Small,-2.0,,,,,,,,,,,
encoding,value,5,10354385,10360397,10355513.0,10355670.0,158.0,158.0,1756.7,1383.4,1920.0,700.0,Object_Land_Pattern_Large,64.00686129194219,70.01872062496841,1.0,Object_Land_Pattern_Small,-2.0,,,,,,,,,,,
encoding,value,5,10354385,10360397,10355756.0,10355840.0,85.0,85.0,1569.4,1972.6,,,none,64.00686129194219,70.01872062496841,1.0,Object_Land_Pattern_Small,-2.0,,,,,,,,,,,
encoding,value,5,10354385,10360397,10355905.0,10356028.0,124.0,124.0,2485.2,3210.8,,,none,64.00686129194219,70.01872062496841,1.0,Object_Land_Pattern_Small,-2.0,,,,,,,,,,,
encoding,value,5,10354385,10360397,10356289.0,10356424.0,136.0,136.0,3270.0,3843.1,,,none,64.00686129194219,70.01872062496841,1.0,Object_Land_Pattern_Small,-2.0,,,,,,,,,,,
encoding,value,5,10354385,10360397,10356524.0,10356665.0,142.0,142.0,2729.6,2199.6,,,none,64.00686129194219,70.01872062496841,1.0,Object_Land_Pattern_Small,-2.0,,,,,,,,,,,
encoding,value,5,10354385,10360397,10356709.0,10356904.0,196.0,196.0,2928.6,1923.9,,,none,64.00686129194219,70.01872062496841,1.0,Object_Land_Pattern_Small,-2.0,,,,,,,,,,,
encoding,value,5,10354385,10360397,10357095.0,10357390.0,296.0,296.0,2277.8,1179.7,2249.0,891.0,Object_Land_Pattern_Small,64.00686129194219,70.01872062496841,1.0,Object_Land_Pattern_Small,-2.0,,,,,,,,,,,
encoding,value,5,10354385,10360397,10357552.0,10357741.0,190.0,190.0,2286.0,1161.4,2249.0,891.0,Object_Land_Pattern_Small,64.00686129194219,70.01872062496841,1.0,Object_Land_Pattern_Small,-2.0,,,,,,,,,,,
encoding,value,5,10354385,10360397,10357759.0,10357986.0,228.0,228.0,2276.6,1286.9,2249.0,891.0,Object_Land_Pattern_Small,64.00686129194219,70.01872062496841,1.0,Object_Land_Pattern_Small,-2.0,,,,,,,,,,,
encoding,value,5,10354385,10360397,10358165.0,10358348.0,184.0,184.0,2278.1,1180.7,2249.0,891.0,Object_Land_Pattern_Small,64.00686129194219,70.01872062496841,1.0,Object_Land_Pattern_Small,-2.0,,,,,,,,,,,
encoding,value,5,10354385,10360397,10358369.0,10358611.0,243.0,243.0,2262.7,1278.1,2249.0,891.0,Object_Land_Pattern_Small,64.00686129194219,70.01872062496841,1.0,Object_Land_Pattern_Small,-2.0,,,,,,,,,,,
encoding,value,5,10354385,10360397,10358625.0,10358718.0,94.0,94.0,2263.0,1210.0,2249.0,891.0,Object_Land_Pattern_Small,64.00686129194219,70.01872062496841,1.0,Object_Land_Pattern_Small,-2.0,,,,,,,,,,,
encoding,value,5,10354385,10360397,10358898.0,10359048.0,151.0,151.0,2246.0,1312.9,2249.0,891.0,Object_Land_Pattern_Small,64.00686129194219,70.01872062496841,1.0,Object_Land_Pattern_Small,-2.0,,,,,,,,,,,
encoding,value,5,10354385,10360397,10359071.0,10359153.0,83.0,83.0,2261.8,1184.7,2249.0,891.0,Object_Land_Pattern_Small,64.00686129194219,70.01872062496841,1.0,Object_Land_Pattern_Small,-2.0,,,,,,,,,,,
encoding,value,5,10354385,10360397,10359340.0,10359465.0,126.0,126.0,2228.2,1211.6,2249.0,891.0,Object_Land_Pattern_Small,64.00686129194219,70.01872062496841,1.0,Object_Land_Pattern_Small,-2.0,,,,,,,,,,,
encoding,value,5,10354385,10360397,10359480.0,10359597.0,118.0,118.0,2240.8,1306.2,2249.0,891.0,Object_Land_Pattern_Small,64.00686129194219,70.01872062496841,1.0,Object_Land_Pattern_Small,-2.0,,,,,,,,,,,
encoding,value,5,10354385,10360397,10359805.0,10359866.0,62.0,62.0,2243.3,1259.4,2249.0,891.0,Object_Land_Pattern_Small,64.00686129194219,70.01872062496841,1.0,Object_Land_Pattern_Small,-2.0,,,,,,,,,,,
encoding,value,5,10354385,10360397,10359880.0,10359987.0,108.0,108.0,2245.9,1200.9,2249.0,891.0,Object_Land_Pattern_Small,64.00686129194219,70.01872062496841,1.0,Object_Land_Pattern_Small,-2.0,,,,,,,,,,,
encoding,value,5,10354385,10360397,10360171.0,10360196.0,26.0,26.0,2220.1,1137.4,2249.0,891.0,Object_Land_Pattern_Small,64.00686129194219,70.01872062496841,1.0,Object_Land_Pattern_Small,-2.0,,,,,,,,,,,
encoding,attention,5,10360397,10363449,10360614.0,10360769.0,156.0,156.0,2247.9,1164.8,2249.0,891.0,Object_Land_Pattern_Small,70.01883637497667,73.06976958399173,1.0,Object_Land_Pattern_Small,-2.0,-2.0,1.0,0.8435934579465538,,,,,,,,
encoding,attention,5,10360397,10363449,10360779.0,10360870.0,92.0,92.0,2201.7,1191.3,2249.0,891.0,Object_Land_Pattern_Small,70.01883637497667,73.06976958399173,1.0,Object_Land_Pattern_Small,-2.0,-2.0,1.0,0.8435934579465538,,,,,,,,
encoding,attention,5,10360397,10363449,10361168.0,10361190.0,23.0,23.0,1708.1,778.0999999999999,1591.0,1269.0,Animal_Land_Pattern_Large,70.01883637497667,73.06976958399173,1.0,Object_Land_Pattern_Small,-2.0,-2.0,1.0,0.8435934579465538,,,,,,,,
encoding,attention,5,10360397,10363449,10361405.0,10361581.0,177.0,177.0,2222.4,1179.8,2249.0,891.0,Object_Land_Pattern_Small,70.01883637497667,73.06976958399173,1.0,Object_Land_Pattern_Small,-2.0,-2.0,1.0,0.8435934579465538,,,,,,,,
encoding,attention,5,10360397,10363449,10361600.0,10361676.0,77.0,77.0,2237.8,1318.9,2249.0,891.0,Object_Land_Pattern_Small,70.01883637497667,73.06976958399173,1.0,Object_Land_Pattern_Small,-2.0,-2.0,1.0,0.8435934579465538,,,,,,,,
encoding,attention,5,10360397,10363449,10361862.0,10361898.0,37.0,37.0,2230.6,1267.6,2249.0,891.0,Object_Land_Pattern_Small,70.01883637497667,73.06976958399173,1.0,Object_Land_Pattern_Small,-2.0,-2.0,1.0,0.8435934579465538,,,,,,,,
encoding,attention,5,10360397,10363449,10362116.0,10362203.0,88.0,88.0,2212.1,1263.7,2249.0,891.0,Object_Land_Pattern_Small,70.01883637497667,73.06976958399173,1.0,Object_Land_Pattern_Small,-2.0,-2.0,1.0,0.8435934579465538,,,,,,,,
encoding,attention,5,10360397,10363449,10362214.0,10362412.0,199.0,199.0,2217.5,1220.8,2249.0,891.0,Object_Land_Pattern_Small,70.01883637497667,73.06976958399173,1.0,Object_Land_Pattern_Small,-2.0,-2.0,1.0,0.8435934579465538,,,,,,,,
encoding,attention,5,10360397,10363449,10362422.0,10362515.0,94.0,94.0,2277.2,1209.5,2249.0,891.0,Object_Land_Pattern_Small,70.01883637497667,73.06976958399173,1.0,Object_Land_Pattern_Small,-2.0,-2.0,1.0,0.8435934579465538,,,,,,,,
encoding,attention,5,10360397,10363449,10362738.0,10362829.0,92.0,92.0,2207.9,1257.0,2249.0,891.0,Object_Land_Pattern_Small,70.01883637497667,73.06976958399173,1.0,Object_Land_Pattern_Small,-2.0,-2.0,1.0,0.8435934579465538,,,,,,,,
encoding,fixation,6,10363449,10364203,10363820.0,10363835.0,16.0,16.0,1884.7,1171.7,1920.0,700.0,Object_Land_Pattern_Large,73.06990383402444,73.82481799996458,1.0,Animal_Sea_Solid_Large,-6.0,,,,,,,,,,,
encoding,fixation,6,10363449,10364203,10364072.0,10364168.0,97.0,97.0,1839.0,887.2,1920.0,1460.0,Object_Sea_Solid_Small,73.06990383402444,73.82481799996458,1.0,Animal_Sea_Solid_Large,-6.0,,,,,,,,,,,
encoding,fixation,6,10363449,10364203,10364195.0,10364344.0,150.0,8.0,1458.1,782.5999999999999,1591.0,1269.0,Animal_Land_Pattern_Large,73.06990383402444,73.82481799996458,1.0,Animal_Sea_Solid_Large,-6.0,,,,,,,,,,,
encoding,image,6,10364204,10365215,10364370.0,10364488.0,119.0,119.0,1144.8,740.8,,,none,73.82491870899685,74.83645991701633,1.0,Animal_Sea_Solid_Large,-6.0,,,,,,,,,,,
encoding,image,6,10364204,10365215,10364548.0,10364748.0,201.0,201.0,2264.1,884.4000000000001,2249.0,1269.0,Animal_Sea_Solid_Large,73.82491870899685,74.83645991701633,1.0,Animal_Sea_Solid_Large,-6.0,,,,,,,,,,,
encoding,image,6,10364204,10365215,10364758.0,10364968.0,211.0,211.0,2273.6,928.2,2249.0,1269.0,Animal_Sea_Solid_Large,73.82491870899685,74.83645991701633,1.0,Animal_Sea_Solid_Large,-6.0,,,,,,,,,,,
encoding,value,6,10365215,10371227,10367152.0,10367196.0,45.0,45.0,1678.0,1006.0,1591.0,1269.0,Animal_Land_Pattern_Large,74.83657208399381,80.84819204197265,1.0,Animal_Sea_Solid_Large,-6.0,,,,,,,,,,,
encoding,value,6,10365215,10371227,10367402.0,10367463.0,62.0,62.0,1508.1,1111.2,1591.0,891.0,Animal_Sea_Solid_Small,74.83657208399381,80.84819204197265,1.0,Animal_Sea_Solid_Large,-6.0,,,,,,,,,,,
encoding,value,6,10365215,10371227,10367516.0,10367809.0,294.0,294.0,2249.8,794.0999999999999,2249.0,1269.0,Animal_Sea_Solid_Large,74.83657208399381,80.84819204197265,1.0,Animal_Sea_Solid_Large,-6.0,,,,,,,,,,,
encoding,value,6,10365215,10371227,10367829.0,10367931.0,103.0,103.0,2248.8,899.2,2249.0,1269.0,Animal_Sea_Solid_Large,74.83657208399381,80.84819204197265,1.0,Animal_Sea_Solid_Large,-6.0,,,,,,,,,,,
encoding,value,6,10365215,10371227,10368741.0,10368808.0,68.0,68.0,2251.6,954.4000000000001,2249.0,1269.0,Animal_Sea_Solid_Large,74.83657208399381,80.84819204197265,1.0,Animal_Sea_Solid_Large,-6.0,,,,,,,,,,,
encoding,value,6,10365215,10371227,10369076.0,10369163.0,88.0,88.0,2256.2,829.4000000000001,2249.0,1269.0,Animal_Sea_Solid_Large,74.83657208399381,80.84819204197265,1.0,Animal_Sea_Solid_Large,-6.0,,,,,,,,,,,
encoding,value,6,10365215,10371227,10369181.0,10369884.0,704.0,704.0,2281.8,924.8,2249.0,1269.0,Animal_Sea_Solid_Large,74.83657208399381,80.84819204197265,1.0,Animal_Sea_Solid_Large,-6.0,,,,,,,,,,,
encoding,value,6,10365215,10371227,10370150.0,10370276.0,127.0,127.0,2278.4,899.7,2249.0,1269.0,Animal_Sea_Solid_Large,74.83657208399381,80.84819204197265,1.0,Animal_Sea_Solid_Large,-6.0,,,,,,,,,,,
encoding,value,6,10365215,10371227,10370524.0,10370794.0,271.0,271.0,2291.9,803.7,2249.0,1269.0,Animal_Sea_Solid_Large,74.83657208399381,80.84819204197265,1.0,Animal_Sea_Solid_Large,-6.0,,,,,,,,,,,
encoding,value,6,10365215,10371227,10370814.0,10370894.0,81.0,81.0,2279.9,915.4000000000001,2249.0,1269.0,Animal_Sea_Solid_Large,74.83657208399381,80.84819204197265,1.0,Animal_Sea_Solid_Large,-6.0,,,,,,,,,,,
encoding,value,6,10365215,10371227,10371216.0,10372287.0,1072.0,11.0,2241.7,798.8,2249.0,1269.0,Animal_Sea_Solid_Large,74.83657208399381,80.84819204197265,1.0,Animal_Sea_Solid_Large,-6.0,,,,,,,,,,,
encoding,attention,6,10371227,10374244,10372298.0,10372654.0,357.0,357.0,2312.1,808.0,2249.0,1269.0,Animal_Sea_Solid_Large,80.8483302090317,83.86524225003086,1.0,Animal_Sea_Solid_Large,-6.0,-6.0,1.0,0.642874666955322,,,,,,,,
encoding,attention,6,10371227,10374244,10372838.0,10373311.0,474.0,474.0,1919.8,1120.6,1920.0,1080.0,fixation,80.8483302090317,83.86524225003086,1.0,Animal_Sea_Solid_Large,-6.0,-6.0,1.0,0.642874666955322,,,,,,,,
encoding,attention,6,10371227,10374244,10374155.0,10374177.0,23.0,23.0,1807.7,473.79999999999995,,,none,80.8483302090317,83.86524225003086,1.0,Animal_Sea_Solid_Large,-6.0,-6.0,1.0,0.642874666955322,,,,,,,,
encoding,fixation,7,10965144,10966150,10965390.0,10965480.0,91.0,91.0,1939.0,1073.9,1920.0,1080.0,fixation,16.036232374957763,17.04269154195208,2.0,Object_Land_Solid_Small,1.0,,,,,,,,,,,
encoding,image,7,10966151,10967163,10966539.0,10966637.0,99.0,99.0,1903.3,1187.6,1920.0,700.0,Object_Land_Solid_Small,17.04280362499412,18.05469312495552,2.0,Object_Land_Solid_Small,1.0,,,,,,,,,,,
encoding,image,7,10966151,10967163,10966670.0,10966993.0,324.0,324.0,1924.5,1428.7,1920.0,700.0,Object_Land_Solid_Small,17.04280362499412,18.05469312495552,2.0,Object_Land_Solid_Small,1.0,,,,,,,,,,,
encoding,value,7,10967163,10973176,10967164.0,10967239.0,76.0,76.0,1942.9,1452.0,1920.0,700.0,Object_Land_Solid_Small,18.05479912494775,24.067427375004627,2.0,Object_Land_Solid_Small,1.0,,,,,,,,,,,
encoding,value,7,10967163,10973176,10967417.0,10967503.0,87.0,87.0,1946.8,1416.7,1920.0,700.0,Object_Land_Solid_Small,18.05479912494775,24.067427375004627,2.0,Object_Land_Solid_Small,1.0,,,,,,,,,,,
encoding,value,7,10967163,10973176,10967513.0,10967655.0,143.0,143.0,1952.7,1360.8,1920.0,700.0,Object_Land_Solid_Small,18.05479912494775,24.067427375004627,2.0,Object_Land_Solid_Small,1.0,,,,,,,,,,,
encoding,value,7,10967163,10973176,10968029.0,10968060.0,32.0,32.0,1889.1,1227.6,1920.0,700.0,Object_Land_Solid_Small,18.05479912494775,24.067427375004627,2.0,Object_Land_Solid_Small,1.0,,,,,,,,,,,
encoding,value,7,10967163,10973176,10968232.0,10968293.0,62.0,62.0,1907.1,1344.6,1920.0,700.0,Object_Land_Solid_Small,18.05479912494775,24.067427375004627,2.0,Object_Land_Solid_Small,1.0,,,,,,,,,,,
encoding,value,7,10967163,10973176,10968477.0,10968515.0,39.0,39.0,1869.4,1290.7,1920.0,700.0,Object_Land_Solid_Small,18.05479912494775,24.067427375004627,2.0,Object_Land_Solid_Small,1.0,,,,,,,,,,,
encoding,value,7,10967163,10973176,10968689.0,10968794.0,106.0,106.0,1719.1,1370.1,1591.0,891.0,Animal_Sea_Solid_Small,18.05479912494775,24.067427375004627,2.0,Object_Land_Solid_Small,1.0,,,,,,,,,,,
encoding,value,7,10967163,10973176,10968816.0,10968894.0,79.0,79.0,1912.9,1358.7,1920.0,700.0,Object_Land_Solid_Small,18.05479912494775,24.067427375004627,2.0,Object_Land_Solid_Small,1.0,,,,,,,,,,,
encoding,value,7,10967163,10973176,10969083.0,10969114.0,32.0,32.0,1843.9,1162.7,1591.0,891.0,Animal_Sea_Solid_Small,18.05479912494775,24.067427375004627,2.0,Object_Land_Solid_Small,1.0,,,,,,,,,,,
encoding,value,7,10967163,10973176,10969296.0,10969740.0,445.0,445.0,1918.0,1346.1,1920.0,700.0,Object_Land_Solid_Small,18.05479912494775,24.067427375004627,2.0,Object_Land_Solid_Small,1.0,,,,,,,,,,,
encoding,value,7,10967163,10973176,10969754.0,10970306.0,553.0,553.0,1931.4,1448.9,1920.0,700.0,Object_Land_Solid_Small,18.05479912494775,24.067427375004627,2.0,Object_Land_Solid_Small,1.0,,,,,,,,,,,
encoding,value,7,10967163,10973176,10970324.0,10970436.0,113.0,113.0,1943.9,1367.4,1920.0,700.0,Object_Land_Solid_Small,18.05479912494775,24.067427375004627,2.0,Object_Land_Solid_Small,1.0,,,,,,,,,,,
encoding,value,7,10967163,10973176,10970602.0,10970994.0,393.0,393.0,1938.1,1450.8,1920.0,700.0,Object_Land_Solid_Small,18.05479912494775,24.067427375004627,2.0,Object_Land_Solid_Small,1.0,,,,,,,,,,,
encoding,value,7,10967163,10973176,10971012.0,10971096.0,85.0,85.0,1935.7,1357.9,1920.0,700.0,Object_Land_Solid_Small,18.05479912494775,24.067427375004627,2.0,Object_Land_Solid_Small,1.0,,,,,,,,,,,
encoding,value,7,10967163,10973176,10971252.0,10971418.0,167.0,167.0,1931.3,1439.8,1920.0,700.0,Object_Land_Solid_Small,18.05479912494775,24.067427375004627,2.0,Object_Land_Solid_Small,1.0,,,,,,,,,,,
encoding,value,7,10967163,10973176,10971435.0,10971507.0,73.0,73.0,1942.4,1361.6,1920.0,700.0,Object_Land_Solid_Small,18.05479912494775,24.067427375004627,2.0,Object_Land_Solid_Small,1.0,,,,,,,,,,,
encoding,value,7,10967163,10973176,10971683.0,10971870.0,188.0,188.0,1914.3,1438.9,1920.0,700.0,Object_Land_Solid_Small,18.05479912494775,24.067427375004627,2.0,Object_Land_Solid_Small,1.0,,,,,,,,,,,
encoding,value,7,10967163,10973176,10971887.0,10972035.0,149.0,149.0,1926.1,1364.6,1920.0,700.0,Object_Land_Solid_Small,18.05479912494775,24.067427375004627,2.0,Object_Land_Solid_Small,1.0,,,,,,,,,,,
encoding,value,7,10967163,10973176,10972203.0,10972333.0,131.0,131.0,1914.8,1419.5,1920.0,700.0,Object_Land_Solid_Small,18.05479912494775,24.067427375004627,2.0,Object_Land_Solid_Small,1.0,,,,,,,,,,,
encoding,value,7,10967163,10973176,10972347.0,10972495.0,149.0,149.0,1926.3,1364.4,1920.0,700.0,Object_Land_Solid_Small,18.05479912494775,24.067427375004627,2.0,Object_Land_Solid_Small,1.0,,,,,,,,,,,
encoding,value,7,10967163,10973176,10972675.0,10973095.0,421.0,421.0,1922.7,1344.0,1920.0,700.0,Object_Land_Solid_Small,18.05479912494775,24.067427375004627,2.0,Object_Land_Solid_Small,1.0,,,,,,,,,,,
encoding,attention,7,10973176,10976194,10973289.0,10974232.0,944.0,944.0,1941.4,1344.9,1920.0,700.0,Object_Land_Solid_Small,24.06754441699013,27.08570704201702,2.0,Object_Land_Solid_Small,1.0,1.0,1.0,0.7994072909932584,,,,,,,,
encoding,attention,7,10973176,10976194,10974407.0,10974671.0,265.0,265.0,1932.6,1430.5,1920.0,700.0,Object_Land_Solid_Small,24.06754441699013,27.08570704201702,2.0,Object_Land_Solid_Small,1.0,1.0,1.0,0.7994072909932584,,,,,,,,
encoding,attention,7,10973176,10976194,10974858.0,10974931.0,74.0,74.0,1892.1,1322.4,1920.0,700.0,Object_Land_Solid_Small,24.06754441699013,27.08570704201702,2.0,Object_Land_Solid_Small,1.0,1.0,1.0,0.7994072909932584,,,,,,,,
encoding,attention,7,10973176,10976194,10974941.0,10974979.0,39.0,39.0,1869.5,1273.9,1920.0,700.0,Object_Land_Solid_Small,24.06754441699013,27.08570704201702,2.0,Object_Land_Solid_Small,1.0,1.0,1.0,0.7994072909932584,,,,,,,,
encoding,attention,7,10973176,10976194,10975230.0,10975561.0,332.0,332.0,1927.9,1410.9,1920.0,700.0,Object_Land_Solid_Small,24.06754441699013,27.08570704201702,2.0,Object_Land_Solid_Small,1.0,1.0,1.0,0.7994072909932584,,,,,,,,
encoding,attention,7,10973176,10976194,10975765.0,10975899.0,135.0,135.0,1913.1,1432.8,1920.0,700.0,Object_Land_Solid_Small,24.06754441699013,27.08570704201702,2.0,Object_Land_Solid_Small,1.0,1.0,1.0,0.7994072909932584,,,,,,,,
encoding,attention,7,10973176,10976194,10975918.0,10976003.0,86.0,86.0,1969.0,1347.5,1920.0,700.0,Object_Land_Solid_Small,24.06754441699013,27.08570704201702,2.0,Object_Land_Solid_Small,1.0,1.0,1.0,0.7994072909932584,,,,,,,,
encoding,fixation,8,10976194,10976699,10976300.0,10976389.0,90.0,90.0,1899.3,1348.7,1920.0,700.0,Object_Land_Solid_Small,27.08587837498635,27.591126875020564,2.0,Animal_Land_Pattern_Large,-5.0,,,,,,,,,,,
encoding,image,8,10976700,10977711,10977209.0,10977265.0,57.0,57.0,1846.1,839.3,1920.0,1460.0,Animal_Sea_Pattern_Large,27.591252458980307,28.60227124998346,2.0,Animal_Land_Pattern_Large,-5.0,,,,,,,,,,,
encoding,image,8,10976700,10977711,10977290.0,10977480.0,191.0,191.0,1622.3,876.0999999999999,1591.0,1269.0,Animal_Land_Pattern_Large,27.591252458980307,28.60227124998346,2.0,Animal_Land_Pattern_Large,-5.0,,,,,,,,,,,
encoding,image,8,10976700,10977711,10977488.0,10977803.0,316.0,223.0,1574.2,887.3,1591.0,1269.0,Animal_Land_Pattern_Large,27.591252458980307,28.60227124998346,2.0,Animal_Land_Pattern_Large,-5.0,,,,,,,,,,,
encoding,value,8,10977711,10983724,10977998.0,10978076.0,79.0,79.0,1552.9,895.0,1591.0,1269.0,Animal_Land_Pattern_Large,28.602370249922387,34.615320959012024,2.0,Animal_Land_Pattern_Large,-5.0,,,,,,,,,,,
encoding,value,8,10977711,10983724,10978095.0,10978392.0,298.0,298.0,1613.4,771.7,1591.0,1269.0,Animal_Land_Pattern_Large,28.602370249922387,34.615320959012024,2.0,Animal_Land_Pattern_Large,-5.0,,,,,,,,,,,
encoding,value,8,10977711,10983724,10978596.0,10979133.0,538.0,538.0,1552.1,906.4000000000001,1591.0,1269.0,Animal_Land_Pattern_Large,28.602370249922387,34.615320959012024,2.0,Animal_Land_Pattern_Large,-5.0,,,,,,,,,,,
encoding,value,8,10977711,10983724,10979152.0,10979340.0,189.0,189.0,1607.8,796.5,1591.0,1269.0,Animal_Land_Pattern_Large,28.602370249922387,34.615320959012024,2.0,Animal_Land_Pattern_Large,-5.0,,,,,,,,,,,
encoding,value,8,10977711,10983724,10979532.0,10979661.0,130.0,130.0,1624.9,797.5999999999999,1591.0,1269.0,Animal_Land_Pattern_Large,28.602370249922387,34.615320959012024,2.0,Animal_Land_Pattern_Large,-5.0,,,,,,,,,,,
encoding,value,8,10977711,10983724,10979857.0,10979952.0,96.0,96.0,1572.5,784.9000000000001,1591.0,1269.0,Animal_Land_Pattern_Large,28.602370249922387,34.615320959012024,2.0,Animal_Land_Pattern_Large,-5.0,,,,,,,,,,,
encoding,value,8,10977711,10983724,10980156.0,10980197.0,42.0,42.0,1545.1,750.2,1591.0,1269.0,Animal_Land_Pattern_Large,28.602370249922387,34.615320959012024,2.0,Animal_Land_Pattern_Large,-5.0,,,,,,,,,,,
encoding,value,8,10977711,10983724,10980406.0,10981156.0,751.0,751.0,1545.8,906.7,1591.0,1269.0,Animal_Land_Pattern_Large,28.602370249922387,34.615320959012024,2.0,Animal_Land_Pattern_Large,-5.0,,,,,,,,,,,
encoding,value,8,10977711,10983724,10981531.0,10981570.0,40.0,40.0,1573.1,724.0999999999999,1591.0,1269.0,Animal_Land_Pattern_Large,28.602370249922387,34.615320959012024,2.0,Animal_Land_Pattern_Large,-5.0,,,,,,,,,,,
encoding,value,8,10977711,10983724,10982039.0,10982063.0,25.0,25.0,749.4,363.4000000000001,,,none,28.602370249922387,34.615320959012024,2.0,Animal_Land_Pattern_Large,-5.0,,,,,,,,,,,
encoding,value,8,10977711,10983724,10982504.0,10982533.0,30.0,30.0,1603.8,613.5,1591.0,1269.0,Animal_Land_Pattern_Large,28.602370249922387,34.615320959012024,2.0,Animal_Land_Pattern_Large,-5.0,,,,,,,,,,,
encoding,value,8,10977711,10983724,10982998.0,10983179.0,182.0,182.0,1606.2,762.0999999999999,1591.0,1269.0,Animal_Land_Pattern_Large,28.602370249922387,34.615320959012024,2.0,Animal_Land_Pattern_Large,-5.0,,,,,,,,,,,
encoding,value,8,10977711,10983724,10983198.0,10983310.0,113.0,113.0,1569.0,895.5,1591.0,1269.0,Animal_Land_Pattern_Large,28.602370249922387,34.615320959012024,2.0,Animal_Land_Pattern_Large,-5.0,,,,,,,,,,,
encoding,attention,8,10983724,10986742,10984195.0,10984286.0,92.0,92.0,1638.8,813.9000000000001,1591.0,1269.0,Animal_Land_Pattern_Large,34.61543949996121,37.632901459001005,2.0,Animal_Land_Pattern_Large,-5.0,-5.0,1.0,1.0357553749345243,,,,,,,,
encoding,attention,8,10983724,10986742,10984299.0,10984422.0,124.0,124.0,1607.0,827.4000000000001,1591.0,1269.0,Animal_Land_Pattern_Large,34.61543949996121,37.632901459001005,2.0,Animal_Land_Pattern_Large,-5.0,-5.0,1.0,1.0357553749345243,,,,,,,,
encoding,attention,8,10983724,10986742,10984433.0,10984982.0,550.0,550.0,1539.3,800.9000000000001,1591.0,1269.0,Animal_Land_Pattern_Large,34.61543949996121,37.632901459001005,2.0,Animal_Land_Pattern_Large,-5.0,-5.0,1.0,1.0357553749345243,,,,,,,,
encoding,attention,8,10983724,10986742,10985427.0,10985516.0,90.0,90.0,1576.9,892.5,1591.0,1269.0,Animal_Land_Pattern_Large,34.61543949996121,37.632901459001005,2.0,Animal_Land_Pattern_Large,-5.0,-5.0,1.0,1.0357553749345243,,,,,,,,
encoding,attention,8,10983724,10986742,10985556.0,10985755.0,200.0,200.0,1919.7,1219.9,1920.0,700.0,Object_Land_Solid_Small,34.61543949996121,37.632901459001005,2.0,Animal_Land_Pattern_Large,-5.0,-5.0,1.0,1.0357553749345243,,,,,,,,
encoding,attention,8,10983724,10986742,10985850.0,10985919.0,70.0,70.0,1894.2,1953.9,,,none,34.61543949996121,37.632901459001005,2.0,Animal_Land_Pattern_Large,-5.0,-5.0,1.0,1.0357553749345243,,,,,,,,
encoding,attention,8,10983724,10986742,10986263.0,10986330.0,68.0,68.0,3270.0,3678.8,,,none,34.61543949996121,37.632901459001005,2.0,Animal_Land_Pattern_Large,-5.0,-5.0,1.0,1.0357553749345243,,,,,,,,
encoding,attention,8,10983724,10986742,10986640.0,10986670.0,31.0,31.0,1787.3,863.4000000000001,1591.0,1269.0,Animal_Land_Pattern_Large,34.61543949996121,37.632901459001005,2.0,Animal_Land_Pattern_Large,-5.0,-5.0,1.0,1.0357553749345243,,,,,,,,
encoding,fixation,9,10986742,10988246,10986852.0,10987039.0,188.0,188.0,1838.2,1108.8,1591.0,891.0,Animal_Sea_Solid_Small,37.63305241696071,39.13732833391987,2.0,Object_Land_Pattern_Small,1.0,,,,,,,,,,,
encoding,fixation,9,10986742,10988246,10987223.0,10987248.0,26.0,26.0,2229.9,1009.0,2249.0,1269.0,Object_Sea_Solid_Large,37.63305241696071,39.13732833391987,2.0,Object_Land_Pattern_Small,1.0,,,,,,,,,,,
encoding,fixation,9,10986742,10988246,10987437.0,10987473.0,37.0,37.0,2821.7,965.8,,,none,37.63305241696071,39.13732833391987,2.0,Object_Land_Pattern_Small,1.0,,,,,,,,,,,
encoding,fixation,9,10986742,10988246,10987861.0,10988042.0,182.0,182.0,1865.2,1124.1,1591.0,891.0,Animal_Sea_Solid_Small,37.63305241696071,39.13732833391987,2.0,Object_Land_Pattern_Small,1.0,,,,,,,,,,,
encoding,fixation,9,10986742,10988246,10988069.0,10988273.0,205.0,177.0,1615.8,982.9000000000001,1591.0,1269.0,Animal_Land_Pattern_Large,37.63305241696071,39.13732833391987,2.0,Object_Land_Pattern_Small,1.0,,,,,,,,,,,
encoding,image,9,10988246,10989258,10988509.0,10988554.0,46.0,46.0,1609.0,775.5999999999999,1591.0,1269.0,Animal_Land_Pattern_Large,39.137450583977625,40.14882004202809,2.0,Object_Land_Pattern_Small,1.0,,,,,,,,,,,
encoding,image,9,10988246,10989258,10988802.0,10988853.0,52.0,52.0,1610.9,1000.7,1591.0,1269.0,Animal_Land_Pattern_Large,39.137450583977625,40.14882004202809,2.0,Object_Land_Pattern_Small,1.0,,,,,,,,,,,
encoding,image,9,10988246,10989258,10988904.0,10989232.0,329.0,329.0,2281.7,1300.1,2249.0,891.0,Object_Land_Pattern_Small,39.137450583977625,40.14882004202809,2.0,Object_Land_Pattern_Small,1.0,,,,,,,,,,,
encoding,value,9,10989258,10995269,10989409.0,10989453.0,45.0,45.0,2263.7,1232.6,2249.0,891.0,Object_Land_Pattern_Small,40.14893383393064,46.16025737498421,2.0,Object_Land_Pattern_Small,1.0,,,,,,,,,,,
encoding,value,9,10989258,10995269,10989612.0,10989742.0,131.0,131.0,2287.6,1175.9,2249.0,891.0,Object_Land_Pattern_Small,40.14893383393064,46.16025737498421,2.0,Object_Land_Pattern_Small,1.0,,,,,,,,,,,
encoding,value,9,10989258,10995269,10989913.0,10990001.0,89.0,89.0,2247.8,1208.6,2249.0,891.0,Object_Land_Pattern_Small,40.14893383393064,46.16025737498421,2.0,Object_Land_Pattern_Small,1.0,,,,,,,,,,,
encoding,value,9,10989258,10995269,10990072.0,10990113.0,42.0,42.0,1664.0,574.0999999999999,1920.0,1460.0,Animal_Sea_Pattern_Large,40.14893383393064,46.16025737498421,2.0,Object_Land_Pattern_Small,1.0,,,,,,,,,,,
encoding,value,9,10989258,10995269,10991239.0,10991359.0,121.0,121.0,2247.8,1283.5,2249.0,891.0,Object_Land_Pattern_Small,40.14893383393064,46.16025737498421,2.0,Object_Land_Pattern_Small,1.0,,,,,,,,,,,
encoding,value,9,10989258,10995269,10991535.0,10991605.0,71.0,71.0,1775.3,1486.2,1920.0,700.0,Object_Land_Solid_Small,40.14893383393064,46.16025737498421,2.0,Object_Land_Pattern_Small,1.0,,,,,,,,,,,
encoding,value,9,10989258,10995269,10991702.0,10991846.0,145.0,145.0,2919.6,2982.3,,,none,40.14893383393064,46.16025737498421,2.0,Object_Land_Pattern_Small,1.0,,,,,,,,,,,
encoding,value,9,10989258,10995269,10991884.0,10991998.0,115.0,115.0,2529.4,2728.7,,,none,40.14893383393064,46.16025737498421,2.0,Object_Land_Pattern_Small,1.0,,,,,,,,,,,
encoding,value,9,10989258,10995269,10993029.0,10993177.0,149.0,149.0,2250.1,1243.5,2249.0,891.0,Object_Land_Pattern_Small,40.14893383393064,46.16025737498421,2.0,Object_Land_Pattern_Small,1.0,,,,,,,,,,,
encoding,value,9,10989258,10995269,10993197.0,10993301.0,105.0,105.0,2257.1,1144.0,2249.0,891.0,Object_Land_Pattern_Small,40.14893383393064,46.16025737498421,2.0,Object_Land_Pattern_Small,1.0,,,,,,,,,,,
encoding,value,9,10989258,10995269,10993545.0,10994189.0,645.0,645.0,2259.7,1162.3,2249.0,891.0,Object_Land_Pattern_Small,40.14893383393064,46.16025737498421,2.0,Object_Land_Pattern_Small,1.0,,,,,,,,,,,
encoding,value,9,10989258,10995269,10994207.0,10994389.0,183.0,183.0,2267.0,1283.1,2249.0,891.0,Object_Land_Pattern_Small,40.14893383393064,46.16025737498421,2.0,Object_Land_Pattern_Small,1.0,,,,,,,,,,,
encoding,value,9,10989258,10995269,10994407.0,10994457.0,51.0,51.0,2264.8,1170.3,2249.0,891.0,Object_Land_Pattern_Small,40.14893383393064,46.16025737498421,2.0,Object_Land_Pattern_Small,1.0,,,,,,,,,,,
encoding,value,9,10989258,10995269,10994681.0,10994881.0,201.0,201.0,2267.9,1170.4,2249.0,891.0,Object_Land_Pattern_Small,40.14893383393064,46.16025737498421,2.0,Object_Land_Pattern_Small,1.0,,,,,,,,,,,
encoding,value,9,10989258,10995269,10994903.0,10995080.0,178.0,178.0,2257.0,1304.8,2249.0,891.0,Object_Land_Pattern_Small,40.14893383393064,46.16025737498421,2.0,Object_Land_Pattern_Small,1.0,,,,,,,,,,,
encoding,value,9,10989258,10995269,10995099.0,10995326.0,228.0,170.0,2278.0,1187.2,2249.0,891.0,Object_Land_Pattern_Small,40.14893383393064,46.16025737498421,2.0,Object_Land_Pattern_Small,1.0,,,,,,,,,,,
encoding,attention,9,10995269,10998286,10995524.0,10995607.0,84.0,84.0,2255.3,1275.7,2249.0,891.0,Object_Land_Pattern_Small,46.16037120902911,49.17679866694379,2.0,Object_Land_Pattern_Small,1.0,1.0,1.0,0.8312617080518976,,,,,,,,
encoding,attention,9,10995269,10998286,10995625.0,10996401.0,777.0,777.0,2298.2,1187.7,2249.0,891.0,Object_Land_Pattern_Small,46.16037120902911,49.17679866694379,2.0,Object_Land_Pattern_Small,1.0,1.0,1.0,0.8312617080518976,,,,,,,,
encoding,attention,9,10995269,10998286,10998120.0,10998181.0,62.0,62.0,1020.3,-1110.0,,,none,46.16037120902911,49.17679866694379,2.0,Object_Land_Pattern_Small,1.0,1.0,1.0,0.8312617080518976,,,,,,,,
encoding,fixation,10,10998286,10999043,10998387.0,10998414.0,28.0,28.0,2054.2,1071.1,2249.0,1269.0,Object_Sea_Solid_Large,49.176944458973594,49.93338833400048,2.0,Animal_Sea_Solid_Small,-5.0,,,,,,,,,,,
encoding,fixation,10,10998286,10999043,10998588.0,10998715.0,128.0,128.0,2017.8,1195.2,2249.0,891.0,Object_Land_Pattern_Small,49.176944458973594,49.93338833400048,2.0,Animal_Sea_Solid_Small,-5.0,,,,,,,,,,,
encoding,fixation,10,10998286,10999043,10998766.0,10998830.0,65.0,65.0,1406.4,1406.9,,,none,49.176944458973594,49.93338833400048,2.0,Animal_Sea_Solid_Small,-5.0,,,,,,,,,,,
encoding,fixation,10,10998286,10999043,10998948.0,10999018.0,71.0,71.0,3270.0,3508.0,,,none,49.176944458973594,49.93338833400048,2.0,Animal_Sea_Solid_Small,-5.0,,,,,,,,,,,
encoding,image,10,10999043,11000054,10999091.0,10999129.0,39.0,39.0,3270.0,3643.1,,,none,49.933485292014666,50.94437974994071,2.0,Animal_Sea_Solid_Small,-5.0,,,,,,,,,,,
encoding,image,10,10999043,11000054,10999138.0,10999265.0,128.0,128.0,3270.0,3718.7,,,none,49.933485292014666,50.94437974994071,2.0,Animal_Sea_Solid_Small,-5.0,,,,,,,,,,,
encoding,image,10,10999043,11000054,10999284.0,10999305.0,22.0,22.0,3270.0,3591.1,,,none,49.933485292014666,50.94437974994071,2.0,Animal_Sea_Solid_Small,-5.0,,,,,,,,,,,
encoding,image,10,10999043,11000054,10999690.0,10999745.0,56.0,56.0,1839.5,1465.7,1920.0,700.0,Object_Land_Solid_Small,49.933485292014666,50.94437974994071,2.0,Animal_Sea_Solid_Small,-5.0,,,,,,,,,,,
encoding,image,10,10999043,11000054,10999918.0,11000413.0,496.0,136.0,1563.2,1251.7,1591.0,891.0,Animal_Sea_Solid_Small,49.933485292014666,50.94437974994071,2.0,Animal_Sea_Solid_Small,-5.0,,,,,,,,,,,
encoding,value,10,11000054,11006066,11000624.0,11000667.0,44.0,44.0,1605.7,1192.7,1591.0,891.0,Animal_Sea_Solid_Small,50.944532125024125,56.95621362503152,2.0,Animal_Sea_Solid_Small,-5.0,,,,,,,,,,,
encoding,value,10,11000054,11006066,11000861.0,11001331.0,471.0,471.0,1609.4,1255.5,1591.0,891.0,Animal_Sea_Solid_Small,50.944532125024125,56.95621362503152,2.0,Animal_Sea_Solid_Small,-5.0,,,,,,,,,,,
encoding,value,10,11000054,11006066,11001511.0,11001658.0,148.0,148.0,1603.9,1147.2,1591.0,891.0,Animal_Sea_Solid_Small,50.944532125024125,56.95621362503152,2.0,Animal_Sea_Solid_Small,-5.0,,,,,,,,,,,
encoding,value,10,11000054,11006066,11001678.0,11002313.0,636.0,636.0,1590.0,1262.9,1591.0,891.0,Animal_Sea_Solid_Small,50.944532125024125,56.95621362503152,2.0,Animal_Sea_Solid_Small,-5.0,,,,,,,,,,,
encoding,value,10,11000054,11006066,11004045.0,11004110.0,66.0,66.0,693.7,1064.4,,,none,50.944532125024125,56.95621362503152,2.0,Animal_Sea_Solid_Small,-5.0,,,,,,,,,,,
encoding,value,10,11000054,11006066,11004343.0,11004769.0,427.0,427.0,1583.9,1123.7,1591.0,891.0,Animal_Sea_Solid_Small,50.944532125024125,56.95621362503152,2.0,Animal_Sea_Solid_Small,-5.0,,,,,,,,,,,
encoding,value,10,11000054,11006066,11004786.0,11005023.0,238.0,238.0,1620.6,1276.9,1591.0,891.0,Animal_Sea_Solid_Small,50.944532125024125,56.95621362503152,2.0,Animal_Sea_Solid_Small,-5.0,,,,,,,,,,,
encoding,value,10,11000054,11006066,11005040.0,11005559.0,520.0,520.0,1622.9,1182.7,1591.0,891.0,Animal_Sea_Solid_Small,50.944532125024125,56.95621362503152,2.0,Animal_Sea_Solid_Small,-5.0,,,,,,,,,,,
encoding,attention,10,11006066,11009083,11006144.0,11006400.0,257.0,257.0,1564.9,1052.2,1591.0,1269.0,Animal_Land_Pattern_Large,56.956335333990864,59.97343433392234,2.0,Animal_Sea_Solid_Small,-5.0,-5.0,1.0,0.8144727499457076,,,,,,,,
encoding,attention,10,11006066,11009083,11006408.0,11006521.0,114.0,114.0,1640.4,1194.8,1591.0,891.0,Animal_Sea_Solid_Small,56.956335333990864,59.97343433392234,2.0,Animal_Sea_Solid_Small,-5.0,-5.0,1.0,0.8144727499457076,,,,,,,,
encoding,attention,10,11006066,11009083,11006537.0,11006641.0,105.0,105.0,1545.7,1180.3,1591.0,891.0,Animal_Sea_Solid_Small,56.956335333990864,59.97343433392234,2.0,Animal_Sea_Solid_Small,-5.0,-5.0,1.0,0.8144727499457076,,,,,,,,
encoding,attention,10,11006066,11009083,11006834.0,11007221.0,388.0,388.0,1562.9,1148.8,1591.0,891.0,Animal_Sea_Solid_Small,56.956335333990864,59.97343433392234,2.0,Animal_Sea_Solid_Small,-5.0,-5.0,1.0,0.8144727499457076,,,,,,,,
encoding,attention,10,11006066,11009083,11007238.0,11007407.0,170.0,170.0,1607.6,1261.3,1591.0,891.0,Animal_Sea_Solid_Small,56.956335333990864,59.97343433392234,2.0,Animal_Sea_Solid_Small,-5.0,-5.0,1.0,0.8144727499457076,,,,,,,,
encoding,attention,10,11006066,11009083,11007568.0,11007728.0,161.0,161.0,2585.6,2457.2,,,none,56.956335333990864,59.97343433392234,2.0,Animal_Sea_Solid_Small,-5.0,-5.0,1.0,0.8144727499457076,,,,,,,,
encoding,attention,10,11006066,11009083,11007787.0,11007900.0,114.0,114.0,3169.8,3193.4,,,none,56.956335333990864,59.97343433392234,2.0,Animal_Sea_Solid_Small,-5.0,-5.0,1.0,0.8144727499457076,,,,,,,,
encoding,attention,10,11006066,11009083,11008033.0,11008147.0,115.0,115.0,3243.7,2983.1,,,none,56.956335333990864,59.97343433392234,2.0,Animal_Sea_Solid_Small,-5.0,-5.0,1.0,0.8144727499457076,,,,,,,,
encoding,attention,10,11006066,11009083,11008300.0,11008427.0,128.0,128.0,2285.9,2646.5,,,none,56.956335333990864,59.97343433392234,2.0,Animal_Sea_Solid_Small,-5.0,-5.0,1.0,0.8144727499457076,,,,,,,,
encoding,attention,10,11006066,11009083,11008601.0,11008663.0,63.0,63.0,2733.0,1712.6,,,none,56.956335333990864,59.97343433392234,2.0,Animal_Sea_Solid_Small,-5.0,-5.0,1.0,0.8144727499457076,,,,,,,,
encoding,attention,10,11006066,11009083,11008823.0,11008890.0,68.0,68.0,3146.5,1286.2,,,none,56.956335333990864,59.97343433392234,2.0,Animal_Sea_Solid_Small,-5.0,-5.0,1.0,0.8144727499457076,,,,,,,,
encoding,fixation,11,11009083,11009589,,,,,,,,,none,59.97358012502082,60.47926362499129,2.0,Object_Sea_Solid_Large,-5.0,,,,,,,,,,,
encoding,image,11,11009589,11010600,11010417.0,11010440.0,24.0,24.0,1376.5,879.0999999999999,1591.0,1269.0,Animal_Land_Pattern_Large,60.47937429195736,61.49063133401796,2.0,Object_Sea_Solid_Large,-5.0,,,,,,,,,,,
encoding,value,11,11010601,11016613,11010640.0,11010679.0,40.0,40.0,1710.7,1024.1,1591.0,1269.0,Animal_Land_Pattern_Large,61.490777499973774,67.50244829198346,2.0,Object_Sea_Solid_Large,-5.0,,,,,,,,,,,
encoding,value,11,11010601,11016613,11010866.0,11011107.0,242.0,242.0,1845.4,1060.6,1591.0,1269.0,Animal_Land_Pattern_Large,61.490777499973774,67.50244829198346,2.0,Object_Sea_Solid_Large,-5.0,,,,,,,,,,,
encoding,value,11,11010601,11016613,11011159.0,11011320.0,162.0,162.0,1147.9,797.9000000000001,,,none,61.490777499973774,67.50244829198346,2.0,Object_Sea_Solid_Large,-5.0,,,,,,,,,,,
encoding,value,11,11010601,11016613,11011347.0,11011508.0,162.0,162.0,865.7,617.2,,,none,61.490777499973774,67.50244829198346,2.0,Object_Sea_Solid_Large,-5.0,,,,,,,,,,,
encoding,value,11,11010601,11016613,11011551.0,11011661.0,111.0,111.0,-494.3,3703.9,,,none,61.490777499973774,67.50244829198346,2.0,Object_Sea_Solid_Large,-5.0,,,,,,,,,,,
encoding,value,11,11010601,11016613,11011764.0,11012044.0,281.0,281.0,2298.0,806.2,2249.0,1269.0,Object_Sea_Solid_Large,61.490777499973774,67.50244829198346,2.0,Object_Sea_Solid_Large,-5.0,,,,,,,,,,,
encoding,value,11,11010601,11016613,11012064.0,11012165.0,102.0,102.0,2291.4,912.2,2249.0,1269.0,Object_Sea_Solid_Large,61.490777499973774,67.50244829198346,2.0,Object_Sea_Solid_Large,-5.0,,,,,,,,,,,
encoding,value,11,11010601,11016613,11012384.0,11012415.0,32.0,32.0,2277.8,933.3,2249.0,1269.0,Object_Sea_Solid_Large,61.490777499973774,67.50244829198346,2.0,Object_Sea_Solid_Large,-5.0,,,,,,,,,,,
encoding,value,11,11010601,11016613,11012437.0,11012515.0,79.0,79.0,2299.5,794.7,2249.0,1269.0,Object_Sea_Solid_Large,61.490777499973774,67.50244829198346,2.0,Object_Sea_Solid_Large,-5.0,,,,,,,,,,,
encoding,value,11,11010601,11016613,11012775.0,11012915.0,141.0,141.0,2277.5,934.2,2249.0,1269.0,Object_Sea_Solid_Large,61.490777499973774,67.50244829198346,2.0,Object_Sea_Solid_Large,-5.0,,,,,,,,,,,
encoding,value,11,11010601,11016613,11013096.0,11013232.0,137.0,137.0,1945.1,1133.9,1920.0,1080.0,fixation,61.490777499973774,67.50244829198346,2.0,Object_Sea_Solid_Large,-5.0,,,,,,,,,,,
encoding,value,11,11010601,11016613,11013272.0,11013398.0,127.0,127.0,2313.5,866.9000000000001,2249.0,1269.0,Object_Sea_Solid_Large,61.490777499973774,67.50244829198346,2.0,Object_Sea_Solid_Large,-5.0,,,,,,,,,,,
encoding,value,11,11010601,11016613,11013648.0,11013805.0,158.0,158.0,2280.5,883.5999999999999,2249.0,1269.0,Object_Sea_Solid_Large,61.490777499973774,67.50244829198346,2.0,Object_Sea_Solid_Large,-5.0,,,,,,,,,,,
encoding,value,11,11010601,11016613,11013812.0,11013995.0,184.0,184.0,2283.9,934.4000000000001,2249.0,1269.0,Object_Sea_Solid_Large,61.490777499973774,67.50244829198346,2.0,Object_Sea_Solid_Large,-5.0,,,,,,,,,,,
encoding,value,11,11010601,11016613,11014013.0,11014195.0,183.0,183.0,2310.3,819.7,2249.0,1269.0,Object_Sea_Solid_Large,61.490777499973774,67.50244829198346,2.0,Object_Sea_Solid_Large,-5.0,,,,,,,,,,,
encoding,value,11,11010601,11016613,11014418.0,11014535.0,118.0,118.0,2297.6,909.4000000000001,2249.0,1269.0,Object_Sea_Solid_Large,61.490777499973774,67.50244829198346,2.0,Object_Sea_Solid_Large,-5.0,,,,,,,,,,,
encoding,value,11,11010601,11016613,11014555.0,11014687.0,133.0,133.0,2304.4,794.2,2249.0,1269.0,Object_Sea_Solid_Large,61.490777499973774,67.50244829198346,2.0,Object_Sea_Solid_Large,-5.0,,,,,,,,,,,
encoding,value,11,11010601,11016613,11015171.0,11015292.0,122.0,122.0,2276.0,801.4000000000001,2249.0,1269.0,Object_Sea_Solid_Large,61.490777499973774,67.50244829198346,2.0,Object_Sea_Solid_Large,-5.0,,,,,,,,,,,
encoding,value,11,11010601,11016613,11015794.0,11015856.0,63.0,63.0,1685.5,1037.5,1591.0,1269.0,Animal_Land_Pattern_Large,61.490777499973774,67.50244829198346,2.0,Object_Sea_Solid_Large,-5.0,,,,,,,,,,,
encoding,value,11,11010601,11016613,11016060.0,11016193.0,134.0,134.0,1458.3,1170.3,1591.0,891.0,Animal_Sea_Solid_Small,61.490777499973774,67.50244829198346,2.0,Object_Sea_Solid_Large,-5.0,,,,,,,,,,,
encoding,value,11,11010601,11016613,11016250.0,11016409.0,160.0,160.0,849.9,752.9000000000001,,,none,61.490777499973774,67.50244829198346,2.0,Object_Sea_Solid_Large,-5.0,,,,,,,,,,,
encoding,value,11,11010601,11016613,11016454.0,11016539.0,86.0,86.0,307.0,571.0999999999999,,,none,61.490777499973774,67.50244829198346,2.0,Object_Sea_Solid_Large,-5.0,,,,,,,,,,,
encoding,attention,11,11016613,11019632,11016756.0,11016904.0,149.0,149.0,2282.2,808.5999999999999,2249.0,1269.0,Object_Sea_Solid_Large,67.50255945895333,70.5217426669551,2.0,Object_Sea_Solid_Large,-5.0,-5.0,1.0,1.360217334004119,,,,,,,,
encoding,attention,11,11016613,11019632,11016914.0,11017044.0,131.0,131.0,2327.9,780.3,2249.0,1269.0,Object_Sea_Solid_Large,67.50255945895333,70.5217426669551,2.0,Object_Sea_Solid_Large,-5.0,-5.0,1.0,1.360217334004119,,,,,,,,
encoding,attention,11,11016613,11019632,11017060.0,11017187.0,128.0,128.0,2239.3,776.8,2249.0,1269.0,Object_Sea_Solid_Large,67.50255945895333,70.5217426669551,2.0,Object_Sea_Solid_Large,-5.0,-5.0,1.0,1.360217334004119,,,,,,,,
encoding,attention,11,11016613,11019632,11017422.0,11017594.0,173.0,173.0,2229.4,780.7,2249.0,1269.0,Object_Sea_Solid_Large,67.50255945895333,70.5217426669551,2.0,Object_Sea_Solid_Large,-5.0,-5.0,1.0,1.360217334004119,,,,,,,,
encoding,attention,11,11016613,11019632,11018003.0,11018303.0,301.0,301.0,2247.2,805.0999999999999,2249.0,1269.0,Object_Sea_Solid_Large,67.50255945895333,70.5217426669551,2.0,Object_Sea_Solid_Large,-5.0,-5.0,1.0,1.360217334004119,,,,,,,,
encoding,attention,11,11016613,11019632,11018549.0,11018738.0,190.0,190.0,2268.4,948.7,2249.0,1269.0,Object_Sea_Solid_Large,67.50255945895333,70.5217426669551,2.0,Object_Sea_Solid_Large,-5.0,-5.0,1.0,1.360217334004119,,,,,,,,
encoding,attention,11,11016613,11019632,11018747.0,11018836.0,90.0,90.0,2296.9,904.4000000000001,2249.0,1269.0,Object_Sea_Solid_Large,67.50255945895333,70.5217426669551,2.0,Object_Sea_Solid_Large,-5.0,-5.0,1.0,1.360217334004119,,,,,,,,
encoding,attention,11,11016613,11019632,11019052.0,11019154.0,103.0,103.0,1984.6,1122.6,2249.0,891.0,Object_Land_Pattern_Small,67.50255945895333,70.5217426669551,2.0,Object_Sea_Solid_Large,-5.0,-5.0,1.0,1.360217334004119,,,,,,,,
encoding,attention,11,11016613,11019632,11019332.0,11019384.0,53.0,53.0,1921.0,1300.0,1920.0,700.0,Object_Land_Solid_Small,67.50255945895333,70.5217426669551,2.0,Object_Sea_Solid_Large,-5.0,-5.0,1.0,1.360217334004119,,,,,,,,
encoding,fixation,12,11019632,11020388,11019731.0,11019884.0,154.0,154.0,1197.4,1708.5,,,none,70.52190383395646,71.27751345897559,2.0,Animal_Sea_Pattern_Large,5.0,,,,,,,,,,,
encoding,fixation,12,11019632,11020388,11019932.0,11020078.0,147.0,147.0,1683.6,1862.0,,,none,70.52190383395646,71.27751345897559,2.0,Animal_Sea_Pattern_Large,5.0,,,,,,,,,,,
encoding,image,12,11020388,11021398,11020914.0,11021225.0,312.0,312.0,1912.8,736.8,1920.0,1460.0,Animal_Sea_Pattern_Large,71.27763066696934,72.28796120896004,2.0,Animal_Sea_Pattern_Large,5.0,,,,,,,,,,,
encoding,value,12,11021398,11027409,11021539.0,11021594.0,56.0,56.0,813.6,608.7,,,none,72.28806345898192,78.29844687494915,2.0,Animal_Sea_Pattern_Large,5.0,,,,,,,,,,,
encoding,value,12,11021398,11027409,11022634.0,11022658.0,25.0,25.0,439.4,-789.9000000000001,,,none,72.28806345898192,78.29844687494915,2.0,Animal_Sea_Pattern_Large,5.0,,,,,,,,,,,
encoding,value,12,11021398,11027409,11022924.0,11023020.0,97.0,97.0,1981.0,739.0999999999999,1920.0,1460.0,Animal_Sea_Pattern_Large,72.28806345898192,78.29844687494915,2.0,Animal_Sea_Pattern_Large,5.0,,,,,,,,,,,
encoding,value,12,11021398,11027409,11023041.0,11023180.0,140.0,140.0,1931.7,626.0,1920.0,1460.0,Animal_Sea_Pattern_Large,72.28806345898192,78.29844687494915,2.0,Animal_Sea_Pattern_Large,5.0,,,,,,,,,,,
encoding,value,12,11021398,11027409,11023188.0,11023412.0,225.0,225.0,1943.6,582.5,1920.0,1460.0,Animal_Sea_Pattern_Large,72.28806345898192,78.29844687494915,2.0,Animal_Sea_Pattern_Large,5.0,,,,,,,,,,,
encoding,value,12,11021398,11027409,11023432.0,11023663.0,232.0,232.0,1920.8,717.3,1920.0,1460.0,Animal_Sea_Pattern_Large,72.28806345898192,78.29844687494915,2.0,Animal_Sea_Pattern_Large,5.0,,,,,,,,,,,
encoding,value,12,11021398,11027409,11023933.0,11024099.0,167.0,167.0,1421.9,779.3,,,none,72.28806345898192,78.29844687494915,2.0,Animal_Sea_Pattern_Large,5.0,,,,,,,,,,,
encoding,value,12,11021398,11027409,11025745.0,11025783.0,39.0,39.0,1589.5,870.9000000000001,1591.0,1269.0,Animal_Land_Pattern_Large,72.28806345898192,78.29844687494915,2.0,Animal_Sea_Pattern_Large,5.0,,,,,,,,,,,
encoding,value,12,11021398,11027409,11025982.0,11026075.0,94.0,94.0,1562.3,1068.8,1591.0,1269.0,Animal_Land_Pattern_Large,72.28806345898192,78.29844687494915,2.0,Animal_Sea_Pattern_Large,5.0,,,,,,,,,,,
encoding,value,12,11021398,11027409,11026122.0,11026374.0,253.0,253.0,1947.7,607.0999999999999,1920.0,1460.0,Animal_Sea_Pattern_Large,72.28806345898192,78.29844687494915,2.0,Animal_Sea_Pattern_Large,5.0,,,,,,,,,,,
encoding,value,12,11021398,11027409,11026389.0,11026560.0,172.0,172.0,1920.8,697.0,1920.0,1460.0,Animal_Sea_Pattern_Large,72.28806345898192,78.29844687494915,2.0,Animal_Sea_Pattern_Large,5.0,,,,,,,,,,,
encoding,value,12,11021398,11027409,11026579.0,11026687.0,109.0,109.0,1942.2,578.5,1920.0,1460.0,Animal_Sea_Pattern_Large,72.28806345898192,78.29844687494915,2.0,Animal_Sea_Pattern_Large,5.0,,,,,,,,,,,
encoding,attention,12,11027409,11030425,11027502.0,11027678.0,177.0,177.0,1866.4,693.7,1920.0,1460.0,Animal_Sea_Pattern_Large,78.2985744170146,81.31473029195331,2.0,Animal_Sea_Pattern_Large,5.0,5.0,1.0,0.6403940840391442,,,,,,,,
encoding,attention,12,11027409,11030425,11027696.0,11027986.0,291.0,291.0,1898.9,592.2,1920.0,1460.0,Animal_Sea_Pattern_Large,78.2985744170146,81.31473029195331,2.0,Animal_Sea_Pattern_Large,5.0,5.0,1.0,0.6403940840391442,,,,,,,,
encoding,attention,12,11027409,11030425,11028059.0,11028307.0,249.0,249.0,1405.0,1564.4,,,none,78.2985744170146,81.31473029195331,2.0,Animal_Sea_Pattern_Large,5.0,5.0,1.0,0.6403940840391442,,,,,,,,
encoding,attention,12,11027409,11030425,11028397.0,11028551.0,155.0,155.0,2432.4,1994.8,,,none,78.2985744170146,81.31473029195331,2.0,Animal_Sea_Pattern_Large,5.0,5.0,1.0,0.6403940840391442,,,,,,,,
encoding,attention,12,11027409,11030425,11028577.0,11028721.0,145.0,145.0,2209.9,2195.1,,,none,78.2985744170146,81.31473029195331,2.0,Animal_Sea_Pattern_Large,5.0,5.0,1.0,0.6403940840391442,,,,,,,,
encoding,attention,12,11027409,11030425,11028753.0,11028955.0,203.0,203.0,2703.8,2052.5,,,none,78.2985744170146,81.31473029195331,2.0,Animal_Sea_Pattern_Large,5.0,5.0,1.0,0.6403940840391442,,,,,,,,
encoding,attention,12,11027409,11030425,11029038.0,11029203.0,166.0,166.0,2622.7,2799.9,,,none,78.2985744170146,81.31473029195331,2.0,Animal_Sea_Pattern_Large,5.0,5.0,1.0,0.6403940840391442,,,,,,,,
encoding,attention,12,11027409,11030425,11029316.0,11029355.0,40.0,40.0,2389.1,1782.5,,,none,78.2985744170146,81.31473029195331,2.0,Animal_Sea_Pattern_Large,5.0,5.0,1.0,0.6403940840391442,,,,,,,,
encoding,attention,12,11027409,11030425,11029495.0,11029724.0,230.0,230.0,1297.8,1750.4,,,none,78.2985744170146,81.31473029195331,2.0,Animal_Sea_Pattern_Large,5.0,5.0,1.0,0.6403940840391442,,,,,,,,
encoding,attention,12,11027409,11030425,11029774.0,11029851.0,78.0,78.0,1587.5,1341.9,1591.0,891.0,Animal_Sea_Solid_Small,78.2985744170146,81.31473029195331,2.0,Animal_Sea_Pattern_Large,5.0,5.0,1.0,0.6403940840391442,,,,,,,,
encoding,attention,12,11027409,11030425,11030076.0,11030125.0,50.0,50.0,1957.5,701.7,1920.0,1460.0,Animal_Sea_Pattern_Large,78.2985744170146,81.31473029195331,2.0,Animal_Sea_Pattern_Large,5.0,5.0,1.0,0.6403940840391442,,,,,,,,
encoding,attention,12,11027409,11030425,11030148.0,11030412.0,265.0,265.0,1931.6,597.0,1920.0,1460.0,Animal_Sea_Pattern_Large,78.2985744170146,81.31473029195331,2.0,Animal_Sea_Pattern_Large,5.0,5.0,1.0,0.6403940840391442,,,,,,,,
encoding,fixation,13,11414045,11415552,11414052.0,11414251.0,200.0,200.0,2086.3,856.0,2249.0,1269.0,Object_Sea_Solid_Large,21.68558912503067,23.191937791067176,3.0,Animal_Land_Pattern_Large,-4.0,,,,,,,,,,,
encoding,fixation,13,11414045,11415552,11415335.0,11415433.0,99.0,99.0,1888.1,1348.1,1920.0,700.0,Object_Land_Pattern_Large,21.68558912503067,23.191937791067176,3.0,Animal_Land_Pattern_Large,-4.0,,,,,,,,,,,
encoding,image,13,11415552,11416563,11415608.0,11415760.0,153.0,153.0,1898.9,1438.3,1920.0,700.0,Object_Land_Pattern_Large,23.192066916031763,24.203304458060305,3.0,Animal_Land_Pattern_Large,-4.0,,,,,,,,,,,
encoding,image,13,11415552,11416563,11415812.0,11415948.0,137.0,137.0,1577.8,824.4000000000001,1591.0,1269.0,Animal_Land_Pattern_Large,23.192066916031763,24.203304458060305,3.0,Animal_Land_Pattern_Large,-4.0,,,,,,,,,,,
encoding,image,13,11415552,11416563,11415961.0,11416071.0,111.0,111.0,1559.8,894.8,1591.0,1269.0,Animal_Land_Pattern_Large,23.192066916031763,24.203304458060305,3.0,Animal_Land_Pattern_Large,-4.0,,,,,,,,,,,
encoding,image,13,11415552,11416563,11416246.0,11416285.0,40.0,40.0,1540.1,846.4000000000001,1591.0,1269.0,Animal_Land_Pattern_Large,23.192066916031763,24.203304458060305,3.0,Animal_Land_Pattern_Large,-4.0,,,,,,,,,,,
encoding,image,13,11415552,11416563,11416537.0,11416574.0,38.0,26.0,1559.1,715.0999999999999,1591.0,1269.0,Animal_Land_Pattern_Large,23.192066916031763,24.203304458060305,3.0,Animal_Land_Pattern_Large,-4.0,,,,,,,,,,,
encoding,value,13,11416563,11422577,11416769.0,11416805.0,37.0,37.0,1536.7,667.8,1591.0,1269.0,Animal_Land_Pattern_Large,24.203418166027404,30.21661729097832,3.0,Animal_Land_Pattern_Large,-4.0,,,,,,,,,,,
encoding,value,13,11416563,11422577,11417017.0,11417075.0,59.0,59.0,1543.6,672.2,1591.0,1269.0,Animal_Land_Pattern_Large,24.203418166027404,30.21661729097832,3.0,Animal_Land_Pattern_Large,-4.0,,,,,,,,,,,
encoding,value,13,11416563,11422577,11417134.0,11417269.0,136.0,136.0,695.6,535.3,,,none,24.203418166027404,30.21661729097832,3.0,Animal_Land_Pattern_Large,-4.0,,,,,,,,,,,
encoding,value,13,11416563,11422577,11417315.0,11417485.0,171.0,171.0,-331.8,975.7,,,none,24.203418166027404,30.21661729097832,3.0,Animal_Land_Pattern_Large,-4.0,,,,,,,,,,,
encoding,value,13,11416563,11422577,11417538.0,11417773.0,236.0,236.0,-161.8,-215.5999999999999,,,none,24.203418166027404,30.21661729097832,3.0,Animal_Land_Pattern_Large,-4.0,,,,,,,,,,,
encoding,value,13,11416563,11422577,11419155.0,11419305.0,151.0,151.0,1525.0,891.0,1591.0,1269.0,Animal_Land_Pattern_Large,24.203418166027404,30.21661729097832,3.0,Animal_Land_Pattern_Large,-4.0,,,,,,,,,,,
encoding,value,13,11416563,11422577,11419326.0,11419522.0,197.0,197.0,1584.3,769.0,1591.0,1269.0,Animal_Land_Pattern_Large,24.203418166027404,30.21661729097832,3.0,Animal_Land_Pattern_Large,-4.0,,,,,,,,,,,
encoding,value,13,11416563,11422577,11419541.0,11419611.0,71.0,71.0,1585.1,891.5,1591.0,1269.0,Animal_Land_Pattern_Large,24.203418166027404,30.21661729097832,3.0,Animal_Land_Pattern_Large,-4.0,,,,,,,,,,,
encoding,value,13,11416563,11422577,11419818.0,11419899.0,82.0,82.0,1577.9,905.5,1591.0,1269.0,Animal_Land_Pattern_Large,24.203418166027404,30.21661729097832,3.0,Animal_Land_Pattern_Large,-4.0,,,,,,,,,,,
encoding,value,13,11416563,11422577,11419917.0,11420120.0,204.0,204.0,1593.9,777.0999999999999,1591.0,1269.0,Animal_Land_Pattern_Large,24.203418166027404,30.21661729097832,3.0,Animal_Land_Pattern_Large,-4.0,,,,,,,,,,,
encoding,value,13,11416563,11422577,11420347.0,11420716.0,370.0,370.0,1602.2,784.3,1591.0,1269.0,Animal_Land_Pattern_Large,24.203418166027404,30.21661729097832,3.0,Animal_Land_Pattern_Large,-4.0,,,,,,,,,,,
encoding,value,13,11416563,11422577,11420734.0,11421246.0,513.0,513.0,1545.3,906.7,1591.0,1269.0,Animal_Land_Pattern_Large,24.203418166027404,30.21661729097832,3.0,Animal_Land_Pattern_Large,-4.0,,,,,,,,,,,
encoding,value,13,11416563,11422577,11421267.0,11421455.0,189.0,189.0,1606.8,763.5,1591.0,1269.0,Animal_Land_Pattern_Large,24.203418166027404,30.21661729097832,3.0,Animal_Land_Pattern_Large,-4.0,,,,,,,,,,,
encoding,value,13,11416563,11422577,11421663.0,11421796.0,134.0,134.0,1606.4,799.4000000000001,1591.0,1269.0,Animal_Land_Pattern_Large,24.203418166027404,30.21661729097832,3.0,Animal_Land_Pattern_Large,-4.0,,,,,,,,,,,
encoding,value,13,11416563,11422577,11421812.0,11421956.0,145.0,145.0,1579.4,912.8,1591.0,1269.0,Animal_Land_Pattern_Large,24.203418166027404,30.21661729097832,3.0,Animal_Land_Pattern_Large,-4.0,,,,,,,,,,,
encoding,value,13,11416563,11422577,11422146.0,11422463.0,318.0,318.0,1574.4,901.4000000000001,1591.0,1269.0,Animal_Land_Pattern_Large,24.203418166027404,30.21661729097832,3.0,Animal_Land_Pattern_Large,-4.0,,,,,,,,,,,
encoding,attention,13,11422577,11425598,11422658.0,11422805.0,148.0,148.0,1588.0,886.2,1591.0,1269.0,Animal_Land_Pattern_Large,30.216737458016723,33.238193958066404,3.0,Animal_Land_Pattern_Large,-4.0,-4.0,1.0,0.9492082499200478,,,,,,,,
encoding,attention,13,11422577,11425598,11422820.0,11423216.0,397.0,397.0,1607.4,790.8,1591.0,1269.0,Animal_Land_Pattern_Large,30.216737458016723,33.238193958066404,3.0,Animal_Land_Pattern_Large,-4.0,-4.0,1.0,0.9492082499200478,,,,,,,,
encoding,attention,13,11422577,11425598,11423583.0,11423676.0,94.0,94.0,1617.2,702.3,1591.0,1269.0,Animal_Land_Pattern_Large,30.216737458016723,33.238193958066404,3.0,Animal_Land_Pattern_Large,-4.0,-4.0,1.0,0.9492082499200478,,,,,,,,
encoding,attention,13,11422577,11425598,11423696.0,11423886.0,191.0,191.0,1629.2,825.0999999999999,1591.0,1269.0,Animal_Land_Pattern_Large,30.216737458016723,33.238193958066404,3.0,Animal_Land_Pattern_Large,-4.0,-4.0,1.0,0.9492082499200478,,,,,,,,
encoding,attention,13,11422577,11425598,11423900.0,11424011.0,112.0,112.0,1541.1,796.9000000000001,1591.0,1269.0,Animal_Land_Pattern_Large,30.216737458016723,33.238193958066404,3.0,Animal_Land_Pattern_Large,-4.0,-4.0,1.0,0.9492082499200478,,,,,,,,
encoding,attention,13,11422577,11425598,11424232.0,11424846.0,615.0,615.0,1563.7,893.3,1591.0,1269.0,Animal_Land_Pattern_Large,30.216737458016723,33.238193958066404,3.0,Animal_Land_Pattern_Large,-4.0,-4.0,1.0,0.9492082499200478,,,,,,,,
encoding,attention,13,11422577,11425598,11424932.0,11425015.0,84.0,84.0,2470.7,1953.6,,,none,30.216737458016723,33.238193958066404,3.0,Animal_Land_Pattern_Large,-4.0,-4.0,1.0,0.9492082499200478,,,,,,,,
encoding,attention,13,11422577,11425598,11425087.0,11425423.0,337.0,337.0,3270.0,3405.6,,,none,30.216737458016723,33.238193958066404,3.0,Animal_Land_Pattern_Large,-4.0,-4.0,1.0,0.9492082499200478,,,,,,,,
encoding,attention,13,11422577,11425598,11425460.0,11425587.0,128.0,128.0,3270.0,3521.4,,,none,30.216737458016723,33.238193958066404,3.0,Animal_Land_Pattern_Large,-4.0,-4.0,1.0,0.9492082499200478,,,,,,,,
encoding,fixation,14,11425599,11426854,,,,,,,,,none,33.23834920802619,34.49354862503242,3.0,Animal_Land_Solid_Small,3.0,,,,,,,,,,,
encoding,image,14,11426854,11427865,11427059.0,11427127.0,69.0,69.0,2015.7,1057.0,2249.0,1269.0,Object_Sea_Solid_Large,34.4936594159808,35.50442366604693,3.0,Animal_Land_Solid_Small,3.0,,,,,,,,,,,
encoding,image,14,11426854,11427865,11427261.0,11427297.0,37.0,37.0,1753.0,529.9000000000001,1920.0,1460.0,Animal_Land_Solid_Small,34.4936594159808,35.50442366604693,3.0,Animal_Land_Solid_Small,3.0,,,,,,,,,,,
encoding,image,14,11426854,11427865,11427539.0,11428121.0,583.0,326.0,1977.2,728.0999999999999,1920.0,1460.0,Animal_Land_Solid_Small,34.4936594159808,35.50442366604693,3.0,Animal_Land_Solid_Small,3.0,,,,,,,,,,,
encoding,value,14,11427865,11433877,11428142.0,11428303.0,162.0,162.0,1938.8,590.0,1920.0,1460.0,Animal_Land_Solid_Small,35.50459145801142,41.5164511250332,3.0,Animal_Land_Solid_Small,3.0,,,,,,,,,,,
encoding,value,14,11427865,11433877,11428951.0,11429317.0,367.0,367.0,1919.5,710.5999999999999,1920.0,1460.0,Animal_Land_Solid_Small,35.50459145801142,41.5164511250332,3.0,Animal_Land_Solid_Small,3.0,,,,,,,,,,,
encoding,value,14,11427865,11433877,11429336.0,11429546.0,211.0,211.0,1921.0,629.9000000000001,1920.0,1460.0,Animal_Land_Solid_Small,35.50459145801142,41.5164511250332,3.0,Animal_Land_Solid_Small,3.0,,,,,,,,,,,
encoding,value,14,11427865,11433877,11429561.0,11429637.0,77.0,77.0,1960.3,736.5,1920.0,1460.0,Animal_Land_Solid_Small,35.50459145801142,41.5164511250332,3.0,Animal_Land_Solid_Small,3.0,,,,,,,,,,,
encoding,value,14,11427865,11433877,11429877.0,11429958.0,82.0,82.0,1937.1,749.4000000000001,1920.0,1460.0,Animal_Land_Solid_Small,35.50459145801142,41.5164511250332,3.0,Animal_Land_Solid_Small,3.0,,,,,,,,,,,
encoding,value,14,11427865,11433877,11431164.0,11431233.0,70.0,70.0,1500.9,900.0999999999999,1591.0,1269.0,Animal_Land_Pattern_Large,35.50459145801142,41.5164511250332,3.0,Animal_Land_Solid_Small,3.0,,,,,,,,,,,
encoding,value,14,11427865,11433877,11431526.0,11431837.0,312.0,312.0,1961.9,731.5,1920.0,1460.0,Animal_Land_Solid_Small,35.50459145801142,41.5164511250332,3.0,Animal_Land_Solid_Small,3.0,,,,,,,,,,,
encoding,value,14,11427865,11433877,11431870.0,11432114.0,245.0,245.0,1676.9,901.9000000000001,1591.0,1269.0,Animal_Land_Pattern_Large,35.50459145801142,41.5164511250332,3.0,Animal_Land_Solid_Small,3.0,,,,,,,,,,,
encoding,value,14,11427865,11433877,11432315.0,11432553.0,239.0,239.0,1646.0,952.9000000000001,1591.0,1269.0,Animal_Land_Pattern_Large,35.50459145801142,41.5164511250332,3.0,Animal_Land_Solid_Small,3.0,,,,,,,,,,,
encoding,value,14,11427865,11433877,11433095.0,11433118.0,24.0,24.0,1748.4,462.5,,,none,35.50459145801142,41.5164511250332,3.0,Animal_Land_Solid_Small,3.0,,,,,,,,,,,
encoding,value,14,11427865,11433877,11433136.0,11433333.0,198.0,198.0,1943.9,616.9000000000001,1920.0,1460.0,Animal_Land_Solid_Small,35.50459145801142,41.5164511250332,3.0,Animal_Land_Solid_Small,3.0,,,,,,,,,,,
encoding,attention,14,11433877,11436897,11434121.0,11434158.0,38.0,38.0,1728.0,428.5,,,none,41.51656241598539,44.53604425000958,3.0,Animal_Land_Solid_Small,3.0,3.0,1.0,0.8133206670172513,,,,,,,,
encoding,attention,14,11433877,11436897,11434185.0,11434266.0,82.0,82.0,1942.0,612.5999999999999,1920.0,1460.0,Animal_Land_Solid_Small,41.51656241598539,44.53604425000958,3.0,Animal_Land_Solid_Small,3.0,3.0,1.0,0.8133206670172513,,,,,,,,
encoding,attention,14,11433877,11436897,11434529.0,11434587.0,59.0,59.0,1777.2,387.0999999999999,,,none,41.51656241598539,44.53604425000958,3.0,Animal_Land_Solid_Small,3.0,3.0,1.0,0.8133206670172513,,,,,,,,
encoding,attention,14,11433877,11436897,11434647.0,11434929.0,283.0,283.0,1981.6,573.4000000000001,1920.0,1460.0,Animal_Land_Solid_Small,41.51656241598539,44.53604425000958,3.0,Animal_Land_Solid_Small,3.0,3.0,1.0,0.8133206670172513,,,,,,,,
encoding,attention,14,11433877,11436897,11436696.0,11436765.0,70.0,70.0,1770.3,338.5999999999999,,,none,41.51656241598539,44.53604425000958,3.0,Animal_Land_Solid_Small,3.0,3.0,1.0,0.8133206670172513,,,,,,,,
encoding,attention,14,11433877,11436897,11436789.0,11436889.0,101.0,101.0,1972.1,582.3,1920.0,1460.0,Animal_Land_Solid_Small,41.51656241598539,44.53604425000958,3.0,Animal_Land_Solid_Small,3.0,3.0,1.0,0.8133206670172513,,,,,,,,
encoding,fixation,15,11436897,11438402,11436988.0,11437248.0,261.0,261.0,1950.8,728.7,1920.0,1460.0,Animal_Land_Solid_Small,44.53620933298953,46.04126437497325,3.0,Object_Land_Pattern_Large,8.0,,,,,,,,,,,
encoding,fixation,15,11436897,11438402,11437318.0,11437470.0,153.0,153.0,913.5,681.2,,,none,44.53620933298953,46.04126437497325,3.0,Object_Land_Pattern_Large,8.0,,,,,,,,,,,
encoding,fixation,15,11436897,11438402,11437510.0,11437563.0,54.0,54.0,521.7,494.29999999999995,,,none,44.53620933298953,46.04126437497325,3.0,Object_Land_Pattern_Large,8.0,,,,,,,,,,,
encoding,image,15,11438402,11439414,11438951.0,11439115.0,165.0,165.0,1933.9,1244.0,1920.0,700.0,Object_Land_Pattern_Large,46.041404957999475,47.05350029096007,3.0,Object_Land_Pattern_Large,8.0,,,,,,,,,,,
encoding,image,15,11438402,11439414,11439139.0,11439243.0,105.0,105.0,1950.1,1451.2,1920.0,700.0,Object_Land_Pattern_Large,46.041404957999475,47.05350029096007,3.0,Object_Land_Pattern_Large,8.0,,,,,,,,,,,
encoding,image,15,11438402,11439414,11439324.0,11439442.0,119.0,90.0,1402.8,2391.7,,,none,46.041404957999475,47.05350029096007,3.0,Object_Land_Pattern_Large,8.0,,,,,,,,,,,
encoding,value,15,11439414,11445428,11440117.0,11440316.0,200.0,200.0,1938.9,1367.5,1920.0,700.0,Object_Land_Pattern_Large,47.053633208037354,53.066296290955506,3.0,Object_Land_Pattern_Large,8.0,,,,,,,,,,,
encoding,value,15,11439414,11445428,11440579.0,11440614.0,36.0,36.0,1909.2,1350.4,1920.0,700.0,Object_Land_Pattern_Large,47.053633208037354,53.066296290955506,3.0,Object_Land_Pattern_Large,8.0,,,,,,,,,,,
encoding,value,15,11439414,11445428,11440806.0,11441033.0,228.0,228.0,1937.4,1427.7,1920.0,700.0,Object_Land_Pattern_Large,47.053633208037354,53.066296290955506,3.0,Object_Land_Pattern_Large,8.0,,,,,,,,,,,
encoding,value,15,11439414,11445428,11441059.0,11441220.0,162.0,162.0,1709.4,1378.8,1591.0,891.0,Animal_Sea_Solid_Small,47.053633208037354,53.066296290955506,3.0,Object_Land_Pattern_Large,8.0,,,,,,,,,,,
encoding,value,15,11439414,11445428,11442387.0,11442411.0,25.0,25.0,1883.3,1205.1,1920.0,700.0,Object_Land_Pattern_Large,47.053633208037354,53.066296290955506,3.0,Object_Land_Pattern_Large,8.0,,,,,,,,,,,
encoding,value,15,11439414,11445428,11442587.0,11442644.0,58.0,58.0,1890.0,1272.9,1920.0,700.0,Object_Land_Pattern_Large,47.053633208037354,53.066296290955506,3.0,Object_Land_Pattern_Large,8.0,,,,,,,,,,,
encoding,value,15,11439414,11445428,11442846.0,11443205.0,360.0,360.0,1941.5,1443.4,1920.0,700.0,Object_Land_Pattern_Large,47.053633208037354,53.066296290955506,3.0,Object_Land_Pattern_Large,8.0,,,,,,,,,,,
encoding,value,15,11439414,11445428,11443386.0,11443572.0,187.0,187.0,1959.1,1439.7,1920.0,700.0,Object_Land_Pattern_Large,47.053633208037354,53.066296290955506,3.0,Object_Land_Pattern_Large,8.0,,,,,,,,,,,
encoding,value,15,11439414,11445428,11443586.0,11443663.0,78.0,78.0,1960.0,1360.5,1920.0,700.0,Object_Land_Pattern_Large,47.053633208037354,53.066296290955506,3.0,Object_Land_Pattern_Large,8.0,,,,,,,,,,,
encoding,value,15,11439414,11445428,11443841.0,11443932.0,92.0,92.0,1939.4,1411.2,1920.0,700.0,Object_Land_Pattern_Large,47.053633208037354,53.066296290955506,3.0,Object_Land_Pattern_Large,8.0,,,,,,,,,,,
encoding,value,15,11439414,11445428,11443948.0,11444064.0,117.0,117.0,1951.5,1343.1,1920.0,700.0,Object_Land_Pattern_Large,47.053633208037354,53.066296290955506,3.0,Object_Land_Pattern_Large,8.0,,,,,,,,,,,
encoding,value,15,11439414,11445428,11444263.0,11444374.0,112.0,112.0,1946.0,1350.6,1920.0,700.0,Object_Land_Pattern_Large,47.053633208037354,53.066296290955506,3.0,Object_Land_Pattern_Large,8.0,,,,,,,,,,,
encoding,value,15,11439414,11445428,11444388.0,11444556.0,169.0,169.0,1954.8,1450.7,1920.0,700.0,Object_Land_Pattern_Large,47.053633208037354,53.066296290955506,3.0,Object_Land_Pattern_Large,8.0,,,,,,,,,,,
encoding,value,15,11439414,11445428,11444733.0,11445071.0,339.0,339.0,1951.0,1451.6,1920.0,700.0,Object_Land_Pattern_Large,47.053633208037354,53.066296290955506,3.0,Object_Land_Pattern_Large,8.0,,,,,,,,,,,
encoding,value,15,11439414,11445428,11445088.0,11445301.0,214.0,214.0,1949.1,1342.7,1920.0,700.0,Object_Land_Pattern_Large,47.053633208037354,53.066296290955506,3.0,Object_Land_Pattern_Large,8.0,,,,,,,,,,,
encoding,attention,15,11445428,11448449,11445477.0,11445768.0,292.0,292.0,1955.1,1324.5,1920.0,700.0,Object_Land_Pattern_Large,53.06640641600825,56.087544874986634,3.0,Object_Land_Pattern_Large,8.0,8.0,1.0,0.843047000002116,,,,,,,,
encoding,attention,15,11445428,11448449,11445942.0,11446036.0,95.0,95.0,1882.2,1339.5,1920.0,700.0,Object_Land_Pattern_Large,53.06640641600825,56.087544874986634,3.0,Object_Land_Pattern_Large,8.0,8.0,1.0,0.843047000002116,,,,,,,,
encoding,attention,15,11445428,11448449,11446075.0,11446290.0,216.0,216.0,1406.3,1287.2,1591.0,891.0,Animal_Sea_Solid_Small,53.06640641600825,56.087544874986634,3.0,Object_Land_Pattern_Large,8.0,8.0,1.0,0.843047000002116,,,,,,,,
encoding,attention,15,11445428,11448449,11446331.0,11446711.0,381.0,381.0,1915.9,1337.6,1920.0,700.0,Object_Land_Pattern_Large,53.06640641600825,56.087544874986634,3.0,Object_Land_Pattern_Large,8.0,8.0,1.0,0.843047000002116,,,,,,,,
encoding,attention,15,11445428,11448449,11446892.0,11446994.0,103.0,103.0,3270.0,3546.5,,,none,53.06640641600825,56.087544874986634,3.0,Object_Land_Pattern_Large,8.0,8.0,1.0,0.843047000002116,,,,,,,,
encoding,attention,15,11445428,11448449,11447053.0,11447148.0,96.0,96.0,3270.0,3486.7,,,none,53.06640641600825,56.087544874986634,3.0,Object_Land_Pattern_Large,8.0,8.0,1.0,0.843047000002116,,,,,,,,
encoding,fixation,16,11448449,11449204,11448888.0,11448908.0,21.0,21.0,1811.4,1054.5,1591.0,1269.0,Animal_Land_Pattern_Large,56.08770712499973,56.84278525004629,3.0,Object_Sea_Solid_Large,-1.0,,,,,,,,,,,
encoding,fixation,16,11448449,11449204,11448960.0,11448993.0,34.0,34.0,1437.0,837.2,1591.0,1269.0,Animal_Land_Pattern_Large,56.08770712499973,56.84278525004629,3.0,Object_Sea_Solid_Large,-1.0,,,,,,,,,,,
encoding,image,16,11449204,11450216,11449210.0,11449679.0,470.0,470.0,947.9,557.3,,,none,56.84289308299776,57.85483533295337,3.0,Object_Sea_Solid_Large,-1.0,,,,,,,,,,,
encoding,image,16,11449204,11450216,11449706.0,11449825.0,120.0,120.0,624.5,458.9000000000001,,,none,56.84289308299776,57.85483533295337,3.0,Object_Sea_Solid_Large,-1.0,,,,,,,,,,,
encoding,image,16,11449204,11450216,11450046.0,11450211.0,166.0,166.0,2264.8,848.8,2249.0,1269.0,Object_Sea_Solid_Large,56.84289308299776,57.85483533295337,3.0,Object_Sea_Solid_Large,-1.0,,,,,,,,,,,
encoding,value,16,11450216,11456229,11450222.0,11450550.0,329.0,329.0,2260.0,900.5999999999999,2249.0,1269.0,Object_Sea_Solid_Large,57.85494075005408,63.86727849999443,3.0,Object_Sea_Solid_Large,-1.0,,,,,,,,,,,
encoding,value,16,11450216,11456229,11451392.0,11451446.0,55.0,55.0,1373.5,808.7,,,none,57.85494075005408,63.86727849999443,3.0,Object_Sea_Solid_Large,-1.0,,,,,,,,,,,
encoding,value,16,11450216,11456229,11451614.0,11451705.0,92.0,92.0,1799.1,1149.4,1591.0,891.0,Animal_Sea_Solid_Small,57.85494075005408,63.86727849999443,3.0,Object_Sea_Solid_Large,-1.0,,,,,,,,,,,
encoding,value,16,11450216,11456229,11451879.0,11452163.0,285.0,285.0,1973.3,1301.6,1920.0,700.0,Object_Land_Pattern_Large,57.85494075005408,63.86727849999443,3.0,Object_Sea_Solid_Large,-1.0,,,,,,,,,,,
encoding,value,16,11450216,11456229,11452206.0,11452397.0,192.0,192.0,2287.4,827.4000000000001,2249.0,1269.0,Object_Sea_Solid_Large,57.85494075005408,63.86727849999443,3.0,Object_Sea_Solid_Large,-1.0,,,,,,,,,,,
encoding,value,16,11450216,11456229,11452425.0,11452565.0,141.0,141.0,2106.7,1046.8,2249.0,1269.0,Object_Sea_Solid_Large,57.85494075005408,63.86727849999443,3.0,Object_Sea_Solid_Large,-1.0,,,,,,,,,,,
encoding,value,16,11450216,11456229,11452592.0,11452858.0,267.0,267.0,2292.9,875.5999999999999,2249.0,1269.0,Object_Sea_Solid_Large,57.85494075005408,63.86727849999443,3.0,Object_Sea_Solid_Large,-1.0,,,,,,,,,,,
encoding,value,16,11450216,11456229,11453056.0,11453081.0,26.0,26.0,1878.0,607.5,1920.0,1460.0,Animal_Land_Solid_Small,57.85494075005408,63.86727849999443,3.0,Object_Sea_Solid_Large,-1.0,,,,,,,,,,,
encoding,value,16,11450216,11456229,11453361.0,11453410.0,50.0,50.0,2270.9,817.5999999999999,2249.0,1269.0,Object_Sea_Solid_Large,57.85494075005408,63.86727849999443,3.0,Object_Sea_Solid_Large,-1.0,,,,,,,,,,,
encoding,value,16,11450216,11456229,11453425.0,11453504.0,80.0,80.0,2268.0,899.2,2249.0,1269.0,Object_Sea_Solid_Large,57.85494075005408,63.86727849999443,3.0,Object_Sea_Solid_Large,-1.0,,,,,,,,,,,
encoding,value,16,11450216,11456229,11453744.0,11453801.0,58.0,58.0,2262.2,903.4000000000001,2249.0,1269.0,Object_Sea_Solid_Large,57.85494075005408,63.86727849999443,3.0,Object_Sea_Solid_Large,-1.0,,,,,,,,,,,
encoding,value,16,11450216,11456229,11453897.0,11454060.0,164.0,164.0,889.4,771.4000000000001,,,none,57.85494075005408,63.86727849999443,3.0,Object_Sea_Solid_Large,-1.0,,,,,,,,,,,
encoding,value,16,11450216,11456229,11454116.0,11454248.0,133.0,133.0,436.3,176.79999999999995,,,none,57.85494075005408,63.86727849999443,3.0,Object_Sea_Solid_Large,-1.0,,,,,,,,,,,
encoding,value,16,11450216,11456229,11454341.0,11454463.0,123.0,123.0,2254.7,888.5999999999999,2249.0,1269.0,Object_Sea_Solid_Large,57.85494075005408,63.86727849999443,3.0,Object_Sea_Solid_Large,-1.0,,,,,,,,,,,
encoding,value,16,11450216,11456229,11454663.0,11454727.0,65.0,65.0,1420.2,231.70000000000005,,,none,57.85494075005408,63.86727849999443,3.0,Object_Sea_Solid_Large,-1.0,,,,,,,,,,,
encoding,value,16,11450216,11456229,11455007.0,11455211.0,205.0,205.0,2300.2,823.7,2249.0,1269.0,Object_Sea_Solid_Large,57.85494075005408,63.86727849999443,3.0,Object_Sea_Solid_Large,-1.0,,,,,,,,,,,
encoding,value,16,11450216,11456229,11455711.0,11455935.0,225.0,225.0,2282.8,795.5999999999999,2249.0,1269.0,Object_Sea_Solid_Large,57.85494075005408,63.86727849999443,3.0,Object_Sea_Solid_Large,-1.0,,,,,,,,,,,
encoding,attention,16,11456229,11459251,11456524.0,11456664.0,141.0,141.0,2253.2,793.0,2249.0,1269.0,Object_Sea_Solid_Large,63.86740966595244,66.88931362505537,3.0,Object_Sea_Solid_Large,-1.0,-1.0,1.0,0.7929475830169395,,,,,,,,
encoding,attention,16,11456229,11459251,11458971.0,11459057.0,87.0,87.0,1696.2,740.3,1591.0,1269.0,Animal_Land_Pattern_Large,63.86740966595244,66.88931362505537,3.0,Object_Sea_Solid_Large,-1.0,-1.0,1.0,0.7929475830169395,,,,,,,,
encoding,fixation,17,11459251,11459757,11459472.0,11459555.0,84.0,84.0,1974.3,1097.1,1920.0,1080.0,fixation,66.88950520800427,67.394945750013,3.0,Object_Sea_Pattern_Small,-6.0,,,,,,,,,,,
encoding,fixation,17,11459251,11459757,11459637.0,11459807.0,171.0,120.0,1853.8,1951.7,,,none,66.88950520800427,67.394945750013,3.0,Object_Sea_Pattern_Small,-6.0,,,,,,,,,,,
encoding,image,17,11459757,11460768,11459859.0,11460002.0,144.0,144.0,1943.7,1417.7,1920.0,700.0,Object_Land_Pattern_Large,67.39505279099103,68.40581041597761,3.0,Object_Sea_Pattern_Small,-6.0,,,,,,,,,,,
encoding,image,17,11459757,11460768,11460137.0,11460342.0,206.0,206.0,2265.0,1302.6,2249.0,891.0,Object_Sea_Pattern_Small,67.39505279099103,68.40581041597761,3.0,Object_Sea_Pattern_Small,-6.0,,,,,,,,,,,
encoding,image,17,11459757,11460768,11460376.0,11460495.0,120.0,120.0,1953.5,1116.5,1920.0,1080.0,fixation,67.39505279099103,68.40581041597761,3.0,Object_Sea_Pattern_Small,-6.0,,,,,,,,,,,
encoding,image,17,11459757,11460768,11460695.0,11460883.0,189.0,73.0,2013.0,1522.6,1920.0,700.0,Object_Land_Pattern_Large,67.39505279099103,68.40581041597761,3.0,Object_Sea_Pattern_Small,-6.0,,,,,,,,,,,
encoding,value,17,11460768,11466780,11460921.0,11461030.0,110.0,110.0,1892.3,1702.2,,,none,68.40593883302063,74.4179501660401,3.0,Object_Sea_Pattern_Small,-6.0,,,,,,,,,,,
encoding,value,17,11460768,11466780,11461081.0,11461215.0,135.0,135.0,2308.6,1257.3,2249.0,891.0,Object_Sea_Pattern_Small,68.40593883302063,74.4179501660401,3.0,Object_Sea_Pattern_Small,-6.0,,,,,,,,,,,
encoding,value,17,11460768,11466780,11461227.0,11461352.0,126.0,126.0,2286.0,1201.9,2249.0,891.0,Object_Sea_Pattern_Small,68.40593883302063,74.4179501660401,3.0,Object_Sea_Pattern_Small,-6.0,,,,,,,,,,,
encoding,value,17,11460768,11466780,11461486.0,11461709.0,224.0,224.0,3196.7,3219.2,,,none,68.40593883302063,74.4179501660401,3.0,Object_Sea_Pattern_Small,-6.0,,,,,,,,,,,
encoding,value,17,11460768,11466780,11462155.0,11462206.0,52.0,52.0,2240.3,2590.4,,,none,68.40593883302063,74.4179501660401,3.0,Object_Sea_Pattern_Small,-6.0,,,,,,,,,,,
encoding,value,17,11460768,11466780,11462349.0,11462576.0,228.0,228.0,2224.2,1291.8,2249.0,891.0,Object_Sea_Pattern_Small,68.40593883302063,74.4179501660401,3.0,Object_Sea_Pattern_Small,-6.0,,,,,,,,,,,
encoding,value,17,11460768,11466780,11462596.0,11462676.0,81.0,81.0,2283.8,1195.7,2249.0,891.0,Object_Sea_Pattern_Small,68.40593883302063,74.4179501660401,3.0,Object_Sea_Pattern_Small,-6.0,,,,,,,,,,,
encoding,value,17,11460768,11466780,11462843.0,11462891.0,49.0,49.0,2254.6,1273.6,2249.0,891.0,Object_Sea_Pattern_Small,68.40593883302063,74.4179501660401,3.0,Object_Sea_Pattern_Small,-6.0,,,,,,,,,,,
encoding,value,17,11460768,11466780,11463054.0,11463140.0,87.0,87.0,2207.0,1280.9,2249.0,891.0,Object_Sea_Pattern_Small,68.40593883302063,74.4179501660401,3.0,Object_Sea_Pattern_Small,-6.0,,,,,,,,,,,
encoding,value,17,11460768,11466780,11463293.0,11463435.0,143.0,143.0,1877.1,1285.5,1920.0,700.0,Object_Land_Pattern_Large,68.40593883302063,74.4179501660401,3.0,Object_Sea_Pattern_Small,-6.0,,,,,,,,,,,
encoding,value,17,11460768,11466780,11463636.0,11463786.0,151.0,151.0,2175.7,1237.2,2249.0,891.0,Object_Sea_Pattern_Small,68.40593883302063,74.4179501660401,3.0,Object_Sea_Pattern_Small,-6.0,,,,,,,,,,,
encoding,value,17,11460768,11466780,11463801.0,11463929.0,129.0,129.0,2258.1,1189.2,2249.0,891.0,Object_Sea_Pattern_Small,68.40593883302063,74.4179501660401,3.0,Object_Sea_Pattern_Small,-6.0,,,,,,,,,,,
encoding,value,17,11460768,11466780,11464119.0,11464177.0,59.0,59.0,2080.5,1212.4,2249.0,891.0,Object_Sea_Pattern_Small,68.40593883302063,74.4179501660401,3.0,Object_Sea_Pattern_Small,-6.0,,,,,,,,,,,
encoding,value,17,11460768,11466780,11464813.0,11464862.0,50.0,50.0,1760.9,1182.6,1591.0,891.0,Animal_Sea_Solid_Small,68.40593883302063,74.4179501660401,3.0,Object_Sea_Pattern_Small,-6.0,,,,,,,,,,,
encoding,value,17,11460768,11466780,11465281.0,11465338.0,58.0,58.0,1695.0,1196.5,1591.0,891.0,Animal_Sea_Solid_Small,68.40593883302063,74.4179501660401,3.0,Object_Sea_Pattern_Small,-6.0,,,,,,,,,,,
encoding,value,17,11460768,11466780,11465370.0,11465529.0,160.0,160.0,1376.1,1113.4,1591.0,891.0,Animal_Sea_Solid_Small,68.40593883302063,74.4179501660401,3.0,Object_Sea_Pattern_Small,-6.0,,,,,,,,,,,
encoding,value,17,11460768,11466780,11465586.0,11465723.0,138.0,138.0,749.5,842.4000000000001,,,none,68.40593883302063,74.4179501660401,3.0,Object_Sea_Pattern_Small,-6.0,,,,,,,,,,,
encoding,value,17,11460768,11466780,11465786.0,11465833.0,48.0,48.0,-405.1,1467.1,,,none,68.40593883302063,74.4179501660401,3.0,Object_Sea_Pattern_Small,-6.0,,,,,,,,,,,
encoding,value,17,11460768,11466780,11465851.0,11465980.0,130.0,130.0,-380.1,1439.6,,,none,68.40593883302063,74.4179501660401,3.0,Object_Sea_Pattern_Small,-6.0,,,,,,,,,,,
encoding,value,17,11460768,11466780,11465998.0,11466023.0,26.0,26.0,-349.5,1335.8,,,none,68.40593883302063,74.4179501660401,3.0,Object_Sea_Pattern_Small,-6.0,,,,,,,,,,,
encoding,value,17,11460768,11466780,11466215.0,11466333.0,119.0,119.0,2241.0,1248.9,2249.0,891.0,Object_Sea_Pattern_Small,68.40593883302063,74.4179501660401,3.0,Object_Sea_Pattern_Small,-6.0,,,,,,,,,,,
encoding,value,17,11460768,11466780,11466348.0,11466553.0,206.0,206.0,2284.0,1192.9,2249.0,891.0,Object_Sea_Pattern_Small,68.40593883302063,74.4179501660401,3.0,Object_Sea_Pattern_Small,-6.0,,,,,,,,,,,
encoding,attention,17,11466780,11469800,11466941.0,11467202.0,262.0,262.0,2231.1,1192.9,2249.0,891.0,Object_Sea_Pattern_Small,74.4180708329659,77.43778074998409,3.0,Object_Sea_Pattern_Small,-6.0,-6.0,1.0,0.9390246249968186,,,,,,,,
encoding,attention,17,11466780,11469800,11467422.0,11467582.0,161.0,161.0,2268.3,1247.8,2249.0,891.0,Object_Sea_Pattern_Small,74.4180708329659,77.43778074998409,3.0,Object_Sea_Pattern_Small,-6.0,-6.0,1.0,0.9390246249968186,,,,,,,,
encoding,attention,17,11466780,11469800,11467595.0,11467964.0,370.0,370.0,2223.2,1186.1,2249.0,891.0,Object_Sea_Pattern_Small,74.4180708329659,77.43778074998409,3.0,Object_Sea_Pattern_Small,-6.0,-6.0,1.0,0.9390246249968186,,,,,,,,
encoding,attention,17,11466780,11469800,11467982.0,11468145.0,164.0,164.0,2259.9,1276.6,2249.0,891.0,Object_Sea_Pattern_Small,74.4180708329659,77.43778074998409,3.0,Object_Sea_Pattern_Small,-6.0,-6.0,1.0,0.9390246249968186,,,,,,,,
encoding,attention,17,11466780,11469800,11468334.0,11468604.0,271.0,271.0,2733.4,2880.0,,,none,74.4180708329659,77.43778074998409,3.0,Object_Sea_Pattern_Small,-6.0,-6.0,1.0,0.9390246249968186,,,,,,,,
encoding,attention,17,11466780,11469800,11468657.0,11468816.0,160.0,160.0,2356.2,1962.2,,,none,74.4180708329659,77.43778074998409,3.0,Object_Sea_Pattern_Small,-6.0,-6.0,1.0,0.9390246249968186,,,,,,,,
encoding,attention,17,11466780,11469800,11468860.0,11469171.0,312.0,312.0,1934.6,1865.5,,,none,74.4180708329659,77.43778074998409,3.0,Object_Sea_Pattern_Small,-6.0,-6.0,1.0,0.9390246249968186,,,,,,,,
encoding,attention,17,11466780,11469800,11469208.0,11469426.0,219.0,219.0,1563.2,1821.1,,,none,74.4180708329659,77.43778074998409,3.0,Object_Sea_Pattern_Small,-6.0,-6.0,1.0,0.9390246249968186,,,,,,,,
encoding,attention,17,11466780,11469800,11469586.0,11469607.0,22.0,22.0,2145.2,1373.4,2249.0,891.0,Object_Sea_Pattern_Small,74.4180708329659,77.43778074998409,3.0,Object_Sea_Pattern_Small,-6.0,-6.0,1.0,0.9390246249968186,,,,,,,,
encoding,fixation,18,11469800,11470555,11470350.0,11470469.0,120.0,120.0,454.2,1597.0,,,none,77.43801170797087,78.1931202079868,3.0,Animal_Sea_Solid_Small,5.0,,,,,,,,,,,
encoding,image,18,11470555,11471566,11471453.0,11471570.0,118.0,113.0,1844.0,1191.9,1591.0,891.0,Animal_Sea_Solid_Small,78.19322479097173,79.20364083303139,3.0,Animal_Sea_Solid_Small,5.0,,,,,,,,,,,
encoding,value,18,11471566,11477579,11471594.0,11471790.0,197.0,197.0,1616.4,1259.9,1591.0,891.0,Animal_Sea_Solid_Small,79.20382337504998,85.21658370795194,3.0,Animal_Sea_Solid_Small,5.0,,,,,,,,,,,
encoding,value,18,11471566,11477579,11471803.0,11472020.0,218.0,218.0,1612.1,1178.6,1591.0,891.0,Animal_Sea_Solid_Small,79.20382337504998,85.21658370795194,3.0,Animal_Sea_Solid_Small,5.0,,,,,,,,,,,
encoding,value,18,11471566,11477579,11472035.0,11472163.0,129.0,129.0,1606.4,1265.7,1591.0,891.0,Animal_Sea_Solid_Small,79.20382337504998,85.21658370795194,3.0,Animal_Sea_Solid_Small,5.0,,,,,,,,,,,
