phase,event,onset,offset,trial_number,game,image,outcome,choice,correct,rt,letter,match,response,option,true_value,true_position,recalled_position,
encoding,fixation,16.78899191704113,18.0526409590384,1,1,Animal_Land_Pattern_Large,6,,,,,,,,,,,
encoding,image,18.052775959018618,19.0707257919712,1,1,Animal_Land_Pattern_Large,6,,,,,,,,,,,
encoding,value,19.07084549998399,25.08539975003805,1,1,Animal_Land_Pattern_Large,6,,,,,,,,,,,
encoding,attention,25.085518874926493,28.101134749944322,1,1,Animal_Land_Pattern_Large,6,None,None,None,,,,,,,,
encoding,fixation,28.10129729192704,29.606392084038816,2,1,Object_Land_Pattern_Large,-3,,,,,,,,,,,
encoding,image,29.606500625028275,30.61849549994804,2,1,Object_Land_Pattern_Large,-3,,,,,,,,,,,
encoding,value,30.618621959001757,36.63177879201248,2,1,Object_Land_Pattern_Large,-3,,,,,,,,,,,
encoding,attention,36.63189533399418,39.644457958987914,2,1,Object_Land_Pattern_Large,-3,None,None,None,,,,,,,,
encoding,fixation,39.64465433394071,40.902116999961436,3,1,Animal_Sea_Solid_Small,1,,,,,,,,,,,
encoding,image,40.90223433403298,41.912693792022765,3,1,Animal_Sea_Solid_Small,1,,,,,,,,,,,
encoding,value,41.912809083936736,47.92449212493375,3,1,Animal_Sea_Solid_Small,1,,,,,,,,,,,
encoding,attention,47.924631917034276,50.94386887503788,3,1,Animal_Sea_Solid_Small,1,+1,1,2.168016624986194,,,,,,,,
encoding,fixation,50.94401487498544,51.95129029196687,4,1,Object_Sea_Solid_Small,4,,,,,,,,,,,
encoding,image,51.95140066696331,52.96202637499664,4,1,Object_Sea_Solid_Small,4,,,,,,,,,,,
encoding,value,52.9621495839674,58.972655958961695,4,1,Object_Sea_Solid_Small,4,,,,,,,,,,,
encoding,attention,58.97277604194824,61.98903920897283,4,1,Object_Sea_Solid_Small,4,+4,1,0.965425958042033,,,,,,,,
encoding,fixation,61.9891982920235,62.99485966702923,5,1,Object_Land_Pattern_Small,-2,,,,,,,,,,,
encoding,image,62.99496629193891,64.00675295898691,5,1,Object_Land_Pattern_Small,-2,,,,,,,,,,,
encoding,value,64.00686129194219,70.01872062496841,5,1,Object_Land_Pattern_Small,-2,,,,,,,,,,,
encoding,attention,70.01883637497667,73.06976958399173,5,1,Object_Land_Pattern_Small,-2,-2,1,0.8435934579465538,,,,,,,,
encoding,fixation,73.06990383402444,73.82481799996458,6,1,Animal_Sea_Solid_Large,-6,,,,,,,,,,,
encoding,image,73.82491870899685,74.83645991701633,6,1,Animal_Sea_Solid_Large,-6,,,,,,,,,,,
encoding,value,74.83657208399381,80.84819204197265,6,1,Animal_Sea_Solid_Large,-6,,,,,,,,,,,
encoding,attention,80.8483302090317,83.86524225003086,6,1,Animal_Sea_Solid_Large,-6,-6,1,0.642874666955322,,,,,,,,
n-back,,,,1,1,,,,1,None,Z,False,None,,,,,
n-back,,,,2,1,,,,0,None,Z,True,None,,,,,
n-back,,,,3,1,,,,1,None,X,False,None,,,,,
n-back,,,,4,1,,,,1,None,N,False,None,,,,,
n-back,,,,5,1,,,,1,None,Z,False,None,,,,,
n-back,,,,6,1,,,,1,None,B,False,None,,,,,
n-back,,,,7,1,,,,1,0.7247628329787403,Z,True,1,,,,,
n-back,,,,8,1,,,,1,None,V,False,None,,,,,
n-back,,,,9,1,,,,0,None,Z,True,None,,,,,
n-back,,,,10,1,,,,1,None,X,False,None,,,,,
n-back,,,,11,1,,,,1,None,V,False,None,,,,,
n-back,,,,12,1,,,,1,0.8175364169292152,X,True,1,,,,,
n-back,,,,13,1,,,,1,None,Z,False,None,,,,,
n-back,,,,14,1,,,,1,None,B,False,None,,,,,
n-back,,,,15,1,,,,1,None,V,False,None,,,,,
n-back,,,,16,1,,,,0,None,B,True,None,,,,,
n-back,,,,17,1,,,,0,0.36163391696754843,B,False,1,,,,,
n-back,,,,18,1,,,,0,None,B,True,None,,,,,
n-back,,,,19,1,,,,1,None,Z,False,None,,,,,
n-back,,,,20,1,,,,1,None,V,False,None,,,,,
n-back,,,,21,1,,,,1,None,X,False,None,,,,,
n-back,,,,22,1,,,,1,1.4954711250029504,V,True,1,,,,,
n-back,,,,23,1,,,,1,None,N,False,None,,,,,
n-back,,,,24,1,,,,0,None,V,True,None,,,,,
n-back,,,,25,1,,,,1,0.8189067919738591,N,True,1,,,,,
n-back,,,,26,1,,,,0,None,V,True,None,,,,,
n-back,,,,27,1,,,,1,None,V,False,None,,,,,
n-back,,,,28,1,,,,1,None,N,False,None,,,,,
n-back,,,,29,1,,,,1,None,Z,False,None,,,,,
n-back,,,,30,1,,,,1,None,X,False,None,,,,,
choice,fixation,180.65222920896485,182.1580292090075,1,1,,,,,,,,,Small,,,,
choice,option,182.16743266698904,183.28243408398703,1,1,,,,,,,,,Small,,,,
choice,choice,183.282555499929,209.87485837494023,1,1,,,1,1,25.581430041929707,,,,Small,,,,
choice,fixation,209.87498970900197,211.38016704202164,2,1,,,,,,,,,Sea,,,,
choice,option,211.38978112500627,212.41772050003055,2,1,,,,,,,,,Sea,,,,
choice,choice,212.41783375001978,220.7446559999371,2,1,,,1,0,7.316948457970284,,,,Sea,,,,
choice,fixation,220.74479445896577,222.00229612493422,3,1,,,,,,,,,Object,,,,
choice,option,222.01169275003485,223.03914258396253,3,1,,,,,,,,,Object,,,,
choice,choice,223.03924816695508,240.10956133401487,3,1,,,1,0,16.05985366704408,,,,Object,,,,
choice,fixation,240.10968799993861,241.36377666692715,4,1,,,,,,,,,Large,,,,
choice,option,241.37285029201303,242.40186650003307,4,1,,,,,,,,,Large,,,,
choice,choice,242.40198904194403,246.1682550839614,4,1,,,2,1,2.7563375839963555,,,,Large,,,,
choice,fixation,246.16838479193393,246.92346841702238,5,1,,,,,,,,,Solid,,,,
choice,option,246.93241637502797,247.95952383393887,5,1,,,,,,,,,Solid,,,,
choice,choice,247.95964854198974,255.2101328340359,5,1,,,1,0,6.240629833075218,,,,Solid,,,,
choice,fixation,255.2102607919369,255.96536775003187,6,1,,,,,,,,,Land,,,,
choice,option,255.97412629192695,257.0018537089927,6,1,,,,,,,,,Land,,,,
choice,choice,257.00197445903905,260.4170959589537,6,1,,,2,0,2.4058207499329,,,,Land,,,,
choice,fixation,260.4172293749871,261.67221154202707,7,1,,,,,,,,,Animal,,,,
choice,option,261.6818874999881,262.7094128750032,7,1,,,,,,,,,Animal,,,,
choice,choice,262.70961108396295,276.1732680000132,7,1,,,1,1,12.453181333024986,,,,Animal,,,,
choice,fixation,276.1734022919554,277.42866608395707,8,1,,,,,,,,,Pattern,,,,
choice,option,277.437989500002,278.4656121250009,8,1,,,,,,,,,Pattern,,,,
choice,choice,278.4657230839366,282.43359095894266,8,1,,,2,0,2.957775916089304,,,,Pattern,,,,
memory,free_recall,397.322843916947,431.5714762919815,0,1,,,,,,,,,,,,,
memory,value_recall,511.24862016702536,516.2603945420124,1,1,Object_Land_Pattern_Large,,,,5.008726125000976,,,,,-3,,,
memory,value_recall,517.3061025419738,526.5871612089686,2,1,Animal_Sea_Solid_Small,,,,9.278412584098987,,,,,1,,,
memory,value_recall,528.1349169589812,532.6448234999552,3,1,Animal_Sea_Solid_Large,,,,4.505839957972057,,,,,-6,,,
memory,value_recall,534.6925192499766,537.8864427920198,4,1,Object_Land_Pattern_Small,,,,3.189943708013743,,,,,-2,,,
memory,value_recall,539.6848988749553,543.5648240420269,5,1,Object_Sea_Solid_Small,,,,3.87591295898892,,,,,4,,,
memory,value_recall,544.610394999967,549.1178980839904,6,1,Animal_Land_Pattern_Large,,,,4.501022833050229,,,,,6,,,
memory,spatial_recall,575.03614891693,592.0225859589409,6,1,Animal_Sea_Solid_Small,,,1,16.98256862501148,,,,,,"[-329, 190]","[-329, 190]",
memory,spatial_recall,593.5886633750051,604.30659237504,6,1,Animal_Land_Pattern_Large,,,1,10.713597666937858,,,,,,"[-329, -190]","[-329, -190]",
memory,spatial_recall,605.8745894170133,611.4542802500073,6,1,Object_Land_Pattern_Large,,,1,5.575324333040044,,,,,,"[0, 380]","[0, 380]",
memory,spatial_recall,613.0191069589928,616.238966917037,6,1,Object_Sea_Solid_Small,,,1,3.2156989159993827,,,,,,"[0, -380]","[0, -380]",
memory,spatial_recall,617.80699391698,621.0040290419711,6,1,Object_Land_Pattern_Small,,,1,3.192853834014386,,,,,,"[329, 189]","[329, 189]",
memory,spatial_recall,622.5721987090074,625.1562733750325,6,1,Animal_Sea_Solid_Large,,,1,2.5800195831106976,,,,,,"[329, -190]","[329, -190]",
encoding,fixation,16.036232374957763,17.04269154195208,7,2,Object_Land_Solid_Small,1,,,,,,,,,,,
encoding,image,17.04280362499412,18.05469312495552,7,2,Object_Land_Solid_Small,1,,,,,,,,,,,
encoding,value,18.05479912494775,24.067427375004627,7,2,Object_Land_Solid_Small,1,,,,,,,,,,,
encoding,attention,24.06754441699013,27.08570704201702,7,2,Object_Land_Solid_Small,1,+1,1,0.7994072909932584,,,,,,,,
encoding,fixation,27.08587837498635,27.591126875020564,8,2,Animal_Land_Pattern_Large,-5,,,,,,,,,,,
encoding,image,27.591252458980307,28.60227124998346,8,2,Animal_Land_Pattern_Large,-5,,,,,,,,,,,
encoding,value,28.602370249922387,34.615320959012024,8,2,Animal_Land_Pattern_Large,-5,,,,,,,,,,,
encoding,attention,34.61543949996121,37.632901459001005,8,2,Animal_Land_Pattern_Large,-5,-5,1,1.0357553749345243,,,,,,,,
encoding,fixation,37.63305241696071,39.13732833391987,9,2,Object_Land_Pattern_Small,1,,,,,,,,,,,
encoding,image,39.137450583977625,40.14882004202809,9,2,Object_Land_Pattern_Small,1,,,,,,,,,,,
encoding,value,40.14893383393064,46.16025737498421,9,2,Object_Land_Pattern_Small,1,,,,,,,,,,,
encoding,attention,46.16037120902911,49.176798666943796,9,2,Object_Land_Pattern_Small,1,+1,1,0.8312617080518976,,,,,,,,
encoding,fixation,49.176944458973594,49.93338833400048,10,2,Animal_Sea_Solid_Small,-5,,,,,,,,,,,
encoding,image,49.933485292014666,50.94437974994071,10,2,Animal_Sea_Solid_Small,-5,,,,,,,,,,,
encoding,value,50.944532125024125,56.95621362503152,10,2,Animal_Sea_Solid_Small,-5,,,,,,,,,,,
encoding,attention,56.956335333990864,59.97343433392234,10,2,Animal_Sea_Solid_Small,-5,-5,1,0.8144727499457076,,,,,,,,
encoding,fixation,59.97358012502082,60.47926362499129,11,2,Object_Sea_Solid_Large,-5,,,,,,,,,,,
encoding,image,60.479374291957356,61.49063133401796,11,2,Object_Sea_Solid_Large,-5,,,,,,,,,,,
encoding,value,61.490777499973774,67.50244829198346,11,2,Object_Sea_Solid_Large,-5,,,,,,,,,,,
encoding,attention,67.50255945895333,70.5217426669551,11,2,Object_Sea_Solid_Large,-5,-5,1,1.360217334004119,,,,,,,,
encoding,fixation,70.52190383395646,71.27751345897559,12,2,Animal_Sea_Pattern_Large,5,,,,,,,,,,,
encoding,image,71.27763066696934,72.28796120896004,12,2,Animal_Sea_Pattern_Large,5,,,,,,,,,,,
encoding,value,72.28806345898192,78.29844687494915,12,2,Animal_Sea_Pattern_Large,5,,,,,,,,,,,
encoding,attention,78.2985744170146,81.31473029195331,12,2,Animal_Sea_Pattern_Large,5,+5,1,0.6403940840391442,,,,,,,,
n-back,,,,31,2,,,,1,None,Z,False,None,,,,,
n-back,,,,32,2,,,,0,None,V,True,None,,,,,
n-back,,,,33,2,,,,1,0.601004375028424,Z,True,1,,,,,
n-back,,,,34,2,,,,0,None,V,True,None,,,,,
n-back,,,,35,2,,,,1,0.6838339579990134,Z,True,1,,,,,
n-back,,,,36,2,,,,1,None,Z,False,None,,,,,
n-back,,,,37,2,,,,0,None,Z,True,None,,,,,
n-back,,,,38,2,,,,1,None,B,False,None,,,,,
n-back,,,,39,2,,,,1,None,V,False,None,,,,,
n-back,,,,40,2,,,,1,None,X,False,None,,,,,
n-back,,,,41,2,,,,1,None,X,False,None,,,,,
n-back,,,,42,2,,,,1,None,B,False,None,,,,,
n-back,,,,43,2,,,,1,None,V,False,None,,,,,
n-back,,,,44,2,,,,1,None,N,False,None,,,,,
n-back,,,,45,2,,,,1,None,B,False,None,,,,,
n-back,,,,46,2,,,,1,None,V,False,None,,,,,
n-back,,,,47,2,,,,1,None,X,False,None,,,,,
n-back,,,,48,2,,,,1,None,B,False,None,,,,,
n-back,,,,49,2,,,,1,1.4537181669147685,X,True,1,,,,,
n-back,,,,50,2,,,,1,0.8938040420180187,B,True,1,,,,,
n-back,,,,51,2,,,,1,None,N,False,None,,,,,
n-back,,,,52,2,,,,1,None,X,False,None,,,,,
n-back,,,,53,2,,,,1,None,B,False,None,,,,,
n-back,,,,54,2,,,,0,None,X,True,None,,,,,
n-back,,,,55,2,,,,1,0.7980708749964833,B,True,1,,,,,
n-back,,,,56,2,,,,1,None,C,False,None,,,,,
n-back,,,,57,2,,,,1,None,C,False,None,,,,,
n-back,,,,58,2,,,,1,None,B,False,None,,,,,
n-back,,,,59,2,,,,1,1.2315069580217823,C,True,1,,,,,
n-back,,,,60,2,,,,1,None,C,False,None,,,,,
choice,fixation,164.73833512503188,165.9914839999983,9,2,,,,,,,,,Large,,,,
choice,option,166.00009016692638,167.02802220894955,9,2,,,,,,,,,Large,,,,
choice,choice,167.0281641249312,183.54003970895428,9,2,,,2,1,15.500886916997842,,,,Large,,,,
choice,fixation,183.54017724993173,185.044299375033,10,2,,,,,,,,,Solid,,,,
choice,option,185.0537464589579,186.08189029200003,10,2,,,,,,,,,Solid,,,,
choice,choice,186.0820195840206,206.65871662495192,10,2,,,1,0,19.565811500069685,,,,Solid,,,,
choice,fixation,206.65885579201858,207.9140290840296,11,2,,,,,,,,,Small,,,,
choice,option,207.92259066703264,208.94979162502568,11,2,,,,,,,,,Small,,,,
choice,choice,208.94992587494198,217.19562470901292,11,2,,,2,1,7.235825791023672,,,,Small,,,,
choice,fixation,217.1957608340308,217.95071583392564,12,2,,,,,,,,,Sea,,,,
choice,option,217.95928533398546,218.9855607500067,12,2,,,,,,,,,Sea,,,,
choice,choice,218.98567399999592,226.72363558399957,12,2,,,2,1,6.728127708076499,,,,Sea,,,,
choice,fixation,226.72375825000927,227.47890612494666,13,2,,,,,,,,,Animal,,,,
choice,option,227.48823087499477,228.5156109170057,13,2,,,,,,,,,Animal,,,,
choice,choice,228.51580591697711,237.69058183394372,13,2,,,2,1,8.164197333040647,,,,Animal,,,,
choice,fixation,237.69072129193228,238.44906070898287,14,2,,,,,,,,,Land,,,,
choice,option,238.45766737498343,239.48419295903295,14,2,,,,,,,,,Land,,,,
choice,choice,239.48430975002702,252.124413750018,14,2,,,2,1,11.628369000041857,,,,Land,,,,
choice,fixation,252.12453862500843,252.8814295839984,15,2,,,,,,,,,Pattern,,,,
choice,option,252.89078354195226,253.91739091696218,15,2,,,,,,,,,Pattern,,,,
choice,choice,253.91750595893245,260.01148308394477,15,2,,,1,1,5.084119000006467,,,,Pattern,,,,
choice,fixation,260.01168158394285,260.76627687492874,16,2,,,,,,,,,Object,,,,
choice,option,260.77569187502377,261.80254270893056,16,2,,,,,,,,,Object,,,,
choice,choice,261.8026540420251,270.25290391698945,16,2,,,1,0,7.440315291984007,,,,Object,,,,
memory,free_recall,304.53177729202434,328.3659906249959,6,2,,,,,,,,,,,,,
memory,value_recall,338.45753583393525,345.517648249981,7,2,Animal_Sea_Solid_Small,,,,7.051966583007015,,,,,-5,,,
memory,value_recall,347.56535699998494,349.3262671249686,8,2,Object_Land_Solid_Small,,,,1.7567997080041096,,,,,1,,,
memory,value_recall,350.373337291996,356.5158305419609,9,2,Object_Sea_Solid_Large,,,,6.139364583068527,,,,,-5,,,
memory,value_recall,357.8153525419766,361.9019809999736,10,2,Animal_Land_Pattern_Large,,,,4.082507665967569,,,,,-5,,,
memory,value_recall,363.69936037494335,368.9487721249461,11,2,Animal_Sea_Pattern_Large,,,,5.245313916937448,,,,,5,,,
memory,value_recall,369.99402070895303,373.75755500001833,12,2,Object_Land_Pattern_Small,,,,3.760040875058621,,,,,1,,,
memory,spatial_recall,387.7417100840248,396.9013095420087,12,2,Animal_Sea_Pattern_Large,,,1,9.15308937500231,,,,,,"[0, -380]","[0, -380]",
memory,spatial_recall,397.96978275000583,399.81743762502447,12,2,Animal_Sea_Solid_Small,,,1,1.8452817909419537,,,,,,"[-329, 190]","[-329, 190]",
memory,spatial_recall,401.88622520898934,405.51916058396455,12,2,Animal_Land_Pattern_Large,,,1,3.6289268330438063,,,,,,"[-329, -190]","[-329, -190]",
memory,spatial_recall,407.08573662501294,408.76906095899176,12,2,Object_Land_Solid_Small,,,1,1.6793365830089897,,,,,,"[0, 380]","[0, 380]",
memory,spatial_recall,410.08626341691706,414.1351518339943,12,2,Object_Land_Pattern_Small,,,1,4.0448852920671925,,,,,,"[329, 189]","[329, 189]",
memory,spatial_recall,415.45600758399814,417.0697174590314,12,2,Object_Sea_Solid_Large,,,1,1.6094974590232596,,,,,,"[329, -190]","[329, -190]",
encoding,fixation,21.685589125030674,23.191937791067176,13,3,Animal_Land_Pattern_Large,-4,,,,,,,,,,,
encoding,image,23.192066916031763,24.203304458060302,13,3,Animal_Land_Pattern_Large,-4,,,,,,,,,,,
encoding,value,24.203418166027404,30.21661729097832,13,3,Animal_Land_Pattern_Large,-4,,,,,,,,,,,
encoding,attention,30.216737458016723,33.238193958066404,13,3,Animal_Land_Pattern_Large,-4,-4,1,0.9492082499200478,,,,,,,,
encoding,fixation,33.23834920802619,34.49354862503242,14,3,Animal_Land_Solid_Small,3,,,,,,,,,,,
encoding,image,34.4936594159808,35.50442366604693,14,3,Animal_Land_Solid_Small,3,,,,,,,,,,,
encoding,value,35.50459145801142,41.5164511250332,14,3,Animal_Land_Solid_Small,3,,,,,,,,,,,
encoding,attention,41.51656241598539,44.53604425000958,14,3,Animal_Land_Solid_Small,3,+3,1,0.8133206670172513,,,,,,,,
encoding,fixation,44.53620933298953,46.04126437497325,15,3,Object_Land_Pattern_Large,8,,,,,,,,,,,
encoding,image,46.041404957999475,47.05350029096007,15,3,Object_Land_Pattern_Large,8,,,,,,,,,,,
encoding,value,47.053633208037354,53.066296290955506,15,3,Object_Land_Pattern_Large,8,,,,,,,,,,,
encoding,attention,53.06640641600825,56.087544874986634,15,3,Object_Land_Pattern_Large,8,+8,1,0.843047000002116,,,,,,,,
encoding,fixation,56.087707124999724,56.84278525004629,16,3,Object_Sea_Solid_Large,-1,,,,,,,,,,,
encoding,image,56.84289308299776,57.85483533295337,16,3,Object_Sea_Solid_Large,-1,,,,,,,,,,,
encoding,value,57.854940750054084,63.86727849999443,16,3,Object_Sea_Solid_Large,-1,,,,,,,,,,,
encoding,attention,63.86740966595244,66.88931362505537,16,3,Object_Sea_Solid_Large,-1,-1,1,0.7929475830169395,,,,,,,,
encoding,fixation,66.88950520800427,67.394945750013,17,3,Object_Sea_Pattern_Small,-6,,,,,,,,,,,
encoding,image,67.39505279099103,68.40581041597761,17,3,Object_Sea_Pattern_Small,-6,,,,,,,,,,,
encoding,value,68.40593883302063,74.4179501660401,17,3,Object_Sea_Pattern_Small,-6,,,,,,,,,,,
encoding,attention,74.4180708329659,77.43778074998409,17,3,Object_Sea_Pattern_Small,-6,-6,1,0.9390246249968186,,,,,,,,
encoding,fixation,77.43801170797087,78.1931202079868,18,3,Animal_Sea_Solid_Small,5,,,,,,,,,,,
encoding,image,78.19322479097173,79.20364083303139,18,3,Animal_Sea_Solid_Small,5,,,,,,,,,,,
encoding,value,79.20382337504998,85.21658370795194,18,3,Animal_Sea_Solid_Small,5,,,,,,,,,,,
encoding,attention,85.21671191602945,88.23416620795615,18,3,Animal_Sea_Solid_Small,5,+5,1,1.8490276669617742,,,,,,,,
n-back,,,,61,3,,,,1,None,B,False,None,,,,,
n-back,,,,62,3,,,,1,None,V,False,None,,,,,
n-back,,,,63,3,,,,1,0.48900349996984005,B,True,1,,,,,
n-back,,,,64,3,,,,1,1.050278167007491,V,True,1,,,,,
n-back,,,,65,3,,,,1,None,X,False,None,,,,,
n-back,,,,66,3,,,,1,None,C,False,None,,,,,
n-back,,,,67,3,,,,1,0.666796916979365,X,True,1,,,,,
n-back,,,,68,3,,,,1,None,V,False,None,,,,,
n-back,,,,69,3,,,,1,None,V,False,None,,,,,
n-back,,,,70,3,,,,1,None,Z,False,None,,,,,
n-back,,,,71,3,,,,1,1.207166666048579,V,True,1,,,,,
n-back,,,,72,3,,,,1,None,B,False,None,,,,,
n-back,,,,73,3,,,,1,1.005917957983911,V,True,1,,,,,
n-back,,,,74,3,,,,1,None,N,False,None,,,,,
n-back,,,,75,3,,,,1,None,X,False,None,,,,,
n-back,,,,76,3,,,,0,1.1511701670242473,B,False,1,,,,,
n-back,,,,77,3,,,,1,None,V,False,None,,,,,
n-back,,,,78,3,,,,1,None,Z,False,None,,,,,
n-back,,,,79,3,,,,1,None,Z,False,None,,,,,
n-back,,,,80,3,,,,0,None,Z,True,None,,,,,
n-back,,,,81,3,,,,1,None,X,False,None,,,,,
n-back,,,,82,3,,,,1,None,N,False,None,,,,,
n-back,,,,83,3,,,,1,None,C,False,None,,,,,
n-back,,,,84,3,,,,0,None,N,True,None,,,,,
n-back,,,,85,3,,,,1,None,V,False,None,,,,,
n-back,,,,86,3,,,,1,None,Z,False,None,,,,,
n-back,,,,87,3,,,,1,1.2393405420007184,V,True,1,,,,,
n-back,,,,88,3,,,,1,None,V,False,None,,,,,
n-back,,,,89,3,,,,1,0.8421317499596626,V,True,1,,,,,
n-back,,,,90,3,,,,1,1.4353229589760303,V,True,1,,,,,
choice,fixation,170.50749975000508,171.2607431249926,17,3,,,,,,,,,Animal,,,,
choice,option,171.27019595797174,172.29807179095224,17,3,,,,,,,,,Animal,,,,
choice,choice,172.29817629104946,191.02044224995188,17,3,,,1,1,17.711404417059384,,,,Animal,,,,
choice,fixation,191.02056479104795,192.2755255829543,18,3,,,,,,,,,Large,,,,
choice,option,192.28439437504858,193.31183166604023,18,3,,,,,,,,,Large,,,,
choice,choice,193.31195333297364,197.65726750006434,18,3,,,1,1,3.335698000038974,,,,Large,,,,
choice,fixation,197.65739112498704,198.41285683296155,19,3,,,,,,,,,Small,,,,
choice,option,198.4223030830035,199.45001383300405,19,3,,,,,,,,,Small,,,,
choice,choice,199.45013554103207,206.70561179099604,19,3,,,2,0,6.245647665928118,,,,Small,,,,
choice,fixation,206.7057552500628,207.46073695796076,20,3,,,,,,,,,Object,,,,
choice,option,207.46993566595484,208.4967818330042,20,3,,,,,,,,,Object,,,,
choice,choice,208.49692195805255,228.9640184160089,20,3,,,1,1,19.456212916993536,,,,Object,,,,
choice,fixation,228.96416162501555,230.46918620797805,21,3,,,,,,,,,Land,,,,
choice,option,230.47788500005845,231.50456000003032,21,3,,,,,,,,,Land,,,,
choice,choice,231.50472495798022,247.74033241602592,21,3,,,2,0,15.22476158302743,,,,Land,,,,
choice,fixation,247.74051699996926,248.99546195799485,22,3,,,,,,,,,Solid,,,,
choice,option,249.0056267910404,250.03345454100054,22,3,,,,,,,,,Solid,,,,
choice,choice,250.0335840410553,255.32223937497474,22,3,,,2,0,4.2795675420202315,,,,Solid,,,,
choice,fixation,255.32240425003693,256.0774427499855,23,3,,,,,,,,,Pattern,,,,
choice,option,256.086575207999,257.1134549160488,23,3,,,,,,,,,Pattern,,,,
choice,choice,257.11355662497226,268.5550887080608,23,3,,,1,0,10.430920916958712,,,,Pattern,,,,
choice,fixation,268.55522066599224,269.8102824999951,24,3,,,,,,,,,Sea,,,,
choice,option,269.8185645410558,270.8456042499747,24,3,,,,,,,,,Sea,,,,
choice,choice,270.84573016606737,275.78855983295944,24,3,,,2,1,3.9327957089990377,,,,Sea,,,,
memory,free_recall,304.0151268329937,327.0673509580083,12,3,,,,,,,,,,,,,
memory,value_recall,337.6969243750209,343.9323022910394,13,3,Animal_Sea_Solid_Small,,,,6.231292458018288,,,,,5,,,
memory,value_recall,345.2291164159542,348.83760683296714,14,3,Animal_Land_Solid_Small,,,,3.604413541033864,,,,,3,,,
memory,value_recall,350.8834166660672,353.7406908329576,15,3,Animal_Land_Pattern_Large,,,,2.8531296249711886,,,,,-4,,,
memory,value_recall,355.2865609580185,359.7736442909809,16,3,Object_Sea_Solid_Large,,,,4.482911166967824,,,,,-1,,,
memory,value_recall,361.57004491600674,364.6277072080411,17,3,Object_Sea_Pattern_Small,,,,3.0534952089656144,,,,,-6,,,
memory,value_recall,365.67300233303104,368.73343899997417,18,3,Object_Land_Pattern_Large,,,,3.057246790966019,,,,,8,,,
memory,spatial_recall,377.05246362497564,381.6849804579979,18,3,Object_Sea_Solid_Large,,,1,4.629923624917865,,,,,,"[329, -190]","[329, -190]",
memory,spatial_recall,383.75515550002456,391.16860687499866,18,3,Animal_Land_Solid_Small,,,1,7.409412625012919,,,,,,"[0, -380]","[0, -380]",
memory,spatial_recall,392.73598212504294,395.18716787500307,18,3,Animal_Land_Pattern_Large,,,1,2.4472205420024693,,,,,,"[-329, -190]","[-329, -190]",
memory,spatial_recall,396.50710045802407,397.833678749972,18,3,Object_Land_Pattern_Large,,,1,1.32258987496607,,,,,,"[0, 380]","[0, 380]",
memory,spatial_recall,399.40279445797205,401.0868277499685,18,3,Object_Sea_Pattern_Small,,,1,1.6799077920150012,,,,,,"[329, 189]","[329, 189]",
memory,spatial_recall,402.1541654160246,404.55084187502507,18,3,Animal_Sea_Solid_Small,,,1,2.3941634580260143,,,,,,"[-329, 190]","[-329, 190]",
encoding,fixation,22.509633000008762,23.266499749966897,19,4,Animal_Land_Solid_Large,-4,,,,,,,,,,,
encoding,image,23.266647750046104,24.282284582965076,19,4,Animal_Land_Solid_Large,-4,,,,,,,,,,,
encoding,value,24.28240383299999,30.298065999988467,19,4,Animal_Land_Solid_Large,-4,,,,,,,,,,,
encoding,attention,30.29817941703368,33.318471917067654,19,4,Animal_Land_Solid_Large,-4,-4,1,1.3571351250866428,,,,,,,,
encoding,fixation,33.318621000042185,34.574067417066544,20,4,Object_Sea_Pattern_Large,-1,,,,,,,,,,,
encoding,image,34.574193667038344,35.587709542014636,20,4,Object_Sea_Pattern_Large,-1,,,,,,,,,,,
encoding,value,35.587805291987024,41.60024295805488,20,4,Object_Sea_Pattern_Large,-1,,,,,,,,,,,
encoding,attention,41.60038487496786,44.61946129205171,20,4,Object_Sea_Pattern_Large,-1,-1,1,1.1854150419821963,,,,,,,,
encoding,fixation,44.61961887497455,45.87482812500093,21,4,Animal_Sea_Pattern_Small,4,,,,,,,,,,,
encoding,image,45.87493679206818,46.88659450004343,21,4,Animal_Sea_Pattern_Small,4,,,,,,,,,,,
encoding,value,46.886716249980964,52.89809358306229,21,4,Animal_Sea_Pattern_Small,4,,,,,,,,,,,
encoding,attention,52.89821033296175,55.9216650420567,21,4,Animal_Sea_Pattern_Small,4,+4,1,1.5640594171127304,,,,,,,,
encoding,fixation,55.921836792025715,57.426851249998435,22,4,Animal_Land_Pattern_Small,-1,,,,,,,,,,,
encoding,image,57.427006499958225,58.43892537499778,22,4,Animal_Land_Pattern_Small,-1,,,,,,,,,,,
encoding,value,58.4390367079759,64.45113508298527,22,4,Animal_Land_Pattern_Small,-1,,,,,,,,,,,
encoding,attention,64.45123904198408,67.46910600003321,22,4,Animal_Land_Pattern_Small,-1,-1,1,1.0692292919848114,,,,,,,,
encoding,fixation,67.4692571250489,68.72437062498648,23,4,Object_Land_Solid_Large,6,,,,,,,,,,,
encoding,image,68.72448425006587,69.73416966700461,23,4,Object_Land_Solid_Large,6,,,,,,,,,,,
encoding,value,69.73431945801713,75.74523600004613,23,4,Object_Land_Solid_Large,6,,,,,,,,,,,
encoding,attention,75.74534187500831,78.7636051250156,23,4,Object_Land_Solid_Large,6,+6,1,1.171971832984127,,,,,,,,
encoding,fixation,78.76377362501808,79.26910066697747,24,4,Object_Sea_Solid_Small,-4,,,,,,,,,,,
encoding,image,79.26921354199294,80.28171645803377,24,4,Object_Sea_Solid_Small,-4,,,,,,,,,,,
encoding,value,80.28184629196767,86.29217958298977,24,4,Object_Sea_Solid_Small,-4,,,,,,,,,,,
encoding,attention,86.29231191705912,89.31153595796786,24,4,Object_Sea_Solid_Small,-4,-4,1,1.0931490419898182,,,,,,,,
n-back,,,,91,4,,,,0,None,V,True,None,,,,,
n-back,,,,92,4,,,,0,None,C,True,None,,,,,
n-back,,,,93,4,,,,1,0.4548360420158133,V,True,1,,,,,
n-back,,,,94,4,,,,1,None,X,False,None,,,,,
n-back,,,,95,4,,,,1,1.2496224170317873,V,True,1,,,,,
n-back,,,,96,4,,,,1,None,C,False,None,,,,,
n-back,,,,97,4,,,,1,None,C,False,None,,,,,
n-back,,,,98,4,,,,1,0.5470819169422612,C,True,1,,,,,
n-back,,,,99,4,,,,0,None,C,True,None,,,,,
n-back,,,,100,4,,,,1,None,B,False,None,,,,,
n-back,,,,101,4,,,,1,None,N,False,None,,,,,
n-back,,,,102,4,,,,1,None,V,False,None,,,,,
n-back,,,,103,4,,,,1,None,B,False,None,,,,,
n-back,,,,104,4,,,,1,None,C,False,None,,,,,
n-back,,,,105,4,,,,1,None,V,False,None,,,,,
n-back,,,,106,4,,,,1,None,X,False,None,,,,,
n-back,,,,107,4,,,,1,None,X,False,None,,,,,
n-back,,,,108,4,,,,1,None,N,False,None,,,,,
n-back,,,,109,4,,,,1,None,B,False,None,,,,,
n-back,,,,110,4,,,,1,1.0005350830033422,N,True,1,,,,,
n-back,,,,111,4,,,,1,1.163115624920465,B,True,1,,,,,
n-back,,,,112,4,,,,1,None,V,False,None,,,,,
n-back,,,,113,4,,,,1,1.1046677080448717,B,True,1,,,,,
n-back,,,,114,4,,,,1,None,B,False,None,,,,,
n-back,,,,115,4,,,,1,None,N,False,None,,,,,
n-back,,,,116,4,,,,1,None,Z,False,None,,,,,
n-back,,,,117,4,,,,1,0.6323207499226555,N,True,1,,,,,
n-back,,,,118,4,,,,1,None,B,False,None,,,,,
n-back,,,,119,4,,,,1,None,C,False,None,,,,,
n-back,,,,120,4,,,,1,None,N,False,None,,,,,
choice,fixation,169.42093612498138,170.42451437504496,25,4,,,,,,,,,Object,,,,
choice,option,170.4355906250421,171.54646500002127,25,4,,,,,,,,,Object,,,,
choice,choice,171.54658750002272,178.34431833296549,25,4,,,1,1,5.7851755829760805,,,,Object,,,,
choice,fixation,178.3445457080379,179.09959600004368,26,4,,,,,,,,,Pattern,,,,
choice,option,179.10903029202018,180.13804474996869,26,4,,,,,,,,,Pattern,,,,
choice,choice,180.13817454199307,193.15250662504695,26,4,,,1,1,12.00018245796673,,,,Pattern,,,,
choice,fixation,193.1526353750378,194.4082060829969,27,4,,,,,,,,,Solid,,,,
choice,option,194.41811370803043,195.4479851250071,27,4,,,,,,,,,Solid,,,,
choice,choice,195.44811966700945,212.53435804205947,27,4,,,1,0,16.073909915983677,,,,Solid,,,,
choice,fixation,212.53448154206853,213.2895481250016,28,4,,,,,,,,,Animal,,,,
choice,option,213.29910891701002,214.32770870800596,28,4,,,,,,,,,Animal,,,,
choice,choice,214.32782445801422,225.36449183302466,28,4,,,1,0,10.026691583101638,,,,Animal,,,,
choice,fixation,225.36462241702247,226.86951783299446,29,4,,,,,,,,,Small,,,,
choice,option,226.87850166705903,227.90665875002742,29,4,,,,,,,,,Small,,,,
choice,choice,227.9067852080334,234.99849520798307,29,4,,,2,1,6.079415250103921,,,,Small,,,,
choice,fixation,234.99861554196104,236.0038197080139,30,4,,,,,,,,,Land,,,,
choice,option,236.01216870802455,237.0402780000586,30,4,,,,,,,,,Land,,,,
choice,choice,237.04040275001898,245.4386064170394,30,4,,,1,1,7.388421625015326,,,,Land,,,,
choice,fixation,245.43873404199257,246.44398325006478,31,4,,,,,,,,,Large,,,,
choice,option,246.45269258297049,247.48200654203538,31,4,,,,,,,,,Large,,,,
choice,choice,247.48211220803205,249.72347287496086,31,4,,,1,1,1.2317042500944808,,,,Large,,,,
choice,fixation,249.72360529203434,250.72850158298388,32,4,,,,,,,,,Sea,,,,
choice,option,250.73695941700134,251.76430566702038,32,4,,,,,,,,,Sea,,,,
choice,choice,251.76444933295716,263.47550479206257,32,4,,,2,1,10.700646292068996,,,,Sea,,,,
memory,free_recall,275.1748399169883,297.4384302080143,18,4,,,,,,,,,,,,,
memory,value_recall,301.37048929196317,306.8693337920122,19,4,Object_Sea_Solid_Small,,,,5.494709709077142,,,,,-4,,,
memory,value_recall,308.915937541984,311.3988992499653,20,4,Object_Sea_Pattern_Large,,,,2.478966834023595,,,,,-1,,,
memory,value_recall,312.4454009580659,316.2368923750473,21,4,Animal_Land_Solid_Large,,,,3.7882080409908667,,,,,-4,,,
memory,value_recall,317.783045707969,320.3650136250071,22,4,Animal_Land_Pattern_Small,,,,2.577627541963011,,,,,-1,,,
memory,value_recall,322.16243354196195,323.9831865830347,23,4,Object_Land_Solid_Large,,,,1.816533166100271,,,,,6,,,
memory,value_recall,325.0286635829834,327.9820175420027,24,4,Animal_Sea_Pattern_Small,,,,2.950284708989784,,,,,4,,,
memory,spatial_recall,334.0158421250526,338.8874178749975,24,4,Object_Sea_Solid_Small,,,0,4.867388416081667,,,,,,"[0, -380]","[329, -190]",
memory,spatial_recall,340.9523950830335,343.1856719580246,24,4,Object_Land_Solid_Large,,,1,2.2292552910512313,,,,,,"[-329, -190]","[-329, -190]",
memory,spatial_recall,344.75333904195577,345.766218499979,24,4,Animal_Sea_Pattern_Small,,,1,1.0088478749385104,,,,,,"[0, 380]","[0, 380]",
memory,spatial_recall,347.58734654204454,348.9861711249687,24,4,Object_Sea_Pattern_Large,,,1,1.3944790000095963,,,,,,"[-329, 190]","[-329, 190]",
memory,spatial_recall,350.29777141695376,354.9682269169716,24,4,Animal_Land_Solid_Large,,,1,4.666461584041826,,,,,,"[329, 189]","[329, 189]",
memory,spatial_recall,356.7863930000458,359.7686422499828,24,4,Animal_Land_Pattern_Small,,,1,2.9779429169138893,,,,,,"[329, -190]","[329, -190]",
encoding,fixation,10.537431042059325,12.042446000035852,25,5,Object_Land_Pattern_Small,8,,,,,,,,,,,
encoding,image,12.042556707980111,13.054122833069414,25,5,Object_Land_Pattern_Small,8,,,,,,,,,,,
encoding,value,13.054231667076237,19.06755100004375,25,5,Object_Land_Pattern_Small,8,,,,,,,,,,,
encoding,attention,19.06769279204309,22.08259791706223,25,5,Object_Land_Pattern_Small,8,None,None,None,,,,,,,,
encoding,fixation,22.08273675001692,22.591307875001803,26,5,Animal_Sea_Solid_Small,4,,,,,,,,,,,
encoding,image,22.591434375033714,23.603281207964756,26,5,Animal_Sea_Solid_Small,4,,,,,,,,,,,
encoding,value,23.60343474999536,29.615079750074074,26,5,Animal_Sea_Solid_Small,4,,,,,,,,,,,
encoding,attention,29.61518970807083,32.6325067919679,26,5,Animal_Sea_Solid_Small,4,+4,1,0.6644220419693738,,,,,,,,
encoding,fixation,32.632754417019896,33.641159416991286,27,5,Object_Sea_Solid_Large,2,,,,,,,,,,,
encoding,image,33.6412605419755,34.65336116706021,27,5,Object_Sea_Solid_Large,2,,,,,,,,,,,
encoding,value,34.65346916706767,40.66680287499912,27,5,Object_Sea_Solid_Large,2,,,,,,,,,,,
encoding,attention,40.66692554205656,43.6850977500435,27,5,Object_Sea_Solid_Large,2,+2,1,0.795806625043042,,,,,,,,
encoding,fixation,43.68534937500954,44.19068237498868,28,5,Animal_Sea_Pattern_Large,-8,,,,,,,,,,,
encoding,image,44.19080029206816,45.2012064170558,28,5,Animal_Sea_Pattern_Large,-8,,,,,,,,,,,
encoding,value,45.201326208072715,51.21238037501462,28,5,Animal_Sea_Pattern_Large,-8,,,,,,,,,,,
encoding,attention,51.21249483304564,54.229363874997944,28,5,Animal_Sea_Pattern_Large,-8,-8,1,0.7149249999783933,,,,,,,,
encoding,fixation,54.22954995802138,54.73489245807286,29,5,Object_Land_Solid_Small,-9,,,,,,,,,,,
encoding,image,54.735012167016976,55.74621216696687,29,5,Object_Land_Solid_Small,-9,,,,,,,,,,,
encoding,value,55.74632425000891,61.758402792038396,29,5,Object_Land_Solid_Small,-9,,,,,,,,,,,
encoding,attention,61.758575042011216,64.7753756250022,29,5,Object_Land_Solid_Small,-9,-9,1,0.6181210000067949,,,,,,,,
encoding,fixation,64.77553758304566,65.28047454205807,30,5,Animal_Land_Pattern_Large,7,,,,,,,,,,,
encoding,image,65.28057737497147,66.29155633307528,30,5,Animal_Land_Pattern_Large,7,,,,,,,,,,,
encoding,value,66.29167741700076,72.30355987499934,30,5,Animal_Land_Pattern_Large,7,,,,,,,,,,,
encoding,attention,72.30366962507833,75.32168737507891,30,5,Animal_Land_Pattern_Large,7,+7,1,0.8270686669275165,,,,,,,,
n-back,,,,121,5,,,,0,None,V,True,None,,,,,
n-back,,,,122,5,,,,1,None,V,False,None,,,,,
n-back,,,,123,5,,,,1,0.6279367909301072,V,True,1,,,,,
n-back,,,,124,5,,,,1,None,N,False,None,,,,,
n-back,,,,125,5,,,,1,None,Z,False,None,,,,,
n-back,,,,126,5,,,,1,0.8520917079877108,N,True,1,,,,,
n-back,,,,127,5,,,,1,None,X,False,None,,,,,
n-back,,,,128,5,,,,1,None,C,False,None,,,,,
n-back,,,,129,5,,,,1,1.0779488330008462,X,True,1,,,,,
n-back,,,,130,5,,,,1,1.018396959058009,C,True,1,,,,,
n-back,,,,131,5,,,,1,None,C,False,None,,,,,
n-back,,,,132,5,,,,1,0.6855941249523312,C,True,1,,,,,
n-back,,,,133,5,,,,1,None,X,False,None,,,,,
n-back,,,,134,5,,,,1,None,V,False,None,,,,,
n-back,,,,135,5,,,,1,None,V,False,None,,,,,
n-back,,,,136,5,,,,1,None,C,False,None,,,,,
n-back,,,,137,5,,,,1,None,N,False,None,,,,,
n-back,,,,138,5,,,,1,None,X,False,None,,,,,
n-back,,,,139,5,,,,1,None,V,False,None,,,,,
n-back,,,,140,5,,,,1,None,Z,False,None,,,,,
n-back,,,,141,5,,,,1,0.7478652920108289,V,True,1,,,,,
n-back,,,,142,5,,,,1,None,N,False,None,,,,,
n-back,,,,143,5,,,,1,None,Z,False,None,,,,,
n-back,,,,144,5,,,,1,1.0083397909766063,N,True,1,,,,,
n-back,,,,145,5,,,,1,None,B,False,None,,,,,
n-back,,,,146,5,,,,1,None,B,False,None,,,,,
n-back,,,,147,5,,,,1,0.395259959041141,B,True,1,,,,,
n-back,,,,148,5,,,,1,None,X,False,None,,,,,
n-back,,,,149,5,,,,1,None,N,False,None,,,,,
n-back,,,,150,5,,,,1,0.7337777910288423,X,True,1,,,,,
choice,fixation,152.23396345798392,152.99006254202686,33,5,,,,,,,,,Land,,,,
choice,option,152.99842641700525,154.02447129203938,33,5,,,,,,,,,Land,,,,
choice,choice,154.0246027080575,160.1807719579665,33,5,,,1,1,5.146667541004717,,,,Land,,,,
choice,fixation,160.1809077920625,161.18586583307479,34,5,,,,,,,,,Small,,,,
choice,option,161.1949954170268,162.22133179206867,34,5,,,,,,,,,Small,,,,
choice,choice,162.22144079196732,163.79019520804286,34,5,,,1,1,0.5580921670189127,,,,Small,,,,
choice,fixation,163.7903283330379,164.5452118749963,35,5,,,,,,,,,Solid,,,,
choice,option,164.55448612500913,165.580408708076,35,5,,,,,,,,,Solid,,,,
choice,choice,165.5805460830452,180.36940841702744,35,5,,,2,1,13.776428124983795,,,,Solid,,,,
choice,fixation,180.3695350830676,181.37471112504136,36,5,,,,,,,,,Sea,,,,
choice,option,181.38317145803012,182.4096609170083,36,5,,,,,,,,,Sea,,,,
choice,choice,182.40976970805787,187.5333792080637,36,5,,,1,0,4.113806707900949,,,,Sea,,,,
choice,fixation,187.53351612505503,188.53863550000824,37,5,,,,,,,,,Large,,,,
choice,option,188.5472542080097,189.57497337507084,37,5,,,,,,,,,Large,,,,
choice,choice,189.57507324998733,193.5430045420071,37,5,,,2,0,2.9584845829522237,,,,Large,,,,
choice,fixation,193.5431271250127,195.04802887502592,38,5,,,,,,,,,Animal,,,,
choice,option,195.057295333012,196.08543720806483,38,5,,,,,,,,,Animal,,,,
choice,choice,196.08555079204962,197.41379391704686,38,5,,,1,1,0.31943629204761237,,,,Animal,,,,
choice,fixation,197.41390958300326,197.9190173749812,39,5,,,,,,,,,Object,,,,
choice,option,197.92871883301996,198.95676241698675,39,5,,,,,,,,,Object,,,,
choice,choice,198.95688462501857,200.66891862498596,39,5,,,1,1,0.7017719170544297,,,,Object,,,,
choice,fixation,200.66905304207467,201.42436479206663,40,5,,,,,,,,,Pattern,,,,
choice,option,201.433833417017,202.46102920803241,40,5,,,,,,,,,Pattern,,,,
choice,choice,202.461191667011,206.25262554199435,40,5,,,2,0,2.7815970829688013,,,,Pattern,,,,
memory,free_recall,222.1764158330625,246.39973095804453,24,5,,,,,,,,,,,,,
memory,value_recall,249.29077487497125,252.81756412505638,25,5,Object_Land_Solid_Small,,,,3.522754375007935,,,,,-9,,,
memory,value_recall,253.8644967500586,257.8011195000727,26,5,Object_Land_Pattern_Small,,,,3.933040375006385,,,,,8,,,
memory,value_recall,259.8484035420697,265.4003723330097,27,5,Animal_Land_Pattern_Large,,,,5.547408665996045,,,,,7,,,
memory,value_recall,266.6989053330617,268.8075395419728,28,5,Object_Sea_Solid_Large,,,,2.104467833065428,,,,,2,,,
memory,value_recall,269.8575445000315,273.6158582919743,29,5,Animal_Sea_Solid_Small,,,,3.7557318749604747,,,,,4,,,
memory,value_recall,275.41346987499855,282.5291999169858,30,5,Animal_Sea_Pattern_Large,,,,7.111525250016712,,,,,-8,,,
memory,spatial_recall,284.9763967919862,290.34246854204684,30,5,Object_Sea_Solid_Large,,,1,5.363706124946475,,,,,,"[329, -190]","[329, -190]",
memory,spatial_recall,291.91394891706295,294.0287816670025,30,5,Object_Land_Solid_Small,,,1,2.1103776250965893,,,,,,"[0, 380]","[0, 380]",
memory,spatial_recall,296.09536733303685,299.0293553749798,30,5,Animal_Land_Pattern_Large,,,1,2.929452750016935,,,,,,"[-329, -190]","[-329, -190]",
memory,spatial_recall,301.09599299996626,303.37727833306417,30,5,Object_Land_Pattern_Small,,,1,2.2771835000021383,,,,,,"[329, 189]","[329, 189]",
memory,spatial_recall,305.19138191698585,309.8796375830425,30,5,Animal_Sea_Pattern_Large,,,1,4.684335207915865,,,,,,"[0, -380]","[0, -380]",
memory,spatial_recall,311.1924084579805,313.75777949998155,30,5,Animal_Sea_Solid_Small,,,1,2.5613297499949113,,,,,,"[-329, 190]","[-329, 190]",
encoding,fixation,5.952704375027679,6.708278457983397,31,6,Object_Land_Pattern_Small,1,,,,,,,,,,,
encoding,image,6.7083968330407515,7.721325917053036,31,6,Object_Land_Pattern_Small,1,,,,,,,,,,,
encoding,value,7.721422458067536,13.737306208000518,31,6,Object_Land_Pattern_Small,1,,,,,,,,,,,
encoding,attention,13.737405917025171,16.75655070808716,31,6,Object_Land_Pattern_Small,1,+1,1,0.44853562500793487,,,,,,,,
encoding,fixation,16.75670429202728,17.26193979207892,32,6,Animal_Sea_Pattern_Small,-9,,,,,,,,,,,
encoding,image,17.262044500093907,18.2730316669913,32,6,Animal_Sea_Pattern_Small,-9,,,,,,,,,,,
encoding,value,18.273165167076513,24.288333583041094,32,6,Animal_Sea_Pattern_Small,-9,,,,,,,,,,,
encoding,attention,24.28855595807545,27.306005917023867,32,6,Animal_Sea_Pattern_Small,-9,-9,1,0.684516999986954,,,,,,,,
encoding,fixation,27.306198958074674,28.061898207990453,33,6,Object_Land_Solid_Large,-5,,,,,,,,,,,
encoding,image,28.06199950003065,29.071935791987926,33,6,Object_Land_Solid_Large,-5,,,,,,,,,,,
encoding,value,29.072084875078872,35.08312770805787,33,6,Object_Land_Solid_Large,-5,,,,,,,,,,,
encoding,attention,35.083249625051394,38.098928292049095,33,6,Object_Land_Solid_Large,-5,-5,1,0.6927651250734925,,,,,,,,
encoding,fixation,38.0990959580522,38.854768875055015,34,6,Animal_Sea_Solid_Large,3,,,,,,,,,,,
encoding,image,38.85489816707559,39.86721341707744,34,6,Animal_Sea_Solid_Large,3,,,,,,,,,,,
encoding,value,39.86731908307411,45.87887800007593,34,6,Animal_Sea_Solid_Large,3,,,,,,,,,,,
encoding,attention,45.87898966704961,48.89620991703123,34,6,Animal_Sea_Solid_Large,3,+3,1,1.5644507079850882,,,,,,,,
encoding,fixation,48.896455832989886,49.40174016705714,35,6,Animal_Land_Solid_Small,1,,,,,,,,,,,
encoding,image,49.40185266698245,50.41311241697986,35,6,Animal_Land_Solid_Small,1,,,,,,,,,,,
encoding,value,50.41330770798959,56.42412212502677,35,6,Animal_Land_Solid_Small,1,,,,,,,,,,,
encoding,attention,56.42424987500999,59.44326704205014,35,6,Animal_Land_Solid_Small,1,+1,1,0.5672650419874117,,,,,,,,
encoding,fixation,59.44342641707044,60.4486494170269,36,6,Object_Sea_Pattern_Large,1,,,,,,,,,,,
encoding,image,60.44882295804564,61.46041712502483,36,6,Object_Sea_Pattern_Large,1,,,,,,,,,,,
encoding,value,61.460525750066154,67.47213987505529,36,6,Object_Sea_Pattern_Large,1,,,,,,,,,,,
encoding,attention,67.47225533309393,70.48887683299836,36,6,Object_Sea_Pattern_Large,1,+1,1,0.5073833330534399,,,,,,,,
n-back,,,,151,6,,,,0,None,B,True,None,,,,,
n-back,,,,152,6,,,,0,None,Z,True,None,,,,,
n-back,,,,153,6,,,,1,None,V,False,None,,,,,
n-back,,,,154,6,,,,1,1.041475208941847,Z,True,1,,,,,
n-back,,,,155,6,,,,1,None,X,False,None,,,,,
n-back,,,,156,6,,,,1,None,C,False,None,,,,,
n-back,,,,157,6,,,,1,None,Z,False,None,,,,,
n-back,,,,158,6,,,,1,1.062720707966946,C,True,1,,,,,
n-back,,,,159,6,,,,1,None,N,False,None,,,,,
n-back,,,,160,6,,,,1,None,B,False,None,,,,,
n-back,,,,161,6,,,,1,None,V,False,None,,,,,
n-back,,,,162,6,,,,1,None,Z,False,None,,,,,
n-back,,,,163,6,,,,0,1.0500180840026587,N,False,1,,,,,
n-back,,,,164,6,,,,0,None,Z,True,None,,,,,
n-back,,,,165,6,,,,1,None,C,False,None,,,,,
n-back,,,,166,6,,,,1,0.6698147499701008,Z,True,1,,,,,
n-back,,,,167,6,,,,1,None,V,False,None,,,,,
n-back,,,,168,6,,,,1,None,V,False,None,,,,,
n-back,,,,169,6,,,,1,None,Z,False,None,,,,,
n-back,,,,170,6,,,,1,None,B,False,None,,,,,
n-back,,,,171,6,,,,1,None,X,False,None,,,,,
n-back,,,,172,6,,,,1,None,Z,False,None,,,,,
n-back,,,,173,6,,,,1,None,C,False,None,,,,,
n-back,,,,174,6,,,,1,None,B,False,None,,,,,
n-back,,,,175,6,,,,1,None,B,False,None,,,,,
n-back,,,,176,6,,,,1,0.7030497080413625,B,True,1,,,,,
n-back,,,,177,6,,,,0,None,B,True,None,,,,,
n-back,,,,178,6,,,,1,0.6458313339389861,B,True,1,,,,,
n-back,,,,179,6,,,,0,None,B,True,None,,,,,
n-back,,,,180,6,,,,1,None,N,False,None,,,,,
choice,fixation,150.27356025006156,150.77800245804247,41,6,,,,,,,,,Object,,,,
choice,option,150.78809470799752,151.8141960829962,41,6,,,,,,,,,Object,,,,
choice,choice,151.81430091708899,171.05403079208918,41,6,,,1,0,18.22684204101097,,,,Object,,,,
choice,fixation,171.0541776670143,172.30927141709253,42,6,,,,,,,,,Pattern,,,,
choice,option,172.3189785000868,173.34610970807262,42,6,,,,,,,,,Pattern,,,,
choice,choice,173.34625783306547,178.71565483300947,42,6,,,2,1,4.359056832967326,,,,Pattern,,,,
choice,fixation,178.71582387504168,179.97095129208174,43,6,,,,,,,,,Small,,,,
choice,option,179.98031850007828,181.00760054204147,43,6,,,,,,,,,Small,,,,
choice,choice,181.00772945804056,182.86057541705668,43,6,,,2,1,0.8434889588970691,,,,Small,,,,
choice,fixation,182.860705792089,183.36563383298926,44,6,,,,,,,,,Animal,,,,
choice,option,183.3747893749969,184.40172358299606,44,6,,,,,,,,,Animal,,,,
choice,choice,184.40183845802676,188.57176916708704,44,6,,,2,1,3.160323333926499,,,,Animal,,,,
choice,fixation,188.57189737504814,189.57685879198834,45,6,,,,,,,,,Large,,,,
choice,option,189.5855621669907,190.6122524579987,45,6,,,,,,,,,Large,,,,
choice,choice,190.61236229201313,194.03894887503702,45,6,,,1,0,2.413060124963522,,,,Large,,,,
choice,fixation,194.03914245800115,195.0443237919826,46,6,,,,,,,,,Solid,,,,
choice,option,195.05360345798545,196.08005508303177,46,6,,,,,,,,,Solid,,,,
choice,choice,196.0801607919857,207.59141595801339,46,6,,,1,0,10.49712583294604,,,,Solid,,,,
choice,fixation,207.5915448750602,208.59648883307818,47,6,,,,,,,,,Sea,,,,
choice,option,208.60486795799807,209.63195599999744,47,6,,,,,,,,,Sea,,,,
choice,choice,209.6320799579844,211.00443454203196,47,6,,,2,1,0.35923754097893834,,,,Sea,,,,
choice,fixation,211.0045671670232,211.50954383309,48,6,,,,,,,,,Land,,,,
choice,option,211.51863987499382,212.54617837502155,48,6,,,,,,,,,Land,,,,
choice,choice,212.54629733308684,216.80399837507866,48,6,,,1,0,3.2462410000152886,,,,Land,,,,
memory,free_recall,227.7859313330846,245.59888579207473,30,6,,,,,,,,,,,,,
memory,value_recall,248.3641335000284,252.83011233306024,31,6,Object_Land_Pattern_Small,,,,4.4605078749591485,,,,,1,,,
memory,value_recall,254.37836920807604,256.88930183299817,32,6,Object_Sea_Pattern_Large,,,,2.506673499941826,,,,,1,,,
memory,value_recall,258.6880635829875,263.3371755830012,33,6,Animal_Sea_Pattern_Small,,,,4.645033666980453,,,,,-9,,,
memory,value_recall,264.63287600001786,269.021727125044,34,6,Animal_Land_Solid_Small,,,,4.384154791943729,,,,,1,,,
memory,value_recall,270.0700865830295,276.1534109170316,35,6,Animal_Sea_Solid_Large,,,,6.079931000014767,,,,,3,,,
memory,value_recall,277.94915233307984,280.1740491670789,36,6,Object_Land_Solid_Large,,,,2.2200205830158666,,,,,-5,,,
memory,spatial_recall,282.8212303330656,286.50781254202593,36,6,Object_Land_Pattern_Small,,,1,3.682393499999307,,,,,,"[329, 189]","[329, 189]",
memory,spatial_recall,288.3306407920318,289.4925091250334,36,6,Animal_Sea_Solid_Large,,,1,1.155593583942391,,,,,,"[329, -190]","[329, -190]",
memory,spatial_recall,290.54669400001876,291.50896666699555,36,6,Animal_Land_Solid_Small,,,1,0.9556259169476107,,,,,,"[0, -380]","[0, -380]",
memory,spatial_recall,293.32782908307854,306.5741492920788,36,6,Animal_Sea_Pattern_Small,,,1,13.242192417033948,,,,,,"[0, 380]","[0, 380]",
memory,spatial_recall,307.88790479209274,310.05942579207476,36,6,Object_Land_Solid_Large,,,1,2.1674337500007823,,,,,,"[-329, -190]","[-329, -190]",
memory,spatial_recall,311.87538683298044,313.6081952920649,36,6,Object_Sea_Pattern_Large,,,1,1.7286790839862078,,,,,,"[-329, 190]","[-329, 190]",
encoding,fixation,7.512681999942288,8.518029457889497,37,7,Object_Land_Solid_Large,6,,,,,,,,,,,
encoding,image,8.518153374898247,9.528714040992782,37,7,Object_Land_Solid_Large,6,,,,,,,,,,,
encoding,value,9.528896415955387,15.541152874939144,37,7,Object_Land_Solid_Large,6,,,,,,,,,,,
encoding,attention,15.541283624945208,18.557931249961257,37,7,Object_Land_Solid_Large,6,+6,1,1.4544227910228074,,,,,,,,
encoding,fixation,18.558092915918678,19.563130749971606,38,7,Object_Sea_Solid_Small,-4,,,,,,,,,,,
encoding,image,19.56323895789683,20.573401124915108,38,7,Object_Sea_Solid_Small,-4,,,,,,,,,,,
encoding,value,20.573532249894924,26.58506749989465,38,7,Object_Sea_Solid_Small,-4,,,,,,,,,,,
encoding,attention,26.58517649990972,29.60192529100459,38,7,Object_Sea_Solid_Small,-4,-4,1,1.6200851670000702,,,,,,,,
encoding,fixation,29.602071332978085,30.107181415893137,39,7,Object_Sea_Pattern_Large,-3,,,,,,,,,,,
encoding,image,30.107282957993448,31.117330374894664,39,7,Object_Sea_Pattern_Large,-3,,,,,,,,,,,
encoding,value,31.117445540963672,37.12887591589242,39,7,Object_Sea_Pattern_Large,-3,,,,,,,,,,,
encoding,attention,37.128982374910265,40.14573495800141,39,7,Object_Sea_Pattern_Large,-3,-3,1,0.9082632079953328,,,,,,,,
encoding,fixation,40.14590629097074,40.90097699989565,40,7,Animal_Sea_Pattern_Small,9,,,,,,,,,,,
encoding,image,40.90108354098629,41.91190712491516,40,7,Animal_Sea_Pattern_Small,9,,,,,,,,,,,
encoding,value,41.912006874918006,47.923684165929444,40,7,Animal_Sea_Pattern_Small,9,,,,,,,,,,,
encoding,attention,47.923806957900524,50.9418757079402,40,7,Animal_Sea_Pattern_Small,9,+9,1,0.9046749999979511,,,,,,,,
encoding,fixation,50.94202779093757,51.94720558298286,41,7,Animal_Land_Pattern_Small,-4,,,,,,,,,,,
encoding,image,51.94731466600206,52.95779466594104,41,7,Animal_Land_Pattern_Small,-4,,,,,,,,,,,
encoding,value,52.95792633295059,58.96914399997331,41,7,Animal_Land_Pattern_Small,-4,,,,,,,,,,,
encoding,attention,58.969270000001416,61.98770304094069,41,7,Animal_Land_Pattern_Small,-4,-4,1,1.5070908330380917,,,,,,,,
encoding,fixation,61.987879082909785,63.493062207940966,42,7,Animal_Land_Solid_Large,-4,,,,,,,,,,,
encoding,image,63.49317724991124,64.50736629089806,42,7,Animal_Land_Solid_Large,-4,,,,,,,,,,,
encoding,value,64.50748945795931,70.51903004094493,42,7,Animal_Land_Solid_Large,-4,,,,,,,,,,,
encoding,attention,70.5192188329529,73.53719391592313,42,7,Animal_Land_Solid_Large,-4,-4,1,0.7809232500148937,,,,,,,,
n-back,,,,181,7,,,,1,None,Z,False,None,,,,,
n-back,,,,182,7,,,,0,None,N,True,None,,,,,
n-back,,,,183,7,,,,1,None,C,False,None,,,,,
n-back,,,,184,7,,,,0,None,N,True,None,,,,,
n-back,,,,185,7,,,,1,None,B,False,None,,,,,
n-back,,,,186,7,,,,1,None,C,False,None,,,,,
n-back,,,,187,7,,,,1,0.6224645420443267,B,True,1,,,,,
n-back,,,,188,7,,,,1,None,V,False,None,,,,,
n-back,,,,189,7,,,,1,None,N,False,None,,,,,
n-back,,,,190,7,,,,1,None,X,False,None,,,,,
n-back,,,,191,7,,,,1,None,X,False,None,,,,,
n-back,,,,192,7,,,,1,None,C,False,None,,,,,
n-back,,,,193,7,,,,1,None,N,False,None,,,,,
n-back,,,,194,7,,,,1,None,N,False,None,,,,,
n-back,,,,195,7,,,,1,None,C,False,None,,,,,
n-back,,,,196,7,,,,1,1.0513341249898076,N,True,1,,,,,
n-back,,,,197,7,,,,1,None,N,False,None,,,,,
n-back,,,,198,7,,,,1,0.5805953330127522,N,True,1,,,,,
n-back,,,,199,7,,,,1,None,V,False,None,,,,,
n-back,,,,200,7,,,,1,0.8573094999883324,N,True,1,,,,,
n-back,,,,201,7,,,,1,None,Z,False,None,,,,,
n-back,,,,202,7,,,,1,None,V,False,None,,,,,
n-back,,,,203,7,,,,1,0.6151204580673948,Z,True,1,,,,,
n-back,,,,204,7,,,,1,None,Z,False,None,,,,,
n-back,,,,205,7,,,,1,None,N,False,None,,,,,
n-back,,,,206,7,,,,0,None,Z,True,None,,,,,
n-back,,,,207,7,,,,1,None,Z,False,None,,,,,
n-back,,,,208,7,,,,1,0.14649679197464138,Z,True,1,,,,,
n-back,,,,209,7,,,,1,None,B,False,None,,,,,
n-back,,,,210,7,,,,1,0.7806129170348868,Z,True,1,,,,,
choice,fixation,150.38110291596968,151.38478854089044,49,7,,,,,,,,,Animal,,,,
choice,option,151.39463304099627,152.4239863329567,49,7,,,,,,,,,Animal,,,,
choice,choice,152.42412912496366,154.71885716589168,49,7,,,1,1,1.284449166036211,,,,Animal,,,,
choice,fixation,154.7189788329415,155.474405790912,50,7,,,,,,,,,Solid,,,,
choice,option,155.48374458297621,156.5100522909779,50,7,,,,,,,,,Solid,,,,
choice,choice,156.51016291591804,163.34062699996866,50,7,,,2,1,5.820232916041277,,,,Solid,,,,
choice,fixation,163.34079191589262,163.84605658298824,51,7,,,,,,,,,Object,,,,
choice,option,163.85516595793888,164.8817519999575,51,7,,,,,,,,,Object,,,,
choice,choice,164.88186079089064,170.78212349989917,51,7,,,2,1,4.8907827499788254,,,,Object,,,,
choice,fixation,170.78224849991966,172.28731533291284,52,7,,,,,,,,,Pattern,,,,
choice,option,172.2965050409548,173.32436783297453,52,7,,,,,,,,,Pattern,,,,
choice,choice,173.3244727079291,179.74930554092862,52,7,,,1,1,5.415332042030059,,,,Pattern,,,,
choice,fixation,179.7494365409948,181.00746920797974,53,7,,,,,,,,,Land,,,,
choice,option,181.01690712489653,182.0437127079349,53,7,,,,,,,,,Land,,,,
choice,choice,182.04381604096852,190.56148591591045,53,7,,,2,1,7.50757070898544,,,,Land,,,,
choice,fixation,190.5616073749261,191.56735016591847,54,7,,,,,,,,,Sea,,,,
choice,option,191.5758558328962,192.6029389159521,54,7,,,,,,,,,Sea,,,,
choice,choice,192.6030408749357,198.82950412493665,54,7,,,1,1,5.216985790990293,,,,Sea,,,,
choice,fixation,198.8296159999445,199.83450324996375,55,7,,,,,,,,,Large,,,,
choice,option,199.84296687494498,200.86976737494115,55,7,,,,,,,,,Large,,,,
choice,choice,200.8698962079361,207.50037208292633,55,7,,,2,1,5.620570541010238,,,,Large,,,,
choice,fixation,207.5004997079959,208.0082677078899,56,7,,,,,,,,,Small,,,,
choice,option,208.01729120791424,209.04375866591,56,7,,,,,,,,,Small,,,,
choice,choice,209.04392354097217,212.91077754099388,56,7,,,1,1,2.857039749971591,,,,Small,,,,
memory,free_recall,233.8954602079466,249.4806148329517,36,7,,,,,,,,,,,,,
memory,value_recall,252.00716716598254,255.97678395791445,37,7,Object_Land_Solid_Large,,,,3.9671493750065565,,,,,6,,,
memory,value_recall,257.0242382909637,259.9588001249358,38,7,Animal_Land_Solid_Large,,,,2.932048875023611,,,,,-4,,,
memory,value_recall,261.75798262492754,263.48785862489603,39,7,Object_Sea_Pattern_Large,,,,1.725672125001438,,,,,-3,,,
memory,value_recall,265.28378220798913,272.3442099998938,40,7,Object_Sea_Solid_Small,,,,7.054992084042169,,,,,-4,,,
memory,value_recall,274.39036662492435,276.36089195800014,41,7,Animal_Land_Pattern_Small,,,,1.9661545000271872,,,,,-4,,,
memory,value_recall,277.40805166598875,278.8391562909819,42,7,Animal_Sea_Pattern_Small,,,,1.4284524579998106,,,,,9,,,
memory,spatial_recall,281.28317670791876,285.7927018329501,42,7,Object_Land_Solid_Large,,,1,4.504001000081189,,,,,,"[-329, -190]","[-329, -190]",
memory,spatial_recall,287.6127915409161,289.2423977080034,42,7,Animal_Land_Pattern_Small,,,1,1.6255162080051377,,,,,,"[329, -190]","[329, -190]",
memory,spatial_recall,291.0620637909742,294.72905845800415,42,7,Object_Sea_Pattern_Large,,,1,3.6628364579519257,,,,,,"[-329, 190]","[-329, 190]",
memory,spatial_recall,295.7900226248894,299.4592724579852,42,7,Object_Sea_Solid_Small,,,1,3.665192125015892,,,,,,"[0, -380]","[0, -380]",
memory,spatial_recall,301.02864983293694,303.36171579093207,42,7,Animal_Sea_Pattern_Small,,,1,2.328966834000312,,,,,,"[0, 380]","[0, 380]",
memory,spatial_recall,305.4272515409393,306.5962669159053,42,7,Animal_Land_Solid_Large,,,1,1.1648797920206562,,,,,,"[329, 189]","[329, 189]",
