phase,event,onset,offset,trial_number,game,image,outcome,choice,correct,rt,letter,match,response,option,true_value,true_position,recalled_position,
encoding,fixation,9.623408125014976,10.63789154193364,1,1,Object_Sea_Solid_Small,-1,,,,,,,,,,,
encoding,image,10.638022708939388,11.65888929180801,1,1,Object_Sea_Solid_Small,-1,,,,,,,,,,,
encoding,value,11.659041167004034,17.674514124868438,1,1,Object_Sea_Solid_Small,-1,,,,,,,,,,,
encoding,attention,17.6746302919928,20.687272208975628,1,1,Object_Sea_Solid_Small,-1,None,None,None,,,,,,,,
encoding,fixation,20.68740174989216,21.692584458971396,2,1,Object_Sea_Pattern_Small,-2,,,,,,,,,,,
encoding,image,21.692703583976254,22.703464374877512,2,1,Object_Sea_Pattern_Small,-2,,,,,,,,,,,
encoding,value,22.703579583903775,28.7163422498852,2,1,Object_Sea_Pattern_Small,-2,,,,,,,,,,,
encoding,attention,28.71644274983555,31.734113374957815,2,1,Object_Sea_Pattern_Small,-2,-2,1,2.4179620421491563,,,,,,,,
encoding,fixation,31.734264584025368,32.739385624881834,3,1,Object_Land_Solid_Large,2,,,,,,,,,,,
encoding,image,32.73949812492356,33.749691166915,3,1,Object_Land_Solid_Large,2,,,,,,,,,,,
encoding,value,33.74983079195954,39.76011854200624,3,1,Object_Land_Solid_Large,2,,,,,,,,,,,
encoding,attention,39.76025587483309,42.77691391692497,3,1,Object_Land_Solid_Large,2,+2,1,1.825889625120908,,,,,,,,
encoding,fixation,42.777077791979536,44.28212004201487,4,1,Animal_Sea_Solid_Large,2,,,,,,,,,,,
encoding,image,44.28225425002165,45.29351558396593,4,1,Animal_Sea_Solid_Large,2,,,,,,,,,,,
encoding,value,45.29361612489447,51.306204749969766,4,1,Animal_Sea_Solid_Large,2,,,,,,,,,,,
encoding,attention,51.30631699995138,54.3243926668074,4,1,Animal_Sea_Solid_Large,2,+2,1,1.4196113338693976,,,,,,,,
encoding,fixation,54.324531791964546,55.32977516693063,5,1,Animal_Land_Pattern_Large,-9,,,,,,,,,,,
encoding,image,55.32987729203887,56.34084287495352,5,1,Animal_Land_Pattern_Large,-9,,,,,,,,,,,
encoding,value,56.3409555000253,62.35292104189284,5,1,Animal_Land_Pattern_Large,-9,,,,,,,,,,,
encoding,attention,62.353038124972954,65.40957166696899,5,1,Animal_Land_Pattern_Large,-9,-9,1,1.327768917195499,,,,,,,,
encoding,fixation,65.40971383382566,66.41473212488927,6,1,Animal_Land_Pattern_Small,5,,,,,,,,,,,
encoding,image,66.414856916992,67.42606883402914,6,1,Animal_Land_Pattern_Small,5,,,,,,,,,,,
encoding,value,67.42623991682194,73.43855262501165,6,1,Animal_Land_Pattern_Small,5,,,,,,,,,,,
encoding,attention,73.43867858382873,76.45621320884675,6,1,Animal_Land_Pattern_Small,5,+5,1,1.6166197499260306,,,,,,,,
n-back,,,,1,1,,,,0,None,C,True,None,,,,,
n-back,,,,2,1,,,,0,None,X,True,None,,,,,
n-back,,,,3,1,,,,1,None,B,False,None,,,,,
n-back,,,,4,1,,,,1,None,B,False,None,,,,,
n-back,,,,5,1,,,,1,0.8682459169067442,B,True,1,,,,,
n-back,,,,6,1,,,,0,None,B,True,None,,,,,
n-back,,,,7,1,,,,1,1.2141205829102546,B,True,1,,,,,
n-back,,,,8,1,,,,0,None,B,True,None,,,,,
n-back,,,,9,1,,,,1,None,Z,False,None,,,,,
n-back,,,,10,1,,,,1,1.0557012502104044,B,True,1,,,,,
n-back,,,,11,1,,,,1,None,N,False,None,,,,,
n-back,,,,12,1,,,,0,None,B,True,None,,,,,
n-back,,,,13,1,,,,1,None,Z,False,None,,,,,
n-back,,,,14,1,,,,1,None,Z,False,None,,,,,
n-back,,,,15,1,,,,1,None,V,False,None,,,,,
n-back,,,,16,1,,,,1,None,V,False,None,,,,,
n-back,,,,17,1,,,,1,None,B,False,None,,,,,
n-back,,,,18,1,,,,1,None,C,False,None,,,,,
n-back,,,,19,1,,,,1,None,N,False,None,,,,,
n-back,,,,20,1,,,,1,None,X,False,None,,,,,
n-back,,,,21,1,,,,1,0.7560042501427233,N,True,1,,,,,
n-back,,,,22,1,,,,1,None,C,False,None,,,,,
n-back,,,,23,1,,,,1,None,X,False,None,,,,,
n-back,,,,24,1,,,,1,None,N,False,None,,,,,
n-back,,,,25,1,,,,1,0.6245815001893789,X,True,1,,,,,
n-back,,,,26,1,,,,1,None,C,False,None,,,,,
n-back,,,,27,1,,,,1,None,N,False,None,,,,,
n-back,,,,28,1,,,,1,None,Z,False,None,,,,,
n-back,,,,29,1,,,,1,None,C,False,None,,,,,
n-back,,,,30,1,,,,1,None,C,False,None,,,,,
choice,fixation,155.13895104196854,156.39454358397052,1,1,,,,,,,,,Animal,,,,
choice,option,156.40458645881154,157.58347979187965,1,1,,,,,,,,,Animal,,,,
choice,choice,157.58366862498224,162.7525758750271,1,1,,,2,1,4.158768624998629,,,,Animal,,,,
choice,fixation,162.75271666701883,163.75764820887707,2,1,,,,,,,,,Land,,,,
choice,option,163.76657608384266,164.7963649169542,2,1,,,,,,,,,Land,,,,
choice,choice,164.79650249984115,168.33077079197392,2,1,,,2,1,2.522096458822489,,,,Land,,,,
choice,fixation,168.33090195897967,169.83586795884185,3,1,,,,,,,,,Sea,,,,
choice,option,169.8445330839604,170.87175604188815,3,1,,,,,,,,,Sea,,,,
choice,choice,170.8718690839596,174.0196613748558,3,1,,,1,0,2.138543749926612,,,,Sea,,,,
choice,fixation,174.019782041898,174.52464812481776,4,1,,,,,,,,,Object,,,,
choice,option,174.53418662492186,175.5612392919138,4,1,,,,,,,,,Object,,,,
choice,choice,175.5614274169784,184.94555616681464,4,1,,,1,0,8.374151666183025,,,,Object,,,,
choice,fixation,184.9456974589266,185.70072237495333,5,1,,,,,,,,,Pattern,,,,
choice,option,185.709846541984,186.73708250001073,5,1,,,,,,,,,Pattern,,,,
choice,choice,186.7372026250232,190.62541866698302,5,1,,,2,1,2.878605666803196,,,,Pattern,,,,
choice,fixation,190.62558608385734,191.63060049992055,6,1,,,,,,,,,Large,,,,
choice,option,191.63940233387984,192.6664018339943,6,1,,,,,,,,,Large,,,,
choice,choice,192.66651829192415,193.95261987484992,6,1,,,2,1,0.27664258307777345,,,,Large,,,,
choice,fixation,193.952767083887,194.70787708391435,7,1,,,,,,,,,Solid,,,,
choice,option,194.7173461248167,195.74674920900725,7,1,,,,,,,,,Solid,,,,
choice,choice,195.74689120892435,200.68013362493366,7,1,,,1,1,3.9237122498452663,,,,Solid,,,,
choice,fixation,200.68025687499903,201.18539579189382,8,1,,,,,,,,,Small,,,,
choice,option,201.19477841700427,202.22158841695637,8,1,,,,,,,,,Small,,,,
choice,choice,202.22169904201292,203.91392137482762,8,1,,,1,1,0.6808431670069695,,,,Small,,,,
memory,free_recall,255.43127508391626,281.1226717089303,0,1,,,,,,,,,,,,,
memory,value_recall,319.6355580838863,325.3227212089114,1,1,Animal_Sea_Solid_Large,,,,5.683054374996573,,,,,2,,,
memory,value_recall,326.6204057089053,329.55490724998526,2,1,Object_Land_Solid_Large,,,,2.930381332989782,,,,,2,,,
memory,value_recall,331.601858999813,333.26199716702104,3,1,Animal_Land_Pattern_Small,,,,1.6561456250492483,,,,,5,,,
memory,value_recall,334.29926166683435,336.9707766668871,4,1,Object_Sea_Pattern_Small,,,,2.6684569579083472,,,,,-2,,,
memory,value_recall,338.26755162491463,340.1245327498764,5,1,Animal_Land_Pattern_Large,,,,1.8528260830789804,,,,,-9,,,
memory,value_recall,341.9211023338139,347.106691124849,6,1,Object_Sea_Solid_Small,,,,5.18141454202123,,,,,-1,,,
memory,spatial_recall,370.3752733748406,376.56773895886727,6,1,Animal_Land_Pattern_Large,,,1,6.18833504198119,,,,,,"[0, -380]","[0, -380]",
memory,spatial_recall,378.1235889168456,383.36477983393706,6,1,Animal_Sea_Solid_Large,,,1,5.235292292200029,,,,,,"[0, 380]","[0, 380]",
memory,spatial_recall,385.4212125418708,388.2511949588079,6,1,Object_Sea_Pattern_Small,,,1,2.82599841686897,,,,,,"[-329, 190]","[-329, 190]",
memory,spatial_recall,389.5574667088222,391.8335449588485,6,1,Animal_Land_Pattern_Small,,,1,2.2698429168667644,,,,,,"[329, -190]","[329, -190]",
memory,spatial_recall,393.88550849980675,396.78865779191256,6,1,Object_Sea_Solid_Small,,,1,2.899049500003457,,,,,,"[329, 189]","[329, 189]",
memory,spatial_recall,398.09667666698806,400.0385664589703,6,1,Object_Land_Solid_Large,,,1,1.9377232498954982,,,,,,"[-329, -190]","[-329, -190]",
encoding,fixation,3.9345032079145312,5.440127832815051,7,2,Object_Sea_Pattern_Large,8,,,,,,,,,,,
encoding,image,5.4402282908558846,6.452449582982808,7,2,Object_Sea_Pattern_Large,8,,,,,,,,,,,
encoding,value,6.45255362498574,12.466092332964763,7,2,Object_Sea_Pattern_Large,8,,,,,,,,,,,
encoding,attention,12.466233957791701,15.484435124788433,7,2,Object_Sea_Pattern_Large,8,+8,1,0.6257205000147223,,,,,,,,
encoding,fixation,15.484596790978685,16.240018165903166,8,2,Animal_Sea_Solid_Large,-2,,,,,,,,,,,
encoding,image,16.240125624928623,17.251905290875584,8,2,Animal_Sea_Solid_Large,-2,,,,,,,,,,,
encoding,value,17.252010874915868,23.263684707926586,8,2,Animal_Sea_Solid_Large,-2,,,,,,,,,,,
encoding,attention,23.26379737490788,26.28441424993798,8,2,Animal_Sea_Solid_Large,-2,-2,1,1.3152395829092711,,,,,,,,
encoding,fixation,26.28455733298324,27.789734040852636,9,2,Object_Land_Pattern_Small,-8,,,,,,,,,,,
encoding,image,27.78986283298582,28.80121116596274,9,2,Object_Land_Pattern_Small,-8,,,,,,,,,,,
encoding,value,28.80132291582413,34.81311975000426,9,2,Object_Land_Pattern_Small,-8,,,,,,,,,,,
encoding,attention,34.81324458285235,37.83256399980746,9,2,Object_Land_Pattern_Small,-8,-8,1,1.0468545840121806,,,,,,,,
encoding,fixation,37.83273095800541,38.837766874814406,10,2,Animal_Sea_Pattern_Small,2,,,,,,,,,,,
encoding,image,38.83785941591486,39.849186040926725,10,2,Animal_Sea_Pattern_Small,2,,,,,,,,,,,
encoding,value,39.849297374952585,45.863472915953025,10,2,Animal_Sea_Pattern_Small,2,,,,,,,,,,,
encoding,attention,45.86357833282091,48.88134891586378,10,2,Animal_Sea_Pattern_Small,2,+2,1,1.4372567080426961,,,,,,,,
encoding,fixation,48.88151279091835,49.6365183328744,11,2,Object_Land_Solid_Small,8,,,,,,,,,,,
encoding,image,49.63664137478918,50.647519999882206,11,2,Object_Land_Solid_Small,8,,,,,,,,,,,
encoding,value,50.64766024984419,56.659192790975794,11,2,Object_Land_Solid_Small,8,,,,,,,,,,,
encoding,attention,56.65930804098025,59.67714454093948,11,2,Object_Land_Solid_Small,8,+8,1,2.7525152498856187,,,,,,,,
encoding,fixation,59.677283165976405,60.682035374920815,12,2,Animal_Land_Solid_Large,1,,,,,,,,,,,
encoding,image,60.68214795785025,61.696347165852785,12,2,Animal_Land_Solid_Large,1,,,,,,,,,,,
encoding,value,61.69644966581836,67.70856920792721,12,2,Animal_Land_Solid_Large,1,,,,,,,,,,,
encoding,attention,67.70875033293851,70.72595516592264,12,2,Animal_Land_Solid_Large,1,+1,1,0.9074885828886181,,,,,,,,
n-back,,,,31,2,,,,1,None,V,False,None,,,,,
n-back,,,,32,2,,,,1,None,N,False,None,,,,,
n-back,,,,33,2,,,,1,0.4278521668165922,V,True,1,,,,,
n-back,,,,34,2,,,,1,None,C,False,None,,,,,
n-back,,,,35,2,,,,1,None,X,False,None,,,,,
n-back,,,,36,2,,,,1,0.39382729190401733,C,True,1,,,,,
n-back,,,,37,2,,,,1,None,Z,False,None,,,,,
n-back,,,,38,2,,,,1,None,X,False,None,,,,,
n-back,,,,39,2,,,,1,0.5565365829970688,Z,True,1,,,,,
n-back,,,,40,2,,,,1,None,N,False,None,,,,,
n-back,,,,41,2,,,,1,None,C,False,None,,,,,
n-back,,,,42,2,,,,1,None,X,False,None,,,,,
n-back,,,,43,2,,,,1,0.4011031249538064,C,True,1,,,,,
n-back,,,,44,2,,,,1,None,N,False,None,,,,,
n-back,,,,45,2,,,,0,None,C,True,None,,,,,
n-back,,,,46,2,,,,1,None,C,False,None,,,,,
n-back,,,,47,2,,,,1,0.4078532918356359,C,True,1,,,,,
n-back,,,,48,2,,,,1,None,X,False,None,,,,,
n-back,,,,49,2,,,,0,None,C,True,None,,,,,
n-back,,,,50,2,,,,1,None,B,False,None,,,,,
n-back,,,,51,2,,,,1,None,N,False,None,,,,,
n-back,,,,52,2,,,,1,0.3554481251630932,B,True,1,,,,,
n-back,,,,53,2,,,,1,None,V,False,None,,,,,
n-back,,,,54,2,,,,0,None,B,True,None,,,,,
n-back,,,,55,2,,,,1,None,C,False,None,,,,,
n-back,,,,56,2,,,,1,None,N,False,None,,,,,
n-back,,,,57,2,,,,1,None,N,False,None,,,,,
n-back,,,,58,2,,,,1,0.5860194999258965,N,True,1,,,,,
n-back,,,,59,2,,,,1,None,X,False,None,,,,,
n-back,,,,60,2,,,,1,None,X,False,None,,,,,
choice,fixation,137.8465646249242,139.35048766597174,9,2,,,,,,,,,Solid,,,,
choice,option,139.35955295781605,140.38680349988863,9,2,,,,,,,,,Solid,,,,
choice,choice,140.3869260828942,150.66362529085018,9,2,,,1,1,9.265158332884312,,,,Solid,,,,
choice,fixation,150.6637481248472,151.418721874943,10,2,,,,,,,,,Animal,,,,
choice,option,151.42852558288723,152.45620116591454,10,2,,,,,,,,,Animal,,,,
choice,choice,152.45631879079156,157.68016987480223,10,2,,,2,0,4.21161466720514,,,,Animal,,,,
choice,fixation,157.68030245788395,158.43520362488925,11,2,,,,,,,,,Large,,,,
choice,option,158.44403374986723,159.4706195408944,11,2,,,,,,,,,Large,,,,
choice,choice,159.4707501658704,166.13613999984227,11,2,,,1,1,5.655826624948531,,,,Large,,,,
choice,fixation,166.13634449988604,166.89135845797136,12,2,,,,,,,,,Sea,,,,
choice,option,166.89995641587302,167.92619504081085,12,2,,,,,,,,,Sea,,,,
choice,choice,167.92640533298254,173.25606804084964,12,2,,,2,0,4.319994332967326,,,,Sea,,,,
choice,fixation,173.2562209579628,174.01347462483682,13,2,,,,,,,,,Object,,,,
choice,option,174.02325529092923,175.0493861248251,13,2,,,,,,,,,Object,,,,
choice,choice,175.04948779079132,178.0471115829423,13,2,,,1,1,1.9872704590670764,,,,Object,,,,
choice,fixation,178.04725137492642,178.55218566581607,14,2,,,,,,,,,Pattern,,,,
choice,option,178.56131416582502,179.58777683298104,14,2,,,,,,,,,Pattern,,,,
choice,choice,179.58789124991745,181.65437104087323,14,2,,,2,0,1.0572627501096576,,,,Pattern,,,,
choice,fixation,181.6544872499071,182.65965345781296,15,2,,,,,,,,,Land,,,,
choice,option,182.66852970793843,183.69690641597845,15,2,,,,,,,,,Land,,,,
choice,choice,183.6971012908034,185.07041062484495,15,2,,,1,1,0.3638902499806136,,,,Land,,,,
choice,fixation,185.07053295779042,185.57543970784172,16,2,,,,,,,,,Small,,,,
choice,option,185.58444662485272,186.61284970794804,16,2,,,,,,,,,Small,,,,
choice,choice,186.61295249988325,187.6247733749915,16,2,,,1,1,0.0011924579739570618,,,,Small,,,,
memory,free_recall,205.1041142907925,227.6019378749188,6,2,,,,,,,,,,,,,
memory,value_recall,230.32276187487878,237.94730349979363,7,2,Object_Land_Pattern_Small,,,,7.619518290972337,,,,,-8,,,
memory,value_recall,239.99385112477466,243.82914216583595,8,2,Animal_Sea_Pattern_Small,,,,3.8312409170903265,,,,,2,,,
memory,value_recall,245.87337729078718,248.65698999981396,9,2,Animal_Sea_Solid_Large,,,,2.7773228748701513,,,,,-2,,,
memory,value_recall,249.70384170790203,250.7609386248514,10,2,Animal_Land_Solid_Large,,,,1.0540352079551667,,,,,1,,,
memory,value_recall,251.80422183289193,254.12039408297278,11,2,Object_Sea_Pattern_Large,,,,2.313037791987881,,,,,8,,,
memory,value_recall,255.91698399977759,257.0819843329955,12,2,Object_Land_Solid_Small,,,,1.1606915420852602,,,,,8,,,
memory,spatial_recall,260.51995033281855,264.33897937485017,12,2,Animal_Sea_Pattern_Small,,,1,3.8151585410814732,,,,,,"[329, -190]","[329, -190]",
memory,spatial_recall,266.40151829086244,268.37175362487324,12,2,Object_Land_Pattern_Small,,,1,1.9660337078385055,,,,,,"[329, 189]","[329, 189]",
memory,spatial_recall,269.43435841589235,271.8003659998067,12,2,Object_Land_Solid_Small,,,1,2.362096792086959,,,,,,"[-329, 190]","[-329, 190]",
memory,spatial_recall,273.60829104087315,281.85464574978687,12,2,Animal_Land_Solid_Large,,,1,8.242343249963596,,,,,,"[-329, -190]","[-329, -190]",
memory,spatial_recall,283.6681013328489,286.3648824999109,12,2,Object_Sea_Pattern_Large,,,1,2.6926849589217454,,,,,,"[0, -380]","[0, -380]",
memory,spatial_recall,288.17294729081914,290.7320229159668,12,2,Animal_Sea_Solid_Large,,,1,2.5519540421664715,,,,,,"[0, 380]","[0, 380]",
encoding,fixation,3.575928583042696,4.331439167028293,13,3,Animal_Sea_Solid_Small,8,,,,,,,,,,,
encoding,image,4.3315781250130385,5.342510541900992,13,3,Animal_Sea_Solid_Small,8,,,,,,,,,,,
encoding,value,5.342630041996017,11.355882958043367,13,3,Animal_Sea_Solid_Small,8,,,,,,,,,,,
encoding,attention,11.355986124835908,14.37728895782493,13,3,Animal_Sea_Solid_Small,8,+8,1,0.6831989579368383,,,,,,,,
encoding,fixation,14.377446457976475,15.63250183290802,14,3,Object_Land_Pattern_Large,8,,,,,,,,,,,
encoding,image,15.63263704185374,16.644999499898404,14,3,Object_Land_Pattern_Large,8,,,,,,,,,,,
encoding,value,16.64511749986559,22.657171417027712,14,3,Object_Land_Pattern_Large,8,,,,,,,,,,,
encoding,attention,22.657286999979988,25.675710499985144,14,3,Object_Land_Pattern_Large,8,+8,1,0.7707262909971178,,,,,,,,
encoding,fixation,25.675879374844953,26.431398457847536,15,3,Animal_Land_Solid_Small,-4,,,,,,,,,,,
encoding,image,26.43151770788245,27.442370624979958,15,3,Animal_Land_Solid_Small,-4,,,,,,,,,,,
encoding,value,27.442482667043805,33.454879082972184,15,3,Animal_Land_Solid_Small,-4,,,,,,,,,,,
encoding,attention,33.455016291933134,36.4725411250256,15,3,Animal_Land_Solid_Small,-4,-4,1,0.7412275830283761,,,,,,,,
encoding,fixation,36.4727491249796,37.97823933302425,16,3,Object_Sea_Pattern_Small,-5,,,,,,,,,,,
encoding,image,37.978356749983504,38.990115916822106,16,3,Object_Sea_Pattern_Small,-5,,,,,,,,,,,
encoding,value,38.99021949991584,45.0022194578778,16,3,Object_Sea_Pattern_Small,-5,,,,,,,,,,,
encoding,attention,45.00242679193616,48.01425162493251,16,3,Object_Sea_Pattern_Small,-5,None,None,None,,,,,,,,
encoding,fixation,48.01438012486324,48.51979187503457,17,3,Animal_Sea_Pattern_Large,-8,,,,,,,,,,,
encoding,image,48.51995670795441,49.53035158291459,17,3,Animal_Sea_Pattern_Large,-8,,,,,,,,,,,
encoding,value,49.530483916867524,55.541569042019546,17,3,Animal_Sea_Pattern_Large,-8,,,,,,,,,,,
encoding,attention,55.541686333017424,58.560707124881446,17,3,Animal_Sea_Pattern_Large,-8,-8,1,1.3511818752158433,,,,,,,,
encoding,fixation,58.56086808303371,59.06579658295959,18,3,Object_Land_Solid_Large,-2,,,,,,,,,,,
encoding,image,59.06589666684158,60.07577741681598,18,3,Object_Land_Solid_Large,-2,,,,,,,,,,,
encoding,value,60.07588449981995,66.08672195789404,18,3,Object_Land_Solid_Large,-2,,,,,,,,,,,
encoding,attention,66.0868418328464,69.10334604186937,18,3,Object_Land_Solid_Large,-2,-2,1,1.1743148330133408,,,,,,,,
n-back,,,,61,3,,,,0,None,X,True,None,,,,,
n-back,,,,62,3,,,,1,None,Z,False,None,,,,,
n-back,,,,63,3,,,,1,None,N,False,None,,,,,
n-back,,,,64,3,,,,1,0.3849159579258412,Z,True,1,,,,,
n-back,,,,65,3,,,,1,None,X,False,None,,,,,
n-back,,,,66,3,,,,1,None,X,False,None,,,,,
n-back,,,,67,3,,,,1,None,N,False,None,,,,,
n-back,,,,68,3,,,,1,0.4032916249707341,X,True,1,,,,,
n-back,,,,69,3,,,,1,None,Z,False,None,,,,,
n-back,,,,70,3,,,,1,None,V,False,None,,,,,
n-back,,,,71,3,,,,1,None,V,False,None,,,,,
n-back,,,,72,3,,,,1,None,Z,False,None,,,,,
n-back,,,,73,3,,,,1,None,Z,False,None,,,,,
n-back,,,,74,3,,,,1,None,B,False,None,,,,,
n-back,,,,75,3,,,,1,0.8974567500408739,Z,True,1,,,,,
n-back,,,,76,3,,,,1,None,N,False,None,,,,,
n-back,,,,77,3,,,,1,None,B,False,None,,,,,
n-back,,,,78,3,,,,1,0.3933930420316756,N,True,1,,,,,
n-back,,,,79,3,,,,0,None,B,True,None,,,,,
n-back,,,,80,3,,,,1,None,B,False,None,,,,,
n-back,,,,81,3,,,,1,0.38492791703902185,B,True,1,,,,,
n-back,,,,82,3,,,,1,None,N,False,None,,,,,
n-back,,,,83,3,,,,1,None,V,False,None,,,,,
n-back,,,,84,3,,,,1,0.3961292910389602,N,True,1,,,,,
n-back,,,,85,3,,,,0,None,V,True,None,,,,,
n-back,,,,86,3,,,,1,None,B,False,None,,,,,
n-back,,,,87,3,,,,1,None,B,False,None,,,,,
n-back,,,,88,3,,,,1,0.4127469160594046,B,True,1,,,,,
n-back,,,,89,3,,,,1,None,N,False,None,,,,,
n-back,,,,90,3,,,,1,None,Z,False,None,,,,,
choice,fixation,134.88033075002022,136.13642649981193,17,3,,,,,,,,,Sea,,,,
choice,option,136.14489825000055,137.17329779197462,17,3,,,,,,,,,Sea,,,,
choice,choice,137.17347154184245,138.41363691701554,17,3,,,2,1,0.2306899579707533,,,,Sea,,,,
choice,fixation,138.41376366699114,138.91877083294094,18,3,,,,,,,,,Land,,,,
choice,option,138.9276427498553,139.9549245419912,18,3,,,,,,,,,Land,,,,
choice,choice,139.95503349998035,144.39290574984625,18,3,,,2,0,3.4281807080842555,,,,Land,,,,
choice,fixation,144.39306204183958,145.6480372918304,19,3,,,,,,,,,Small,,,,
choice,option,145.65708520798944,146.68233745801263,19,3,,,,,,,,,Small,,,,
choice,choice,146.68246520799585,149.90149424993433,19,3,,,2,1,2.2071963329799473,,,,Small,,,,
choice,fixation,149.9016116668936,151.1568418329116,20,3,,,,,,,,,Solid,,,,
choice,option,151.16609945800155,152.19271887489595,20,3,,,,,,,,,Solid,,,,
choice,choice,152.19281833292916,156.11097341682762,20,3,,,2,0,2.9083640000317246,,,,Solid,,,,
choice,fixation,156.1111000829842,156.61612108303234,21,3,,,,,,,,,Large,,,,
choice,option,156.6251212079078,157.65144233289175,21,3,,,,,,,,,Large,,,,
choice,choice,157.6515551668126,161.6468704168219,21,3,,,1,0,2.9853211247827858,,,,Large,,,,
choice,fixation,161.64700491703115,162.40208195801824,22,3,,,,,,,,,Animal,,,,
choice,option,162.41120204189792,163.43910558288917,22,3,,,,,,,,,Animal,,,,
choice,choice,163.43922883295454,169.02145766699687,22,3,,,2,1,4.572608291869983,,,,Animal,,,,
choice,fixation,169.0215832500253,169.77655229181983,23,3,,,,,,,,,Object,,,,
choice,option,169.78605066682212,170.8123692078516,23,3,,,,,,,,,Object,,,,
choice,choice,170.8124827919528,172.86896350001916,23,3,,,2,0,1.0470108340959996,,,,Object,,,,
choice,fixation,172.86908620782197,173.87406083289534,24,3,,,,,,,,,Pattern,,,,
choice,option,173.883119457867,174.90940479189157,24,3,,,,,,,,,Pattern,,,,
choice,choice,174.90951937483624,176.88443887489848,24,3,,,2,1,0.9654014999978244,,,,Pattern,,,,
memory,free_recall,186.03980370797217,203.17604566691443,12,3,,,,,,,,,,,,,
memory,value_recall,207.39723316696472,211.59265458281152,13,3,Object_Land_Pattern_Large,,,,4.191101790871471,,,,,8,,,
memory,value_recall,213.389955624938,215.97571324999444,14,3,Object_Land_Solid_Large,,,,2.58177312486805,,,,,-2,,,
memory,value_recall,218.0222742499318,220.27163879200816,15,3,Animal_Sea_Pattern_Large,,,,2.2451044160407037,,,,,-8,,,
memory,value_recall,222.0678991668392,223.39968608296476,16,3,Animal_Land_Solid_Small,,,,1.3273120829835534,,,,,-4,,,
memory,value_recall,224.6911872078199,226.84150074981153,17,3,Object_Sea_Pattern_Small,,,,2.146289583062753,,,,,-5,,,
memory,value_recall,227.8889519169461,228.44071308290586,18,3,Animal_Sea_Solid_Small,,,,0.5483815830666572,,,,,8,,,
memory,spatial_recall,232.06769366702065,239.88086508284323,18,3,Object_Land_Pattern_Large,,,1,7.808747541857883,,,,,,"[329, -190]","[329, -190]",
memory,spatial_recall,241.19063687487505,250.29777954192832,18,3,Object_Land_Solid_Large,,,0,9.103235290851444,,,,,,"[-329, -190]","[329, 189]",
memory,spatial_recall,251.8581877918914,256.86019549984485,18,3,Animal_Land_Solid_Small,,,0,4.997759166872129,,,,,,"[0, 380]","[329, 189]",
memory,spatial_recall,257.91692866687663,258.9796567079611,18,3,Object_Sea_Pattern_Small,,,1,1.05944237485528,,,,,,"[-329, 190]","[-329, 190]",
memory,spatial_recall,260.52853133296594,261.72424170793965,18,3,Animal_Sea_Solid_Small,,,1,1.191746124997735,,,,,,"[0, -380]","[0, -380]",
memory,spatial_recall,263.77869841689244,265.2564045828767,18,3,Animal_Sea_Pattern_Large,,,0,1.4727832081262022,,,,,,"[329, 189]","[329, -190]",
encoding,fixation,3.6725008750800043,4.932644583052024,19,4,Animal_Land_Pattern_Small,-7,,,,,,,,,,,
encoding,image,4.932754541980103,5.948354500113055,19,4,Animal_Land_Pattern_Small,-7,,,,,,,,,,,
encoding,value,5.948492292081937,11.961841125041246,19,4,Animal_Land_Pattern_Small,-7,,,,,,,,,,,
encoding,attention,11.961960917105898,14.979021582985297,19,4,Animal_Land_Pattern_Small,-7,-7,1,0.6760712920222431,,,,,,,,
encoding,fixation,14.979161333059892,16.23418983304873,20,4,Object_Sea_Solid_Large,-6,,,,,,,,,,,
encoding,image,16.234296249924228,17.246902582934126,20,4,Object_Sea_Solid_Large,-6,,,,,,,,,,,
encoding,value,17.247002250049263,23.25906979199499,20,4,Object_Sea_Solid_Large,-6,,,,,,,,,,,
encoding,attention,23.259189625037834,26.2779050830286,20,4,Object_Sea_Solid_Large,-6,-6,1,1.1527602500282228,,,,,,,,
encoding,fixation,26.278049875050783,27.7834142500069,21,4,Object_Sea_Pattern_Small,2,,,,,,,,,,,
encoding,image,27.783525583101436,28.79417029209435,21,4,Object_Sea_Pattern_Small,2,,,,,,,,,,,
encoding,value,28.79434566712007,34.80627654213458,21,4,Object_Sea_Pattern_Small,2,,,,,,,,,,,
encoding,attention,34.80638199998066,37.822773250052705,21,4,Object_Sea_Pattern_Small,2,+2,1,0.5601467920932919,,,,,,,,
encoding,fixation,37.822977875126526,39.078393457923084,22,4,Animal_Land_Solid_Large,4,,,,,,,,,,,
encoding,image,39.07852104213089,40.090079166926444,22,4,Animal_Land_Solid_Large,4,,,,,,,,,,,
encoding,value,40.0901999999769,46.102356292074546,22,4,Animal_Land_Solid_Large,4,,,,,,,,,,,
encoding,attention,46.10247266711667,49.12009354191832,22,4,Animal_Land_Solid_Large,4,+4,1,0.4226101250387728,,,,,,,,
encoding,fixation,49.12027137493715,50.375605874927714,23,4,Animal_Land_Pattern_Large,1,,,,,,,,,,,
encoding,image,50.37573479209095,51.386887500062585,23,4,Animal_Land_Pattern_Large,1,,,,,,,,,,,
encoding,value,51.3870050420519,57.399015417089686,23,4,Animal_Land_Pattern_Large,1,,,,,,,,,,,
encoding,attention,57.39917341712862,60.41824454208836,23,4,Animal_Land_Pattern_Large,1,+1,1,0.595807374920696,,,,,,,,
encoding,fixation,60.418409707956016,61.67377616697922,24,4,Object_Sea_Solid_Small,3,,,,,,,,,,,
encoding,image,61.673904791940004,62.68379595805891,24,4,Object_Sea_Solid_Small,3,,,,,,,,,,,
encoding,value,62.683919792063534,68.69427783298306,24,4,Object_Sea_Solid_Small,3,,,,,,,,,,,
encoding,attention,68.69438341702335,71.7116201671306,24,4,Object_Sea_Solid_Small,3,+3,1,0.7025901670567691,,,,,,,,
n-back,,,,91,4,,,,0,None,X,True,None,,,,,
n-back,,,,92,4,,,,1,None,N,False,None,,,,,
n-back,,,,93,4,,,,1,None,Z,False,None,,,,,
n-back,,,,94,4,,,,1,0.35788629087619483,N,True,1,,,,,
n-back,,,,95,4,,,,0,None,Z,True,None,,,,,
n-back,,,,96,4,,,,1,None,V,False,None,,,,,
n-back,,,,97,4,,,,1,None,V,False,None,,,,,
n-back,,,,98,4,,,,1,None,B,False,None,,,,,
n-back,,,,99,4,,,,1,0.3485119170509279,V,True,1,,,,,
n-back,,,,100,4,,,,1,None,X,False,None,,,,,
n-back,,,,101,4,,,,0,None,V,True,None,,,,,
n-back,,,,102,4,,,,1,0.35933316708542407,X,True,1,,,,,
n-back,,,,103,4,,,,1,None,B,False,None,,,,,
n-back,,,,104,4,,,,1,None,N,False,None,,,,,
n-back,,,,105,4,,,,1,None,N,False,None,,,,,
n-back,,,,106,4,,,,1,None,X,False,None,,,,,
n-back,,,,107,4,,,,1,None,C,False,None,,,,,
n-back,,,,108,4,,,,1,0.6171652500052005,X,True,1,,,,,
n-back,,,,109,4,,,,0,None,C,True,None,,,,,
n-back,,,,110,4,,,,1,None,N,False,None,,,,,
n-back,,,,111,4,,,,1,0.42390791699290276,C,True,1,,,,,
n-back,,,,112,4,,,,1,None,C,False,None,,,,,
n-back,,,,113,4,,,,1,None,Z,False,None,,,,,
n-back,,,,114,4,,,,1,None,Z,False,None,,,,,
n-back,,,,115,4,,,,1,None,C,False,None,,,,,
n-back,,,,116,4,,,,1,None,X,False,None,,,,,
n-back,,,,117,4,,,,1,None,Z,False,None,,,,,
n-back,,,,118,4,,,,1,None,B,False,None,,,,,
n-back,,,,119,4,,,,1,0.3489392080809921,Z,True,1,,,,,
n-back,,,,120,4,,,,1,None,X,False,None,,,,,
choice,fixation,131.102685125079,132.10923337494023,25,4,,,,,,,,,Animal,,,,
choice,option,132.1182022499852,133.14639933314174,25,4,,,,,,,,,Animal,,,,
choice,choice,133.14650045800954,138.03802345809527,25,4,,,2,1,3.8817256668116897,,,,Animal,,,,
choice,fixation,138.03815879207104,139.29305908293463,26,4,,,,,,,,,Large,,,,
choice,option,139.30231208307669,140.33118416694924,26,4,,,,,,,,,Large,,,,
choice,choice,140.3313072079327,145.54271754203364,26,4,,,2,1,4.201547916978598,,,,Large,,,,
choice,fixation,145.54285241710022,146.04778587492183,27,4,,,,,,,,,Object,,,,
choice,option,146.05695416708477,147.08266641711816,27,4,,,,,,,,,Object,,,,
choice,choice,147.08278262498789,150.15885208314285,27,4,,,2,1,2.0664052499923855,,,,Object,,,,
choice,fixation,150.15898754191585,151.41466912510805,28,4,,,,,,,,,Solid,,,,
choice,option,151.4241069171112,152.4511445830576,28,4,,,,,,,,,Solid,,,,
choice,choice,152.45126816700213,159.09377062506974,28,4,,,1,1,5.632672708015889,,,,Solid,,,,
choice,fixation,159.09389083296992,160.0989269579295,29,4,,,,,,,,,Pattern,,,,
choice,option,160.1083003329113,161.13510070811026,29,4,,,,,,,,,Pattern,,,,
choice,choice,161.1352203330025,162.65496358298697,29,4,,,2,1,0.5103914579376578,,,,Pattern,,,,
choice,fixation,162.6551140830852,163.1600502920337,30,4,,,,,,,,,Sea,,,,
choice,option,163.16850958298892,164.19484654208645,30,4,,,,,,,,,Sea,,,,
choice,choice,164.19495208305307,165.64767504204065,30,4,,,2,1,0.44077529199421406,,,,Sea,,,,
choice,fixation,165.6478065829724,166.15259891701862,31,4,,,,,,,,,Small,,,,
choice,option,166.1620657921303,167.18842700007372,31,4,,,,,,,,,Small,,,,
choice,choice,167.18853075010702,170.2142533750739,31,4,,,2,1,2.0149439580272883,,,,Small,,,,
choice,fixation,170.21437520813197,171.7193477919791,32,4,,,,,,,,,Land,,,,
choice,option,171.72783050010912,172.75429737498052,32,4,,,,,,,,,Land,,,,
choice,choice,172.75441720802337,174.24708108301274,32,4,,,2,1,0.4814702500589192,,,,Land,,,,
memory,free_recall,188.28892308310606,204.2719542919658,18,4,,,,,,,,,,,,,
memory,value_recall,206.48132208292373,211.61631125002168,19,4,Animal_Land_Pattern_Small,,,,5.131652124924585,,,,,-7,,,
memory,value_recall,213.6639322079718,215.9861329579726,20,4,Animal_Land_Solid_Large,,,,2.317662083078176,,,,,4,,,
memory,value_recall,217.0330741670914,222.20836612512358,21,4,Object_Sea_Solid_Large,,,,5.171976167010143,,,,,-6,,,
memory,value_recall,223.25541116693057,227.9143785419874,22,4,Object_Sea_Solid_Small,,,,4.655816042097285,,,,,3,,,
memory,value_recall,229.7097406249959,231.76273408299312,23,4,Animal_Land_Pattern_Large,,,,2.0488614588975906,,,,,1,,,
memory,value_recall,232.80800133291632,236.17812079191208,24,4,Object_Sea_Pattern_Small,,,,3.365490833064541,,,,,2,,,
memory,spatial_recall,240.16777391708456,242.49898341693915,24,4,Object_Sea_Solid_Large,,,1,2.327143833041191,,,,,,"[0, 380]","[0, 380]",
memory,spatial_recall,243.55625541694462,247.52237862511538,24,4,Animal_Land_Pattern_Small,,,1,3.9628873327746987,,,,,,"[329, -190]","[329, -190]",
memory,spatial_recall,248.83615145809017,251.49927745806053,24,4,Animal_Land_Solid_Large,,,1,2.6592335421591997,,,,,,"[-329, -190]","[-329, -190]",
memory,spatial_recall,252.5541904999409,253.60560408304445,24,4,Object_Sea_Pattern_Small,,,1,1.048314708052203,,,,,,"[-329, 190]","[-329, 190]",
memory,spatial_recall,255.15561120794155,256.53874970809557,24,4,Animal_Land_Pattern_Large,,,1,1.3786732500884682,,,,,,"[0, -380]","[0, -380]",
memory,spatial_recall,257.587250249926,259.08838112512603,24,4,Object_Sea_Solid_Small,,,1,1.4985465831123292,,,,,,"[329, 189]","[329, 189]",
encoding,fixation,5.129509084159508,6.135365334106609,25,5,Animal_Sea_Pattern_Small,-5,,,,,,,,,,,
encoding,image,6.135514792054892,7.148082625120878,25,5,Animal_Sea_Pattern_Small,-5,,,,,,,,,,,
encoding,value,7.148191625019535,13.162342875031754,25,5,Animal_Sea_Pattern_Small,-5,,,,,,,,,,,
encoding,attention,13.16245050006546,16.18007945897989,25,5,Animal_Sea_Pattern_Small,-5,-5,1,0.7190456250682473,,,,,,,,
encoding,fixation,16.18023145897314,17.43551112501882,26,5,Animal_Sea_Solid_Large,5,,,,,,,,,,,
encoding,image,17.43561612511985,18.44640174997039,26,5,Animal_Sea_Solid_Large,5,,,,,,,,,,,
encoding,value,18.44650737498887,24.45978116709739,26,5,Animal_Sea_Solid_Large,5,,,,,,,,,,,
encoding,attention,24.459899459034204,27.47997295903042,26,5,Animal_Sea_Solid_Large,5,+5,1,0.5744307909626514,,,,,,,,
encoding,fixation,27.480117625091225,28.23573416704312,27,5,Animal_Land_Solid_Large,1,,,,,,,,,,,
encoding,image,28.235837917076424,29.24687312496826,27,5,Animal_Land_Solid_Large,1,,,,,,,,,,,
encoding,value,29.246978500159457,35.25953045906499,27,5,Animal_Land_Solid_Large,1,,,,,,,,,,,
encoding,attention,35.259676792193204,38.282422750024125,27,5,Animal_Land_Solid_Large,1,+1,1,0.693412542110309,,,,,,,,
encoding,fixation,38.282584208995104,39.53854045900516,28,5,Object_Land_Pattern_Small,7,,,,,,,,,,,
encoding,image,39.53866954217665,40.55028662504628,28,5,Object_Land_Pattern_Small,7,,,,,,,,,,,
encoding,value,40.5504087919835,46.5626353751868,28,5,Object_Land_Pattern_Small,7,,,,,,,,,,,
encoding,attention,46.562761292094365,49.58030225010589,28,5,Object_Land_Pattern_Small,7,+7,1,0.9782485829200596,,,,,,,,
encoding,fixation,49.580449500121176,50.5858269170858,29,5,Object_Sea_Pattern_Large,-1,,,,,,,,,,,
encoding,image,50.58593562501483,51.597744666971266,29,5,Object_Sea_Pattern_Large,-1,,,,,,,,,,,
encoding,value,51.597853917162865,57.609237333992496,29,5,Object_Sea_Pattern_Large,-1,,,,,,,,,,,
encoding,attention,57.60937691712752,60.6267267500516,29,5,Object_Sea_Pattern_Large,-1,-1,1,0.6768813750240952,,,,,,,,
encoding,fixation,60.62690637516789,61.63228266709484,30,5,Object_Land_Solid_Small,-7,,,,,,,,,,,
encoding,image,61.6323824999854,62.64417604217306,30,5,Object_Land_Solid_Small,-7,,,,,,,,,,,
encoding,value,62.64428275008686,68.65615841699764,30,5,Object_Land_Solid_Small,-7,,,,,,,,,,,
encoding,attention,68.65626858407632,71.67385625001043,30,5,Object_Land_Solid_Small,-7,-7,1,1.597843833034858,,,,,,,,
n-back,,,,121,5,,,,1,None,V,False,None,,,,,
n-back,,,,122,5,,,,1,None,V,False,None,,,,,
n-back,,,,123,5,,,,1,0.3517465421464294,V,True,1,,,,,
n-back,,,,124,5,,,,1,None,N,False,None,,,,,
n-back,,,,125,5,,,,1,None,N,False,None,,,,,
n-back,,,,126,5,,,,1,None,V,False,None,,,,,
n-back,,,,127,5,,,,1,None,C,False,None,,,,,
n-back,,,,128,5,,,,1,0.32969633396714926,V,True,1,,,,,
n-back,,,,129,5,,,,0,None,C,True,None,,,,,
n-back,,,,130,5,,,,1,None,C,False,None,,,,,
n-back,,,,131,5,,,,1,None,Z,False,None,,,,,
n-back,,,,132,5,,,,1,None,Z,False,None,,,,,
n-back,,,,133,5,,,,1,0.6105919999536127,Z,True,1,,,,,
n-back,,,,134,5,,,,0,None,Z,True,None,,,,,
n-back,,,,135,5,,,,0,None,Z,True,None,,,,,
n-back,,,,136,5,,,,1,None,V,False,None,,,,,
n-back,,,,137,5,,,,1,None,C,False,None,,,,,
n-back,,,,138,5,,,,1,None,Z,False,None,,,,,
n-back,,,,139,5,,,,1,0.3363799580838531,C,True,1,,,,,
n-back,,,,140,5,,,,1,None,C,False,None,,,,,
n-back,,,,141,5,,,,0,None,C,True,None,,,,,
n-back,,,,142,5,,,,1,0.3512887500692159,C,True,1,,,,,
n-back,,,,143,5,,,,1,None,B,False,None,,,,,
n-back,,,,144,5,,,,1,None,Z,False,None,,,,,
n-back,,,,145,5,,,,1,None,Z,False,None,,,,,
n-back,,,,146,5,,,,1,0.536035249941051,Z,True,1,,,,,
n-back,,,,147,5,,,,1,None,X,False,None,,,,,
n-back,,,,148,5,,,,1,None,N,False,None,,,,,
n-back,,,,149,5,,,,1,None,N,False,None,,,,,
n-back,,,,150,5,,,,1,None,C,False,None,,,,,
choice,fixation,136.39274074998684,136.89634666708298,33,5,,,,,,,,,Large,,,,
choice,option,136.90634400001727,137.93513925001025,33,5,,,,,,,,,Large,,,,
choice,choice,137.93525645905174,142.38990375003777,33,5,,,1,1,3.442231875145808,,,,Large,,,,
choice,fixation,142.39004250010476,143.64526020898484,34,5,,,,,,,,,Solid,,,,
choice,option,143.65472179208882,144.6828850840684,34,5,,,,,,,,,Solid,,,,
choice,choice,144.6829925000202,153.69863383402117,34,5,,,2,1,8.005340042058378,,,,Solid,,,,
choice,fixation,153.6987879590597,154.45394079200923,35,5,,,,,,,,,Sea,,,,
choice,option,154.46398287499323,155.49222475010902,35,5,,,,,,,,,Sea,,,,
choice,choice,155.49233620916493,162.46458758413792,35,5,,,2,1,5.9626879170536995,,,,Sea,,,,
choice,fixation,162.4647448749747,163.97003270918503,36,5,,,,,,,,,Land,,,,
choice,option,163.97867287509143,165.00408562505618,36,5,,,,,,,,,Land,,,,
choice,choice,165.00419045914896,167.08108641719446,36,5,,,2,0,1.0673695418518037,,,,Land,,,,
choice,fixation,167.08120975014754,167.83636458404362,37,5,,,,,,,,,Animal,,,,
choice,option,167.84608887508512,168.875136542134,37,5,,,,,,,,,Animal,,,,
choice,choice,168.8752347091213,172.51148158404976,37,5,,,1,1,2.6262842079158872,,,,Animal,,,,
choice,fixation,172.51162212505005,173.51678933412768,38,5,,,,,,,,,Object,,,,
choice,option,173.526057084091,174.5523553341627,38,5,,,,,,,,,Object,,,,
choice,choice,174.5524719171226,180.19207450002432,38,5,,,1,0,4.626407958101481,,,,Object,,,,
choice,fixation,180.19220333406702,180.94724950008094,39,5,,,,,,,,,Pattern,,,,
choice,option,180.9564944591839,181.98368045897223,39,5,,,,,,,,,Pattern,,,,
choice,choice,181.98386520915665,185.26319308415987,39,5,,,1,1,2.269124333979562,,,,Pattern,,,,
choice,fixation,185.26333054201677,186.01828095898964,40,5,,,,,,,,,Small,,,,
choice,option,186.0277037920896,187.05450187507086,40,5,,,,,,,,,Small,,,,
choice,choice,187.05462116701528,188.3418761671055,40,5,,,2,1,0.27771287504583597,,,,Small,,,,
memory,free_recall,197.84060725010931,219.04504204215482,24,5,,,,,,,,,,,,,
memory,value_recall,221.9763897501398,224.37773416703567,25,5,Animal_Land_Solid_Large,,,,2.3969639169517905,,,,,1,,,
memory,value_recall,226.17562870914117,230.34653750015423,26,5,Object_Sea_Pattern_Large,,,,4.166867749998346,,,,,-1,,,
memory,value_recall,232.3926738749724,234.75741437496617,27,5,Animal_Sea_Pattern_Small,,,,2.360709625063464,,,,,-5,,,
memory,value_recall,236.55417512496933,240.8336012500804,28,5,Object_Land_Pattern_Small,,,,4.275357959093526,,,,,7,,,
memory,value_recall,242.3801369171124,249.41092229215428,29,5,Object_Land_Solid_Small,,,,7.026308041997254,,,,,-7,,,
memory,value_recall,250.46047191717662,255.10651329206303,30,5,Animal_Sea_Solid_Large,,,,4.642547209048644,,,,,5,,,
memory,spatial_recall,259.54295937507413,261.68416545912623,30,5,Object_Land_Solid_Small,,,1,2.137269375147298,,,,,,"[-329, 190]","[-329, 190]",
memory,spatial_recall,262.75143641699106,265.85060637514107,30,5,Animal_Sea_Pattern_Small,,,1,3.0940199999604374,,,,,,"[329, -190]","[329, -190]",
memory,spatial_recall,267.66508720908314,268.76252808398567,30,5,Animal_Land_Solid_Large,,,1,1.0935887079685926,,,,,,"[-329, -190]","[-329, -190]",
memory,spatial_recall,270.5691447921563,277.73481641709805,30,5,Object_Sea_Pattern_Large,,,0,7.161681707948446,,,,,,"[0, -380]","[329, 189]",
memory,spatial_recall,279.7970094170887,281.1863673340995,30,5,Animal_Sea_Solid_Large,,,1,1.3851813750807196,,,,,,"[0, 380]","[0, 380]",
memory,spatial_recall,282.74719533417374,283.8100344170816,30,5,Object_Land_Pattern_Small,,,1,1.058513875119388,,,,,,"[329, 189]","[329, 189]",
encoding,fixation,3.7703380421735346,5.276355125010014,31,6,Animal_Sea_Solid_Small,5,,,,,,,,,,,
encoding,image,5.276465417118743,6.287948625162244,31,6,Animal_Sea_Solid_Small,5,,,,,,,,,,,
encoding,value,6.288049583090469,12.301925125066191,31,6,Animal_Sea_Solid_Small,5,,,,,,,,,,,
encoding,attention,12.302058667177334,15.3211922920309,31,6,Animal_Sea_Solid_Small,5,+5,1,1.0180850829929113,,,,,,,,
encoding,fixation,15.321337417000905,16.07662570802495,32,6,Object_Land_Pattern_Large,6,,,,,,,,,,,
encoding,image,16.076745208119974,17.088941083056852,32,6,Object_Land_Pattern_Large,6,,,,,,,,,,,
encoding,value,17.089026417117566,23.10204091714695,32,6,Object_Land_Pattern_Large,6,,,,,,,,,,,
encoding,attention,23.102157375076786,26.122287083184347,32,6,Object_Land_Pattern_Large,6,+6,1,0.4701659579295665,,,,,,,,
encoding,fixation,26.122440417064354,27.12790866708383,33,6,Object_Land_Solid_Large,-1,,,,,,,,,,,
encoding,image,27.12803649995476,28.137681249994785,33,6,Object_Land_Solid_Large,-1,,,,,,,,,,,
encoding,value,28.13780491705984,34.14883666718379,33,6,Object_Land_Solid_Large,-1,,,,,,,,,,,
encoding,attention,34.14894470805302,37.16492841695435,33,6,Object_Land_Solid_Large,-1,-1,1,0.6273970420006663,,,,,,,,
encoding,fixation,37.165072875097394,38.67081629205495,34,6,Animal_Land_Solid_Small,-1,,,,,,,,,,,
encoding,image,38.67090266710147,39.68347412510775,34,6,Animal_Land_Solid_Small,-1,,,,,,,,,,,
encoding,value,39.68358545796946,45.6945027501788,34,6,Animal_Land_Solid_Small,-1,,,,,,,,,,,
encoding,attention,45.69462229218334,48.712057291995734,34,6,Animal_Land_Solid_Small,-1,-1,1,0.841611625161022,,,,,,,,
encoding,fixation,48.71219929214567,50.21727908309549,35,6,Animal_Sea_Pattern_Large,-1,,,,,,,,,,,
encoding,image,50.21738875005394,51.2278800830245,35,6,Animal_Sea_Pattern_Large,-1,,,,,,,,,,,
encoding,value,51.22804558300413,57.23931383318268,35,6,Animal_Sea_Pattern_Large,-1,,,,,,,,,,,
encoding,attention,57.23944000015035,60.256078250007704,35,6,Animal_Sea_Pattern_Large,-1,-1,1,0.8148300829343498,,,,,,,,
encoding,fixation,60.25624333298765,61.011351125082,36,6,Object_Sea_Pattern_Small,-3,,,,,,,,,,,
encoding,image,61.01151845813729,62.022222333122045,36,6,Object_Sea_Pattern_Small,-3,,,,,,,,,,,
encoding,value,62.02233449998312,68.03403583308682,36,6,Object_Sea_Pattern_Small,-3,,,,,,,,,,,
encoding,attention,68.03423854196444,71.05435504205525,36,6,Object_Sea_Pattern_Small,-3,-3,1,0.6843965840525925,,,,,,,,
n-back,,,,151,6,,,,1,None,B,False,None,,,,,
n-back,,,,152,6,,,,0,None,B,True,None,,,,,
n-back,,,,153,6,,,,1,None,X,False,None,,,,,
n-back,,,,154,6,,,,1,0.3402520839590579,B,True,1,,,,,
n-back,,,,155,6,,,,1,None,C,False,None,,,,,
n-back,,,,156,6,,,,1,None,N,False,None,,,,,
n-back,,,,157,6,,,,1,None,Z,False,None,,,,,
n-back,,,,158,6,,,,1,0.36663266690447927,N,True,1,,,,,
n-back,,,,159,6,,,,0,None,Z,True,None,,,,,
n-back,,,,160,6,,,,1,None,X,False,None,,,,,
n-back,,,,161,6,,,,1,None,B,False,None,,,,,
n-back,,,,162,6,,,,1,None,Z,False,None,,,,,
n-back,,,,163,6,,,,1,None,C,False,None,,,,,
n-back,,,,164,6,,,,1,0.3007364170625806,Z,True,1,,,,,
n-back,,,,165,6,,,,1,None,N,False,None,,,,,
n-back,,,,166,6,,,,1,None,V,False,None,,,,,
n-back,,,,167,6,,,,1,0.3529424578882754,N,True,1,,,,,
n-back,,,,168,6,,,,1,None,C,False,None,,,,,
n-back,,,,169,6,,,,1,None,B,False,None,,,,,
n-back,,,,170,6,,,,1,None,B,False,None,,,,,
n-back,,,,171,6,,,,1,0.4422614169307053,B,True,1,,,,,
n-back,,,,172,6,,,,0,None,B,True,None,,,,,
n-back,,,,173,6,,,,1,None,N,False,None,,,,,
n-back,,,,174,6,,,,1,None,X,False,None,,,,,
n-back,,,,175,6,,,,1,None,B,False,None,,,,,
n-back,,,,176,6,,,,1,None,N,False,None,,,,,
n-back,,,,177,6,,,,0,0.43098866706714034,X,False,1,,,,,
n-back,,,,178,6,,,,1,None,B,False,None,,,,,
n-back,,,,179,6,,,,0,None,X,True,None,,,,,
n-back,,,,180,6,,,,1,1.1539459999185055,B,True,1,,,,,
choice,fixation,129.27643062500283,130.53245954215527,41,6,,,,,,,,,Pattern,,,,
choice,option,130.5412752921693,131.5693076250609,41,6,,,,,,,,,Pattern,,,,
choice,choice,131.56942920805886,133.64035087497905,41,6,,,1,1,1.0611807499080896,,,,Pattern,,,,
choice,fixation,133.64046254195273,134.1454737081658,42,6,,,,,,,,,Land,,,,
choice,option,134.15436466713436,135.18318820814602,42,6,,,,,,,,,Land,,,,
choice,choice,135.18338062497787,137.55893191695213,42,6,,,1,1,1.3659060418140143,,,,Land,,,,
choice,fixation,137.55905845807865,139.06578649999574,43,6,,,,,,,,,Solid,,,,
choice,option,139.0757935831789,140.1029607921373,43,6,,,,,,,,,Solid,,,,
choice,choice,140.1030897081364,143.04937650007196,43,6,,,1,1,1.9343916662037373,,,,Solid,,,,
choice,fixation,143.0494985829573,144.30447937501594,44,6,,,,,,,,,Small,,,,
choice,option,144.3135466671083,145.3402730000671,44,6,,,,,,,,,Small,,,,
choice,choice,145.34038633317687,150.10485733300447,44,6,,,2,0,3.754599832929671,,,,Small,,,,
choice,fixation,150.1049698330462,151.60994891705923,45,6,,,,,,,,,Object,,,,
choice,option,151.61917958315462,152.64582370803691,45,6,,,,,,,,,Object,,,,
choice,choice,152.6459317081608,157.25033962517045,45,6,,,2,0,3.5916120000183582,,,,Object,,,,
choice,fixation,157.25052995816804,158.00585383316502,46,6,,,,,,,,,Large,,,,
choice,option,158.01465116697364,159.04131054203026,46,6,,,,,,,,,Large,,,,
choice,choice,159.04141245805658,161.46303904196247,46,6,,,1,1,1.411661540856585,,,,Large,,,,
choice,fixation,161.46317387511954,162.96838125004433,47,6,,,,,,,,,Sea,,,,
choice,option,162.9770463751629,164.00400733295828,47,6,,,,,,,,,Sea,,,,
choice,choice,164.0041136671789,167.18703745817766,47,6,,,2,0,2.1729396658483893,,,,Sea,,,,
choice,fixation,167.1871631250251,168.19231704203412,48,6,,,,,,,,,Animal,,,,
choice,option,168.20327770803124,169.2300417921506,48,6,,,,,,,,,Animal,,,,
choice,choice,169.2301700829994,170.7054795830045,48,6,,,1,1,0.46547016710974276,,,,Animal,,,,
memory,free_recall,181.20950175006874,201.72244937508367,30,6,,,,,,,,,,,,,
memory,value_recall,204.28719387506135,211.28331033303402,31,6,Animal_Sea_Pattern_Large,,,,6.991460500052199,,,,,-1,,,
memory,value_recall,213.32979441713542,217.09750979207456,32,6,Animal_Sea_Solid_Small,,,,3.7635273751802742,,,,,5,,,
memory,value_recall,218.6457994170487,220.05823120800778,33,6,Object_Sea_Pattern_Small,,,,1.407205792143941,,,,,-3,,,
memory,value_recall,221.34304441697896,222.40996824996546,34,6,Object_Land_Pattern_Large,,,,1.0613363748416305,,,,,6,,,
memory,value_recall,223.70048558316194,224.68155658314936,35,6,Animal_Land_Solid_Small,,,,0.9769024590495974,,,,,-1,,,
memory,value_recall,225.71612133295275,226.8738333331421,36,6,Object_Land_Solid_Large,,,,1.1543487089220434,,,,,-1,,,
memory,spatial_recall,231.99448441714048,234.25311812502332,36,6,Animal_Sea_Solid_Small,,,1,2.254297624807805,,,,,,"[0, -380]","[0, -380]",
memory,spatial_recall,235.56055408297107,242.72452820814215,36,6,Animal_Land_Solid_Small,,,0,7.159855250036344,,,,,,"[0, 380]","[329, 189]",
memory,spatial_recall,243.78308033314534,245.8920501251705,36,6,Object_Land_Solid_Large,,,1,2.106467207893729,,,,,,"[-329, -190]","[-329, -190]",
memory,spatial_recall,247.19907941715792,249.90217479201965,36,6,Animal_Sea_Pattern_Large,,,1,2.698719333158806,,,,,,"[329, 189]","[329, 189]",
memory,spatial_recall,250.96050887508318,252.65293258312158,36,6,Object_Land_Pattern_Large,,,1,1.690154042094946,,,,,,"[329, -190]","[329, -190]",
memory,spatial_recall,254.45908779208548,255.3898174581118,36,6,Object_Sea_Pattern_Small,,,1,0.9255185830406845,,,,,,"[-329, 190]","[-329, 190]",
encoding,fixation,3.8594883331097662,4.616035707993433,37,7,Object_Land_Pattern_Small,9,,,,,,,,,,,
encoding,image,4.616210625041276,5.62850866606459,37,7,Object_Land_Pattern_Small,9,,,,,,,,,,,
encoding,value,5.628631040919572,11.642399166012183,37,7,Object_Land_Pattern_Small,9,,,,,,,,,,,
encoding,attention,11.642517790896818,14.662259333068505,37,7,Object_Land_Pattern_Small,9,+9,1,0.4744430410210043,,,,,,,,
encoding,fixation,14.662414791062474,15.419397665886208,38,7,Animal_Land_Solid_Large,1,,,,,,,,,,,
encoding,image,15.419511124957353,16.431546249892563,38,7,Animal_Land_Solid_Large,1,,,,,,,,,,,
encoding,value,16.43166312505491,22.44394070794806,38,7,Animal_Land_Solid_Large,1,,,,,,,,,,,
encoding,attention,22.444060290930793,25.463771583046764,38,7,Animal_Land_Solid_Large,1,+1,1,0.4887672499753535,,,,,,,,
encoding,fixation,25.463930290890858,25.969939332921058,39,7,Animal_Sea_Pattern_Small,-9,,,,,,,,,,,
encoding,image,25.970086707966402,26.981090999906883,39,7,Animal_Sea_Pattern_Small,-9,,,,,,,,,,,
encoding,value,26.981197624932975,32.99293087492697,39,7,Animal_Sea_Pattern_Small,-9,,,,,,,,,,,
encoding,attention,32.99304941599257,36.01111012510955,39,7,Animal_Sea_Pattern_Small,-9,-9,1,0.8198927501216531,,,,,,,,
encoding,fixation,36.01126670790836,37.51688691601157,40,7,Object_Sea_Pattern_Large,-2,,,,,,,,,,,
encoding,image,37.51700975000858,38.52853983291425,40,7,Object_Sea_Pattern_Large,-2,,,,,,,,,,,
encoding,value,38.52866258309223,44.540102458093315,40,7,Object_Sea_Pattern_Large,-2,,,,,,,,,,,
encoding,attention,44.540217249887064,47.558886791113764,40,7,Object_Sea_Pattern_Large,-2,-2,1,0.8654770408757031,,,,,,,,
encoding,fixation,47.55903008300811,49.064115582965314,41,7,Object_Land_Solid_Small,-9,,,,,,,,,,,
encoding,image,49.06422695796937,50.075854915892705,41,7,Object_Land_Solid_Small,-9,,,,,,,,,,,
encoding,value,50.076024665962905,56.08755912492052,41,7,Object_Land_Solid_Small,-9,,,,,,,,,,,
encoding,attention,56.08773170807399,59.10433479095809,41,7,Object_Land_Solid_Small,-9,-9,1,0.5592401251196861,,,,,,,,
encoding,fixation,59.104484082898125,60.35965274996124,42,7,Animal_Sea_Solid_Large,2,,,,,,,,,,,
encoding,image,60.35976008302532,61.370924832997844,42,7,Animal_Sea_Solid_Large,2,,,,,,,,,,,
encoding,value,61.371029207948595,67.3829615409486,42,7,Animal_Sea_Solid_Large,2,,,,,,,,,,,
encoding,attention,67.38308179099113,70.4005393749103,42,7,Animal_Sea_Solid_Large,2,+2,1,0.4418857078999281,,,,,,,,
n-back,,,,181,7,,,,0,None,C,True,None,,,,,
n-back,,,,182,7,,,,0,None,X,True,None,,,,,
n-back,,,,183,7,,,,1,None,B,False,None,,,,,
n-back,,,,184,7,,,,1,0.38979175011627376,X,True,1,,,,,
n-back,,,,185,7,,,,1,None,N,False,None,,,,,
n-back,,,,186,7,,,,1,None,Z,False,None,,,,,
n-back,,,,187,7,,,,1,None,Z,False,None,,,,,
n-back,,,,188,7,,,,1,0.3936165838968009,Z,True,1,,,,,
n-back,,,,189,7,,,,1,None,C,False,None,,,,,
n-back,,,,190,7,,,,1,None,N,False,None,,,,,
n-back,,,,191,7,,,,1,None,B,False,None,,,,,
n-back,,,,192,7,,,,1,None,X,False,None,,,,,
n-back,,,,193,7,,,,1,None,N,False,None,,,,,
n-back,,,,194,7,,,,1,None,N,False,None,,,,,
n-back,,,,195,7,,,,1,None,B,False,None,,,,,
n-back,,,,196,7,,,,0,None,N,True,None,,,,,
n-back,,,,197,7,,,,1,0.7325067908968776,B,True,1,,,,,
n-back,,,,198,7,,,,0,None,N,True,None,,,,,
n-back,,,,199,7,,,,1,None,V,False,None,,,,,
n-back,,,,200,7,,,,1,None,V,False,None,,,,,
n-back,,,,201,7,,,,1,None,N,False,None,,,,,
n-back,,,,202,7,,,,1,None,C,False,None,,,,,
n-back,,,,203,7,,,,1,0.38213824992999434,N,True,1,,,,,
n-back,,,,204,7,,,,1,None,N,False,None,,,,,
n-back,,,,205,7,,,,1,None,Z,False,None,,,,,
n-back,,,,206,7,,,,1,None,Z,False,None,,,,,
n-back,,,,207,7,,,,1,None,C,False,None,,,,,
n-back,,,,208,7,,,,1,0.3102541249245405,Z,True,1,,,,,
n-back,,,,209,7,,,,1,None,X,False,None,,,,,
n-back,,,,210,7,,,,0,None,Z,True,None,,,,,
choice,fixation,128.45138658303767,129.45670774998143,49,7,,,,,,,,,Solid,,,,
choice,option,129.46550837508403,130.49374950001948,49,7,,,,,,,,,Solid,,,,
choice,choice,130.4938457501121,134.00847166590393,49,7,,,2,1,2.504882290959358,,,,Solid,,,,
choice,fixation,134.00858941604383,135.26359995803796,50,7,,,,,,,,,Land,,,,
choice,option,135.27170658297837,136.2979857500177,50,7,,,,,,,,,Land,,,,
choice,choice,136.2981187500991,143.2150776248891,50,7,,,1,1,5.90695754205808,,,,Land,,,,
choice,fixation,143.21521387505345,144.47040745802224,51,7,,,,,,,,,Small,,,,
choice,option,144.47948554111645,145.50570162502117,51,7,,,,,,,,,Small,,,,
choice,choice,145.50586679088883,147.79879966611043,51,7,,,2,1,1.283231500070542,,,,Small,,,,
choice,fixation,147.7989311250858,148.80406800005585,52,7,,,,,,,,,Large,,,,
choice,option,148.8127004581038,149.83893362502567,52,7,,,,,,,,,Large,,,,
choice,choice,149.8390352909919,153.24811616609804,52,7,,,1,1,2.399291167035699,,,,Large,,,,
choice,fixation,153.2482497910969,154.75316320802085,53,7,,,,,,,,,Pattern,,,,
choice,option,154.76278716605157,155.7895483749453,53,7,,,,,,,,,Pattern,,,,
choice,choice,155.7896591660101,156.8405148750171,53,7,,,2,1,0.0421381660271436,,,,Pattern,,,,
choice,fixation,156.84063445799984,158.34397000004537,54,7,,,,,,,,,Object,,,,
choice,option,158.35333799989894,159.37997874990106,54,7,,,,,,,,,Object,,,,
choice,choice,159.38013933296315,162.97593483305536,54,7,,,2,1,2.5845188749954104,,,,Object,,,,
choice,fixation,162.97608641604893,164.2312426250428,55,7,,,,,,,,,Animal,,,,
choice,option,164.2408092909027,165.26647708308883,55,7,,,,,,,,,Animal,,,,
choice,choice,165.2665851661004,166.3416365410667,55,7,,,2,1,0.06713754101656377,,,,Animal,,,,
choice,fixation,166.3418077500537,167.5963119158987,56,7,,,,,,,,,Sea,,,,
choice,option,167.6049158750102,168.63118349993601,56,7,,,,,,,,,Sea,,,,
choice,choice,168.6313123749569,170.04158629104495,56,7,,,2,1,0.3999178330413997,,,,Sea,,,,
memory,free_recall,179.82540329103358,198.53850766597316,36,7,,,,,,,,,,,,,
memory,value_recall,200.95901037496515,205.9399830000475,37,7,Object_Sea_Pattern_Large,,,,4.97621270804666,,,,,-2,,,
memory,value_recall,207.73737150011584,211.83743824996054,38,7,Object_Land_Pattern_Small,,,,4.095966208958998,,,,,9,,,
memory,value_recall,213.63719479111023,215.713506415952,39,7,Animal_Land_Solid_Large,,,,2.0722661251202226,,,,,1,,,
memory,value_recall,217.2600904160645,218.72225083294325,40,7,Object_Land_Solid_Small,,,,1.457486083963886,,,,,-9,,,
memory,value_recall,220.2702335829381,222.1949055409059,41,7,Animal_Sea_Pattern_Small,,,,1.920402207877487,,,,,-9,,,
memory,value_recall,223.74155574990436,226.7066505830735,42,7,Animal_Sea_Solid_Large,,,,2.961146542103961,,,,,2,,,
memory,spatial_recall,229.97016949998215,231.77402383298613,42,7,Object_Land_Solid_Small,,,1,1.799845749977976,,,,,,"[-329, 190]","[-329, 190]",
memory,spatial_recall,233.33590937498957,235.00430091610178,42,7,Animal_Land_Solid_Large,,,1,1.6643904170487076,,,,,,"[-329, -190]","[-329, -190]",
memory,spatial_recall,236.81170595809817,240.2913996661082,42,7,Animal_Sea_Pattern_Small,,,1,3.4754581248853356,,,,,,"[329, -190]","[329, -190]",
memory,spatial_recall,242.3496147498954,243.240510124946,42,7,Object_Land_Pattern_Small,,,1,0.8865375409368426,,,,,,"[329, 189]","[329, 189]",
memory,spatial_recall,244.54410479101352,245.97103154100478,42,7,Animal_Sea_Solid_Large,,,1,1.4226834578439593,,,,,,"[0, 380]","[0, 380]",
memory,spatial_recall,247.52704324992374,249.3553657499142,42,7,Object_Sea_Pattern_Large,,,1,1.824264792026952,,,,,,"[0, -380]","[0, -380]",
