phase,event,trial_number,eyetracker_onset,eyetracker_offset,fix_start,fix_end,fix_duration_full,fix_duration_bounded,fix_x,fix_y,roi_x,roi_y,roi_content,onset,offset,game,image,outcome,choice,correct,rt,letter,match,response,option,true_value,true_position,recalled_position,Unnamed: 18
encoding,fixation,1,2160495,2161510,2160729.0,2160867.0,139.0,139.0,1872.1,1137.3,1591.0,891.0,Object_Sea_Pattern_Small,9.623408125014976,10.63789154193364,1.0,Object_Sea_Solid_Small,-1.0,,,,,,,,,,,
encoding,fixation,1,2160495,2161510,2161013.0,2161490.0,478.0,478.0,1860.3,1340.1,1920.0,700.0,Animal_Sea_Solid_Large,9.623408125014976,10.63789154193364,1.0,Object_Sea_Solid_Small,-1.0,,,,,,,,,,,
encoding,image,1,2161510,2162531,2161661.0,2161823.0,163.0,163.0,1871.3,1163.0,1591.0,891.0,Object_Sea_Pattern_Small,10.638022708939388,11.65888929180801,1.0,Object_Sea_Solid_Small,-1.0,,,,,,,,,,,
encoding,image,1,2161510,2162531,2161859.0,2162641.0,783.0,672.0,2236.0,1277.5,2249.0,891.0,Object_Sea_Solid_Small,10.638022708939388,11.65888929180801,1.0,Object_Sea_Solid_Small,-1.0,,,,,,,,,,,
encoding,value,1,2162531,2168547,2162653.0,2162717.0,65.0,65.0,2164.1,1233.6,2249.0,891.0,Object_Sea_Solid_Small,11.659041167004034,17.674514124868438,1.0,Object_Sea_Solid_Small,-1.0,,,,,,,,,,,
encoding,value,1,2162531,2168547,2162737.0,2163105.0,369.0,369.0,2239.2,1161.7,2249.0,891.0,Object_Sea_Solid_Small,11.659041167004034,17.674514124868438,1.0,Object_Sea_Solid_Small,-1.0,,,,,,,,,,,
encoding,value,1,2162531,2168547,2163122.0,2163300.0,179.0,179.0,2228.2,1230.6,2249.0,891.0,Object_Sea_Solid_Small,11.659041167004034,17.674514124868438,1.0,Object_Sea_Solid_Small,-1.0,,,,,,,,,,,
encoding,value,1,2162531,2168547,2163449.0,2164082.0,634.0,634.0,2207.3,1146.5,2249.0,891.0,Object_Sea_Solid_Small,11.659041167004034,17.674514124868438,1.0,Object_Sea_Solid_Small,-1.0,,,,,,,,,,,
encoding,value,1,2162531,2168547,2164095.0,2164414.0,320.0,320.0,2218.2,1226.4,2249.0,891.0,Object_Sea_Solid_Small,11.659041167004034,17.674514124868438,1.0,Object_Sea_Solid_Small,-1.0,,,,,,,,,,,
encoding,value,1,2162531,2168547,2164564.0,2164789.0,226.0,226.0,2206.4,1093.7,2249.0,891.0,Object_Sea_Solid_Small,11.659041167004034,17.674514124868438,1.0,Object_Sea_Solid_Small,-1.0,,,,,,,,,,,
encoding,value,1,2162531,2168547,2164811.0,2165518.0,708.0,708.0,2231.4,1241.0,2249.0,891.0,Object_Sea_Solid_Small,11.659041167004034,17.674514124868438,1.0,Object_Sea_Solid_Small,-1.0,,,,,,,,,,,
encoding,value,1,2162531,2168547,2165557.0,2165763.0,207.0,207.0,1990.8,993.0,2249.0,1269.0,Animal_Land_Pattern_Small,11.659041167004034,17.674514124868438,1.0,Object_Sea_Solid_Small,-1.0,,,,,,,,,,,
encoding,value,1,2162531,2168547,2166595.0,2166625.0,31.0,31.0,2219.3,1245.4,2249.0,891.0,Object_Sea_Solid_Small,11.659041167004034,17.674514124868438,1.0,Object_Sea_Solid_Small,-1.0,,,,,,,,,,,
encoding,value,1,2162531,2168547,2166632.0,2166943.0,312.0,312.0,2216.1,1181.1,2249.0,891.0,Object_Sea_Solid_Small,11.659041167004034,17.674514124868438,1.0,Object_Sea_Solid_Small,-1.0,,,,,,,,,,,
encoding,value,1,2162531,2168547,2167273.0,2167712.0,440.0,440.0,2236.1,1157.6,2249.0,891.0,Object_Sea_Solid_Small,11.659041167004034,17.674514124868438,1.0,Object_Sea_Solid_Small,-1.0,,,,,,,,,,,
encoding,value,1,2162531,2168547,2168029.0,2168305.0,277.0,277.0,2193.0,1124.3,2249.0,891.0,Object_Sea_Solid_Small,11.659041167004034,17.674514124868438,1.0,Object_Sea_Solid_Small,-1.0,,,,,,,,,,,
encoding,value,1,2162531,2168547,2168328.0,2168737.0,410.0,219.0,2239.0,1241.2,2249.0,891.0,Object_Sea_Solid_Small,11.659041167004034,17.674514124868438,1.0,Object_Sea_Solid_Small,-1.0,,,,,,,,,,,
encoding,attention,1,2168547,2171559,2168756.0,2168924.0,169.0,169.0,2212.9,1135.6,2249.0,891.0,Object_Sea_Solid_Small,17.6746302919928,20.687272208975628,1.0,Object_Sea_Solid_Small,-1.0,,,,,,,,,,,
encoding,attention,1,2168547,2171559,2168937.0,2169451.0,515.0,515.0,2281.8,1115.4,2249.0,891.0,Object_Sea_Solid_Small,17.6746302919928,20.687272208975628,1.0,Object_Sea_Solid_Small,-1.0,,,,,,,,,,,
encoding,attention,1,2168547,2171559,2169463.0,2170655.0,1193.0,1193.0,2183.4,1158.6,2249.0,891.0,Object_Sea_Solid_Small,17.6746302919928,20.687272208975628,1.0,Object_Sea_Solid_Small,-1.0,,,,,,,,,,,
encoding,fixation,2,2171559,2172565,2171763.0,2172230.0,468.0,468.0,1889.2,1064.0,1920.0,1080.0,fixation,20.68740174989216,21.692584458971396,1.0,Object_Sea_Pattern_Small,-2.0,,,,,,,,,,,
encoding,fixation,2,2171559,2172565,2172249.0,2172750.0,502.0,316.0,2054.6,1009.5999999999999,2249.0,1269.0,Animal_Land_Pattern_Small,20.68740174989216,21.692584458971396,1.0,Object_Sea_Pattern_Small,-2.0,,,,,,,,,,,
encoding,image,2,2172565,2173576,2172791.0,2173476.0,686.0,686.0,1598.6,1231.6,1591.0,891.0,Object_Sea_Pattern_Small,21.692703583976257,22.703464374877512,1.0,Object_Sea_Pattern_Small,-2.0,,,,,,,,,,,
encoding,image,2,2172565,2173576,2173489.0,2173971.0,483.0,87.0,1599.7,1168.7,1591.0,891.0,Object_Sea_Pattern_Small,21.692703583976257,22.703464374877512,1.0,Object_Sea_Pattern_Small,-2.0,,,,,,,,,,,
encoding,value,2,2173576,2179589,2174149.0,2174200.0,52.0,52.0,1599.1,1181.7,1591.0,891.0,Object_Sea_Pattern_Small,22.703579583903775,28.7163422498852,1.0,Object_Sea_Pattern_Small,-2.0,,,,,,,,,,,
encoding,value,2,2173576,2179589,2174208.0,2175842.0,1635.0,1635.0,1602.9,1154.1,1591.0,891.0,Object_Sea_Pattern_Small,22.703579583903775,28.7163422498852,1.0,Object_Sea_Pattern_Small,-2.0,,,,,,,,,,,
encoding,value,2,2173576,2179589,2176077.0,2176219.0,143.0,143.0,1641.4,1156.8,1591.0,891.0,Object_Sea_Pattern_Small,22.703579583903775,28.7163422498852,1.0,Object_Sea_Pattern_Small,-2.0,,,,,,,,,,,
encoding,value,2,2173576,2179589,2176229.0,2176710.0,482.0,482.0,1590.4,1132.0,1591.0,891.0,Object_Sea_Pattern_Small,22.703579583903775,28.7163422498852,1.0,Object_Sea_Pattern_Small,-2.0,,,,,,,,,,,
encoding,value,2,2173576,2179589,2176943.0,2178449.0,1507.0,1507.0,1599.8,1157.5,1591.0,891.0,Object_Sea_Pattern_Small,22.703579583903775,28.7163422498852,1.0,Object_Sea_Pattern_Small,-2.0,,,,,,,,,,,
encoding,value,2,2173576,2179589,2178476.0,2178753.0,278.0,278.0,1845.8,1087.5,1591.0,891.0,Object_Sea_Pattern_Small,22.703579583903775,28.7163422498852,1.0,Object_Sea_Pattern_Small,-2.0,,,,,,,,,,,
encoding,value,2,2173576,2179589,2178779.0,2179192.0,414.0,414.0,1587.6,1169.8,1591.0,891.0,Object_Sea_Pattern_Small,22.703579583903775,28.7163422498852,1.0,Object_Sea_Pattern_Small,-2.0,,,,,,,,,,,
encoding,value,2,2173576,2179589,2179402.0,2182494.0,3093.0,187.0,1547.2,1165.7,1591.0,891.0,Object_Sea_Pattern_Small,22.703579583903775,28.7163422498852,1.0,Object_Sea_Pattern_Small,-2.0,,,,,,,,,,,
encoding,attention,2,2179589,2182607,,,,,,,,,none,28.71644274983555,31.734113374957815,1.0,Object_Sea_Pattern_Small,-2.0,-2.0,1.0,2.4179620421491563,,,,,,,,
encoding,fixation,3,2182607,2183612,2182697.0,2182879.0,183.0,183.0,1629.8,1234.7,1591.0,891.0,Object_Sea_Pattern_Small,31.734264584025368,32.739385624881834,1.0,Object_Land_Solid_Large,2.0,,,,,,,,,,,
encoding,fixation,3,2182607,2183612,2183096.0,2183353.0,258.0,258.0,2017.9,1230.9,2249.0,891.0,Object_Sea_Solid_Small,31.734264584025368,32.739385624881834,1.0,Object_Land_Solid_Large,2.0,,,,,,,,,,,
encoding,fixation,3,2182607,2183612,2183578.0,2183815.0,238.0,34.0,1798.9,1208.3,1591.0,891.0,Object_Sea_Pattern_Small,31.734264584025368,32.739385624881834,1.0,Object_Land_Solid_Large,2.0,,,,,,,,,,,
encoding,image,3,2183612,2184622,2183849.0,2184819.0,971.0,773.0,1580.4,821.9000000000001,1591.0,1269.0,Object_Land_Solid_Large,32.73949812492356,33.749691166915,1.0,Object_Land_Solid_Large,2.0,,,,,,,,,,,
encoding,value,3,2184623,2190633,2184829.0,2185349.0,521.0,521.0,1585.1,779.8,1591.0,1269.0,Object_Land_Solid_Large,33.74983079195954,39.76011854200624,1.0,Object_Land_Solid_Large,2.0,,,,,,,,,,,
encoding,value,3,2184623,2190633,2185561.0,2188423.0,2863.0,2863.0,1595.9,764.8,1591.0,1269.0,Object_Land_Solid_Large,33.74983079195954,39.76011854200624,1.0,Object_Land_Solid_Large,2.0,,,,,,,,,,,
encoding,value,3,2184623,2190633,2188681.0,2190368.0,1688.0,1688.0,1576.8,788.0999999999999,1591.0,1269.0,Object_Land_Solid_Large,33.74983079195954,39.76011854200624,1.0,Object_Land_Solid_Large,2.0,,,,,,,,,,,
encoding,value,3,2184623,2190633,2190593.0,2190911.0,319.0,40.0,1587.7,786.8,1591.0,1269.0,Object_Land_Solid_Large,33.74983079195954,39.76011854200624,1.0,Object_Land_Solid_Large,2.0,,,,,,,,,,,
encoding,attention,3,2190633,2193650,2190920.0,2191202.0,283.0,283.0,1635.6,786.0999999999999,1591.0,1269.0,Object_Land_Solid_Large,39.76025587483309,42.77691391692497,1.0,Object_Land_Solid_Large,2.0,2.0,1.0,1.825889625120908,,,,,,,,
encoding,attention,3,2190633,2193650,2191213.0,2192052.0,840.0,840.0,1562.1,787.0999999999999,1591.0,1269.0,Object_Land_Solid_Large,39.76025587483309,42.77691391692497,1.0,Object_Land_Solid_Large,2.0,2.0,1.0,1.825889625120908,,,,,,,,
encoding,attention,3,2190633,2193650,2192062.0,2192768.0,707.0,707.0,1541.4,778.7,1591.0,1269.0,Object_Land_Solid_Large,39.76025587483309,42.77691391692497,1.0,Object_Land_Solid_Large,2.0,2.0,1.0,1.825889625120908,,,,,,,,
encoding,attention,3,2190633,2193650,2193022.0,2193073.0,52.0,52.0,1452.2,1268.4,1591.0,891.0,Object_Sea_Pattern_Small,39.76025587483309,42.77691391692497,1.0,Object_Land_Solid_Large,2.0,2.0,1.0,1.825889625120908,,,,,,,,
encoding,attention,3,2190633,2193650,2193080.0,2193233.0,154.0,154.0,1456.9,1244.9,1591.0,891.0,Object_Sea_Pattern_Small,39.76025587483309,42.77691391692497,1.0,Object_Land_Solid_Large,2.0,2.0,1.0,1.825889625120908,,,,,,,,
encoding,fixation,4,2193650,2195155,2193919.0,2194150.0,232.0,232.0,1907.4,1122.9,1920.0,1080.0,fixation,42.777077791979536,44.28212004201487,1.0,Animal_Sea_Solid_Large,2.0,,,,,,,,,,,
encoding,fixation,4,2193650,2195155,2194165.0,2195477.0,1313.0,990.0,1895.0,1071.2,1920.0,1080.0,fixation,42.777077791979536,44.28212004201487,1.0,Animal_Sea_Solid_Large,2.0,,,,,,,,,,,
encoding,image,4,2195155,2196167,2195515.0,2195805.0,291.0,291.0,1897.0,1371.6,1920.0,700.0,Animal_Sea_Solid_Large,44.28225425002165,45.29351558396593,1.0,Animal_Sea_Solid_Large,2.0,,,,,,,,,,,
encoding,image,4,2195155,2196167,2195961.0,2196360.0,400.0,206.0,1886.2,1373.5,1920.0,700.0,Animal_Sea_Solid_Large,44.28225425002165,45.29351558396593,1.0,Animal_Sea_Solid_Large,2.0,,,,,,,,,,,
encoding,value,4,2196167,2202180,2196372.0,2197741.0,1370.0,1370.0,1918.1,1340.3,1920.0,700.0,Animal_Sea_Solid_Large,45.29361612489447,51.306204749969766,1.0,Animal_Sea_Solid_Large,2.0,,,,,,,,,,,
encoding,value,4,2196167,2202180,2197749.0,2197939.0,191.0,191.0,1877.0,1339.7,1920.0,700.0,Animal_Sea_Solid_Large,45.29361612489447,51.306204749969766,1.0,Animal_Sea_Solid_Large,2.0,,,,,,,,,,,
encoding,value,4,2196167,2202180,2197950.0,2198846.0,897.0,897.0,1942.6,1333.2,1920.0,700.0,Animal_Sea_Solid_Large,45.29361612489447,51.306204749969766,1.0,Animal_Sea_Solid_Large,2.0,,,,,,,,,,,
encoding,value,4,2196167,2202180,2198982.0,2200226.0,1245.0,1245.0,1931.5,1327.5,1920.0,700.0,Animal_Sea_Solid_Large,45.29361612489447,51.306204749969766,1.0,Animal_Sea_Solid_Large,2.0,,,,,,,,,,,
encoding,value,4,2196167,2202180,2200234.0,2200485.0,252.0,252.0,1988.5,1319.0,1920.0,700.0,Animal_Sea_Solid_Large,45.29361612489447,51.306204749969766,1.0,Animal_Sea_Solid_Large,2.0,,,,,,,,,,,
encoding,value,4,2196167,2202180,2200673.0,2201818.0,1146.0,1146.0,1933.6,1333.0,1920.0,700.0,Animal_Sea_Solid_Large,45.29361612489447,51.306204749969766,1.0,Animal_Sea_Solid_Large,2.0,,,,,,,,,,,
encoding,value,4,2196167,2202180,2202001.0,2202515.0,515.0,179.0,1955.1,1322.6,1920.0,700.0,Animal_Sea_Solid_Large,45.29361612489447,51.306204749969766,1.0,Animal_Sea_Solid_Large,2.0,,,,,,,,,,,
encoding,attention,4,2202180,2205198,2202530.0,2202905.0,376.0,376.0,1871.2,1315.9,1920.0,700.0,Animal_Sea_Solid_Large,51.30631699995138,54.3243926668074,1.0,Animal_Sea_Solid_Large,2.0,2.0,1.0,1.4196113338693976,,,,,,,,
encoding,attention,4,2202180,2205198,2202915.0,2203857.0,943.0,943.0,1916.9,1329.7,1920.0,700.0,Animal_Sea_Solid_Large,51.30631699995138,54.3243926668074,1.0,Animal_Sea_Solid_Large,2.0,2.0,1.0,1.4196113338693976,,,,,,,,
encoding,attention,4,2202180,2205198,2204229.0,2204537.0,309.0,309.0,1898.4,1377.7,1920.0,700.0,Animal_Sea_Solid_Large,51.30631699995138,54.3243926668074,1.0,Animal_Sea_Solid_Large,2.0,2.0,1.0,1.4196113338693976,,,,,,,,
encoding,fixation,5,2205198,2206203,2205256.0,2205644.0,389.0,389.0,1950.7,1186.6,1920.0,700.0,Animal_Sea_Solid_Large,54.324531791964546,55.32977516693063,1.0,Animal_Land_Pattern_Large,-9.0,,,,,,,,,,,
encoding,fixation,5,2205198,2206203,2205666.0,2206394.0,729.0,537.0,1926.2,1048.2,1920.0,1080.0,fixation,54.324531791964546,55.32977516693063,1.0,Animal_Land_Pattern_Large,-9.0,,,,,,,,,,,
encoding,image,5,2206204,2207215,2206430.0,2207482.0,1053.0,785.0,1879.0,692.5999999999999,1920.0,1460.0,Animal_Land_Pattern_Large,55.32987729203887,56.34084287495352,1.0,Animal_Land_Pattern_Large,-9.0,,,,,,,,,,,
encoding,value,5,2207215,2213227,2207503.0,2208433.0,931.0,931.0,1912.7,596.9000000000001,1920.0,1460.0,Animal_Land_Pattern_Large,56.3409555000253,62.35292104189284,1.0,Animal_Land_Pattern_Large,-9.0,,,,,,,,,,,
encoding,value,5,2207215,2213227,2208613.0,2208769.0,157.0,157.0,1916.0,652.8,1920.0,1460.0,Animal_Land_Pattern_Large,56.3409555000253,62.35292104189284,1.0,Animal_Land_Pattern_Large,-9.0,,,,,,,,,,,
encoding,value,5,2207215,2213227,2209032.0,2209781.0,750.0,750.0,1904.5,643.5999999999999,1920.0,1460.0,Animal_Land_Pattern_Large,56.3409555000253,62.35292104189284,1.0,Animal_Land_Pattern_Large,-9.0,,,,,,,,,,,
encoding,value,5,2207215,2213227,2209795.0,2211286.0,1492.0,1492.0,1941.8,580.5,1920.0,1460.0,Animal_Land_Pattern_Large,56.3409555000253,62.35292104189284,1.0,Animal_Land_Pattern_Large,-9.0,,,,,,,,,,,
encoding,value,5,2207215,2213227,2211522.0,2211967.0,446.0,446.0,1917.3,649.2,1920.0,1460.0,Animal_Land_Pattern_Large,56.3409555000253,62.35292104189284,1.0,Animal_Land_Pattern_Large,-9.0,,,,,,,,,,,
encoding,value,5,2207215,2213227,2211987.0,2212466.0,480.0,480.0,1922.4,560.5,1920.0,1460.0,Animal_Land_Pattern_Large,56.3409555000253,62.35292104189284,1.0,Animal_Land_Pattern_Large,-9.0,,,,,,,,,,,
encoding,value,5,2207215,2213227,2212696.0,2212982.0,287.0,287.0,1900.8,674.5,1920.0,1460.0,Animal_Land_Pattern_Large,56.3409555000253,62.35292104189284,1.0,Animal_Land_Pattern_Large,-9.0,,,,,,,,,,,
encoding,value,5,2207215,2213227,2212991.0,2213730.0,740.0,236.0,1911.4,598.0999999999999,1920.0,1460.0,Animal_Land_Pattern_Large,56.3409555000253,62.35292104189284,1.0,Animal_Land_Pattern_Large,-9.0,,,,,,,,,,,
encoding,attention,5,2213227,2216284,2213742.0,2214337.0,596.0,596.0,1852.5,588.3,1920.0,1460.0,Animal_Land_Pattern_Large,62.353038124972954,65.40957166696899,1.0,Animal_Land_Pattern_Large,-9.0,-9.0,1.0,1.327768917195499,,,,,,,,
encoding,attention,5,2213227,2216284,2214356.0,2214871.0,516.0,516.0,1874.4,653.8,1920.0,1460.0,Animal_Land_Pattern_Large,62.353038124972954,65.40957166696899,1.0,Animal_Land_Pattern_Large,-9.0,-9.0,1.0,1.327768917195499,,,,,,,,
encoding,attention,5,2213227,2216284,2215154.0,2215263.0,110.0,110.0,1879.2,796.3,1920.0,1460.0,Animal_Land_Pattern_Large,62.353038124972954,65.40957166696899,1.0,Animal_Land_Pattern_Large,-9.0,-9.0,1.0,1.327768917195499,,,,,,,,
encoding,attention,5,2213227,2216284,2215285.0,2216264.0,980.0,980.0,1860.3,679.3,1920.0,1460.0,Animal_Land_Pattern_Large,62.353038124972954,65.40957166696899,1.0,Animal_Land_Pattern_Large,-9.0,-9.0,1.0,1.327768917195499,,,,,,,,
encoding,fixation,6,2216284,2217289,2216534.0,2216569.0,36.0,36.0,2017.3,1003.8,2249.0,1269.0,Animal_Land_Pattern_Small,65.40971383382566,66.41473212488927,1.0,Animal_Land_Pattern_Small,5.0,,,,,,,,,,,
encoding,fixation,6,2216284,2217289,2216576.0,2216764.0,189.0,189.0,2017.5,969.9000000000001,2249.0,1269.0,Animal_Land_Pattern_Small,65.40971383382566,66.41473212488927,1.0,Animal_Land_Pattern_Small,5.0,,,,,,,,,,,
encoding,fixation,6,2216284,2217289,2217054.0,2217496.0,443.0,235.0,2095.3,1122.9,2249.0,891.0,Object_Sea_Solid_Small,65.40971383382566,66.41473212488927,1.0,Animal_Land_Pattern_Small,5.0,,,,,,,,,,,
encoding,image,6,2217289,2218300,2217532.0,2217901.0,370.0,370.0,2236.0,778.5999999999999,2249.0,1269.0,Animal_Land_Pattern_Small,66.414856916992,67.42606883402914,1.0,Animal_Land_Pattern_Small,5.0,,,,,,,,,,,
encoding,image,6,2217289,2218300,2218057.0,2218442.0,386.0,243.0,1809.6,1001.2,1591.0,1269.0,Object_Land_Solid_Large,66.414856916992,67.42606883402914,1.0,Animal_Land_Pattern_Small,5.0,,,,,,,,,,,
encoding,value,6,2218300,2224313,2218481.0,2218657.0,177.0,177.0,2217.5,768.9000000000001,2249.0,1269.0,Animal_Land_Pattern_Small,67.42623991682194,73.43855262501165,1.0,Animal_Land_Pattern_Small,5.0,,,,,,,,,,,
encoding,value,6,2218300,2224313,2218665.0,2218882.0,218.0,218.0,2236.6,737.9000000000001,2249.0,1269.0,Animal_Land_Pattern_Small,67.42623991682194,73.43855262501165,1.0,Animal_Land_Pattern_Small,5.0,,,,,,,,,,,
encoding,value,6,2218300,2224313,2218901.0,2219421.0,521.0,521.0,2222.4,830.2,2249.0,1269.0,Animal_Land_Pattern_Small,67.42623991682194,73.43855262501165,1.0,Animal_Land_Pattern_Small,5.0,,,,,,,,,,,
encoding,value,6,2218300,2224313,2219603.0,2220164.0,562.0,562.0,1933.8,996.9000000000001,1920.0,1460.0,Animal_Land_Pattern_Large,67.42623991682194,73.43855262501165,1.0,Animal_Land_Pattern_Small,5.0,,,,,,,,,,,
encoding,value,6,2218300,2224313,2220206.0,2221747.0,1542.0,1542.0,2233.1,749.8,2249.0,1269.0,Animal_Land_Pattern_Small,67.42623991682194,73.43855262501165,1.0,Animal_Land_Pattern_Small,5.0,,,,,,,,,,,
encoding,value,6,2218300,2224313,2221930.0,2222249.0,320.0,320.0,2231.4,785.3,2249.0,1269.0,Animal_Land_Pattern_Small,67.42623991682194,73.43855262501165,1.0,Animal_Land_Pattern_Small,5.0,,,,,,,,,,,
encoding,value,6,2218300,2224313,2222571.0,2223013.0,443.0,443.0,1965.5,866.0,1920.0,1460.0,Animal_Land_Pattern_Large,67.42623991682194,73.43855262501165,1.0,Animal_Land_Pattern_Small,5.0,,,,,,,,,,,
encoding,value,6,2218300,2224313,2223039.0,2223610.0,572.0,572.0,2226.3,752.5,2249.0,1269.0,Animal_Land_Pattern_Small,67.42623991682194,73.43855262501165,1.0,Animal_Land_Pattern_Small,5.0,,,,,,,,,,,
encoding,value,6,2218300,2224313,2223654.0,2224181.0,528.0,528.0,1876.2,932.2,1920.0,1460.0,Animal_Land_Pattern_Large,67.42623991682194,73.43855262501165,1.0,Animal_Land_Pattern_Small,5.0,,,,,,,,,,,
encoding,value,6,2218300,2224313,2224225.0,2224436.0,212.0,88.0,2260.4,716.0,2249.0,1269.0,Animal_Land_Pattern_Small,67.42623991682194,73.43855262501165,1.0,Animal_Land_Pattern_Small,5.0,,,,,,,,,,,
encoding,attention,6,2224313,2227331,2224443.0,2224649.0,207.0,207.0,2233.3,753.0,2249.0,1269.0,Animal_Land_Pattern_Small,73.43867858382873,76.45621320884675,1.0,Animal_Land_Pattern_Small,5.0,5.0,1.0,1.6166197499260306,,,,,,,,
encoding,attention,6,2224313,2227331,2224903.0,2225042.0,140.0,140.0,2236.5,904.5,2249.0,1269.0,Animal_Land_Pattern_Small,73.43867858382873,76.45621320884675,1.0,Animal_Land_Pattern_Small,5.0,5.0,1.0,1.6166197499260306,,,,,,,,
encoding,attention,6,2224313,2227331,2225061.0,2225272.0,212.0,212.0,2209.1,790.9000000000001,2249.0,1269.0,Animal_Land_Pattern_Small,73.43867858382873,76.45621320884675,1.0,Animal_Land_Pattern_Small,5.0,5.0,1.0,1.6166197499260306,,,,,,,,
encoding,attention,6,2224313,2227331,2225283.0,2226214.0,932.0,932.0,2184.8,757.9000000000001,2249.0,1269.0,Animal_Land_Pattern_Small,73.43867858382873,76.45621320884675,1.0,Animal_Land_Pattern_Small,5.0,5.0,1.0,1.6166197499260306,,,,,,,,
encoding,attention,6,2224313,2227331,2226596.0,2226951.0,356.0,356.0,2226.9,954.5999999999999,2249.0,1269.0,Animal_Land_Pattern_Small,73.43867858382873,76.45621320884675,1.0,Animal_Land_Pattern_Small,5.0,5.0,1.0,1.6166197499260306,,,,,,,,
encoding,fixation,7,2584659,2586164,2584791.0,2584980.0,190.0,190.0,1836.9,1114.9,1591.0,891.0,Object_Land_Solid_Small,3.9345032079145312,5.440127832815051,2.0,Object_Sea_Pattern_Large,8.0,,,,,,,,,,,
encoding,fixation,7,2584659,2586164,2585206.0,2585349.0,144.0,144.0,1802.6,1288.3,1920.0,700.0,Animal_Sea_Solid_Large,3.9345032079145312,5.440127832815051,2.0,Object_Sea_Pattern_Large,8.0,,,,,,,,,,,
encoding,fixation,7,2584659,2586164,2585417.0,2585593.0,177.0,177.0,1497.6,658.8,,,none,3.9345032079145312,5.440127832815051,2.0,Object_Sea_Pattern_Large,8.0,,,,,,,,,,,
encoding,fixation,7,2584659,2586164,2585638.0,2586244.0,607.0,526.0,1798.5,1133.4,1591.0,891.0,Object_Land_Solid_Small,3.9345032079145312,5.440127832815051,2.0,Object_Sea_Pattern_Large,8.0,,,,,,,,,,,
encoding,image,7,2586164,2587177,2586402.0,2586496.0,95.0,95.0,1880.7,844.9000000000001,1920.0,1460.0,Object_Sea_Pattern_Large,5.4402282908558846,6.452449582982808,2.0,Object_Sea_Pattern_Large,8.0,,,,,,,,,,,
encoding,image,7,2586164,2587177,2586531.0,2586813.0,283.0,283.0,1891.7,685.0999999999999,1920.0,1460.0,Object_Sea_Pattern_Large,5.4402282908558846,6.452449582982808,2.0,Object_Sea_Pattern_Large,8.0,,,,,,,,,,,
encoding,image,7,2586164,2587177,2587033.0,2588001.0,969.0,144.0,1905.1,617.7,1920.0,1460.0,Object_Sea_Pattern_Large,5.4402282908558846,6.452449582982808,2.0,Object_Sea_Pattern_Large,8.0,,,,,,,,,,,
encoding,value,7,2587177,2593191,2588201.0,2588383.0,183.0,183.0,1925.3,629.0999999999999,1920.0,1460.0,Object_Sea_Pattern_Large,6.45255362498574,12.466092332964765,2.0,Object_Sea_Pattern_Large,8.0,,,,,,,,,,,
encoding,value,7,2587177,2593191,2588394.0,2589560.0,1167.0,1167.0,1888.1,565.7,1920.0,1460.0,Object_Sea_Pattern_Large,6.45255362498574,12.466092332964765,2.0,Object_Sea_Pattern_Large,8.0,,,,,,,,,,,
encoding,value,7,2587177,2593191,2589569.0,2589780.0,212.0,212.0,1925.2,566.4000000000001,1920.0,1460.0,Object_Sea_Pattern_Large,6.45255362498574,12.466092332964765,2.0,Object_Sea_Pattern_Large,8.0,,,,,,,,,,,
encoding,value,7,2587177,2593191,2589789.0,2590237.0,449.0,449.0,1884.6,571.0,1920.0,1460.0,Object_Sea_Pattern_Large,6.45255362498574,12.466092332964765,2.0,Object_Sea_Pattern_Large,8.0,,,,,,,,,,,
encoding,value,7,2587177,2593191,2590462.0,2591881.0,1420.0,1420.0,1890.1,625.4000000000001,1920.0,1460.0,Object_Sea_Pattern_Large,6.45255362498574,12.466092332964765,2.0,Object_Sea_Pattern_Large,8.0,,,,,,,,,,,
encoding,value,7,2587177,2593191,2591891.0,2593674.0,1784.0,1300.0,1905.6,594.9000000000001,1920.0,1460.0,Object_Sea_Pattern_Large,6.45255362498574,12.466092332964765,2.0,Object_Sea_Pattern_Large,8.0,,,,,,,,,,,
encoding,attention,7,2593191,2596209,2593682.0,2594082.0,401.0,401.0,1844.7,622.0999999999999,1920.0,1460.0,Object_Sea_Pattern_Large,12.4662339577917,15.484435124788432,2.0,Object_Sea_Pattern_Large,8.0,8.0,1.0,0.6257205000147223,,,,,,,,
encoding,attention,7,2593191,2596209,2594673.0,2595029.0,357.0,357.0,1903.5,832.7,1920.0,1460.0,Object_Sea_Pattern_Large,12.4662339577917,15.484435124788432,2.0,Object_Sea_Pattern_Large,8.0,8.0,1.0,0.6257205000147223,,,,,,,,
encoding,attention,7,2593191,2596209,2595054.0,2595369.0,316.0,316.0,1868.3,640.0,1920.0,1460.0,Object_Sea_Pattern_Large,12.4662339577917,15.484435124788432,2.0,Object_Sea_Pattern_Large,8.0,8.0,1.0,0.6257205000147223,,,,,,,,
encoding,attention,7,2593191,2596209,2595385.0,2595627.0,243.0,243.0,1968.9,619.7,1920.0,1460.0,Object_Sea_Pattern_Large,12.4662339577917,15.484435124788432,2.0,Object_Sea_Pattern_Large,8.0,8.0,1.0,0.6257205000147223,,,,,,,,
encoding,fixation,8,2596209,2596965,2596434.0,2596523.0,90.0,90.0,1888.1,1110.9,1920.0,1080.0,fixation,15.484596790978683,16.240018165903166,2.0,Animal_Sea_Solid_Large,-2.0,,,,,,,,,,,
encoding,fixation,8,2596209,2596965,2596780.0,2597179.0,400.0,185.0,1864.0,1149.6,1591.0,891.0,Object_Land_Solid_Small,15.484596790978683,16.240018165903166,2.0,Animal_Sea_Solid_Large,-2.0,,,,,,,,,,,
encoding,image,8,2596965,2597976,2597211.0,2597412.0,202.0,202.0,1957.6,1463.6,1920.0,700.0,Animal_Sea_Solid_Large,16.240125624928623,17.251905290875584,2.0,Animal_Sea_Solid_Large,-2.0,,,,,,,,,,,
encoding,image,8,2596965,2597976,2597420.0,2597960.0,541.0,541.0,1910.4,1465.6,1920.0,700.0,Animal_Sea_Solid_Large,16.240125624928623,17.251905290875584,2.0,Animal_Sea_Solid_Large,-2.0,,,,,,,,,,,
encoding,value,8,2597976,2603989,2597993.0,2598208.0,216.0,216.0,1903.0,1250.1,1920.0,700.0,Animal_Sea_Solid_Large,17.252010874915868,23.263684707926583,2.0,Animal_Sea_Solid_Large,-2.0,,,,,,,,,,,
encoding,value,8,2597976,2603989,2598223.0,2600061.0,1839.0,1839.0,1924.3,1358.0,1920.0,700.0,Animal_Sea_Solid_Large,17.252010874915868,23.263684707926583,2.0,Animal_Sea_Solid_Large,-2.0,,,,,,,,,,,
encoding,value,8,2597976,2603989,2600074.0,2602018.0,1945.0,1945.0,1922.1,1345.8,1920.0,700.0,Animal_Sea_Solid_Large,17.252010874915868,23.263684707926583,2.0,Animal_Sea_Solid_Large,-2.0,,,,,,,,,,,
encoding,value,8,2597976,2603989,2602119.0,2603741.0,1623.0,1623.0,1911.6,1350.1,1920.0,700.0,Animal_Sea_Solid_Large,17.252010874915868,23.263684707926583,2.0,Animal_Sea_Solid_Large,-2.0,,,,,,,,,,,
encoding,value,8,2597976,2603989,2603887.0,2604475.0,589.0,102.0,1942.4,1346.3,1920.0,700.0,Animal_Sea_Solid_Large,17.252010874915868,23.263684707926583,2.0,Animal_Sea_Solid_Large,-2.0,,,,,,,,,,,
encoding,attention,8,2603989,2607009,2604487.0,2606102.0,1616.0,1616.0,1876.1,1346.9,1920.0,700.0,Animal_Sea_Solid_Large,23.26379737490788,26.28441424993798,2.0,Animal_Sea_Solid_Large,-2.0,-2.0,1.0,1.3152395829092711,,,,,,,,
encoding,fixation,9,2607009,2608515,2607357.0,2607978.0,622.0,622.0,1894.3,1018.5,1920.0,1080.0,fixation,26.28455733298324,27.789734040852636,2.0,Object_Land_Pattern_Small,-8.0,,,,,,,,,,,
encoding,fixation,9,2607009,2608515,2607990.0,2608758.0,769.0,525.0,1909.1,1055.5,1920.0,1080.0,fixation,26.28455733298324,27.789734040852636,2.0,Object_Land_Pattern_Small,-8.0,,,,,,,,,,,
encoding,image,9,2608515,2609526,2608796.0,2609366.0,571.0,571.0,2240.2,1259.8,2249.0,891.0,Object_Land_Pattern_Small,27.78986283298582,28.80121116596274,2.0,Object_Land_Pattern_Small,-8.0,,,,,,,,,,,
encoding,value,9,2609527,2615539,2609538.0,2611822.0,2285.0,2285.0,2238.4,1131.8,2249.0,891.0,Object_Land_Pattern_Small,28.80132291582413,34.81311975000426,2.0,Object_Land_Pattern_Small,-8.0,,,,,,,,,,,
encoding,value,9,2609527,2615539,2612008.0,2612175.0,168.0,168.0,2216.9,1163.0,2249.0,891.0,Object_Land_Pattern_Small,28.80132291582413,34.81311975000426,2.0,Object_Land_Pattern_Small,-8.0,,,,,,,,,,,
encoding,value,9,2609527,2615539,2612185.0,2614231.0,2047.0,2047.0,2232.4,1126.7,2249.0,891.0,Object_Land_Pattern_Small,28.80132291582413,34.81311975000426,2.0,Object_Land_Pattern_Small,-8.0,,,,,,,,,,,
encoding,value,9,2609527,2615539,2614250.0,2614566.0,317.0,317.0,2213.0,1223.0,2249.0,891.0,Object_Land_Pattern_Small,28.80132291582413,34.81311975000426,2.0,Object_Land_Pattern_Small,-8.0,,,,,,,,,,,
encoding,value,9,2609527,2615539,2614708.0,2615781.0,1074.0,831.0,2242.5,1140.7,2249.0,891.0,Object_Land_Pattern_Small,28.80132291582413,34.81311975000426,2.0,Object_Land_Pattern_Small,-8.0,,,,,,,,,,,
encoding,attention,9,2615539,2618558,2615792.0,2616216.0,425.0,425.0,2295.4,1133.9,2249.0,891.0,Object_Land_Pattern_Small,34.81324458285235,37.83256399980746,2.0,Object_Land_Pattern_Small,-8.0,-8.0,1.0,1.0468545840121806,,,,,,,,
encoding,attention,9,2615539,2618558,2616420.0,2616899.0,480.0,480.0,2202.8,1143.1,2249.0,891.0,Object_Land_Pattern_Small,34.81324458285235,37.83256399980746,2.0,Object_Land_Pattern_Small,-8.0,-8.0,1.0,1.0468545840121806,,,,,,,,
encoding,attention,9,2615539,2618558,2617155.0,2617263.0,109.0,109.0,1942.6,1217.4,1920.0,700.0,Animal_Sea_Solid_Large,34.81324458285235,37.83256399980746,2.0,Object_Land_Pattern_Small,-8.0,-8.0,1.0,1.0468545840121806,,,,,,,,
encoding,attention,9,2615539,2618558,2617820.0,2618223.0,404.0,404.0,2178.6,1124.0,2249.0,891.0,Object_Land_Pattern_Small,34.81324458285235,37.83256399980746,2.0,Object_Land_Pattern_Small,-8.0,-8.0,1.0,1.0468545840121806,,,,,,,,
encoding,fixation,10,2618558,2619563,2618860.0,2619198.0,339.0,339.0,1907.7,1028.0,1920.0,1080.0,fixation,37.83273095800541,38.837766874814406,2.0,Animal_Sea_Pattern_Small,2.0,,,,,,,,,,,
encoding,fixation,10,2618558,2619563,2619410.0,2619849.0,440.0,153.0,1939.9,1067.2,1920.0,1080.0,fixation,37.83273095800541,38.837766874814406,2.0,Animal_Sea_Pattern_Small,2.0,,,,,,,,,,,
encoding,image,10,2619563,2620575,2619882.0,2620213.0,332.0,332.0,2218.9,864.5999999999999,2249.0,1269.0,Animal_Sea_Pattern_Small,38.83785941591486,39.849186040926725,2.0,Animal_Sea_Pattern_Small,2.0,,,,,,,,,,,
encoding,image,10,2619563,2620575,2620397.0,2620822.0,426.0,178.0,1954.2,1237.3,1920.0,700.0,Animal_Sea_Solid_Large,38.83785941591486,39.849186040926725,2.0,Animal_Sea_Pattern_Small,2.0,,,,,,,,,,,
encoding,value,10,2620575,2626589,2620861.0,2621144.0,284.0,284.0,2236.7,725.2,2249.0,1269.0,Animal_Sea_Pattern_Small,39.849297374952585,45.863472915953025,2.0,Animal_Sea_Pattern_Small,2.0,,,,,,,,,,,
encoding,value,10,2620575,2626589,2621158.0,2622029.0,872.0,872.0,2239.7,788.5999999999999,2249.0,1269.0,Animal_Sea_Pattern_Small,39.849297374952585,45.863472915953025,2.0,Animal_Sea_Pattern_Small,2.0,,,,,,,,,,,
encoding,value,10,2620575,2626589,2622039.0,2623160.0,1122.0,1122.0,2170.5,759.5,2249.0,1269.0,Animal_Sea_Pattern_Small,39.849297374952585,45.863472915953025,2.0,Animal_Sea_Pattern_Small,2.0,,,,,,,,,,,
encoding,value,10,2620575,2626589,2623361.0,2623686.0,326.0,326.0,2147.5,783.5,2249.0,1269.0,Animal_Sea_Pattern_Small,39.849297374952585,45.863472915953025,2.0,Animal_Sea_Pattern_Small,2.0,,,,,,,,,,,
encoding,value,10,2620575,2626589,2623698.0,2623968.0,271.0,271.0,2223.1,792.0,2249.0,1269.0,Animal_Sea_Pattern_Small,39.849297374952585,45.863472915953025,2.0,Animal_Sea_Pattern_Small,2.0,,,,,,,,,,,
encoding,value,10,2620575,2626589,2623977.0,2624370.0,394.0,394.0,2209.3,756.3,2249.0,1269.0,Animal_Sea_Pattern_Small,39.849297374952585,45.863472915953025,2.0,Animal_Sea_Pattern_Small,2.0,,,,,,,,,,,
encoding,value,10,2620575,2626589,2624376.0,2624790.0,415.0,415.0,2263.5,753.8,2249.0,1269.0,Animal_Sea_Pattern_Small,39.849297374952585,45.863472915953025,2.0,Animal_Sea_Pattern_Small,2.0,,,,,,,,,,,
encoding,value,10,2620575,2626589,2624991.0,2625518.0,528.0,528.0,2193.8,830.5999999999999,2249.0,1269.0,Animal_Sea_Pattern_Small,39.849297374952585,45.863472915953025,2.0,Animal_Sea_Pattern_Small,2.0,,,,,,,,,,,
encoding,value,10,2620575,2626589,2625763.0,2626015.0,253.0,253.0,1909.2,1150.4,1920.0,700.0,Animal_Sea_Solid_Large,39.849297374952585,45.863472915953025,2.0,Animal_Sea_Pattern_Small,2.0,,,,,,,,,,,
encoding,value,10,2620575,2626589,2626065.0,2626362.0,298.0,298.0,2215.9,757.0999999999999,2249.0,1269.0,Animal_Sea_Pattern_Small,39.849297374952585,45.863472915953025,2.0,Animal_Sea_Pattern_Small,2.0,,,,,,,,,,,
encoding,attention,10,2626589,2629608,2626591.0,2626817.0,227.0,227.0,2228.9,778.2,2249.0,1269.0,Animal_Sea_Pattern_Small,45.86357833282091,48.88134891586378,2.0,Animal_Sea_Pattern_Small,2.0,2.0,1.0,1.437256708042696,,,,,,,,
encoding,attention,10,2626589,2629608,2626826.0,2627285.0,460.0,460.0,2176.7,760.7,2249.0,1269.0,Animal_Sea_Pattern_Small,45.86357833282091,48.88134891586378,2.0,Animal_Sea_Pattern_Small,2.0,2.0,1.0,1.437256708042696,,,,,,,,
encoding,attention,10,2626589,2629608,2627297.0,2627603.0,307.0,307.0,2250.5,768.0999999999999,2249.0,1269.0,Animal_Sea_Pattern_Small,45.86357833282091,48.88134891586378,2.0,Animal_Sea_Pattern_Small,2.0,2.0,1.0,1.437256708042696,,,,,,,,
encoding,attention,10,2626589,2629608,2627616.0,2628298.0,683.0,683.0,2181.4,741.8,2249.0,1269.0,Animal_Sea_Pattern_Small,45.86357833282091,48.88134891586378,2.0,Animal_Sea_Pattern_Small,2.0,2.0,1.0,1.437256708042696,,,,,,,,
encoding,attention,10,2626589,2629608,2628512.0,2628642.0,131.0,131.0,1947.5,1170.9,1920.0,700.0,Animal_Sea_Solid_Large,45.86357833282091,48.88134891586378,2.0,Animal_Sea_Pattern_Small,2.0,2.0,1.0,1.437256708042696,,,,,,,,
encoding,attention,10,2626589,2629608,2628851.0,2629139.0,289.0,289.0,2197.8,835.0,2249.0,1269.0,Animal_Sea_Pattern_Small,45.86357833282091,48.88134891586378,2.0,Animal_Sea_Pattern_Small,2.0,2.0,1.0,1.437256708042696,,,,,,,,
encoding,attention,10,2626589,2629608,2629346.0,2629523.0,178.0,178.0,1828.1,1133.8,1591.0,891.0,Object_Land_Solid_Small,45.86357833282091,48.88134891586378,2.0,Animal_Sea_Pattern_Small,2.0,2.0,1.0,1.437256708042696,,,,,,,,
encoding,fixation,11,2629608,2630362,2630117.0,2630569.0,453.0,245.0,1841.7,1087.8,1591.0,891.0,Object_Land_Solid_Small,48.88151279091835,49.6365183328744,2.0,Object_Land_Solid_Small,8.0,,,,,,,,,,,
encoding,image,11,2630363,2631374,2630604.0,2631161.0,558.0,558.0,1603.9,1271.3,1591.0,891.0,Object_Land_Solid_Small,49.63664137478918,50.647519999882206,2.0,Object_Land_Solid_Small,8.0,,,,,,,,,,,
encoding,image,11,2630363,2631374,2631371.0,2631559.0,189.0,3.0,1674.1,1218.1,1591.0,891.0,Object_Land_Solid_Small,49.63664137478918,50.647519999882206,2.0,Object_Land_Solid_Small,8.0,,,,,,,,,,,
encoding,value,11,2631374,2637386,2631574.0,2632881.0,1308.0,1308.0,1580.1,1157.3,1591.0,891.0,Object_Land_Solid_Small,50.64766024984419,56.659192790975794,2.0,Object_Land_Solid_Small,8.0,,,,,,,,,,,
encoding,value,11,2631374,2637386,2632893.0,2633117.0,225.0,225.0,1658.1,1161.1,1591.0,891.0,Object_Land_Solid_Small,50.64766024984419,56.659192790975794,2.0,Object_Land_Solid_Small,8.0,,,,,,,,,,,
encoding,value,11,2631374,2637386,2633350.0,2633812.0,463.0,463.0,1695.5,1142.8,1591.0,891.0,Object_Land_Solid_Small,50.64766024984419,56.659192790975794,2.0,Object_Land_Solid_Small,8.0,,,,,,,,,,,
encoding,value,11,2631374,2637386,2634041.0,2634228.0,188.0,188.0,1637.1,1123.1,1591.0,891.0,Object_Land_Solid_Small,50.64766024984419,56.659192790975794,2.0,Object_Land_Solid_Small,8.0,,,,,,,,,,,
encoding,value,11,2631374,2637386,2634242.0,2634704.0,463.0,463.0,1574.0,1146.1,1591.0,891.0,Object_Land_Solid_Small,50.64766024984419,56.659192790975794,2.0,Object_Land_Solid_Small,8.0,,,,,,,,,,,
encoding,value,11,2631374,2637386,2634959.0,2635925.0,967.0,967.0,1584.0,1159.0,1591.0,891.0,Object_Land_Solid_Small,50.64766024984419,56.659192790975794,2.0,Object_Land_Solid_Small,8.0,,,,,,,,,,,
encoding,value,11,2631374,2637386,2636124.0,2636986.0,863.0,863.0,1597.7,1152.6,1591.0,891.0,Object_Land_Solid_Small,50.64766024984419,56.659192790975794,2.0,Object_Land_Solid_Small,8.0,,,,,,,,,,,
encoding,value,11,2631374,2637386,2637189.0,2637237.0,49.0,49.0,1598.6,1179.3,1591.0,891.0,Object_Land_Solid_Small,50.64766024984419,56.659192790975794,2.0,Object_Land_Solid_Small,8.0,,,,,,,,,,,
encoding,value,11,2631374,2637386,2637243.0,2637486.0,244.0,143.0,1602.1,1151.5,1591.0,891.0,Object_Land_Solid_Small,50.64766024984419,56.659192790975794,2.0,Object_Land_Solid_Small,8.0,,,,,,,,,,,
encoding,attention,11,2637386,2640404,2637499.0,2637645.0,147.0,147.0,1490.6,1152.8,1591.0,891.0,Object_Land_Solid_Small,56.65930804098025,59.67714454093948,2.0,Object_Land_Solid_Small,8.0,8.0,1.0,2.7525152498856187,,,,,,,,
encoding,attention,11,2637386,2640404,2637656.0,2638170.0,515.0,515.0,1564.8,1161.0,1591.0,891.0,Object_Land_Solid_Small,56.65930804098025,59.67714454093948,2.0,Object_Land_Solid_Small,8.0,8.0,1.0,2.7525152498856187,,,,,,,,
encoding,attention,11,2637386,2640404,2638386.0,2638867.0,482.0,482.0,1600.7,1198.5,1591.0,891.0,Object_Land_Solid_Small,56.65930804098025,59.67714454093948,2.0,Object_Land_Solid_Small,8.0,8.0,1.0,2.7525152498856187,,,,,,,,
encoding,attention,11,2637386,2640404,2638879.0,2639485.0,607.0,607.0,1645.8,1170.9,1591.0,891.0,Object_Land_Solid_Small,56.65930804098025,59.67714454093948,2.0,Object_Land_Solid_Small,8.0,8.0,1.0,2.7525152498856187,,,,,,,,
encoding,attention,11,2637386,2640404,2639704.0,2639821.0,118.0,118.0,1617.2,1170.3,1591.0,891.0,Object_Land_Solid_Small,56.65930804098025,59.67714454093948,2.0,Object_Land_Solid_Small,8.0,8.0,1.0,2.7525152498856187,,,,,,,,
encoding,attention,11,2637386,2640404,2639835.0,2640390.0,556.0,556.0,1543.6,1147.1,1591.0,891.0,Object_Land_Solid_Small,56.65930804098025,59.67714454093948,2.0,Object_Land_Solid_Small,8.0,8.0,1.0,2.7525152498856187,,,,,,,,
encoding,fixation,12,2640404,2641408,2640671.0,2640955.0,285.0,285.0,1953.6,1269.6,1920.0,700.0,Animal_Sea_Solid_Large,59.677283165976405,60.682035374920815,2.0,Animal_Land_Solid_Large,1.0,,,,,,,,,,,
encoding,fixation,12,2640404,2641408,2641197.0,2641603.0,407.0,211.0,1774.3,1131.0,1591.0,891.0,Object_Land_Solid_Small,59.677283165976405,60.682035374920815,2.0,Animal_Land_Solid_Large,1.0,,,,,,,,,,,
encoding,image,12,2641409,2642423,2641641.0,2641882.0,242.0,242.0,1588.5,831.5,1591.0,1269.0,Animal_Land_Solid_Large,60.68214795785025,61.696347165852785,2.0,Animal_Land_Solid_Large,1.0,,,,,,,,,,,
encoding,image,12,2641409,2642423,2641895.0,2642668.0,774.0,528.0,1602.2,885.4000000000001,1591.0,1269.0,Animal_Land_Solid_Large,60.68214795785025,61.696347165852785,2.0,Animal_Land_Solid_Large,1.0,,,,,,,,,,,
encoding,value,12,2642423,2648435,2642685.0,2642786.0,102.0,102.0,1577.1,812.0999999999999,1591.0,1269.0,Animal_Land_Solid_Large,61.69644966581836,67.70856920792721,2.0,Animal_Land_Solid_Large,1.0,,,,,,,,,,,
encoding,value,12,2642423,2648435,2643071.0,2645009.0,1939.0,1939.0,1611.6,791.5,1591.0,1269.0,Animal_Land_Solid_Large,61.69644966581836,67.70856920792721,2.0,Animal_Land_Solid_Large,1.0,,,,,,,,,,,
encoding,value,12,2642423,2648435,2645282.0,2646622.0,1341.0,1341.0,1586.3,874.9000000000001,1591.0,1269.0,Animal_Land_Solid_Large,61.69644966581836,67.70856920792721,2.0,Animal_Land_Solid_Large,1.0,,,,,,,,,,,
encoding,value,12,2642423,2648435,2646892.0,2647129.0,238.0,238.0,1576.8,877.5999999999999,1591.0,1269.0,Animal_Land_Solid_Large,61.69644966581836,67.70856920792721,2.0,Animal_Land_Solid_Large,1.0,,,,,,,,,,,
encoding,value,12,2642423,2648435,2647138.0,2648753.0,1616.0,1297.0,1590.7,797.0,1591.0,1269.0,Animal_Land_Solid_Large,61.69644966581836,67.70856920792721,2.0,Animal_Land_Solid_Large,1.0,,,,,,,,,,,
encoding,attention,12,2648436,2651453,2648774.0,2648806.0,33.0,33.0,1519.9,822.8,1591.0,1269.0,Animal_Land_Solid_Large,67.70875033293851,70.72595516592264,2.0,Animal_Land_Solid_Large,1.0,1.0,1.0,0.907488582888618,,,,,,,,
encoding,attention,12,2648436,2651453,2649069.0,2649666.0,598.0,598.0,1632.3,818.3,1591.0,1269.0,Animal_Land_Solid_Large,67.70875033293851,70.72595516592264,2.0,Animal_Land_Solid_Large,1.0,1.0,1.0,0.907488582888618,,,,,,,,
encoding,attention,12,2648436,2651453,2649888.0,2650297.0,410.0,410.0,1909.9,1312.5,1920.0,700.0,Animal_Sea_Solid_Large,67.70875033293851,70.72595516592264,2.0,Animal_Land_Solid_Large,1.0,1.0,1.0,0.907488582888618,,,,,,,,
encoding,attention,12,2648436,2651453,2650346.0,2650724.0,379.0,379.0,1635.5,883.7,1591.0,1269.0,Animal_Land_Solid_Large,67.70875033293851,70.72595516592264,2.0,Animal_Land_Solid_Large,1.0,1.0,1.0,0.907488582888618,,,,,,,,
encoding,fixation,13,2887354,2888110,2887461.0,2887598.0,138.0,138.0,2066.0,949.0,2249.0,1269.0,Object_Land_Pattern_Large,3.575928583042696,4.331439167028293,3.0,Animal_Sea_Solid_Small,8.0,,,,,,,,,,,
encoding,fixation,13,2887354,2888110,2887853.0,2888299.0,447.0,257.0,1853.6,1271.3,1920.0,700.0,Animal_Land_Solid_Small,3.575928583042696,4.331439167028293,3.0,Animal_Sea_Solid_Small,8.0,,,,,,,,,,,
encoding,image,13,2888110,2889121,2888346.0,2888762.0,417.0,417.0,1880.6,710.4000000000001,1920.0,1460.0,Animal_Sea_Solid_Small,4.3315781250130385,5.342510541900992,3.0,Animal_Sea_Solid_Small,8.0,,,,,,,,,,,
encoding,image,13,2888110,2889121,2889003.0,2889159.0,157.0,118.0,1866.3,744.2,1920.0,1460.0,Animal_Sea_Solid_Small,4.3315781250130385,5.342510541900992,3.0,Animal_Sea_Solid_Small,8.0,,,,,,,,,,,
encoding,value,13,2889121,2895134,2889387.0,2889533.0,147.0,147.0,1887.1,677.0,1920.0,1460.0,Animal_Sea_Solid_Small,5.342630041996017,11.355882958043368,3.0,Animal_Sea_Solid_Small,8.0,,,,,,,,,,,
encoding,value,13,2889121,2895134,2889564.0,2890234.0,671.0,671.0,1923.9,572.5999999999999,1920.0,1460.0,Animal_Sea_Solid_Small,5.342630041996017,11.355882958043368,3.0,Animal_Sea_Solid_Small,8.0,,,,,,,,,,,
encoding,value,13,2889121,2895134,2890248.0,2890719.0,472.0,472.0,1915.9,643.2,1920.0,1460.0,Animal_Sea_Solid_Small,5.342630041996017,11.355882958043368,3.0,Animal_Sea_Solid_Small,8.0,,,,,,,,,,,
encoding,value,13,2889121,2895134,2890737.0,2892142.0,1406.0,1406.0,1937.7,580.5999999999999,1920.0,1460.0,Animal_Sea_Solid_Small,5.342630041996017,11.355882958043368,3.0,Animal_Sea_Solid_Small,8.0,,,,,,,,,,,
encoding,value,13,2889121,2895134,2892318.0,2892412.0,95.0,95.0,1885.8,620.8,1920.0,1460.0,Animal_Sea_Solid_Small,5.342630041996017,11.355882958043368,3.0,Animal_Sea_Solid_Small,8.0,,,,,,,,,,,
encoding,value,13,2889121,2895134,2892419.0,2893794.0,1376.0,1376.0,1896.3,595.8,1920.0,1460.0,Animal_Sea_Solid_Small,5.342630041996017,11.355882958043368,3.0,Animal_Sea_Solid_Small,8.0,,,,,,,,,,,
encoding,value,13,2889121,2895134,2893982.0,2896098.0,2117.0,1152.0,1905.1,603.5999999999999,1920.0,1460.0,Animal_Sea_Solid_Small,5.342630041996017,11.355882958043368,3.0,Animal_Sea_Solid_Small,8.0,,,,,,,,,,,
encoding,attention,13,2895135,2898156,2896340.0,2896611.0,272.0,272.0,1894.4,853.5999999999999,1920.0,1460.0,Animal_Sea_Solid_Small,11.355986124835908,14.37728895782493,3.0,Animal_Sea_Solid_Small,8.0,8.0,1.0,0.6831989579368383,,,,,,,,
encoding,attention,13,2895135,2898156,2896866.0,2896985.0,120.0,120.0,1921.9,645.7,1920.0,1460.0,Animal_Sea_Solid_Small,11.355986124835908,14.37728895782493,3.0,Animal_Sea_Solid_Small,8.0,8.0,1.0,0.6831989579368383,,,,,,,,
encoding,attention,13,2895135,2898156,2896995.0,2897265.0,271.0,271.0,1852.0,602.4000000000001,1920.0,1460.0,Animal_Sea_Solid_Small,11.355986124835908,14.37728895782493,3.0,Animal_Sea_Solid_Small,8.0,8.0,1.0,0.6831989579368383,,,,,,,,
encoding,attention,13,2895135,2898156,2897278.0,2897719.0,442.0,442.0,1911.3,686.5999999999999,1920.0,1460.0,Animal_Sea_Solid_Small,11.355986124835908,14.37728895782493,3.0,Animal_Sea_Solid_Small,8.0,8.0,1.0,0.6831989579368383,,,,,,,,
encoding,attention,13,2895135,2898156,2897993.0,2898141.0,149.0,149.0,1928.0,941.0,1920.0,1460.0,Animal_Sea_Solid_Small,11.355986124835908,14.37728895782493,3.0,Animal_Sea_Solid_Small,8.0,8.0,1.0,0.6831989579368383,,,,,,,,
encoding,fixation,14,2898156,2899411,2898174.0,2898503.0,330.0,330.0,1861.9,658.4000000000001,1920.0,1460.0,Animal_Sea_Solid_Small,14.377446457976475,15.63250183290802,3.0,Object_Land_Pattern_Large,8.0,,,,,,,,,,,
encoding,fixation,14,2898156,2899411,2898751.0,2899272.0,522.0,522.0,1937.7,1198.6,1920.0,700.0,Animal_Land_Solid_Small,14.377446457976475,15.63250183290802,3.0,Object_Land_Pattern_Large,8.0,,,,,,,,,,,
encoding,fixation,14,2898156,2899411,2899348.0,2899523.0,176.0,63.0,2011.4,351.0,,,none,14.377446457976475,15.63250183290802,3.0,Object_Land_Pattern_Large,8.0,,,,,,,,,,,
encoding,image,14,2899411,2900424,2899584.0,2899685.0,102.0,102.0,1962.4,1253.1,1920.0,700.0,Animal_Land_Solid_Small,15.63263704185374,16.644999499898404,3.0,Object_Land_Pattern_Large,8.0,,,,,,,,,,,
encoding,image,14,2899411,2900424,2899717.0,2899838.0,122.0,122.0,2197.5,993.8,2249.0,1269.0,Object_Land_Pattern_Large,15.63263704185374,16.644999499898404,3.0,Object_Land_Pattern_Large,8.0,,,,,,,,,,,
encoding,image,14,2899411,2900424,2899862.0,2900285.0,424.0,424.0,2223.8,849.5,2249.0,1269.0,Object_Land_Pattern_Large,15.63263704185374,16.644999499898404,3.0,Object_Land_Pattern_Large,8.0,,,,,,,,,,,
encoding,value,14,2900424,2906436,2900599.0,2900700.0,102.0,102.0,2149.5,848.8,2249.0,1269.0,Object_Land_Pattern_Large,16.64511749986559,22.657171417027712,3.0,Object_Land_Pattern_Large,8.0,,,,,,,,,,,
encoding,value,14,2900424,2906436,2900720.0,2901545.0,826.0,826.0,2231.5,758.7,2249.0,1269.0,Object_Land_Pattern_Large,16.64511749986559,22.657171417027712,3.0,Object_Land_Pattern_Large,8.0,,,,,,,,,,,
encoding,value,14,2900424,2906436,2901562.0,2901795.0,234.0,234.0,2141.7,768.0999999999999,2249.0,1269.0,Object_Land_Pattern_Large,16.64511749986559,22.657171417027712,3.0,Object_Land_Pattern_Large,8.0,,,,,,,,,,,
encoding,value,14,2900424,2906436,2901804.0,2902218.0,415.0,415.0,2203.1,740.3,2249.0,1269.0,Object_Land_Pattern_Large,16.64511749986559,22.657171417027712,3.0,Object_Land_Pattern_Large,8.0,,,,,,,,,,,
encoding,value,14,2900424,2906436,2902228.0,2902737.0,510.0,510.0,2149.4,725.5999999999999,2249.0,1269.0,Object_Land_Pattern_Large,16.64511749986559,22.657171417027712,3.0,Object_Land_Pattern_Large,8.0,,,,,,,,,,,
encoding,value,14,2900424,2906436,2902908.0,2903481.0,574.0,574.0,2182.3,762.5999999999999,2249.0,1269.0,Object_Land_Pattern_Large,16.64511749986559,22.657171417027712,3.0,Object_Land_Pattern_Large,8.0,,,,,,,,,,,
encoding,value,14,2900424,2906436,2903726.0,2903987.0,262.0,262.0,2167.2,789.7,2249.0,1269.0,Object_Land_Pattern_Large,16.64511749986559,22.657171417027712,3.0,Object_Land_Pattern_Large,8.0,,,,,,,,,,,
encoding,value,14,2900424,2906436,2903999.0,2904393.0,395.0,395.0,2206.8,746.7,2249.0,1269.0,Object_Land_Pattern_Large,16.64511749986559,22.657171417027712,3.0,Object_Land_Pattern_Large,8.0,,,,,,,,,,,
encoding,value,14,2900424,2906436,2904404.0,2904674.0,271.0,271.0,2152.2,774.8,2249.0,1269.0,Object_Land_Pattern_Large,16.64511749986559,22.657171417027712,3.0,Object_Land_Pattern_Large,8.0,,,,,,,,,,,
encoding,value,14,2900424,2906436,2904683.0,2905126.0,444.0,444.0,2214.3,755.7,2249.0,1269.0,Object_Land_Pattern_Large,16.64511749986559,22.657171417027712,3.0,Object_Land_Pattern_Large,8.0,,,,,,,,,,,
encoding,value,14,2900424,2906436,2905312.0,2905748.0,437.0,437.0,2197.8,777.3,2249.0,1269.0,Object_Land_Pattern_Large,16.64511749986559,22.657171417027712,3.0,Object_Land_Pattern_Large,8.0,,,,,,,,,,,
encoding,value,14,2900424,2906436,2905975.0,2906237.0,263.0,263.0,2199.9,843.8,2249.0,1269.0,Object_Land_Pattern_Large,16.64511749986559,22.657171417027712,3.0,Object_Land_Pattern_Large,8.0,,,,,,,,,,,
encoding,value,14,2900424,2906436,2906257.0,2906935.0,679.0,179.0,2212.9,771.5999999999999,2249.0,1269.0,Object_Land_Pattern_Large,16.64511749986559,22.657171417027712,3.0,Object_Land_Pattern_Large,8.0,,,,,,,,,,,
encoding,attention,14,2906436,2909455,2906946.0,2907486.0,541.0,541.0,2269.3,765.3,2249.0,1269.0,Object_Land_Pattern_Large,22.657286999979988,25.675710499985144,3.0,Object_Land_Pattern_Large,8.0,8.0,1.0,0.7707262909971178,,,,,,,,
encoding,attention,14,2906436,2909455,2907988.0,2908888.0,901.0,901.0,2133.3,1057.0,2249.0,1269.0,Object_Land_Pattern_Large,22.657286999979988,25.675710499985144,3.0,Object_Land_Pattern_Large,8.0,8.0,1.0,0.7707262909971178,,,,,,,,
encoding,fixation,15,2909455,2910211,2909751.0,2910451.0,701.0,460.0,1909.5,1065.6,1920.0,1080.0,fixation,25.675879374844953,26.431398457847536,3.0,Animal_Land_Solid_Small,-4.0,,,,,,,,,,,
encoding,image,15,2910211,2911222,2910486.0,2910895.0,410.0,410.0,1927.1,1411.5,1920.0,700.0,Animal_Land_Solid_Small,26.43151770788245,27.44237062497996,3.0,Animal_Land_Solid_Small,-4.0,,,,,,,,,,,
encoding,image,15,2910211,2911222,2910921.0,2911144.0,224.0,224.0,1919.2,1259.3,1920.0,700.0,Animal_Land_Solid_Small,26.43151770788245,27.44237062497996,3.0,Animal_Land_Solid_Small,-4.0,,,,,,,,,,,
encoding,image,15,2910211,2911222,2911154.0,2912296.0,1143.0,68.0,1924.1,1338.2,1920.0,700.0,Animal_Land_Solid_Small,26.43151770788245,27.44237062497996,3.0,Animal_Land_Solid_Small,-4.0,,,,,,,,,,,
encoding,value,15,2911222,2917235,2912517.0,2913803.0,1287.0,1287.0,1944.7,1340.9,1920.0,700.0,Animal_Land_Solid_Small,27.442482667043805,33.454879082972184,3.0,Animal_Land_Solid_Small,-4.0,,,,,,,,,,,
encoding,value,15,2911222,2917235,2913814.0,2914002.0,189.0,189.0,1870.1,1338.4,1920.0,700.0,Animal_Land_Solid_Small,27.442482667043805,33.454879082972184,3.0,Animal_Land_Solid_Small,-4.0,,,,,,,,,,,
encoding,value,15,2911222,2917235,2914010.0,2914525.0,516.0,516.0,1918.0,1345.2,1920.0,700.0,Animal_Land_Solid_Small,27.442482667043805,33.454879082972184,3.0,Animal_Land_Solid_Small,-4.0,,,,,,,,,,,
encoding,value,15,2911222,2917235,2914698.0,2915336.0,639.0,639.0,1916.9,1351.4,1920.0,700.0,Animal_Land_Solid_Small,27.442482667043805,33.454879082972184,3.0,Animal_Land_Solid_Small,-4.0,,,,,,,,,,,
encoding,value,15,2911222,2917235,2915517.0,2916573.0,1057.0,1057.0,1925.7,1330.1,1920.0,700.0,Animal_Land_Solid_Small,27.442482667043805,33.454879082972184,3.0,Animal_Land_Solid_Small,-4.0,,,,,,,,,,,
encoding,value,15,2911222,2917235,2916733.0,2916968.0,236.0,236.0,1919.7,1372.2,1920.0,700.0,Animal_Land_Solid_Small,27.442482667043805,33.454879082972184,3.0,Animal_Land_Solid_Small,-4.0,,,,,,,,,,,
encoding,value,15,2911222,2917235,2916979.0,2917246.0,268.0,256.0,1942.6,1338.5,1920.0,700.0,Animal_Land_Solid_Small,27.442482667043805,33.454879082972184,3.0,Animal_Land_Solid_Small,-4.0,,,,,,,,,,,
encoding,attention,15,2917235,2920252,2917254.0,2918212.0,959.0,959.0,1886.7,1345.7,1920.0,700.0,Animal_Land_Solid_Small,33.455016291933134,36.4725411250256,3.0,Animal_Land_Solid_Small,-4.0,-4.0,1.0,0.7412275830283761,,,,,,,,
encoding,attention,15,2917235,2920252,2918527.0,2918737.0,211.0,211.0,1858.6,1257.7,1920.0,700.0,Animal_Land_Solid_Small,33.455016291933134,36.4725411250256,3.0,Animal_Land_Solid_Small,-4.0,-4.0,1.0,0.7412275830283761,,,,,,,,
encoding,attention,15,2917235,2920252,2918761.0,2918939.0,179.0,179.0,1893.7,1374.9,1920.0,700.0,Animal_Land_Solid_Small,33.455016291933134,36.4725411250256,3.0,Animal_Land_Solid_Small,-4.0,-4.0,1.0,0.7412275830283761,,,,,,,,
encoding,attention,15,2917235,2920252,2918955.0,2919252.0,298.0,298.0,1939.8,1455.8,1920.0,700.0,Animal_Land_Solid_Small,33.455016291933134,36.4725411250256,3.0,Animal_Land_Solid_Small,-4.0,-4.0,1.0,0.7412275830283761,,,,,,,,
encoding,attention,15,2917235,2920252,2919515.0,2919540.0,26.0,26.0,2020.4,1370.4,1920.0,700.0,Animal_Land_Solid_Small,33.455016291933134,36.4725411250256,3.0,Animal_Land_Solid_Small,-4.0,-4.0,1.0,0.7412275830283761,,,,,,,,
encoding,attention,15,2917235,2920252,2919546.0,2919691.0,146.0,146.0,2016.1,1319.3,1920.0,700.0,Animal_Land_Solid_Small,33.455016291933134,36.4725411250256,3.0,Animal_Land_Solid_Small,-4.0,-4.0,1.0,0.7412275830283761,,,,,,,,
encoding,attention,15,2917235,2920252,2919705.0,2919843.0,139.0,139.0,1909.3,1357.7,1920.0,700.0,Animal_Land_Solid_Small,33.455016291933134,36.4725411250256,3.0,Animal_Land_Solid_Small,-4.0,-4.0,1.0,0.7412275830283761,,,,,,,,
encoding,fixation,16,2920252,2921758,2920818.0,2921301.0,484.0,484.0,1760.8,961.3,1591.0,1269.0,Object_Land_Solid_Large,36.4727491249796,37.97823933302425,3.0,Object_Sea_Pattern_Small,-5.0,,,,,,,,,,,
encoding,fixation,16,2920252,2921758,2921324.0,2921972.0,649.0,434.0,1587.6,882.3,1591.0,1269.0,Object_Land_Solid_Large,36.4727491249796,37.97823933302425,3.0,Object_Sea_Pattern_Small,-5.0,,,,,,,,,,,
encoding,image,16,2921758,2922770,2922007.0,2922382.0,376.0,376.0,1616.0,1243.3,1591.0,891.0,Object_Sea_Pattern_Small,37.978356749983504,38.990115916822106,3.0,Object_Sea_Pattern_Small,-5.0,,,,,,,,,,,
encoding,image,16,2921758,2922770,2922397.0,2923555.0,1159.0,373.0,1590.1,1166.5,1591.0,891.0,Object_Sea_Pattern_Small,37.978356749983504,38.990115916822106,3.0,Object_Sea_Pattern_Small,-5.0,,,,,,,,,,,
encoding,value,16,2922770,2928782,2923815.0,2923848.0,34.0,34.0,1669.1,1234.9,1591.0,891.0,Object_Sea_Pattern_Small,38.99021949991584,45.0022194578778,3.0,Object_Sea_Pattern_Small,-5.0,,,,,,,,,,,
encoding,value,16,2922770,2928782,2923854.0,2924350.0,497.0,497.0,1661.7,1212.2,1591.0,891.0,Object_Sea_Pattern_Small,38.99021949991584,45.0022194578778,3.0,Object_Sea_Pattern_Small,-5.0,,,,,,,,,,,
encoding,value,16,2922770,2928782,2924364.0,2925954.0,1591.0,1591.0,1598.7,1210.0,1591.0,891.0,Object_Sea_Pattern_Small,38.99021949991584,45.0022194578778,3.0,Object_Sea_Pattern_Small,-5.0,,,,,,,,,,,
encoding,value,16,2922770,2928782,2926144.0,2926756.0,613.0,613.0,1622.9,1163.8,1591.0,891.0,Object_Sea_Pattern_Small,38.99021949991584,45.0022194578778,3.0,Object_Sea_Pattern_Small,-5.0,,,,,,,,,,,
encoding,value,16,2922770,2928782,2926773.0,2927975.0,1203.0,1203.0,1610.7,1255.2,1591.0,891.0,Object_Sea_Pattern_Small,38.99021949991584,45.0022194578778,3.0,Object_Sea_Pattern_Small,-5.0,,,,,,,,,,,
encoding,value,16,2922770,2928782,2927993.0,2928364.0,372.0,372.0,1618.0,1172.7,1591.0,891.0,Object_Sea_Pattern_Small,38.99021949991584,45.0022194578778,3.0,Object_Sea_Pattern_Small,-5.0,,,,,,,,,,,
encoding,value,16,2922770,2928782,2928621.0,2929230.0,610.0,161.0,1605.6,1169.6,1591.0,891.0,Object_Sea_Pattern_Small,38.99021949991584,45.0022194578778,3.0,Object_Sea_Pattern_Small,-5.0,,,,,,,,,,,
encoding,attention,16,2928783,2931795,2929251.0,2929694.0,444.0,444.0,1610.0,1257.4,1591.0,891.0,Object_Sea_Pattern_Small,45.00242679193616,48.01425162493251,3.0,Object_Sea_Pattern_Small,-5.0,,,,,,,,,,,
encoding,attention,16,2928783,2931795,2929931.0,2929978.0,48.0,48.0,1648.5,1220.1,1591.0,891.0,Object_Sea_Pattern_Small,45.00242679193616,48.01425162493251,3.0,Object_Sea_Pattern_Small,-5.0,,,,,,,,,,,
encoding,attention,16,2928783,2931795,2929989.0,2931006.0,1018.0,1018.0,1644.8,1166.0,1591.0,891.0,Object_Sea_Pattern_Small,45.00242679193616,48.01425162493251,3.0,Object_Sea_Pattern_Small,-5.0,,,,,,,,,,,
encoding,attention,16,2928783,2931795,2931208.0,2931300.0,93.0,93.0,1577.9,1188.1,1591.0,891.0,Object_Sea_Pattern_Small,45.00242679193616,48.01425162493251,3.0,Object_Sea_Pattern_Small,-5.0,,,,,,,,,,,
encoding,attention,16,2928783,2931795,2931309.0,2931350.0,42.0,42.0,1583.9,1185.3,1591.0,891.0,Object_Sea_Pattern_Small,45.00242679193616,48.01425162493251,3.0,Object_Sea_Pattern_Small,-5.0,,,,,,,,,,,
encoding,attention,16,2928783,2931795,2931360.0,2931708.0,349.0,349.0,1550.0,1153.6,1591.0,891.0,Object_Sea_Pattern_Small,45.00242679193616,48.01425162493251,3.0,Object_Sea_Pattern_Small,-5.0,,,,,,,,,,,
encoding,fixation,17,2931795,2932300,2931985.0,2932023.0,39.0,39.0,1588.0,1209.6,1591.0,891.0,Object_Sea_Pattern_Small,48.01438012486324,48.51979187503457,3.0,Animal_Sea_Pattern_Large,-8.0,,,,,,,,,,,
encoding,fixation,17,2931795,2932300,2932030.0,2932579.0,550.0,270.0,1589.8,1166.8,1591.0,891.0,Object_Sea_Pattern_Small,48.01438012486324,48.51979187503457,3.0,Animal_Sea_Pattern_Large,-8.0,,,,,,,,,,,
encoding,image,17,2932300,2933311,2932624.0,2932758.0,135.0,135.0,2221.7,1222.3,2249.0,891.0,Animal_Sea_Pattern_Large,48.51995670795441,49.53035158291459,3.0,Animal_Sea_Pattern_Large,-8.0,,,,,,,,,,,
encoding,value,17,2933311,2939322,2933552.0,2933747.0,196.0,196.0,2167.4,1168.0,2249.0,891.0,Animal_Sea_Pattern_Large,49.53048391686752,55.541569042019546,3.0,Animal_Sea_Pattern_Large,-8.0,,,,,,,,,,,
encoding,value,17,2933311,2939322,2933765.0,2934082.0,318.0,318.0,2255.0,1111.0,2249.0,891.0,Animal_Sea_Pattern_Large,49.53048391686752,55.541569042019546,3.0,Animal_Sea_Pattern_Large,-8.0,,,,,,,,,,,
encoding,value,17,2933311,2939322,2934099.0,2935042.0,944.0,944.0,2216.6,1221.1,2249.0,891.0,Animal_Sea_Pattern_Large,49.53048391686752,55.541569042019546,3.0,Animal_Sea_Pattern_Large,-8.0,,,,,,,,,,,
encoding,value,17,2933311,2939322,2935208.0,2935479.0,272.0,272.0,2184.5,1194.5,2249.0,891.0,Animal_Sea_Pattern_Large,49.53048391686752,55.541569042019546,3.0,Animal_Sea_Pattern_Large,-8.0,,,,,,,,,,,
encoding,value,17,2933311,2939322,2935493.0,2935863.0,371.0,371.0,2232.5,1132.6,2249.0,891.0,Animal_Sea_Pattern_Large,49.53048391686752,55.541569042019546,3.0,Animal_Sea_Pattern_Large,-8.0,,,,,,,,,,,
encoding,value,17,2933311,2939322,2935872.0,2936671.0,800.0,800.0,2224.2,1133.5,2249.0,891.0,Animal_Sea_Pattern_Large,49.53048391686752,55.541569042019546,3.0,Animal_Sea_Pattern_Large,-8.0,,,,,,,,,,,
encoding,value,17,2933311,2939322,2936849.0,2937074.0,226.0,226.0,2110.3,1153.9,2249.0,891.0,Animal_Sea_Pattern_Large,49.53048391686752,55.541569042019546,3.0,Animal_Sea_Pattern_Large,-8.0,,,,,,,,,,,
encoding,value,17,2933311,2939322,2937093.0,2937375.0,283.0,283.0,2257.8,1142.3,2249.0,891.0,Animal_Sea_Pattern_Large,49.53048391686752,55.541569042019546,3.0,Animal_Sea_Pattern_Large,-8.0,,,,,,,,,,,
encoding,value,17,2933311,2939322,2937391.0,2937818.0,428.0,428.0,2179.2,1141.9,2249.0,891.0,Animal_Sea_Pattern_Large,49.53048391686752,55.541569042019546,3.0,Animal_Sea_Pattern_Large,-8.0,,,,,,,,,,,
encoding,value,17,2933311,2939322,2937827.0,2938333.0,507.0,507.0,2238.5,1131.5,2249.0,891.0,Animal_Sea_Pattern_Large,49.53048391686752,55.541569042019546,3.0,Animal_Sea_Pattern_Large,-8.0,,,,,,,,,,,
encoding,value,17,2933311,2939322,2938503.0,2939773.0,1271.0,819.0,2221.5,1143.9,2249.0,891.0,Animal_Sea_Pattern_Large,49.53048391686752,55.541569042019546,3.0,Animal_Sea_Pattern_Large,-8.0,,,,,,,,,,,
encoding,attention,17,2939322,2942342,2939781.0,2940906.0,1126.0,1126.0,2290.2,1139.9,2249.0,891.0,Animal_Sea_Pattern_Large,55.541686333017424,58.560707124881446,3.0,Animal_Sea_Pattern_Large,-8.0,-8.0,1.0,1.351181875215843,,,,,,,,
encoding,attention,17,2939322,2942342,2941130.0,2941468.0,339.0,339.0,2012.8,1132.1,2249.0,891.0,Animal_Sea_Pattern_Large,55.541686333017424,58.560707124881446,3.0,Animal_Sea_Pattern_Large,-8.0,-8.0,1.0,1.351181875215843,,,,,,,,
encoding,attention,17,2939322,2942342,2941677.0,2941975.0,299.0,299.0,2268.4,1159.9,2249.0,891.0,Animal_Sea_Pattern_Large,55.541686333017424,58.560707124881446,3.0,Animal_Sea_Pattern_Large,-8.0,-8.0,1.0,1.351181875215843,,,,,,,,
encoding,attention,17,2939322,2942342,2941996.0,2942234.0,239.0,239.0,2143.7,1185.2,2249.0,891.0,Animal_Sea_Pattern_Large,55.541686333017424,58.560707124881446,3.0,Animal_Sea_Pattern_Large,-8.0,-8.0,1.0,1.351181875215843,,,,,,,,
encoding,fixation,18,2942342,2942846,2942454.0,2942665.0,212.0,212.0,2090.8,1215.0,2249.0,891.0,Animal_Sea_Pattern_Large,58.56086808303371,59.06579658295959,3.0,Object_Land_Solid_Large,-2.0,,,,,,,,,,,
encoding,fixation,18,2942342,2942846,2942689.0,2942768.0,80.0,80.0,1904.0,1050.6,1920.0,1080.0,fixation,58.56086808303371,59.06579658295959,3.0,Object_Land_Solid_Large,-2.0,,,,,,,,,,,
encoding,fixation,18,2942342,2942846,2942785.0,2943107.0,323.0,61.0,1903.2,1025.9,1920.0,1080.0,fixation,58.56086808303371,59.06579658295959,3.0,Object_Land_Solid_Large,-2.0,,,,,,,,,,,
encoding,image,18,2942847,2943856,2943137.0,2943304.0,168.0,168.0,1618.0,881.5,1591.0,1269.0,Object_Land_Solid_Large,59.06589666684158,60.07577741681598,3.0,Object_Land_Solid_Large,-2.0,,,,,,,,,,,
encoding,image,18,2942847,2943856,2943583.0,2943753.0,171.0,171.0,1575.3,900.4000000000001,1591.0,1269.0,Object_Land_Solid_Large,59.06589666684158,60.07577741681598,3.0,Object_Land_Solid_Large,-2.0,,,,,,,,,,,
encoding,image,18,2942847,2943856,2943790.0,2944048.0,259.0,66.0,1907.8,1001.8,1920.0,1460.0,Animal_Sea_Solid_Small,59.06589666684158,60.07577741681598,3.0,Object_Land_Solid_Large,-2.0,,,,,,,,,,,
encoding,value,18,2943857,2949868,2944080.0,2944272.0,193.0,193.0,1599.0,820.2,1591.0,1269.0,Object_Land_Solid_Large,60.07588449981995,66.08672195789404,3.0,Object_Land_Solid_Large,-2.0,,,,,,,,,,,
encoding,value,18,2943857,2949868,2944562.0,2945762.0,1201.0,1201.0,1596.2,823.2,1591.0,1269.0,Object_Land_Solid_Large,60.07588449981995,66.08672195789404,3.0,Object_Land_Solid_Large,-2.0,,,,,,,,,,,
encoding,value,18,2943857,2949868,2945770.0,2946823.0,1054.0,1054.0,1624.5,805.7,1591.0,1269.0,Object_Land_Solid_Large,60.07588449981995,66.08672195789404,3.0,Object_Land_Solid_Large,-2.0,,,,,,,,,,,
encoding,value,18,2943857,2949868,2947061.0,2947590.0,530.0,530.0,1592.5,814.9000000000001,1591.0,1269.0,Object_Land_Solid_Large,60.07588449981995,66.08672195789404,3.0,Object_Land_Solid_Large,-2.0,,,,,,,,,,,
encoding,value,18,2943857,2949868,2947825.0,2948071.0,247.0,247.0,1679.6,889.3,1591.0,1269.0,Object_Land_Solid_Large,60.07588449981995,66.08672195789404,3.0,Object_Land_Solid_Large,-2.0,,,,,,,,,,,
encoding,value,18,2943857,2949868,2948089.0,2948525.0,437.0,437.0,1582.7,796.8,1591.0,1269.0,Object_Land_Solid_Large,60.07588449981995,66.08672195789404,3.0,Object_Land_Solid_Large,-2.0,,,,,,,,,,,
encoding,value,18,2943857,2949868,2948535.0,2949478.0,944.0,944.0,1618.9,843.9000000000001,1591.0,1269.0,Object_Land_Solid_Large,60.07588449981995,66.08672195789404,3.0,Object_Land_Solid_Large,-2.0,,,,,,,,,,,
encoding,value,18,2943857,2949868,2949737.0,2950080.0,344.0,131.0,1635.9,901.5999999999999,1591.0,1269.0,Object_Land_Solid_Large,60.07588449981995,66.08672195789404,3.0,Object_Land_Solid_Large,-2.0,,,,,,,,,,,
encoding,attention,18,2949868,2952885,2950092.0,2950700.0,609.0,609.0,1558.1,808.4000000000001,1591.0,1269.0,Object_Land_Solid_Large,66.0868418328464,69.10334604186937,3.0,Object_Land_Solid_Large,-2.0,-2.0,1.0,1.1743148330133408,,,,,,,,
encoding,attention,18,2949868,2952885,2950708.0,2951277.0,570.0,570.0,1594.4,824.3,1591.0,1269.0,Object_Land_Solid_Large,66.0868418328464,69.10334604186937,3.0,Object_Land_Solid_Large,-2.0,-2.0,1.0,1.1743148330133408,,,,,,,,
encoding,attention,18,2949868,2952885,2951528.0,2951770.0,243.0,243.0,1970.7,1324.5,1920.0,700.0,Animal_Land_Solid_Small,66.0868418328464,69.10334604186937,3.0,Object_Land_Solid_Large,-2.0,-2.0,1.0,1.1743148330133408,,,,,,,,
encoding,attention,18,2949868,2952885,2952050.0,2952318.0,269.0,269.0,1690.3,881.7,1591.0,1269.0,Object_Land_Solid_Large,66.0868418328464,69.10334604186937,3.0,Object_Land_Solid_Large,-2.0,-2.0,1.0,1.1743148330133408,,,,,,,,
encoding,attention,18,2949868,2952885,2952327.0,2952703.0,377.0,377.0,1620.5,830.0999999999999,1591.0,1269.0,Object_Land_Solid_Large,66.0868418328464,69.10334604186937,3.0,Object_Land_Solid_Large,-2.0,-2.0,1.0,1.1743148330133408,,,,,,,,
encoding,fixation,19,3168471,3169731,3169000.0,3169253.0,254.0,254.0,1905.6,1311.6,1920.0,700.0,Object_Sea_Solid_Large,3.672500875080004,4.932644583052024,4.0,Animal_Land_Pattern_Small,-7.0,,,,,,,,,,,
encoding,fixation,19,3168471,3169731,3169285.0,3169628.0,344.0,344.0,1783.7,997.0999999999999,1591.0,1269.0,Animal_Land_Solid_Large,3.672500875080004,4.932644583052024,4.0,Animal_Land_Pattern_Small,-7.0,,,,,,,,,,,
encoding,fixation,19,3168471,3169731,3169656.0,3169915.0,260.0,75.0,1892.6,780.4000000000001,1920.0,1460.0,Animal_Land_Pattern_Large,3.672500875080004,4.932644583052024,4.0,Animal_Land_Pattern_Small,-7.0,,,,,,,,,,,
encoding,image,19,3169731,3170747,3169950.0,3170760.0,811.0,797.0,2234.1,867.0999999999999,2249.0,1269.0,Animal_Land_Pattern_Small,4.932754541980103,5.948354500113055,4.0,Animal_Land_Pattern_Small,-7.0,,,,,,,,,,,
encoding,value,19,3170747,3176760,3170776.0,3170954.0,179.0,179.0,2136.2,798.8,2249.0,1269.0,Animal_Land_Pattern_Small,5.948492292081937,11.961841125041246,4.0,Animal_Land_Pattern_Small,-7.0,,,,,,,,,,,
encoding,value,19,3170747,3176760,3170974.0,3171468.0,495.0,495.0,2234.9,758.4000000000001,2249.0,1269.0,Animal_Land_Pattern_Small,5.948492292081937,11.961841125041246,4.0,Animal_Land_Pattern_Small,-7.0,,,,,,,,,,,
encoding,value,19,3170747,3176760,3171643.0,3173064.0,1422.0,1422.0,2203.8,774.5,2249.0,1269.0,Animal_Land_Pattern_Small,5.948492292081937,11.961841125041246,4.0,Animal_Land_Pattern_Small,-7.0,,,,,,,,,,,
encoding,value,19,3170747,3176760,3173269.0,3173509.0,241.0,241.0,2194.0,771.8,2249.0,1269.0,Animal_Land_Pattern_Small,5.948492292081937,11.961841125041246,4.0,Animal_Land_Pattern_Small,-7.0,,,,,,,,,,,
encoding,value,19,3170747,3176760,3173525.0,3173888.0,364.0,364.0,2236.9,737.5999999999999,2249.0,1269.0,Animal_Land_Pattern_Small,5.948492292081937,11.961841125041246,4.0,Animal_Land_Pattern_Small,-7.0,,,,,,,,,,,
encoding,value,19,3170747,3176760,3173897.0,3174119.0,223.0,223.0,2199.9,762.9000000000001,2249.0,1269.0,Animal_Land_Pattern_Small,5.948492292081937,11.961841125041246,4.0,Animal_Land_Pattern_Small,-7.0,,,,,,,,,,,
encoding,value,19,3170747,3176760,3174127.0,3176126.0,2000.0,2000.0,2235.8,759.5,2249.0,1269.0,Animal_Land_Pattern_Small,5.948492292081937,11.961841125041246,4.0,Animal_Land_Pattern_Small,-7.0,,,,,,,,,,,
encoding,value,19,3170747,3176760,3176142.0,3176336.0,195.0,195.0,2177.8,800.4000000000001,2249.0,1269.0,Animal_Land_Pattern_Small,5.948492292081937,11.961841125041246,4.0,Animal_Land_Pattern_Small,-7.0,,,,,,,,,,,
encoding,value,19,3170747,3176760,3176345.0,3176550.0,206.0,206.0,2240.4,812.9000000000001,2249.0,1269.0,Animal_Land_Pattern_Small,5.948492292081937,11.961841125041246,4.0,Animal_Land_Pattern_Small,-7.0,,,,,,,,,,,
encoding,value,19,3170747,3176760,3176740.0,3177259.0,520.0,20.0,2204.2,771.8,2249.0,1269.0,Animal_Land_Pattern_Small,5.948492292081937,11.961841125041246,4.0,Animal_Land_Pattern_Small,-7.0,,,,,,,,,,,
encoding,attention,19,3176760,3179778,3177268.0,3177715.0,448.0,448.0,2256.1,760.9000000000001,2249.0,1269.0,Animal_Land_Pattern_Small,11.961960917105898,14.979021582985297,4.0,Animal_Land_Pattern_Small,-7.0,-7.0,1.0,0.6760712920222431,,,,,,,,
encoding,attention,19,3176760,3179778,3177945.0,3178308.0,364.0,364.0,2203.7,855.9000000000001,2249.0,1269.0,Animal_Land_Pattern_Small,11.961960917105898,14.979021582985297,4.0,Animal_Land_Pattern_Small,-7.0,-7.0,1.0,0.6760712920222431,,,,,,,,
encoding,attention,19,3176760,3179778,3178601.0,3178767.0,167.0,167.0,2316.9,850.3,2249.0,1269.0,Animal_Land_Pattern_Small,11.961960917105898,14.979021582985297,4.0,Animal_Land_Pattern_Small,-7.0,-7.0,1.0,0.6760712920222431,,,,,,,,
encoding,fixation,20,3179778,3181033,3179822.0,3180044.0,223.0,223.0,2272.4,856.5999999999999,2249.0,1269.0,Animal_Land_Pattern_Small,14.979161333059892,16.23418983304873,4.0,Object_Sea_Solid_Large,-6.0,,,,,,,,,,,
encoding,fixation,20,3179778,3181033,3180203.0,3180448.0,246.0,246.0,1926.7,1054.6,1920.0,1080.0,fixation,14.979161333059892,16.23418983304873,4.0,Object_Sea_Solid_Large,-6.0,,,,,,,,,,,
encoding,fixation,20,3179778,3181033,3180686.0,3180986.0,301.0,301.0,1900.5,938.5,1920.0,1460.0,Animal_Land_Pattern_Large,14.979161333059892,16.23418983304873,4.0,Object_Sea_Solid_Large,-6.0,,,,,,,,,,,
encoding,fixation,20,3179778,3181033,3181010.0,3181226.0,217.0,23.0,1885.8,782.3,1920.0,1460.0,Animal_Land_Pattern_Large,14.979161333059892,16.23418983304873,4.0,Object_Sea_Solid_Large,-6.0,,,,,,,,,,,
encoding,image,20,3181033,3182046,3181269.0,3181438.0,170.0,170.0,1928.6,1320.6,1920.0,700.0,Object_Sea_Solid_Large,16.234296249924228,17.246902582934126,4.0,Object_Sea_Solid_Large,-6.0,,,,,,,,,,,
encoding,image,20,3181033,3182046,3181455.0,3181613.0,159.0,159.0,1929.0,1391.9,1920.0,700.0,Object_Sea_Solid_Large,16.234296249924228,17.246902582934126,4.0,Object_Sea_Solid_Large,-6.0,,,,,,,,,,,
encoding,image,20,3181033,3182046,3181793.0,3181946.0,154.0,154.0,1916.9,1397.7,1920.0,700.0,Object_Sea_Solid_Large,16.234296249924228,17.246902582934126,4.0,Object_Sea_Solid_Large,-6.0,,,,,,,,,,,
encoding,value,20,3182046,3188058,3182719.0,3184515.0,1797.0,1797.0,1937.2,1320.4,1920.0,700.0,Object_Sea_Solid_Large,17.247002250049263,23.25906979199499,4.0,Object_Sea_Solid_Large,-6.0,,,,,,,,,,,
encoding,value,20,3182046,3188058,3184677.0,3185120.0,444.0,444.0,1932.4,1313.8,1920.0,700.0,Object_Sea_Solid_Large,17.247002250049263,23.25906979199499,4.0,Object_Sea_Solid_Large,-6.0,,,,,,,,,,,
encoding,value,20,3182046,3188058,3185132.0,3185546.0,415.0,415.0,1875.1,1299.7,1920.0,700.0,Object_Sea_Solid_Large,17.247002250049263,23.25906979199499,4.0,Object_Sea_Solid_Large,-6.0,,,,,,,,,,,
encoding,value,20,3182046,3188058,3185562.0,3185767.0,206.0,206.0,1991.2,1291.9,1920.0,700.0,Object_Sea_Solid_Large,17.247002250049263,23.25906979199499,4.0,Object_Sea_Solid_Large,-6.0,,,,,,,,,,,
encoding,value,20,3182046,3188058,3185777.0,3186290.0,514.0,514.0,1925.1,1310.6,1920.0,700.0,Object_Sea_Solid_Large,17.247002250049263,23.25906979199499,4.0,Object_Sea_Solid_Large,-6.0,,,,,,,,,,,
encoding,value,20,3182046,3188058,3186458.0,3186767.0,310.0,310.0,1910.4,1298.6,1920.0,700.0,Object_Sea_Solid_Large,17.247002250049263,23.25906979199499,4.0,Object_Sea_Solid_Large,-6.0,,,,,,,,,,,
encoding,value,20,3182046,3188058,3186774.0,3188615.0,1842.0,1284.0,1917.1,1337.7,1920.0,700.0,Object_Sea_Solid_Large,17.247002250049263,23.25906979199499,4.0,Object_Sea_Solid_Large,-6.0,,,,,,,,,,,
encoding,attention,20,3188058,3191077,3188712.0,3189448.0,737.0,737.0,1959.2,1335.8,1920.0,700.0,Object_Sea_Solid_Large,23.25918962503783,26.2779050830286,4.0,Object_Sea_Solid_Large,-6.0,-6.0,1.0,1.1527602500282228,,,,,,,,
encoding,attention,20,3188058,3191077,3189764.0,3189988.0,225.0,225.0,1946.9,1460.4,1920.0,700.0,Object_Sea_Solid_Large,23.25918962503783,26.2779050830286,4.0,Object_Sea_Solid_Large,-6.0,-6.0,1.0,1.1527602500282228,,,,,,,,
encoding,attention,20,3188058,3191077,3190263.0,3190454.0,192.0,192.0,2008.7,1331.7,1920.0,700.0,Object_Sea_Solid_Large,23.25918962503783,26.2779050830286,4.0,Object_Sea_Solid_Large,-6.0,-6.0,1.0,1.1527602500282228,,,,,,,,
encoding,attention,20,3188058,3191077,3190673.0,3190927.0,255.0,255.0,1975.7,744.5999999999999,1920.0,1460.0,Animal_Land_Pattern_Large,23.25918962503783,26.2779050830286,4.0,Object_Sea_Solid_Large,-6.0,-6.0,1.0,1.1527602500282228,,,,,,,,
encoding,fixation,21,3191077,3192583,3191499.0,3192003.0,505.0,505.0,1923.3,1166.0,1920.0,700.0,Object_Sea_Solid_Large,26.278049875050783,27.7834142500069,4.0,Object_Sea_Pattern_Small,2.0,,,,,,,,,,,
encoding,fixation,21,3191077,3192583,3192027.0,3192433.0,407.0,407.0,2124.1,1300.6,2249.0,891.0,Object_Sea_Solid_Small,26.278049875050783,27.7834142500069,4.0,Object_Sea_Pattern_Small,2.0,,,,,,,,,,,
encoding,fixation,21,3191077,3192583,3192459.0,3192730.0,272.0,124.0,1823.9,1251.2,1920.0,700.0,Object_Sea_Solid_Large,26.278049875050783,27.7834142500069,4.0,Object_Sea_Pattern_Small,2.0,,,,,,,,,,,
encoding,image,21,3192583,3193594,3192753.0,3192895.0,143.0,143.0,1616.0,1225.5,1591.0,891.0,Object_Sea_Pattern_Small,27.783525583101436,28.79417029209435,4.0,Object_Sea_Pattern_Small,2.0,,,,,,,,,,,
encoding,image,21,3192583,3193594,3193493.0,3193791.0,299.0,101.0,1631.2,1245.0,1591.0,891.0,Object_Sea_Pattern_Small,27.783525583101436,28.79417029209435,4.0,Object_Sea_Pattern_Small,2.0,,,,,,,,,,,
encoding,value,21,3193594,3199606,3193810.0,3194206.0,397.0,397.0,1604.5,1158.3,1591.0,891.0,Object_Sea_Pattern_Small,28.79434566712007,34.80627654213458,4.0,Object_Sea_Pattern_Small,2.0,,,,,,,,,,,
encoding,value,21,3193594,3199606,3194428.0,3195056.0,629.0,629.0,1647.8,1228.4,1591.0,891.0,Object_Sea_Pattern_Small,28.79434566712007,34.80627654213458,4.0,Object_Sea_Pattern_Small,2.0,,,,,,,,,,,
encoding,value,21,3193594,3199606,3195069.0,3195393.0,325.0,325.0,1599.6,1161.6,1591.0,891.0,Object_Sea_Pattern_Small,28.79434566712007,34.80627654213458,4.0,Object_Sea_Pattern_Small,2.0,,,,,,,,,,,
encoding,value,21,3193594,3199606,3195405.0,3197097.0,1693.0,1693.0,1628.9,1167.0,1591.0,891.0,Object_Sea_Pattern_Small,28.79434566712007,34.80627654213458,4.0,Object_Sea_Pattern_Small,2.0,,,,,,,,,,,
encoding,value,21,3193594,3199606,3197279.0,3197353.0,75.0,75.0,1569.3,1196.3,1591.0,891.0,Object_Sea_Pattern_Small,28.79434566712007,34.80627654213458,4.0,Object_Sea_Pattern_Small,2.0,,,,,,,,,,,
encoding,value,21,3193594,3199606,3197361.0,3197723.0,363.0,363.0,1571.8,1169.5,1591.0,891.0,Object_Sea_Pattern_Small,28.79434566712007,34.80627654213458,4.0,Object_Sea_Pattern_Small,2.0,,,,,,,,,,,
encoding,value,21,3193594,3199606,3197940.0,3198167.0,228.0,228.0,1611.9,1197.5,1591.0,891.0,Object_Sea_Pattern_Small,28.79434566712007,34.80627654213458,4.0,Object_Sea_Pattern_Small,2.0,,,,,,,,,,,
encoding,value,21,3193594,3199606,3198208.0,3198675.0,468.0,468.0,2068.1,1018.9000000000001,2249.0,1269.0,Animal_Land_Pattern_Small,28.79434566712007,34.80627654213458,4.0,Object_Sea_Pattern_Small,2.0,,,,,,,,,,,
encoding,value,21,3193594,3199606,3198711.0,3199368.0,658.0,658.0,1606.9,1153.9,1591.0,891.0,Object_Sea_Pattern_Small,28.79434566712007,34.80627654213458,4.0,Object_Sea_Pattern_Small,2.0,,,,,,,,,,,
encoding,attention,21,3199606,3202622,3199625.0,3200010.0,386.0,386.0,1611.6,1176.9,1591.0,891.0,Object_Sea_Pattern_Small,34.80638199998066,37.822773250052705,4.0,Object_Sea_Pattern_Small,2.0,2.0,1.0,0.5601467920932919,,,,,,,,
encoding,attention,21,3199606,3202622,3200022.0,3200428.0,407.0,407.0,1555.3,1140.2,1591.0,891.0,Object_Sea_Pattern_Small,34.80638199998066,37.822773250052705,4.0,Object_Sea_Pattern_Small,2.0,2.0,1.0,0.5601467920932919,,,,,,,,
encoding,attention,21,3199606,3202622,3200716.0,3201008.0,293.0,293.0,1632.1,1265.1,1591.0,891.0,Object_Sea_Pattern_Small,34.80638199998066,37.822773250052705,4.0,Object_Sea_Pattern_Small,2.0,2.0,1.0,0.5601467920932919,,,,,,,,
encoding,attention,21,3199606,3202622,3201054.0,3201429.0,376.0,376.0,2010.0,1157.1,2249.0,891.0,Object_Sea_Solid_Small,34.80638199998066,37.822773250052705,4.0,Object_Sea_Pattern_Small,2.0,2.0,1.0,0.5601467920932919,,,,,,,,
encoding,attention,21,3199606,3202622,3201465.0,3201839.0,375.0,375.0,1613.0,1174.1,1591.0,891.0,Object_Sea_Pattern_Small,34.80638199998066,37.822773250052705,4.0,Object_Sea_Pattern_Small,2.0,2.0,1.0,0.5601467920932919,,,,,,,,
encoding,attention,21,3199606,3202622,3201866.0,3202137.0,272.0,272.0,1395.1,1171.2,1591.0,891.0,Object_Sea_Pattern_Small,34.80638199998066,37.822773250052705,4.0,Object_Sea_Pattern_Small,2.0,2.0,1.0,0.5601467920932919,,,,,,,,
encoding,attention,21,3199606,3202622,3202161.0,3202460.0,300.0,300.0,1632.1,1144.3,1591.0,891.0,Object_Sea_Pattern_Small,34.80638199998066,37.822773250052705,4.0,Object_Sea_Pattern_Small,2.0,2.0,1.0,0.5601467920932919,,,,,,,,
encoding,fixation,22,3202623,3203878,3202648.0,3202902.0,255.0,255.0,2099.9,1241.8,2249.0,891.0,Object_Sea_Solid_Small,37.822977875126526,39.078393457923084,4.0,Animal_Land_Solid_Large,4.0,,,,,,,,,,,
encoding,fixation,22,3202623,3203878,3202937.0,3203721.0,785.0,785.0,1881.0,1057.6,1920.0,1080.0,fixation,37.822977875126526,39.078393457923084,4.0,Animal_Land_Solid_Large,4.0,,,,,,,,,,,
encoding,fixation,22,3202623,3203878,3203756.0,3204002.0,247.0,122.0,2089.6,1189.9,2249.0,891.0,Object_Sea_Solid_Small,37.822977875126526,39.078393457923084,4.0,Animal_Land_Solid_Large,4.0,,,,,,,,,,,
encoding,image,22,3203878,3204890,3204012.0,3204046.0,35.0,35.0,2153.1,1205.0,2249.0,891.0,Object_Sea_Solid_Small,39.07852104213089,40.09007916692645,4.0,Animal_Land_Solid_Large,4.0,,,,,,,,,,,
encoding,image,22,3203878,3204890,3204091.0,3204305.0,215.0,215.0,1586.7,907.0999999999999,1591.0,1269.0,Animal_Land_Solid_Large,39.07852104213089,40.09007916692645,4.0,Animal_Land_Solid_Large,4.0,,,,,,,,,,,
encoding,image,22,3203878,3204890,3204671.0,3204774.0,104.0,104.0,1604.8,955.5999999999999,1591.0,1269.0,Animal_Land_Solid_Large,39.07852104213089,40.09007916692645,4.0,Animal_Land_Solid_Large,4.0,,,,,,,,,,,
encoding,image,22,3203878,3204890,3204834.0,3204996.0,163.0,56.0,1589.5,835.5,1591.0,1269.0,Animal_Land_Solid_Large,39.07852104213089,40.09007916692645,4.0,Animal_Land_Solid_Large,4.0,,,,,,,,,,,
encoding,value,22,3204890,3210902,3205010.0,3205243.0,234.0,234.0,1546.4,780.4000000000001,1591.0,1269.0,Animal_Land_Solid_Large,40.0901999999769,46.102356292074546,4.0,Animal_Land_Solid_Large,4.0,,,,,,,,,,,
encoding,value,22,3204890,3210902,3205250.0,3205683.0,434.0,434.0,1601.0,787.8,1591.0,1269.0,Animal_Land_Solid_Large,40.0901999999769,46.102356292074546,4.0,Animal_Land_Solid_Large,4.0,,,,,,,,,,,
encoding,value,22,3204890,3210902,3205903.0,3206133.0,231.0,231.0,1903.0,1211.8,1920.0,700.0,Object_Sea_Solid_Large,40.0901999999769,46.102356292074546,4.0,Animal_Land_Solid_Large,4.0,,,,,,,,,,,
encoding,value,22,3204890,3210902,3206166.0,3206640.0,475.0,475.0,2285.9,1187.7,2249.0,891.0,Object_Sea_Solid_Small,40.0901999999769,46.102356292074546,4.0,Animal_Land_Solid_Large,4.0,,,,,,,,,,,
encoding,value,22,3204890,3210902,3206916.0,3207334.0,419.0,419.0,1565.9,828.4000000000001,1591.0,1269.0,Animal_Land_Solid_Large,40.0901999999769,46.102356292074546,4.0,Animal_Land_Solid_Large,4.0,,,,,,,,,,,
encoding,value,22,3204890,3210902,3207345.0,3207669.0,325.0,325.0,1595.2,873.0,1591.0,1269.0,Animal_Land_Solid_Large,40.0901999999769,46.102356292074546,4.0,Animal_Land_Solid_Large,4.0,,,,,,,,,,,
encoding,value,22,3204890,3210902,3207686.0,3209466.0,1781.0,1781.0,1595.5,796.9000000000001,1591.0,1269.0,Animal_Land_Solid_Large,40.0901999999769,46.102356292074546,4.0,Animal_Land_Solid_Large,4.0,,,,,,,,,,,
encoding,value,22,3204890,3210902,3209709.0,3209831.0,123.0,123.0,1602.9,880.4000000000001,1591.0,1269.0,Animal_Land_Solid_Large,40.0901999999769,46.102356292074546,4.0,Animal_Land_Solid_Large,4.0,,,,,,,,,,,
encoding,value,22,3204890,3210902,3209838.0,3210031.0,194.0,194.0,1610.4,866.9000000000001,1591.0,1269.0,Animal_Land_Solid_Large,40.0901999999769,46.102356292074546,4.0,Animal_Land_Solid_Large,4.0,,,,,,,,,,,
encoding,value,22,3204890,3210902,3210290.0,3210548.0,259.0,259.0,1592.1,863.0999999999999,1591.0,1269.0,Animal_Land_Solid_Large,40.0901999999769,46.102356292074546,4.0,Animal_Land_Solid_Large,4.0,,,,,,,,,,,
encoding,value,22,3204890,3210902,3210554.0,3211012.0,459.0,348.0,1603.6,793.2,1591.0,1269.0,Animal_Land_Solid_Large,40.0901999999769,46.102356292074546,4.0,Animal_Land_Solid_Large,4.0,,,,,,,,,,,
encoding,attention,22,3210902,3213920,3211021.0,3211587.0,567.0,567.0,1567.2,795.0999999999999,1591.0,1269.0,Animal_Land_Solid_Large,46.10247266711667,49.12009354191832,4.0,Animal_Land_Solid_Large,4.0,4.0,1.0,0.4226101250387728,,,,,,,,
encoding,attention,22,3210902,3213920,3211845.0,3212001.0,157.0,157.0,1631.6,1086.8,1591.0,891.0,Object_Sea_Pattern_Small,46.10247266711667,49.12009354191832,4.0,Animal_Land_Solid_Large,4.0,4.0,1.0,0.4226101250387728,,,,,,,,
encoding,attention,22,3210902,3213920,3212026.0,3212261.0,236.0,236.0,1596.9,942.4000000000001,1591.0,1269.0,Animal_Land_Solid_Large,46.10247266711667,49.12009354191832,4.0,Animal_Land_Solid_Large,4.0,4.0,1.0,0.4226101250387728,,,,,,,,
encoding,attention,22,3210902,3213920,3213032.0,3213150.0,119.0,119.0,1965.1,1097.1,1920.0,1080.0,fixation,46.10247266711667,49.12009354191832,4.0,Animal_Land_Solid_Large,4.0,4.0,1.0,0.4226101250387728,,,,,,,,
encoding,attention,22,3210902,3213920,3213192.0,3213488.0,297.0,297.0,2244.6,1252.3,2249.0,891.0,Object_Sea_Solid_Small,46.10247266711667,49.12009354191832,4.0,Animal_Land_Solid_Large,4.0,4.0,1.0,0.4226101250387728,,,,,,,,
encoding,attention,22,3210902,3213920,3213749.0,3213894.0,146.0,146.0,1564.7,1068.6,1591.0,1269.0,Animal_Land_Solid_Large,46.10247266711667,49.12009354191832,4.0,Animal_Land_Solid_Large,4.0,4.0,1.0,0.4226101250387728,,,,,,,,
encoding,fixation,23,3213920,3215176,3214612.0,3214749.0,138.0,138.0,1709.8,953.0,1591.0,1269.0,Animal_Land_Solid_Large,49.12027137493715,50.375605874927714,4.0,Animal_Land_Pattern_Large,1.0,,,,,,,,,,,
encoding,fixation,23,3213920,3215176,3214948.0,3215214.0,267.0,228.0,1953.9,1118.7,1920.0,1080.0,fixation,49.12027137493715,50.375605874927714,4.0,Animal_Land_Pattern_Large,1.0,,,,,,,,,,,
encoding,image,23,3215176,3216187,3215238.0,3215390.0,153.0,153.0,2134.0,1135.2,2249.0,891.0,Object_Sea_Solid_Small,50.37573479209095,51.386887500062585,4.0,Animal_Land_Pattern_Large,1.0,,,,,,,,,,,
encoding,image,23,3215176,3216187,3215441.0,3215920.0,480.0,480.0,1922.8,620.3,1920.0,1460.0,Animal_Land_Pattern_Large,50.37573479209095,51.386887500062585,4.0,Animal_Land_Pattern_Large,1.0,,,,,,,,,,,
encoding,image,23,3215176,3216187,3215944.0,3216219.0,276.0,243.0,1783.4,736.2,1920.0,1460.0,Animal_Land_Pattern_Large,50.37573479209095,51.386887500062585,4.0,Animal_Land_Pattern_Large,1.0,,,,,,,,,,,
encoding,value,23,3216187,3222200,3216240.0,3216411.0,172.0,172.0,1867.4,655.7,1920.0,1460.0,Animal_Land_Pattern_Large,51.3870050420519,57.399015417089686,4.0,Animal_Land_Pattern_Large,1.0,,,,,,,,,,,
encoding,value,23,3216187,3222200,3216421.0,3217152.0,732.0,732.0,1890.8,600.3,1920.0,1460.0,Animal_Land_Pattern_Large,51.3870050420519,57.399015417089686,4.0,Animal_Land_Pattern_Large,1.0,,,,,,,,,,,
encoding,value,23,3216187,3222200,3217160.0,3218194.0,1035.0,1035.0,1918.8,621.8,1920.0,1460.0,Animal_Land_Pattern_Large,51.3870050420519,57.399015417089686,4.0,Animal_Land_Pattern_Large,1.0,,,,,,,,,,,
encoding,value,23,3216187,3222200,3218427.0,3219885.0,1459.0,1459.0,1887.4,659.7,1920.0,1460.0,Animal_Land_Pattern_Large,51.3870050420519,57.399015417089686,4.0,Animal_Land_Pattern_Large,1.0,,,,,,,,,,,
encoding,value,23,3216187,3222200,3220100.0,3220764.0,665.0,665.0,1883.5,690.3,1920.0,1460.0,Animal_Land_Pattern_Large,51.3870050420519,57.399015417089686,4.0,Animal_Land_Pattern_Large,1.0,,,,,,,,,,,
encoding,value,23,3216187,3222200,3220776.0,3221114.0,339.0,339.0,1905.2,630.7,1920.0,1460.0,Animal_Land_Pattern_Large,51.3870050420519,57.399015417089686,4.0,Animal_Land_Pattern_Large,1.0,,,,,,,,,,,
encoding,value,23,3216187,3222200,3221378.0,3221929.0,552.0,552.0,1872.9,681.2,1920.0,1460.0,Animal_Land_Pattern_Large,51.3870050420519,57.399015417089686,4.0,Animal_Land_Pattern_Large,1.0,,,,,,,,,,,
encoding,value,23,3216187,3222200,3222188.0,3223074.0,887.0,12.0,1911.1,629.4000000000001,1920.0,1460.0,Animal_Land_Pattern_Large,51.3870050420519,57.399015417089686,4.0,Animal_Land_Pattern_Large,1.0,,,,,,,,,,,
encoding,attention,23,3222200,3225219,3223849.0,3225015.0,1167.0,1167.0,1872.4,724.0999999999999,1920.0,1460.0,Animal_Land_Pattern_Large,57.39917341712862,60.41824454208836,4.0,Animal_Land_Pattern_Large,1.0,1.0,1.0,0.595807374920696,,,,,,,,
encoding,fixation,24,3225219,3226474,3225287.0,3225536.0,250.0,250.0,2093.6,1186.0,2249.0,891.0,Object_Sea_Solid_Small,60.418409707956016,61.67377616697922,4.0,Object_Sea_Solid_Small,3.0,,,,,,,,,,,
encoding,fixation,24,3225219,3226474,3225554.0,3225581.0,28.0,28.0,1939.8,1190.1,1920.0,700.0,Object_Sea_Solid_Large,60.418409707956016,61.67377616697922,4.0,Object_Sea_Solid_Small,3.0,,,,,,,,,,,
encoding,fixation,24,3225219,3226474,3226000.0,3226501.0,502.0,474.0,1902.9,1146.8,1920.0,1080.0,fixation,60.418409707956016,61.67377616697922,4.0,Object_Sea_Solid_Small,3.0,,,,,,,,,,,
encoding,image,24,3226475,3227484,3226524.0,3226693.0,170.0,170.0,2065.4,1107.2,2249.0,891.0,Object_Sea_Solid_Small,61.67390479194,62.68379595805891,4.0,Object_Sea_Solid_Small,3.0,,,,,,,,,,,
encoding,image,24,3226475,3227484,3226722.0,3226964.0,243.0,243.0,2245.7,1217.6,2249.0,891.0,Object_Sea_Solid_Small,61.67390479194,62.68379595805891,4.0,Object_Sea_Solid_Small,3.0,,,,,,,,,,,
encoding,image,24,3226475,3227484,3226976.0,3227386.0,411.0,411.0,2240.1,1262.2,2249.0,891.0,Object_Sea_Solid_Small,61.67390479194,62.68379595805891,4.0,Object_Sea_Solid_Small,3.0,,,,,,,,,,,
encoding,image,24,3226475,3227484,3227407.0,3228541.0,1135.0,77.0,2243.3,1128.8,2249.0,891.0,Object_Sea_Solid_Small,61.67390479194,62.68379595805891,4.0,Object_Sea_Solid_Small,3.0,,,,,,,,,,,
encoding,value,24,3227485,3233495,3228741.0,3228981.0,241.0,241.0,2179.5,1232.3,2249.0,891.0,Object_Sea_Solid_Small,62.683919792063534,68.69427783298306,4.0,Object_Sea_Solid_Small,3.0,,,,,,,,,,,
encoding,value,24,3227485,3233495,3228997.0,3229482.0,486.0,486.0,2258.4,1207.3,2249.0,891.0,Object_Sea_Solid_Small,62.683919792063534,68.69427783298306,4.0,Object_Sea_Solid_Small,3.0,,,,,,,,,,,
encoding,value,24,3227485,3233495,3229501.0,3229859.0,359.0,359.0,2129.8,1156.5,2249.0,891.0,Object_Sea_Solid_Small,62.683919792063534,68.69427783298306,4.0,Object_Sea_Solid_Small,3.0,,,,,,,,,,,
encoding,value,24,3227485,3233495,3229882.0,3230311.0,430.0,430.0,2205.5,1266.9,2249.0,891.0,Object_Sea_Solid_Small,62.683919792063534,68.69427783298306,4.0,Object_Sea_Solid_Small,3.0,,,,,,,,,,,
encoding,value,24,3227485,3233495,3230477.0,3231392.0,916.0,916.0,2192.5,1118.9,2249.0,891.0,Object_Sea_Solid_Small,62.683919792063534,68.69427783298306,4.0,Object_Sea_Solid_Small,3.0,,,,,,,,,,,
encoding,value,24,3227485,3233495,3231625.0,3232183.0,559.0,559.0,2250.9,1144.8,2249.0,891.0,Object_Sea_Solid_Small,62.683919792063534,68.69427783298306,4.0,Object_Sea_Solid_Small,3.0,,,,,,,,,,,
encoding,value,24,3227485,3233495,3232206.0,3232669.0,464.0,464.0,2009.5,1175.6,2249.0,891.0,Object_Sea_Solid_Small,62.683919792063534,68.69427783298306,4.0,Object_Sea_Solid_Small,3.0,,,,,,,,,,,
encoding,value,24,3227485,3233495,3232845.0,3232980.0,136.0,136.0,2296.9,1164.5,2249.0,891.0,Object_Sea_Solid_Small,62.683919792063534,68.69427783298306,4.0,Object_Sea_Solid_Small,3.0,,,,,,,,,,,
encoding,value,24,3227485,3233495,3232990.0,3233880.0,891.0,505.0,2232.0,1138.0,2249.0,891.0,Object_Sea_Solid_Small,62.683919792063534,68.69427783298306,4.0,Object_Sea_Solid_Small,3.0,,,,,,,,,,,
encoding,attention,24,3233495,3236513,3234105.0,3234334.0,230.0,230.0,2170.3,1181.7,2249.0,891.0,Object_Sea_Solid_Small,68.69438341702335,71.7116201671306,4.0,Object_Sea_Solid_Small,3.0,3.0,1.0,0.7025901670567691,,,,,,,,
encoding,attention,24,3233495,3236513,3234345.0,3234491.0,147.0,147.0,2216.3,1152.6,2249.0,891.0,Object_Sea_Solid_Small,68.69438341702335,71.7116201671306,4.0,Object_Sea_Solid_Small,3.0,3.0,1.0,0.7025901670567691,,,,,,,,
encoding,attention,24,3233495,3236513,3234939.0,3235299.0,361.0,361.0,2113.5,1274.1,2249.0,891.0,Object_Sea_Solid_Small,68.69438341702335,71.7116201671306,4.0,Object_Sea_Solid_Small,3.0,3.0,1.0,0.7025901670567691,,,,,,,,
encoding,attention,24,3233495,3236513,3235361.0,3235683.0,323.0,323.0,2690.7,1407.3,,,none,68.69438341702335,71.7116201671306,4.0,Object_Sea_Solid_Small,3.0,3.0,1.0,0.7025901670567691,,,,,,,,
encoding,attention,24,3233495,3236513,3235748.0,3236244.0,497.0,497.0,3270.0,1794.8,,,none,68.69438341702335,71.7116201671306,4.0,Object_Sea_Solid_Small,3.0,3.0,1.0,0.7025901670567691,,,,,,,,
encoding,attention,24,3233495,3236513,3236272.0,3236398.0,127.0,127.0,3270.0,1801.7,,,none,68.69438341702335,71.7116201671306,4.0,Object_Sea_Solid_Small,3.0,3.0,1.0,0.7025901670567691,,,,,,,,
encoding,fixation,25,3515781,3516787,3516566.0,3517013.0,448.0,221.0,1745.7,660.7,1920.0,1460.0,Object_Sea_Pattern_Large,5.129509084159508,6.135365334106609,5.0,Animal_Sea_Pattern_Small,-5.0,,,,,,,,,,,
encoding,image,25,3516787,3517800,3517054.0,3517541.0,488.0,488.0,2203.8,916.3,2249.0,1269.0,Animal_Sea_Pattern_Small,6.135514792054892,7.148082625120878,5.0,Animal_Sea_Pattern_Small,-5.0,,,,,,,,,,,
encoding,image,25,3516787,3517800,3517549.0,3518000.0,452.0,251.0,2244.7,902.7,2249.0,1269.0,Animal_Sea_Pattern_Small,6.135514792054892,7.148082625120878,5.0,Animal_Sea_Pattern_Small,-5.0,,,,,,,,,,,
encoding,value,25,3517800,3523815,3518017.0,3518524.0,508.0,508.0,2240.6,796.2,2249.0,1269.0,Animal_Sea_Pattern_Small,7.148191625019535,13.162342875031754,5.0,Animal_Sea_Pattern_Small,-5.0,,,,,,,,,,,
encoding,value,25,3517800,3523815,3518738.0,3518923.0,186.0,186.0,2235.4,806.9000000000001,2249.0,1269.0,Animal_Sea_Pattern_Small,7.148191625019535,13.162342875031754,5.0,Animal_Sea_Pattern_Small,-5.0,,,,,,,,,,,
encoding,value,25,3517800,3523815,3519198.0,3519428.0,231.0,231.0,2218.5,803.4000000000001,2249.0,1269.0,Animal_Sea_Pattern_Small,7.148191625019535,13.162342875031754,5.0,Animal_Sea_Pattern_Small,-5.0,,,,,,,,,,,
encoding,value,25,3517800,3523815,3519440.0,3519927.0,488.0,488.0,2242.2,733.8,2249.0,1269.0,Animal_Sea_Pattern_Small,7.148191625019535,13.162342875031754,5.0,Animal_Sea_Pattern_Small,-5.0,,,,,,,,,,,
encoding,value,25,3517800,3523815,3520165.0,3521447.0,1283.0,1283.0,2243.6,754.2,2249.0,1269.0,Animal_Sea_Pattern_Small,7.148191625019535,13.162342875031754,5.0,Animal_Sea_Pattern_Small,-5.0,,,,,,,,,,,
encoding,value,25,3517800,3523815,3521660.0,3521823.0,164.0,164.0,2190.9,796.7,2249.0,1269.0,Animal_Sea_Pattern_Small,7.148191625019535,13.162342875031754,5.0,Animal_Sea_Pattern_Small,-5.0,,,,,,,,,,,
encoding,value,25,3517800,3523815,3521833.0,3522828.0,996.0,996.0,2236.0,794.0,2249.0,1269.0,Animal_Sea_Pattern_Small,7.148191625019535,13.162342875031754,5.0,Animal_Sea_Pattern_Small,-5.0,,,,,,,,,,,
encoding,value,25,3517800,3523815,3522835.0,3523172.0,338.0,338.0,2238.7,781.3,2249.0,1269.0,Animal_Sea_Pattern_Small,7.148191625019535,13.162342875031754,5.0,Animal_Sea_Pattern_Small,-5.0,,,,,,,,,,,
encoding,value,25,3517800,3523815,3523354.0,3524320.0,967.0,461.0,2218.4,771.3,2249.0,1269.0,Animal_Sea_Pattern_Small,7.148191625019535,13.162342875031754,5.0,Animal_Sea_Pattern_Small,-5.0,,,,,,,,,,,
encoding,attention,25,3523815,3526832,3524329.0,3524836.0,508.0,508.0,2267.8,770.7,2249.0,1269.0,Animal_Sea_Pattern_Small,13.16245050006546,16.18007945897989,5.0,Animal_Sea_Pattern_Small,-5.0,-5.0,1.0,0.7190456250682473,,,,,,,,
encoding,attention,25,3523815,3526832,3525050.0,3525577.0,528.0,528.0,2171.3,916.3,2249.0,1269.0,Animal_Sea_Pattern_Small,13.16245050006546,16.18007945897989,5.0,Animal_Sea_Pattern_Small,-5.0,-5.0,1.0,0.7190456250682473,,,,,,,,
encoding,attention,25,3523815,3526832,3525822.0,3526039.0,218.0,218.0,2249.2,850.9000000000001,2249.0,1269.0,Animal_Sea_Pattern_Small,13.16245050006546,16.18007945897989,5.0,Animal_Sea_Pattern_Small,-5.0,-5.0,1.0,0.7190456250682473,,,,,,,,
encoding,attention,25,3523815,3526832,3526053.0,3526408.0,356.0,356.0,2172.1,759.3,2249.0,1269.0,Animal_Sea_Pattern_Small,13.16245050006546,16.18007945897989,5.0,Animal_Sea_Pattern_Small,-5.0,-5.0,1.0,0.7190456250682473,,,,,,,,
encoding,fixation,26,3526833,3528088,3527131.0,3527231.0,101.0,101.0,1886.2,1070.4,1920.0,1080.0,fixation,16.18023145897314,17.43551112501882,5.0,Animal_Sea_Solid_Large,5.0,,,,,,,,,,,
encoding,fixation,26,3526833,3528088,3527240.0,3527259.0,20.0,20.0,1889.4,1083.2,1920.0,1080.0,fixation,16.18023145897314,17.43551112501882,5.0,Animal_Sea_Solid_Large,5.0,,,,,,,,,,,
encoding,fixation,26,3526833,3528088,3527548.0,3528040.0,493.0,493.0,1883.1,1033.8,1920.0,1080.0,fixation,16.18023145897314,17.43551112501882,5.0,Animal_Sea_Solid_Large,5.0,,,,,,,,,,,
encoding,fixation,26,3526833,3528088,3528068.0,3528308.0,241.0,20.0,1959.5,792.0999999999999,1920.0,1460.0,Object_Sea_Pattern_Large,16.18023145897314,17.43551112501882,5.0,Animal_Sea_Solid_Large,5.0,,,,,,,,,,,
encoding,image,26,3528088,3529099,3528350.0,3528917.0,568.0,568.0,1913.6,1420.7,1920.0,700.0,Animal_Sea_Solid_Large,17.43561612511985,18.44640174997039,5.0,Animal_Sea_Solid_Large,5.0,,,,,,,,,,,
encoding,image,26,3528088,3529099,3528936.0,3529289.0,354.0,163.0,1899.8,1298.8,1920.0,700.0,Animal_Sea_Solid_Large,17.43561612511985,18.44640174997039,5.0,Animal_Sea_Solid_Large,5.0,,,,,,,,,,,
encoding,value,26,3529099,3535113,3529297.0,3529738.0,442.0,442.0,1917.2,1351.8,1920.0,700.0,Animal_Sea_Solid_Large,18.44650737498887,24.45978116709739,5.0,Animal_Sea_Solid_Large,5.0,,,,,,,,,,,
encoding,value,26,3529099,3535113,3529902.0,3530377.0,476.0,476.0,1930.3,1386.1,1920.0,700.0,Animal_Sea_Solid_Large,18.44650737498887,24.45978116709739,5.0,Animal_Sea_Solid_Large,5.0,,,,,,,,,,,
encoding,value,26,3529099,3535113,3530542.0,3531009.0,468.0,468.0,1912.0,1338.1,1920.0,700.0,Animal_Sea_Solid_Large,18.44650737498887,24.45978116709739,5.0,Animal_Sea_Solid_Large,5.0,,,,,,,,,,,
encoding,value,26,3529099,3535113,3531212.0,3531427.0,216.0,216.0,1915.6,1349.4,1920.0,700.0,Animal_Sea_Solid_Large,18.44650737498887,24.45978116709739,5.0,Animal_Sea_Solid_Large,5.0,,,,,,,,,,,
encoding,value,26,3529099,3535113,3531725.0,3531954.0,230.0,230.0,1941.8,1363.5,1920.0,700.0,Animal_Sea_Solid_Large,18.44650737498887,24.45978116709739,5.0,Animal_Sea_Solid_Large,5.0,,,,,,,,,,,
encoding,value,26,3529099,3535113,3532230.0,3532724.0,495.0,495.0,1906.6,1343.1,1920.0,700.0,Animal_Sea_Solid_Large,18.44650737498887,24.45978116709739,5.0,Animal_Sea_Solid_Large,5.0,,,,,,,,,,,
encoding,value,26,3529099,3535113,3532740.0,3533571.0,832.0,832.0,1915.1,1316.1,1920.0,700.0,Animal_Sea_Solid_Large,18.44650737498887,24.45978116709739,5.0,Animal_Sea_Solid_Large,5.0,,,,,,,,,,,
encoding,value,26,3529099,3535113,3533578.0,3533779.0,202.0,202.0,1946.0,1380.7,1920.0,700.0,Animal_Sea_Solid_Large,18.44650737498887,24.45978116709739,5.0,Animal_Sea_Solid_Large,5.0,,,,,,,,,,,
encoding,value,26,3529099,3535113,3533787.0,3534025.0,239.0,239.0,1906.4,1340.6,1920.0,700.0,Animal_Sea_Solid_Large,18.44650737498887,24.45978116709739,5.0,Animal_Sea_Solid_Large,5.0,,,,,,,,,,,
encoding,value,26,3529099,3535113,3534197.0,3534960.0,764.0,764.0,1920.3,1369.1,1920.0,700.0,Animal_Sea_Solid_Large,18.44650737498887,24.45978116709739,5.0,Animal_Sea_Solid_Large,5.0,,,,,,,,,,,
encoding,attention,26,3535113,3538133,3535146.0,3535577.0,432.0,432.0,1939.2,1354.6,1920.0,700.0,Animal_Sea_Solid_Large,24.459899459034204,27.47997295903042,5.0,Animal_Sea_Solid_Large,5.0,5.0,1.0,0.5744307909626514,,,,,,,,
encoding,attention,26,3535113,3538133,3535586.0,3535936.0,351.0,351.0,1887.7,1344.2,1920.0,700.0,Animal_Sea_Solid_Large,24.459899459034204,27.47997295903042,5.0,Animal_Sea_Solid_Large,5.0,5.0,1.0,0.5744307909626514,,,,,,,,
encoding,attention,26,3535113,3538133,3536102.0,3536729.0,628.0,628.0,1911.1,1514.0,1920.0,700.0,Animal_Sea_Solid_Large,24.459899459034204,27.47997295903042,5.0,Animal_Sea_Solid_Large,5.0,5.0,1.0,0.5744307909626514,,,,,,,,
encoding,attention,26,3535113,3538133,3536746.0,3537214.0,469.0,469.0,1961.3,1434.7,1920.0,700.0,Animal_Sea_Solid_Large,24.459899459034204,27.47997295903042,5.0,Animal_Sea_Solid_Large,5.0,5.0,1.0,0.5744307909626514,,,,,,,,
encoding,attention,26,3535113,3538133,3537225.0,3537646.0,422.0,422.0,1898.4,1427.8,1920.0,700.0,Animal_Sea_Solid_Large,24.459899459034204,27.47997295903042,5.0,Animal_Sea_Solid_Large,5.0,5.0,1.0,0.5744307909626514,,,,,,,,
encoding,fixation,27,3538133,3538889,3538352.0,3538590.0,239.0,239.0,1884.1,1118.7,1920.0,1080.0,fixation,27.480117625091225,28.23573416704312,5.0,Animal_Land_Solid_Large,1.0,,,,,,,,,,,
encoding,fixation,27,3538133,3538889,3538604.0,3538974.0,371.0,285.0,1919.0,1062.8,1920.0,1080.0,fixation,27.480117625091225,28.23573416704312,5.0,Animal_Land_Solid_Large,1.0,,,,,,,,,,,
encoding,image,27,3538889,3539900,3539174.0,3539777.0,604.0,604.0,1606.8,906.0,1591.0,1269.0,Animal_Land_Solid_Large,28.235837917076424,29.24687312496826,5.0,Animal_Land_Solid_Large,1.0,,,,,,,,,,,
encoding,image,27,3538889,3539900,3539794.0,3540332.0,539.0,106.0,1580.6,805.5,1591.0,1269.0,Animal_Land_Solid_Large,28.235837917076424,29.24687312496826,5.0,Animal_Land_Solid_Large,1.0,,,,,,,,,,,
encoding,value,27,3539900,3545913,3540566.0,3540858.0,293.0,293.0,1735.6,1086.8,1591.0,891.0,Object_Land_Solid_Small,29.246978500159457,35.25953045906499,5.0,Animal_Land_Solid_Large,1.0,,,,,,,,,,,
encoding,value,27,3539900,3545913,3541078.0,3541444.0,367.0,367.0,2223.1,965.4000000000001,2249.0,1269.0,Animal_Sea_Pattern_Small,29.246978500159457,35.25953045906499,5.0,Animal_Land_Solid_Large,1.0,,,,,,,,,,,
encoding,value,27,3539900,3545913,3541493.0,3542010.0,518.0,518.0,1586.1,797.0,1591.0,1269.0,Animal_Land_Solid_Large,29.246978500159457,35.25953045906499,5.0,Animal_Land_Solid_Large,1.0,,,,,,,,,,,
encoding,value,27,3539900,3545913,3542033.0,3542543.0,511.0,511.0,1602.5,900.9000000000001,1591.0,1269.0,Animal_Land_Solid_Large,29.246978500159457,35.25953045906499,5.0,Animal_Land_Solid_Large,1.0,,,,,,,,,,,
encoding,value,27,3539900,3545913,3542553.0,3542759.0,207.0,207.0,1636.3,846.0,1591.0,1269.0,Animal_Land_Solid_Large,29.246978500159457,35.25953045906499,5.0,Animal_Land_Solid_Large,1.0,,,,,,,,,,,
encoding,value,27,3539900,3545913,3542768.0,3543780.0,1013.0,1013.0,1604.5,800.3,1591.0,1269.0,Animal_Land_Solid_Large,29.246978500159457,35.25953045906499,5.0,Animal_Land_Solid_Large,1.0,,,,,,,,,,,
encoding,value,27,3539900,3545913,3544014.0,3544329.0,316.0,316.0,1610.2,903.5999999999999,1591.0,1269.0,Animal_Land_Solid_Large,29.246978500159457,35.25953045906499,5.0,Animal_Land_Solid_Large,1.0,,,,,,,,,,,
encoding,value,27,3539900,3545913,3544342.0,3544815.0,474.0,474.0,1616.9,831.3,1591.0,1269.0,Animal_Land_Solid_Large,29.246978500159457,35.25953045906499,5.0,Animal_Land_Solid_Large,1.0,,,,,,,,,,,
encoding,value,27,3539900,3545913,3545060.0,3545964.0,905.0,853.0,1618.8,815.8,1591.0,1269.0,Animal_Land_Solid_Large,29.246978500159457,35.25953045906499,5.0,Animal_Land_Solid_Large,1.0,,,,,,,,,,,
encoding,attention,27,3545913,3548936,3546224.0,3546873.0,650.0,650.0,1582.7,801.5999999999999,1591.0,1269.0,Animal_Land_Solid_Large,35.259676792193204,38.282422750024125,5.0,Animal_Land_Solid_Large,1.0,1.0,1.0,0.693412542110309,,,,,,,,
encoding,fixation,28,3548936,3550192,3549381.0,3549570.0,190.0,190.0,1947.2,1139.5,1920.0,1080.0,fixation,38.282584208995104,39.53854045900516,5.0,Object_Land_Pattern_Small,7.0,,,,,,,,,,,
encoding,fixation,28,3548936,3550192,3549583.0,3549889.0,307.0,307.0,1926.3,1056.2,1920.0,1080.0,fixation,38.282584208995104,39.53854045900516,5.0,Object_Land_Pattern_Small,7.0,,,,,,,,,,,
encoding,fixation,28,3548936,3550192,3549918.0,3550296.0,379.0,274.0,1930.8,791.0999999999999,1920.0,1460.0,Object_Sea_Pattern_Large,38.282584208995104,39.53854045900516,5.0,Object_Land_Pattern_Small,7.0,,,,,,,,,,,
encoding,image,28,3550192,3551204,3550319.0,3550426.0,108.0,108.0,1894.6,929.0,1920.0,1460.0,Object_Sea_Pattern_Large,39.53866954217665,40.55028662504628,5.0,Object_Land_Pattern_Small,7.0,,,,,,,,,,,
encoding,image,28,3550192,3551204,3550468.0,3550756.0,289.0,289.0,2248.4,1232.2,2249.0,891.0,Object_Land_Pattern_Small,39.53866954217665,40.55028662504628,5.0,Object_Land_Pattern_Small,7.0,,,,,,,,,,,
encoding,image,28,3550192,3551204,3551072.0,3551382.0,311.0,132.0,1957.7,1230.0,1920.0,700.0,Animal_Sea_Solid_Large,39.53866954217665,40.55028662504628,5.0,Object_Land_Pattern_Small,7.0,,,,,,,,,,,
encoding,value,28,3551204,3557217,3551412.0,3552027.0,616.0,616.0,2246.1,1129.4,2249.0,891.0,Object_Land_Pattern_Small,40.5504087919835,46.5626353751868,5.0,Object_Land_Pattern_Small,7.0,,,,,,,,,,,
encoding,value,28,3551204,3557217,3552231.0,3552352.0,122.0,122.0,2098.0,1206.6,2249.0,891.0,Object_Land_Pattern_Small,40.5504087919835,46.5626353751868,5.0,Object_Land_Pattern_Small,7.0,,,,,,,,,,,
encoding,value,28,3551204,3557217,3552578.0,3552702.0,125.0,125.0,2153.8,1232.0,2249.0,891.0,Object_Land_Pattern_Small,40.5504087919835,46.5626353751868,5.0,Object_Land_Pattern_Small,7.0,,,,,,,,,,,
encoding,value,28,3551204,3557217,3552889.0,3553325.0,437.0,437.0,3270.0,2033.3,,,none,40.5504087919835,46.5626353751868,5.0,Object_Land_Pattern_Small,7.0,,,,,,,,,,,
encoding,value,28,3551204,3557217,3553575.0,3553906.0,332.0,332.0,1951.5,1156.1,1920.0,700.0,Animal_Sea_Solid_Large,40.5504087919835,46.5626353751868,5.0,Object_Land_Pattern_Small,7.0,,,,,,,,,,,
encoding,value,28,3551204,3557217,3553951.0,3554113.0,163.0,163.0,2323.6,1095.8,2249.0,891.0,Object_Land_Pattern_Small,40.5504087919835,46.5626353751868,5.0,Object_Land_Pattern_Small,7.0,,,,,,,,,,,
encoding,value,28,3551204,3557217,3554196.0,3554491.0,296.0,296.0,3270.0,1968.0,,,none,40.5504087919835,46.5626353751868,5.0,Object_Land_Pattern_Small,7.0,,,,,,,,,,,
encoding,value,28,3551204,3557217,3554689.0,3555011.0,323.0,323.0,2151.4,1153.4,2249.0,891.0,Object_Land_Pattern_Small,40.5504087919835,46.5626353751868,5.0,Object_Land_Pattern_Small,7.0,,,,,,,,,,,
encoding,value,28,3551204,3557217,3555029.0,3555484.0,456.0,456.0,2212.3,1113.7,2249.0,891.0,Object_Land_Pattern_Small,40.5504087919835,46.5626353751868,5.0,Object_Land_Pattern_Small,7.0,,,,,,,,,,,
encoding,value,28,3551204,3557217,3555512.0,3555933.0,422.0,422.0,2532.6,1225.3,,,none,40.5504087919835,46.5626353751868,5.0,Object_Land_Pattern_Small,7.0,,,,,,,,,,,
encoding,value,28,3551204,3557217,3556128.0,3556644.0,517.0,517.0,2175.5,1091.8,2249.0,891.0,Object_Land_Pattern_Small,40.5504087919835,46.5626353751868,5.0,Object_Land_Pattern_Small,7.0,,,,,,,,,,,
encoding,value,28,3551204,3557217,3556652.0,3557149.0,498.0,498.0,2227.9,1137.0,2249.0,891.0,Object_Land_Pattern_Small,40.5504087919835,46.5626353751868,5.0,Object_Land_Pattern_Small,7.0,,,,,,,,,,,
encoding,attention,28,3557217,3560234,3557338.0,3557664.0,327.0,327.0,2191.4,1148.7,2249.0,891.0,Object_Land_Pattern_Small,46.562761292094365,49.58030225010589,5.0,Object_Land_Pattern_Small,7.0,7.0,1.0,0.9782485829200596,,,,,,,,
encoding,attention,28,3557217,3560234,3557674.0,3558429.0,756.0,756.0,2200.6,1127.7,2249.0,891.0,Object_Land_Pattern_Small,46.562761292094365,49.58030225010589,5.0,Object_Land_Pattern_Small,7.0,7.0,1.0,0.9782485829200596,,,,,,,,
encoding,attention,28,3557217,3560234,3558639.0,3559351.0,713.0,713.0,2191.1,1124.0,2249.0,891.0,Object_Land_Pattern_Small,46.562761292094365,49.58030225010589,5.0,Object_Land_Pattern_Small,7.0,7.0,1.0,0.9782485829200596,,,,,,,,
encoding,attention,28,3557217,3560234,3559549.0,3559819.0,271.0,271.0,1763.1,1098.9,1591.0,891.0,Object_Land_Solid_Small,46.562761292094365,49.58030225010589,5.0,Object_Land_Pattern_Small,7.0,7.0,1.0,0.9782485829200596,,,,,,,,
encoding,attention,28,3557217,3560234,3559847.0,3560219.0,373.0,373.0,2071.1,1097.1,2249.0,891.0,Object_Land_Pattern_Small,46.562761292094365,49.58030225010589,5.0,Object_Land_Pattern_Small,7.0,7.0,1.0,0.9782485829200596,,,,,,,,
encoding,fixation,29,3560234,3561240,3560256.0,3560568.0,313.0,313.0,2427.1,1195.1,2249.0,891.0,Object_Land_Pattern_Small,49.580449500121176,50.5858269170858,5.0,Object_Sea_Pattern_Large,-1.0,,,,,,,,,,,
