phase,event,trial_number,eyetracker_onset,eyetracker_offset,fix_start,fix_end,fix_duration_full,fix_duration_bounded,fix_x,fix_y,roi_x,roi_y,roi_content,onset,offset,game,image,outcome,choice,correct,rt,letter,match,response,option,true_value,true_position,recalled_position,Unnamed: 18
encoding,fixation,1,17217771,17219296,17218029.0,17219102.0,1074.0,1074.0,1875.9,1243.4,1920.0,700.0,Animal_Land_Solid_Small,18.047300291014835,19.571337833069265,1.0,Animal_Land_Solid_Small,-1.0,,,,,,,,,,,
encoding,fixation,1,17217771,17219296,17219126.0,17219481.0,356.0,170.0,1900.3,1109.3,1920.0,1080.0,fixation,18.047300291014835,19.571337833069265,1.0,Animal_Land_Solid_Small,-1.0,,,,,,,,,,,
encoding,image,1,17219296,17220315,17219519.0,17219746.0,228.0,228.0,1894.7,1497.1,1920.0,700.0,Animal_Land_Solid_Small,19.57146779098548,20.590684375027195,1.0,Animal_Land_Solid_Small,-1.0,,,,,,,,,,,
encoding,image,1,17219296,17220315,17219762.0,17219934.0,173.0,173.0,1922.1,1458.3,1920.0,700.0,Animal_Land_Solid_Small,19.57146779098548,20.590684375027195,1.0,Animal_Land_Solid_Small,-1.0,,,,,,,,,,,
encoding,image,1,17219296,17220315,17219948.0,17220555.0,608.0,367.0,1947.9,1522.9,1920.0,700.0,Animal_Land_Solid_Small,19.57146779098548,20.590684375027195,1.0,Animal_Land_Solid_Small,-1.0,,,,,,,,,,,
encoding,value,1,17220315,17226330,17220576.0,17220693.0,118.0,118.0,1922.4,1404.4,1920.0,700.0,Animal_Land_Solid_Small,20.590792041039094,26.606089957989752,1.0,Animal_Land_Solid_Small,-1.0,,,,,,,,,,,
encoding,value,1,17220315,17226330,17220853.0,17221028.0,176.0,176.0,1934.9,1451.8,1920.0,700.0,Animal_Land_Solid_Small,20.590792041039094,26.606089957989752,1.0,Animal_Land_Solid_Small,-1.0,,,,,,,,,,,
encoding,value,1,17220315,17226330,17221050.0,17221375.0,326.0,326.0,1944.3,1522.3,1920.0,700.0,Animal_Land_Solid_Small,20.590792041039094,26.606089957989752,1.0,Animal_Land_Solid_Small,-1.0,,,,,,,,,,,
encoding,value,1,17220315,17226330,17221393.0,17221670.0,278.0,278.0,1904.0,1422.1,1920.0,700.0,Animal_Land_Solid_Small,20.590792041039094,26.606089957989752,1.0,Animal_Land_Solid_Small,-1.0,,,,,,,,,,,
encoding,value,1,17220315,17226330,17221681.0,17222370.0,690.0,690.0,1916.8,1469.5,1920.0,700.0,Animal_Land_Solid_Small,20.590792041039094,26.606089957989752,1.0,Animal_Land_Solid_Small,-1.0,,,,,,,,,,,
encoding,value,1,17220315,17226330,17222381.0,17222816.0,436.0,436.0,1933.5,1516.4,1920.0,700.0,Animal_Land_Solid_Small,20.590792041039094,26.606089957989752,1.0,Animal_Land_Solid_Small,-1.0,,,,,,,,,,,
encoding,value,1,17220315,17226330,17222838.0,17223150.0,313.0,313.0,1902.4,1433.2,1920.0,700.0,Animal_Land_Solid_Small,20.590792041039094,26.606089957989752,1.0,Animal_Land_Solid_Small,-1.0,,,,,,,,,,,
encoding,value,1,17220315,17226330,17223168.0,17223417.0,250.0,250.0,1921.4,1491.7,1920.0,700.0,Animal_Land_Solid_Small,20.590792041039094,26.606089957989752,1.0,Animal_Land_Solid_Small,-1.0,,,,,,,,,,,
encoding,value,1,17220315,17226330,17223513.0,17223670.0,158.0,158.0,1917.2,1457.6,1920.0,700.0,Animal_Land_Solid_Small,20.590792041039094,26.606089957989752,1.0,Animal_Land_Solid_Small,-1.0,,,,,,,,,,,
encoding,value,1,17220315,17226330,17223829.0,17224060.0,232.0,232.0,1921.2,1456.4,1920.0,700.0,Animal_Land_Solid_Small,20.590792041039094,26.606089957989752,1.0,Animal_Land_Solid_Small,-1.0,,,,,,,,,,,
encoding,value,1,17220315,17226330,17224077.0,17224540.0,464.0,464.0,1953.6,1518.5,1920.0,700.0,Animal_Land_Solid_Small,20.590792041039094,26.606089957989752,1.0,Animal_Land_Solid_Small,-1.0,,,,,,,,,,,
encoding,value,1,17220315,17226330,17224575.0,17225109.0,535.0,535.0,1918.9,1397.2,1920.0,700.0,Animal_Land_Solid_Small,20.590792041039094,26.606089957989752,1.0,Animal_Land_Solid_Small,-1.0,,,,,,,,,,,
encoding,value,1,17220315,17226330,17225127.0,17225399.0,273.0,273.0,1909.6,1473.6,1920.0,700.0,Animal_Land_Solid_Small,20.590792041039094,26.606089957989752,1.0,Animal_Land_Solid_Small,-1.0,,,,,,,,,,,
encoding,value,1,17220315,17226330,17225418.0,17225870.0,453.0,453.0,1919.9,1394.6,1920.0,700.0,Animal_Land_Solid_Small,20.590792041039094,26.606089957989752,1.0,Animal_Land_Solid_Small,-1.0,,,,,,,,,,,
encoding,value,1,17220315,17226330,17225889.0,17226564.0,676.0,441.0,1926.1,1484.9,1920.0,700.0,Animal_Land_Solid_Small,20.590792041039094,26.606089957989752,1.0,Animal_Land_Solid_Small,-1.0,,,,,,,,,,,
encoding,attention,1,17226331,17229351,17226581.0,17226813.0,233.0,233.0,1905.0,1403.2,1920.0,700.0,Animal_Land_Solid_Small,26.606213083025068,29.626339165959507,1.0,Animal_Land_Solid_Small,-1.0,-1.0,1.0,1.5644007502123711,,,,,,,,
encoding,attention,1,17226331,17229351,17226830.0,17227202.0,373.0,373.0,1881.4,1382.2,1920.0,700.0,Animal_Land_Solid_Small,26.606213083025068,29.626339165959507,1.0,Animal_Land_Solid_Small,-1.0,-1.0,1.0,1.5644007502123711,,,,,,,,
encoding,attention,1,17226331,17229351,17227217.0,17228190.0,974.0,974.0,1959.9,1384.9,1920.0,700.0,Animal_Land_Solid_Small,26.606213083025068,29.626339165959507,1.0,Animal_Land_Solid_Small,-1.0,-1.0,1.0,1.5644007502123711,,,,,,,,
encoding,attention,1,17226331,17229351,17228348.0,17228492.0,145.0,145.0,1953.0,1406.5,1920.0,700.0,Animal_Land_Solid_Small,26.606213083025068,29.626339165959507,1.0,Animal_Land_Solid_Small,-1.0,-1.0,1.0,1.5644007502123711,,,,,,,,
encoding,attention,1,17226331,17229351,17228503.0,17229240.0,738.0,738.0,1959.0,1375.4,1920.0,700.0,Animal_Land_Solid_Small,26.606213083025068,29.626339165959507,1.0,Animal_Land_Solid_Small,-1.0,-1.0,1.0,1.5644007502123711,,,,,,,,
encoding,fixation,2,17229351,17229856,17229630.0,17229889.0,260.0,226.0,1949.7,1124.4,1920.0,1080.0,fixation,29.626493625110015,30.131638166029006,1.0,Object_Sea_Solid_Small,4.0,,,,,,,,,,,
encoding,image,2,17229856,17230867,17230138.0,17230300.0,163.0,163.0,1952.2,1182.3,1920.0,700.0,Animal_Land_Solid_Small,30.13177258311771,31.142291500000283,1.0,Object_Sea_Solid_Small,4.0,,,,,,,,,,,
encoding,image,2,17229856,17230867,17230327.0,17231063.0,737.0,540.0,2237.6,1286.6,2249.0,891.0,Object_Sea_Solid_Small,30.13177258311771,31.142291500000283,1.0,Object_Sea_Solid_Small,4.0,,,,,,,,,,,
encoding,value,2,17230867,17236879,17231085.0,17231401.0,317.0,317.0,2260.4,1174.7,2249.0,891.0,Object_Sea_Solid_Small,31.142394333146513,37.15369608299807,1.0,Object_Sea_Solid_Small,4.0,,,,,,,,,,,
encoding,value,2,17230867,17236879,17231550.0,17231571.0,22.0,22.0,2211.9,1243.0,2249.0,891.0,Object_Sea_Solid_Small,31.142394333146513,37.15369608299807,1.0,Object_Sea_Solid_Small,4.0,,,,,,,,,,,
encoding,value,2,17230867,17236879,17231803.0,17231990.0,188.0,188.0,2254.8,1234.8,2249.0,891.0,Object_Sea_Solid_Small,31.142394333146513,37.15369608299807,1.0,Object_Sea_Solid_Small,4.0,,,,,,,,,,,
encoding,value,2,17230867,17236879,17232007.0,17235153.0,3147.0,3147.0,2259.3,1165.5,2249.0,891.0,Object_Sea_Solid_Small,31.142394333146513,37.15369608299807,1.0,Object_Sea_Solid_Small,4.0,,,,,,,,,,,
encoding,value,2,17230867,17236879,17235178.0,17235615.0,438.0,438.0,2238.6,1263.0,2249.0,891.0,Object_Sea_Solid_Small,31.142394333146513,37.15369608299807,1.0,Object_Sea_Solid_Small,4.0,,,,,,,,,,,
encoding,value,2,17230867,17236879,17235638.0,17235997.0,360.0,360.0,2249.5,1168.6,2249.0,891.0,Object_Sea_Solid_Small,31.142394333146513,37.15369608299807,1.0,Object_Sea_Solid_Small,4.0,,,,,,,,,,,
encoding,value,2,17230867,17236879,17236013.0,17236644.0,632.0,632.0,2236.9,1235.8,2249.0,891.0,Object_Sea_Solid_Small,31.142394333146513,37.15369608299807,1.0,Object_Sea_Solid_Small,4.0,,,,,,,,,,,
encoding,value,2,17230867,17236879,17236654.0,17237298.0,645.0,225.0,2244.0,1163.8,2249.0,891.0,Object_Sea_Solid_Small,31.142394333146513,37.15369608299807,1.0,Object_Sea_Solid_Small,4.0,,,,,,,,,,,
encoding,attention,2,17236879,17239895,17237308.0,17238224.0,917.0,917.0,2282.5,1161.9,2249.0,891.0,Object_Sea_Solid_Small,37.153816415928304,40.170243750093505,1.0,Object_Sea_Solid_Small,4.0,4.0,1.0,1.1015766661148518,,,,,,,,
encoding,attention,2,17236879,17239895,17238982.0,17239033.0,52.0,52.0,2236.6,1201.0,2249.0,891.0,Object_Sea_Solid_Small,37.153816415928304,40.170243750093505,1.0,Object_Sea_Solid_Small,4.0,4.0,1.0,1.1015766661148518,,,,,,,,
encoding,attention,2,17236879,17239895,17239270.0,17239462.0,193.0,193.0,2234.6,1193.5,2249.0,891.0,Object_Sea_Solid_Small,37.153816415928304,40.170243750093505,1.0,Object_Sea_Solid_Small,4.0,4.0,1.0,1.1015766661148518,,,,,,,,
encoding,attention,2,17236879,17239895,17239654.0,17239846.0,193.0,193.0,2192.3,1237.0,2249.0,891.0,Object_Sea_Solid_Small,37.153816415928304,40.170243750093505,1.0,Object_Sea_Solid_Small,4.0,4.0,1.0,1.1015766661148518,,,,,,,,
encoding,fixation,3,17239896,17240401,17240149.0,17240610.0,462.0,252.0,1947.0,1091.2,1920.0,1080.0,fixation,40.17051754100248,40.67562591610477,1.0,Animal_Land_Pattern_Large,2.0,,,,,,,,,,,
encoding,image,3,17240401,17241412,17240649.0,17241271.0,623.0,623.0,2246.7,883.3,2249.0,1269.0,Animal_Land_Pattern_Large,40.67573841614649,41.687121249968186,1.0,Animal_Land_Pattern_Large,2.0,,,,,,,,,,,
encoding,value,3,17241412,17247425,17241471.0,17241686.0,216.0,216.0,2246.3,922.0999999999999,2249.0,1269.0,Animal_Land_Pattern_Large,41.687237499980256,47.699305874994025,1.0,Animal_Land_Pattern_Large,2.0,,,,,,,,,,,
encoding,value,3,17241412,17247425,17241712.0,17247839.0,6128.0,5713.0,2268.2,768.4000000000001,2249.0,1269.0,Animal_Land_Pattern_Large,41.687237499980256,47.699305874994025,1.0,Animal_Land_Pattern_Large,2.0,,,,,,,,,,,
encoding,attention,3,17247425,17250443,17247849.0,17248528.0,680.0,680.0,2303.5,770.0,2249.0,1269.0,Animal_Land_Pattern_Large,47.69941508304328,50.716915500117466,1.0,Animal_Land_Pattern_Large,2.0,2.0,1.0,0.8630362499970943,,,,,,,,
encoding,attention,3,17247425,17250443,17248741.0,17248816.0,76.0,76.0,2257.0,803.5,2249.0,1269.0,Animal_Land_Pattern_Large,47.69941508304328,50.716915500117466,1.0,Animal_Land_Pattern_Large,2.0,2.0,1.0,0.8630362499970943,,,,,,,,
encoding,attention,3,17247425,17250443,17249022.0,17249074.0,53.0,53.0,2202.2,922.3,2249.0,1269.0,Animal_Land_Pattern_Large,47.69941508304328,50.716915500117466,1.0,Animal_Land_Pattern_Large,2.0,2.0,1.0,0.8630362499970943,,,,,,,,
encoding,fixation,4,17250443,17251698,17250691.0,17251328.0,638.0,638.0,1941.6,1072.3,1920.0,1080.0,fixation,50.71712058293633,51.97243654099293,1.0,Object_Sea_Pattern_Large,1.0,,,,,,,,,,,
encoding,fixation,4,17250443,17251698,17251507.0,17251539.0,33.0,33.0,1926.8,1135.2,1920.0,1080.0,fixation,50.71712058293633,51.97243654099293,1.0,Object_Sea_Pattern_Large,1.0,,,,,,,,,,,
encoding,fixation,4,17250443,17251698,17251546.0,17251964.0,419.0,152.0,1938.7,1064.3,1920.0,1080.0,fixation,50.71712058293633,51.97243654099293,1.0,Object_Sea_Pattern_Large,1.0,,,,,,,,,,,
encoding,image,4,17251698,17252709,17252006.0,17252598.0,593.0,593.0,1611.6,1266.6,1591.0,891.0,Object_Sea_Pattern_Large,51.972549291094765,52.98366554104723,1.0,Object_Sea_Pattern_Large,1.0,,,,,,,,,,,
encoding,image,4,17251698,17252709,17252605.0,17252942.0,338.0,104.0,1584.2,1242.3,1591.0,891.0,Object_Sea_Pattern_Large,51.972549291094765,52.98366554104723,1.0,Object_Sea_Pattern_Large,1.0,,,,,,,,,,,
encoding,value,4,17252709,17258721,17252956.0,17253234.0,279.0,279.0,1590.2,1180.7,1591.0,891.0,Object_Sea_Pattern_Large,52.98377875005826,58.99511087499559,1.0,Object_Sea_Pattern_Large,1.0,,,,,,,,,,,
encoding,value,4,17252709,17258721,17253413.0,17253485.0,73.0,73.0,1561.3,1311.2,1591.0,891.0,Object_Sea_Pattern_Large,52.98377875005826,58.99511087499559,1.0,Object_Sea_Pattern_Large,1.0,,,,,,,,,,,
encoding,value,4,17252709,17258721,17253723.0,17253840.0,118.0,118.0,1579.9,1217.7,1591.0,891.0,Object_Sea_Pattern_Large,52.98377875005826,58.99511087499559,1.0,Object_Sea_Pattern_Large,1.0,,,,,,,,,,,
encoding,value,4,17252709,17258721,17253850.0,17254861.0,1012.0,1012.0,1588.1,1191.6,1591.0,891.0,Object_Sea_Pattern_Large,52.98377875005826,58.99511087499559,1.0,Object_Sea_Pattern_Large,1.0,,,,,,,,,,,
encoding,value,4,17252709,17258721,17255023.0,17258791.0,3769.0,3698.0,1592.6,1190.5,1591.0,891.0,Object_Sea_Pattern_Large,52.98377875005826,58.99511087499559,1.0,Object_Sea_Pattern_Large,1.0,,,,,,,,,,,
encoding,attention,4,17258721,17261739,17259020.0,17259127.0,108.0,108.0,1601.3,1182.1,1591.0,891.0,Object_Sea_Pattern_Large,58.995231749955565,62.01243954105303,1.0,Object_Sea_Pattern_Large,1.0,1.0,1.0,0.9987189578823744,,,,,,,,
encoding,attention,4,17258721,17261739,17259136.0,17259297.0,162.0,162.0,1564.0,1185.8,1591.0,891.0,Object_Sea_Pattern_Large,58.995231749955565,62.01243954105303,1.0,Object_Sea_Pattern_Large,1.0,1.0,1.0,0.9987189578823744,,,,,,,,
encoding,attention,4,17258721,17261739,17259309.0,17259952.0,644.0,644.0,1632.1,1191.2,1591.0,891.0,Object_Sea_Pattern_Large,58.995231749955565,62.01243954105303,1.0,Object_Sea_Pattern_Large,1.0,1.0,1.0,0.9987189578823744,,,,,,,,
encoding,attention,4,17258721,17261739,17260201.0,17260221.0,21.0,21.0,1593.1,1279.0,1591.0,891.0,Object_Sea_Pattern_Large,58.995231749955565,62.01243954105303,1.0,Object_Sea_Pattern_Large,1.0,1.0,1.0,0.9987189578823744,,,,,,,,
encoding,attention,4,17258721,17261739,17260479.0,17260583.0,105.0,105.0,1551.0,1249.0,1591.0,891.0,Object_Sea_Pattern_Large,58.995231749955565,62.01243954105303,1.0,Object_Sea_Pattern_Large,1.0,1.0,1.0,0.9987189578823744,,,,,,,,
encoding,attention,4,17258721,17261739,17260599.0,17261346.0,748.0,748.0,1559.7,1174.8,1591.0,891.0,Object_Sea_Pattern_Large,58.995231749955565,62.01243954105303,1.0,Object_Sea_Pattern_Large,1.0,1.0,1.0,0.9987189578823744,,,,,,,,
encoding,attention,4,17258721,17261739,17261512.0,17261616.0,105.0,105.0,1711.1,1210.7,1591.0,891.0,Object_Sea_Pattern_Large,58.995231749955565,62.01243954105303,1.0,Object_Sea_Pattern_Large,1.0,1.0,1.0,0.9987189578823744,,,,,,,,
encoding,fixation,5,17261739,17263247,17261778.0,17262031.0,254.0,254.0,1622.2,1277.0,1591.0,891.0,Object_Sea_Pattern_Large,62.01259704097174,63.52088504098356,1.0,Object_Sea_Solid_Large,-6.0,,,,,,,,,,,
encoding,fixation,5,17261739,17263247,17262082.0,17262723.0,642.0,642.0,1895.7,1101.0,1920.0,1080.0,fixation,62.01259704097174,63.52088504098356,1.0,Object_Sea_Solid_Large,-6.0,,,,,,,,,,,
encoding,fixation,5,17261739,17263247,17262742.0,17262970.0,229.0,229.0,1739.2,1185.1,1591.0,891.0,Object_Sea_Pattern_Large,62.01259704097174,63.52088504098356,1.0,Object_Sea_Solid_Large,-6.0,,,,,,,,,,,
encoding,fixation,5,17261739,17263247,17262991.0,17263334.0,344.0,256.0,1902.3,1097.1,1920.0,1080.0,fixation,62.01259704097174,63.52088504098356,1.0,Object_Sea_Solid_Large,-6.0,,,,,,,,,,,
encoding,image,5,17263247,17264259,17263341.0,17263459.0,119.0,119.0,1939.5,1085.7,1920.0,1080.0,fixation,63.521001833025366,64.53253970807418,1.0,Object_Sea_Solid_Large,-6.0,,,,,,,,,,,
encoding,image,5,17263247,17264259,17263486.0,17263876.0,391.0,391.0,1946.1,697.4000000000001,1920.0,1460.0,Object_Sea_Solid_Large,63.521001833025366,64.53253970807418,1.0,Object_Sea_Solid_Large,-6.0,,,,,,,,,,,
encoding,image,5,17263247,17264259,17264057.0,17264106.0,50.0,50.0,1886.1,768.0999999999999,1920.0,1460.0,Object_Sea_Solid_Large,63.521001833025366,64.53253970807418,1.0,Object_Sea_Solid_Large,-6.0,,,,,,,,,,,
encoding,value,5,17264259,17270271,17264295.0,17264497.0,203.0,203.0,1924.4,711.4000000000001,1920.0,1460.0,Object_Sea_Solid_Large,64.53264412493445,70.5442256659735,1.0,Object_Sea_Solid_Large,-6.0,,,,,,,,,,,
encoding,value,5,17264259,17270271,17264517.0,17266363.0,1847.0,1847.0,1930.9,582.9000000000001,1920.0,1460.0,Object_Sea_Solid_Large,64.53264412493445,70.5442256659735,1.0,Object_Sea_Solid_Large,-6.0,,,,,,,,,,,
encoding,value,5,17264259,17270271,17266378.0,17266789.0,412.0,412.0,1931.3,645.5999999999999,1920.0,1460.0,Object_Sea_Solid_Large,64.53264412493445,70.5442256659735,1.0,Object_Sea_Solid_Large,-6.0,,,,,,,,,,,
encoding,value,5,17264259,17270271,17266954.0,17268767.0,1814.0,1814.0,1934.2,665.9000000000001,1920.0,1460.0,Object_Sea_Solid_Large,64.53264412493445,70.5442256659735,1.0,Object_Sea_Solid_Large,-6.0,,,,,,,,,,,
encoding,value,5,17264259,17270271,17268779.0,17270736.0,1958.0,1492.0,1935.2,618.7,1920.0,1460.0,Object_Sea_Solid_Large,64.53264412493445,70.5442256659735,1.0,Object_Sea_Solid_Large,-6.0,,,,,,,,,,,
encoding,attention,5,17270271,17273330,17270745.0,17271349.0,605.0,605.0,1972.3,627.5999999999999,1920.0,1460.0,Object_Sea_Solid_Large,70.54434733302332,73.60335779096931,1.0,Object_Sea_Solid_Large,-6.0,-6.0,1.0,1.3995550000108778,,,,,,,,
encoding,attention,5,17270271,17273330,17271358.0,17271527.0,170.0,170.0,1926.3,644.4000000000001,1920.0,1460.0,Object_Sea_Solid_Large,70.54434733302332,73.60335779096931,1.0,Object_Sea_Solid_Large,-6.0,-6.0,1.0,1.3995550000108778,,,,,,,,
encoding,attention,5,17270271,17273330,17271535.0,17271985.0,451.0,451.0,1961.7,636.0999999999999,1920.0,1460.0,Object_Sea_Solid_Large,70.54434733302332,73.60335779096931,1.0,Object_Sea_Solid_Large,-6.0,-6.0,1.0,1.3995550000108778,,,,,,,,
encoding,attention,5,17270271,17273330,17272165.0,17272208.0,44.0,44.0,1968.3,845.8,1920.0,1460.0,Object_Sea_Solid_Large,70.54434733302332,73.60335779096931,1.0,Object_Sea_Solid_Large,-6.0,-6.0,1.0,1.3995550000108778,,,,,,,,
encoding,attention,5,17270271,17273330,17272405.0,17272415.0,11.0,11.0,1904.5,882.0999999999999,1920.0,1460.0,Object_Sea_Solid_Large,70.54434733302332,73.60335779096931,1.0,Object_Sea_Solid_Large,-6.0,-6.0,1.0,1.3995550000108778,,,,,,,,
encoding,attention,5,17270271,17273330,17272425.0,17272690.0,266.0,266.0,1935.3,819.5999999999999,1920.0,1460.0,Object_Sea_Solid_Large,70.54434733302332,73.60335779096931,1.0,Object_Sea_Solid_Large,-6.0,-6.0,1.0,1.3995550000108778,,,,,,,,
encoding,fixation,6,17273330,17274835,17273592.0,17273798.0,207.0,207.0,1929.8,1082.1,1920.0,1080.0,fixation,73.60352133307606,75.10859104106203,1.0,Animal_Land_Pattern_Small,-2.0,,,,,,,,,,,
encoding,fixation,6,17273330,17274835,17273981.0,17274064.0,84.0,84.0,1874.9,1114.3,1920.0,1080.0,fixation,73.60352133307606,75.10859104106203,1.0,Animal_Land_Pattern_Small,-2.0,,,,,,,,,,,
encoding,fixation,6,17273330,17274835,17274226.0,17274490.0,265.0,265.0,1870.3,1080.7,1920.0,1080.0,fixation,73.60352133307606,75.10859104106203,1.0,Animal_Land_Pattern_Small,-2.0,,,,,,,,,,,
encoding,fixation,6,17273330,17274835,17274501.0,17275013.0,513.0,334.0,1922.5,1071.9,1920.0,1080.0,fixation,73.60352133307606,75.10859104106203,1.0,Animal_Land_Pattern_Small,-2.0,,,,,,,,,,,
encoding,image,6,17274835,17275847,17275054.0,17275261.0,208.0,208.0,1590.9,872.2,1591.0,1269.0,Animal_Land_Pattern_Small,75.10870466614142,76.12036045803688,1.0,Animal_Land_Pattern_Small,-2.0,,,,,,,,,,,
encoding,image,6,17274835,17275847,17275270.0,17275613.0,344.0,344.0,1637.9,876.7,1591.0,1269.0,Animal_Land_Pattern_Small,75.10870466614142,76.12036045803688,1.0,Animal_Land_Pattern_Small,-2.0,,,,,,,,,,,
encoding,image,6,17274835,17275847,17275623.0,17275798.0,176.0,176.0,1649.2,820.8,1591.0,1269.0,Animal_Land_Pattern_Small,75.10870466614142,76.12036045803688,1.0,Animal_Land_Pattern_Small,-2.0,,,,,,,,,,,
encoding,image,6,17274835,17275847,17275818.0,17276492.0,675.0,29.0,1625.8,781.8,1591.0,1269.0,Animal_Land_Pattern_Small,75.10870466614142,76.12036045803688,1.0,Animal_Land_Pattern_Small,-2.0,,,,,,,,,,,
encoding,value,6,17275847,17281858,17276925.0,17277605.0,681.0,681.0,1635.7,892.5999999999999,1591.0,1269.0,Animal_Land_Pattern_Small,76.12048445804976,82.13150229095481,1.0,Animal_Land_Pattern_Small,-2.0,,,,,,,,,,,
encoding,value,6,17275847,17281858,17277616.0,17277885.0,270.0,270.0,1617.7,820.5,1591.0,1269.0,Animal_Land_Pattern_Small,76.12048445804976,82.13150229095481,1.0,Animal_Land_Pattern_Small,-2.0,,,,,,,,,,,
encoding,value,6,17275847,17281858,17277895.0,17282227.0,4333.0,3963.0,1612.1,795.7,1591.0,1269.0,Animal_Land_Pattern_Small,76.12048445804976,82.13150229095481,1.0,Animal_Land_Pattern_Small,-2.0,,,,,,,,,,,
encoding,attention,6,17281858,17284876,17282237.0,17283244.0,1008.0,1008.0,1559.0,803.8,1591.0,1269.0,Animal_Land_Pattern_Small,82.1316265000496,85.14887654106133,1.0,Animal_Land_Pattern_Small,-2.0,-2.0,1.0,1.151018374832347,,,,,,,,
encoding,attention,6,17281858,17284876,17283497.0,17283699.0,203.0,203.0,1648.6,999.3,1591.0,1269.0,Animal_Land_Pattern_Small,82.1316265000496,85.14887654106133,1.0,Animal_Land_Pattern_Small,-2.0,-2.0,1.0,1.151018374832347,,,,,,,,
encoding,attention,6,17281858,17284876,17283924.0,17284112.0,189.0,189.0,1619.5,1038.9,1591.0,1269.0,Animal_Land_Pattern_Small,82.1316265000496,85.14887654106133,1.0,Animal_Land_Pattern_Small,-2.0,-2.0,1.0,1.151018374832347,,,,,,,,
encoding,attention,6,17281858,17284876,17284131.0,17284754.0,624.0,624.0,1647.2,902.5999999999999,1591.0,1269.0,Animal_Land_Pattern_Small,82.1316265000496,85.14887654106133,1.0,Animal_Land_Pattern_Small,-2.0,-2.0,1.0,1.151018374832347,,,,,,,,
encoding,fixation,7,17771025,17771781,17771223.0,17771443.0,221.0,221.0,1936.4,1099.0,1920.0,1080.0,fixation,7.605510166846216,8.3611704998184,2.0,Object_Land_Pattern_Small,-4.0,,,,,,,,,,,
encoding,fixation,7,17771025,17771781,17771450.0,17771956.0,507.0,331.0,1973.3,1097.3,1920.0,1080.0,fixation,7.605510166846216,8.3611704998184,2.0,Object_Land_Pattern_Small,-4.0,,,,,,,,,,,
encoding,image,7,17771781,17772794,17771984.0,17772428.0,445.0,445.0,2258.2,1271.6,2249.0,891.0,Object_Land_Pattern_Small,8.361315208021551,9.373625041916966,2.0,Object_Land_Pattern_Small,-4.0,,,,,,,,,,,
encoding,image,7,17771781,17772794,17772444.0,17772822.0,379.0,350.0,2279.7,1216.8,2249.0,891.0,Object_Land_Pattern_Small,8.361315208021551,9.373625041916966,2.0,Object_Land_Pattern_Small,-4.0,,,,,,,,,,,
encoding,value,7,17772794,17778807,17772842.0,17773026.0,185.0,185.0,2262.9,1168.4,2249.0,891.0,Object_Land_Pattern_Small,9.37379724998027,15.386710916878656,2.0,Object_Land_Pattern_Small,-4.0,,,,,,,,,,,
encoding,value,7,17772794,17778807,17773035.0,17773136.0,102.0,102.0,2294.8,1151.0,2249.0,891.0,Object_Land_Pattern_Small,9.37379724998027,15.386710916878656,2.0,Object_Land_Pattern_Small,-4.0,,,,,,,,,,,
encoding,value,7,17772794,17778807,17773372.0,17773490.0,119.0,119.0,2254.3,1193.8,2249.0,891.0,Object_Land_Pattern_Small,9.37379724998027,15.386710916878656,2.0,Object_Land_Pattern_Small,-4.0,,,,,,,,,,,
encoding,value,7,17772794,17778807,17773504.0,17773685.0,182.0,182.0,2287.6,1150.8,2249.0,891.0,Object_Land_Pattern_Small,9.37379724998027,15.386710916878656,2.0,Object_Land_Pattern_Small,-4.0,,,,,,,,,,,
encoding,value,7,17772794,17778807,17773819.0,17774747.0,929.0,929.0,2281.4,1169.7,2249.0,891.0,Object_Land_Pattern_Small,9.37379724998027,15.386710916878656,2.0,Object_Land_Pattern_Small,-4.0,,,,,,,,,,,
encoding,value,7,17772794,17778807,17774766.0,17775337.0,572.0,572.0,2267.6,1242.0,2249.0,891.0,Object_Land_Pattern_Small,9.37379724998027,15.386710916878656,2.0,Object_Land_Pattern_Small,-4.0,,,,,,,,,,,
encoding,value,7,17772794,17778807,17775356.0,17776271.0,916.0,916.0,2264.8,1157.8,2249.0,891.0,Object_Land_Pattern_Small,9.37379724998027,15.386710916878656,2.0,Object_Land_Pattern_Small,-4.0,,,,,,,,,,,
encoding,value,7,17772794,17778807,17776361.0,17776590.0,230.0,230.0,2236.0,1171.4,2249.0,891.0,Object_Land_Pattern_Small,9.37379724998027,15.386710916878656,2.0,Object_Land_Pattern_Small,-4.0,,,,,,,,,,,
encoding,value,7,17772794,17778807,17776822.0,17777814.0,993.0,993.0,2265.2,1158.4,2249.0,891.0,Object_Land_Pattern_Small,9.37379724998027,15.386710916878656,2.0,Object_Land_Pattern_Small,-4.0,,,,,,,,,,,
encoding,value,7,17772794,17778807,17777945.0,17779654.0,1710.0,862.0,2270.1,1158.4,2249.0,891.0,Object_Land_Pattern_Small,9.37379724998027,15.386710916878656,2.0,Object_Land_Pattern_Small,-4.0,,,,,,,,,,,
encoding,attention,7,17778807,17781825,17779813.0,17779937.0,125.0,125.0,2218.7,1194.6,2249.0,891.0,Object_Land_Pattern_Small,15.386818500002846,18.40506749995984,2.0,Object_Land_Pattern_Small,-4.0,-4.0,1.0,1.4862256669439375,,,,,,,,
encoding,attention,7,17778807,17781825,17780157.0,17780685.0,529.0,529.0,2248.5,1161.3,2249.0,891.0,Object_Land_Pattern_Small,15.386818500002846,18.40506749995984,2.0,Object_Land_Pattern_Small,-4.0,-4.0,1.0,1.4862256669439375,,,,,,,,
encoding,attention,7,17778807,17781825,17781479.0,17781777.0,299.0,299.0,2260.2,1169.3,2249.0,891.0,Object_Land_Pattern_Small,15.386818500002846,18.40506749995984,2.0,Object_Land_Pattern_Small,-4.0,-4.0,1.0,1.4862256669439375,,,,,,,,
encoding,fixation,8,17781825,17783081,17782182.0,17782365.0,184.0,184.0,2007.0,1089.9,2249.0,891.0,Object_Land_Pattern_Small,18.40523395780474,19.66037374990992,2.0,Object_Land_Solid_Large,3.0,,,,,,,,,,,
encoding,fixation,8,17781825,17783081,17782376.0,17782948.0,573.0,573.0,1972.2,1069.2,1920.0,1080.0,fixation,18.40523395780474,19.66037374990992,2.0,Object_Land_Solid_Large,3.0,,,,,,,,,,,
encoding,image,8,17783081,17784091,17783105.0,17783125.0,21.0,21.0,1908.0,1228.0,1920.0,700.0,Animal_Sea_Solid_Small,19.660474666859955,20.670344416983426,2.0,Object_Land_Solid_Large,3.0,,,,,,,,,,,
encoding,image,8,17783081,17784091,17783144.0,17783308.0,165.0,165.0,1946.1,1154.8,1920.0,700.0,Animal_Sea_Solid_Small,19.660474666859955,20.670344416983426,2.0,Object_Land_Solid_Large,3.0,,,,,,,,,,,
encoding,image,8,17783081,17784091,17783359.0,17783848.0,490.0,490.0,1677.0,905.9000000000001,1591.0,1269.0,Object_Land_Solid_Large,19.660474666859955,20.670344416983426,2.0,Object_Land_Solid_Large,3.0,,,,,,,,,,,
encoding,image,8,17783081,17784091,17783886.0,17784116.0,231.0,205.0,1962.4,1033.9,1920.0,1080.0,fixation,19.660474666859955,20.670344416983426,2.0,Object_Land_Solid_Large,3.0,,,,,,,,,,,
encoding,value,8,17784091,17790103,17784133.0,17784395.0,263.0,263.0,1982.0,1050.8,1920.0,1080.0,fixation,20.670450457837433,26.682132749818265,2.0,Object_Land_Solid_Large,3.0,,,,,,,,,,,
encoding,value,8,17784091,17790103,17784439.0,17784576.0,138.0,138.0,1707.8,910.0,1591.0,1269.0,Object_Land_Solid_Large,20.670450457837433,26.682132749818265,2.0,Object_Land_Solid_Large,3.0,,,,,,,,,,,
encoding,value,8,17784091,17790103,17784615.0,17784783.0,169.0,169.0,2047.9,1159.3,2249.0,891.0,Object_Land_Pattern_Small,20.670450457837433,26.682132749818265,2.0,Object_Land_Solid_Large,3.0,,,,,,,,,,,
encoding,value,8,17784091,17790103,17784850.0,17785001.0,152.0,152.0,1665.7,836.9000000000001,1591.0,1269.0,Object_Land_Solid_Large,20.670450457837433,26.682132749818265,2.0,Object_Land_Solid_Large,3.0,,,,,,,,,,,
encoding,value,8,17784091,17790103,17785020.0,17787049.0,2030.0,2030.0,1657.7,780.5999999999999,1591.0,1269.0,Object_Land_Solid_Large,20.670450457837433,26.682132749818265,2.0,Object_Land_Solid_Large,3.0,,,,,,,,,,,
encoding,value,8,17784091,17790103,17787326.0,17787523.0,198.0,198.0,1641.3,805.4000000000001,1591.0,1269.0,Object_Land_Solid_Large,20.670450457837433,26.682132749818265,2.0,Object_Land_Solid_Large,3.0,,,,,,,,,,,
encoding,value,8,17784091,17790103,17787787.0,17788558.0,772.0,772.0,1629.9,877.7,1591.0,1269.0,Object_Land_Solid_Large,20.670450457837433,26.682132749818265,2.0,Object_Land_Solid_Large,3.0,,,,,,,,,,,
encoding,value,8,17784091,17790103,17788779.0,17788935.0,157.0,157.0,1629.1,886.2,1591.0,1269.0,Object_Land_Solid_Large,20.670450457837433,26.682132749818265,2.0,Object_Land_Solid_Large,3.0,,,,,,,,,,,
encoding,value,8,17784091,17790103,17788956.0,17789071.0,116.0,116.0,1646.7,764.4000000000001,1591.0,1269.0,Object_Land_Solid_Large,20.670450457837433,26.682132749818265,2.0,Object_Land_Solid_Large,3.0,,,,,,,,,,,
encoding,value,8,17784091,17790103,17789347.0,17790481.0,1135.0,756.0,1654.2,795.8,1591.0,1269.0,Object_Land_Solid_Large,20.670450457837433,26.682132749818265,2.0,Object_Land_Solid_Large,3.0,,,,,,,,,,,
encoding,attention,8,17790103,17793120,17790755.0,17791520.0,766.0,766.0,1601.3,792.5999999999999,1591.0,1269.0,Object_Land_Solid_Large,26.682243207935244,29.69922462501563,2.0,Object_Land_Solid_Large,3.0,3.0,1.0,1.1594535000622272,,,,,,,,
encoding,attention,8,17790103,17793120,17791783.0,17792011.0,229.0,229.0,1625.7,852.4000000000001,1591.0,1269.0,Object_Land_Solid_Large,26.682243207935244,29.69922462501563,2.0,Object_Land_Solid_Large,3.0,3.0,1.0,1.1594535000622272,,,,,,,,
encoding,attention,8,17790103,17793120,17792032.0,17792343.0,312.0,312.0,1590.5,767.8,1591.0,1269.0,Object_Land_Solid_Large,26.682243207935244,29.69922462501563,2.0,Object_Land_Solid_Large,3.0,3.0,1.0,1.1594535000622272,,,,,,,,
encoding,attention,8,17790103,17793120,17792362.0,17792686.0,325.0,325.0,1656.2,876.3,1591.0,1269.0,Object_Land_Solid_Large,26.682243207935244,29.69922462501563,2.0,Object_Land_Solid_Large,3.0,3.0,1.0,1.1594535000622272,,,,,,,,
encoding,attention,8,17790103,17793120,17792939.0,17792997.0,59.0,59.0,1685.0,908.8,1591.0,1269.0,Object_Land_Solid_Large,26.682243207935244,29.69922462501563,2.0,Object_Land_Solid_Large,3.0,3.0,1.0,1.1594535000622272,,,,,,,,
encoding,fixation,9,17793120,17793875,17793407.0,17794120.0,714.0,468.0,1955.2,1061.2,1920.0,1080.0,fixation,29.699363957857713,30.454292749986053,2.0,Animal_Sea_Solid_Large,-4.0,,,,,,,,,,,
encoding,image,9,17793875,17794886,17794165.0,17794340.0,176.0,176.0,1589.9,1267.1,1591.0,891.0,Animal_Sea_Solid_Large,30.45439283293672,31.465364333009347,2.0,Animal_Sea_Solid_Large,-4.0,,,,,,,,,,,
encoding,image,9,17793875,17794886,17794355.0,17795072.0,718.0,531.0,1623.0,1322.8,1591.0,891.0,Animal_Sea_Solid_Large,30.45439283293672,31.465364333009347,2.0,Animal_Sea_Solid_Large,-4.0,,,,,,,,,,,
encoding,value,9,17794886,17800898,17795096.0,17795283.0,188.0,188.0,1626.8,1171.2,1591.0,891.0,Animal_Sea_Solid_Large,31.465477749938145,37.476900291861966,2.0,Animal_Sea_Solid_Large,-4.0,,,,,,,,,,,
encoding,value,9,17794886,17800898,17795753.0,17795895.0,143.0,143.0,1612.5,1211.2,1591.0,891.0,Animal_Sea_Solid_Large,31.465477749938145,37.476900291861966,2.0,Animal_Sea_Solid_Large,-4.0,,,,,,,,,,,
encoding,value,9,17794886,17800898,17795905.0,17797247.0,1343.0,1343.0,1622.1,1183.1,1591.0,891.0,Animal_Sea_Solid_Large,31.465477749938145,37.476900291861966,2.0,Animal_Sea_Solid_Large,-4.0,,,,,,,,,,,
encoding,value,9,17794886,17800898,17797435.0,17797843.0,409.0,409.0,1610.8,1184.1,1591.0,891.0,Animal_Sea_Solid_Large,31.465477749938145,37.476900291861966,2.0,Animal_Sea_Solid_Large,-4.0,,,,,,,,,,,
encoding,value,9,17794886,17800898,17797854.0,17799621.0,1768.0,1768.0,1615.0,1168.7,1591.0,891.0,Animal_Sea_Solid_Large,31.465477749938145,37.476900291861966,2.0,Animal_Sea_Solid_Large,-4.0,,,,,,,,,,,
encoding,value,9,17794886,17800898,17799832.0,17801267.0,1436.0,1066.0,1618.7,1185.5,1591.0,891.0,Animal_Sea_Solid_Large,31.465477749938145,37.476900291861966,2.0,Animal_Sea_Solid_Large,-4.0,,,,,,,,,,,
encoding,attention,9,17800898,17803915,17801277.0,17802020.0,744.0,744.0,1654.1,1191.2,1591.0,891.0,Animal_Sea_Solid_Large,37.4770130419638,40.493940291926265,2.0,Animal_Sea_Solid_Large,-4.0,-4.0,1.0,0.8448681249283254,,,,,,,,
encoding,attention,9,17800898,17803915,17802246.0,17802370.0,125.0,125.0,1622.3,1278.4,1591.0,891.0,Animal_Sea_Solid_Large,37.4770130419638,40.493940291926265,2.0,Animal_Sea_Solid_Large,-4.0,-4.0,1.0,0.8448681249283254,,,,,,,,
encoding,attention,9,17800898,17803915,17802592.0,17802648.0,57.0,57.0,1695.3,1231.6,1591.0,891.0,Animal_Sea_Solid_Large,37.4770130419638,40.493940291926265,2.0,Animal_Sea_Solid_Large,-4.0,-4.0,1.0,0.8448681249283254,,,,,,,,
encoding,attention,9,17800898,17803915,17802915.0,17803095.0,181.0,181.0,1676.2,1231.9,1591.0,891.0,Animal_Sea_Solid_Large,37.4770130419638,40.493940291926265,2.0,Animal_Sea_Solid_Large,-4.0,-4.0,1.0,0.8448681249283254,,,,,,,,
encoding,attention,9,17800898,17803915,17803111.0,17803143.0,33.0,33.0,1657.0,1169.4,1591.0,891.0,Animal_Sea_Solid_Large,37.4770130419638,40.493940291926265,2.0,Animal_Sea_Solid_Large,-4.0,-4.0,1.0,0.8448681249283254,,,,,,,,
encoding,fixation,10,17803915,17804671,17804203.0,17804906.0,704.0,468.0,1976.7,1056.0,1920.0,1080.0,fixation,40.494082749821246,41.24939624988474,2.0,Object_Land_Pattern_Large,3.0,,,,,,,,,,,
encoding,image,10,17804671,17805682,17804933.0,17805421.0,489.0,489.0,1993.7,697.4000000000001,1920.0,1460.0,Object_Land_Pattern_Large,41.24950124998577,42.26041583297774,2.0,Object_Land_Pattern_Large,3.0,,,,,,,,,,,
encoding,image,10,17804671,17805682,17805434.0,17805903.0,470.0,248.0,1999.1,644.4000000000001,1920.0,1460.0,Object_Land_Pattern_Large,41.24950124998577,42.26041583297774,2.0,Object_Land_Pattern_Large,3.0,,,,,,,,,,,
encoding,value,10,17805682,17811694,17805919.0,17806308.0,390.0,390.0,1979.6,572.2,1920.0,1460.0,Object_Land_Pattern_Large,42.2605833329726,48.273030458018184,2.0,Object_Land_Pattern_Large,3.0,,,,,,,,,,,
encoding,value,10,17805682,17811694,17806328.0,17806622.0,295.0,295.0,1986.2,672.0,1920.0,1460.0,Object_Land_Pattern_Large,42.2605833329726,48.273030458018184,2.0,Object_Land_Pattern_Large,3.0,,,,,,,,,,,
encoding,value,10,17805682,17811694,17806808.0,17806854.0,47.0,47.0,1930.6,715.4000000000001,1920.0,1460.0,Object_Land_Pattern_Large,42.2605833329726,48.273030458018184,2.0,Object_Land_Pattern_Large,3.0,,,,,,,,,,,
encoding,value,10,17805682,17811694,17807076.0,17807297.0,222.0,222.0,1984.1,636.9000000000001,1920.0,1460.0,Object_Land_Pattern_Large,42.2605833329726,48.273030458018184,2.0,Object_Land_Pattern_Large,3.0,,,,,,,,,,,
encoding,value,10,17805682,17811694,17807313.0,17810756.0,3444.0,3444.0,1975.5,586.9000000000001,1920.0,1460.0,Object_Land_Pattern_Large,42.2605833329726,48.273030458018184,2.0,Object_Land_Pattern_Large,3.0,,,,,,,,,,,
encoding,value,10,17805682,17811694,17810764.0,17811420.0,657.0,657.0,1967.1,616.3,1920.0,1460.0,Object_Land_Pattern_Large,42.2605833329726,48.273030458018184,2.0,Object_Land_Pattern_Large,3.0,,,,,,,,,,,
encoding,attention,10,17811695,17814714,17811809.0,17812017.0,209.0,209.0,1932.8,668.0999999999999,1920.0,1460.0,Object_Land_Pattern_Large,48.273138666991144,51.29178299987689,2.0,Object_Land_Pattern_Large,3.0,3.0,1.0,1.7271264579612762,,,,,,,,
encoding,attention,10,17811695,17814714,17812030.0,17812233.0,204.0,204.0,1962.2,587.4000000000001,1920.0,1460.0,Object_Land_Pattern_Large,48.273138666991144,51.29178299987689,2.0,Object_Land_Pattern_Large,3.0,3.0,1.0,1.7271264579612762,,,,,,,,
encoding,attention,10,17811695,17814714,17812242.0,17813645.0,1404.0,1404.0,1911.7,595.9000000000001,1920.0,1460.0,Object_Land_Pattern_Large,48.273138666991144,51.29178299987689,2.0,Object_Land_Pattern_Large,3.0,3.0,1.0,1.7271264579612762,,,,,,,,
encoding,fixation,11,17814714,17815721,17814761.0,17815019.0,259.0,259.0,1960.9,630.3,1920.0,1460.0,Object_Land_Pattern_Large,51.29193670791574,52.299042999977246,2.0,Animal_Sea_Pattern_Small,6.0,,,,,,,,,,,
encoding,fixation,11,17814714,17815721,17815060.0,17815201.0,142.0,142.0,1954.1,1015.9000000000001,1920.0,1460.0,Object_Land_Pattern_Large,51.29193670791574,52.299042999977246,2.0,Animal_Sea_Pattern_Small,6.0,,,,,,,,,,,
encoding,fixation,11,17814714,17815721,17815217.0,17815970.0,754.0,504.0,1973.1,1068.4,1920.0,1080.0,fixation,51.29193670791574,52.299042999977246,2.0,Animal_Sea_Pattern_Small,6.0,,,,,,,,,,,
encoding,image,11,17815721,17816733,17816013.0,17816340.0,328.0,328.0,2260.4,888.9000000000001,2249.0,1269.0,Animal_Sea_Pattern_Small,52.299141000024974,53.310972957871854,2.0,Animal_Sea_Pattern_Small,6.0,,,,,,,,,,,
encoding,image,11,17815721,17816733,17816549.0,17816592.0,44.0,44.0,2196.2,952.4000000000001,2249.0,1269.0,Animal_Sea_Pattern_Small,52.299141000024974,53.310972957871854,2.0,Animal_Sea_Pattern_Small,6.0,,,,,,,,,,,
encoding,value,11,17816733,17822745,17816799.0,17816849.0,51.0,51.0,2206.8,923.2,2249.0,1269.0,Animal_Sea_Pattern_Small,53.31109437486157,59.32253558281809,2.0,Animal_Sea_Pattern_Small,6.0,,,,,,,,,,,
encoding,value,11,17816733,17822745,17816867.0,17817003.0,137.0,137.0,2260.4,861.4000000000001,2249.0,1269.0,Animal_Sea_Pattern_Small,53.31109437486157,59.32253558281809,2.0,Animal_Sea_Pattern_Small,6.0,,,,,,,,,,,
encoding,value,11,17816733,17822745,17817031.0,17817843.0,813.0,813.0,2301.1,748.8,2249.0,1269.0,Animal_Sea_Pattern_Small,53.31109437486157,59.32253558281809,2.0,Animal_Sea_Pattern_Small,6.0,,,,,,,,,,,
encoding,value,11,17816733,17822745,17818000.0,17818067.0,68.0,68.0,2274.1,903.5999999999999,2249.0,1269.0,Animal_Sea_Pattern_Small,53.31109437486157,59.32253558281809,2.0,Animal_Sea_Pattern_Small,6.0,,,,,,,,,,,
encoding,value,11,17816733,17822745,17818277.0,17818499.0,223.0,223.0,2274.3,833.8,2249.0,1269.0,Animal_Sea_Pattern_Small,53.31109437486157,59.32253558281809,2.0,Animal_Sea_Pattern_Small,6.0,,,,,,,,,,,
encoding,value,11,17816733,17822745,17818511.0,17819322.0,812.0,812.0,2293.5,770.7,2249.0,1269.0,Animal_Sea_Pattern_Small,53.31109437486157,59.32253558281809,2.0,Animal_Sea_Pattern_Small,6.0,,,,,,,,,,,
encoding,value,11,17816733,17822745,17819339.0,17819766.0,428.0,428.0,2298.2,854.4000000000001,2249.0,1269.0,Animal_Sea_Pattern_Small,53.31109437486157,59.32253558281809,2.0,Animal_Sea_Pattern_Small,6.0,,,,,,,,,,,
encoding,value,11,17816733,17822745,17819784.0,17820257.0,474.0,474.0,2308.2,753.0999999999999,2249.0,1269.0,Animal_Sea_Pattern_Small,53.31109437486157,59.32253558281809,2.0,Animal_Sea_Pattern_Small,6.0,,,,,,,,,,,
encoding,value,11,17816733,17822745,17820428.0,17820493.0,66.0,66.0,2247.4,852.0999999999999,2249.0,1269.0,Animal_Sea_Pattern_Small,53.31109437486157,59.32253558281809,2.0,Animal_Sea_Pattern_Small,6.0,,,,,,,,,,,
encoding,value,11,17816733,17822745,17820506.0,17823853.0,3348.0,2239.0,2305.2,766.7,2249.0,1269.0,Animal_Sea_Pattern_Small,53.31109437486157,59.32253558281809,2.0,Animal_Sea_Pattern_Small,6.0,,,,,,,,,,,
encoding,attention,11,17822745,17825763,17824098.0,17824151.0,54.0,54.0,2282.9,875.5,2249.0,1269.0,Animal_Sea_Pattern_Small,59.3226676248014,62.34033333300613,2.0,Animal_Sea_Pattern_Small,6.0,6.0,1.0,0.8802912922110409,,,,,,,,
encoding,attention,11,17822745,17825763,17824367.0,17824391.0,25.0,25.0,2135.1,863.2,2249.0,1269.0,Animal_Sea_Pattern_Small,59.3226676248014,62.34033333300613,2.0,Animal_Sea_Pattern_Small,6.0,6.0,1.0,0.8802912922110409,,,,,,,,
encoding,attention,11,17822745,17825763,17824399.0,17824561.0,163.0,163.0,2170.3,831.8,2249.0,1269.0,Animal_Sea_Pattern_Small,59.3226676248014,62.34033333300613,2.0,Animal_Sea_Pattern_Small,6.0,6.0,1.0,0.8802912922110409,,,,,,,,
encoding,attention,11,17822745,17825763,17824581.0,17824679.0,99.0,99.0,2258.7,751.5,2249.0,1269.0,Animal_Sea_Pattern_Small,59.3226676248014,62.34033333300613,2.0,Animal_Sea_Pattern_Small,6.0,6.0,1.0,0.8802912922110409,,,,,,,,
encoding,attention,11,17822745,17825763,17824866.0,17825094.0,229.0,229.0,2226.8,816.7,2249.0,1269.0,Animal_Sea_Pattern_Small,59.3226676248014,62.34033333300613,2.0,Animal_Sea_Pattern_Small,6.0,6.0,1.0,0.8802912922110409,,,,,,,,
encoding,fixation,12,17825763,17826268,17826033.0,17826135.0,103.0,103.0,1954.3,1103.3,1920.0,1080.0,fixation,62.34048149990849,62.84610474994406,2.0,Animal_Sea_Solid_Small,-1.0,,,,,,,,,,,
encoding,image,12,17826268,17827279,17826334.0,17826489.0,156.0,156.0,1941.7,1119.6,1920.0,1080.0,fixation,62.84626612486318,63.857053332962096,2.0,Animal_Sea_Solid_Small,-1.0,,,,,,,,,,,
encoding,image,12,17826268,17827279,17826643.0,17827371.0,729.0,636.0,1944.3,1484.8,1920.0,700.0,Animal_Sea_Solid_Small,62.84626612486318,63.857053332962096,2.0,Animal_Sea_Solid_Small,-1.0,,,,,,,,,,,
encoding,value,12,17827279,17833292,17827417.0,17827637.0,221.0,221.0,2096.2,1073.5,2249.0,1269.0,Animal_Sea_Pattern_Small,63.85725091700442,69.86970720789395,2.0,Animal_Sea_Solid_Small,-1.0,,,,,,,,,,,
encoding,value,12,17827279,17833292,17827675.0,17828059.0,385.0,385.0,1926.8,1398.9,1920.0,700.0,Animal_Sea_Solid_Small,63.85725091700442,69.86970720789395,2.0,Animal_Sea_Solid_Small,-1.0,,,,,,,,,,,
encoding,value,12,17827279,17833292,17828234.0,17828263.0,30.0,30.0,1965.2,1400.0,1920.0,700.0,Animal_Sea_Solid_Small,63.85725091700442,69.86970720789395,2.0,Animal_Sea_Solid_Small,-1.0,,,,,,,,,,,
encoding,value,12,17827279,17833292,17828480.0,17828670.0,191.0,191.0,1930.8,1415.4,1920.0,700.0,Animal_Sea_Solid_Small,63.85725091700442,69.86970720789395,2.0,Animal_Sea_Solid_Small,-1.0,,,,,,,,,,,
encoding,value,12,17827279,17833292,17828680.0,17829552.0,873.0,873.0,1933.3,1382.0,1920.0,700.0,Animal_Sea_Solid_Small,63.85725091700442,69.86970720789395,2.0,Animal_Sea_Solid_Small,-1.0,,,,,,,,,,,
encoding,value,12,17827279,17833292,17829696.0,17829832.0,137.0,137.0,1902.5,1378.3,1920.0,700.0,Animal_Sea_Solid_Small,63.85725091700442,69.86970720789395,2.0,Animal_Sea_Solid_Small,-1.0,,,,,,,,,,,
encoding,value,12,17827279,17833292,17829850.0,17831969.0,2120.0,2120.0,1936.5,1376.3,1920.0,700.0,Animal_Sea_Solid_Small,63.85725091700442,69.86970720789395,2.0,Animal_Sea_Solid_Small,-1.0,,,,,,,,,,,
encoding,value,12,17827279,17833292,17832146.0,17832764.0,619.0,619.0,1948.3,1392.3,1920.0,700.0,Animal_Sea_Solid_Small,63.85725091700442,69.86970720789395,2.0,Animal_Sea_Solid_Small,-1.0,,,,,,,,,,,
encoding,value,12,17827279,17833292,17832781.0,17833628.0,848.0,511.0,1939.3,1384.2,1920.0,700.0,Animal_Sea_Solid_Small,63.85725091700442,69.86970720789395,2.0,Animal_Sea_Solid_Small,-1.0,,,,,,,,,,,
encoding,attention,12,17833292,17836309,17833643.0,17834420.0,778.0,778.0,1975.1,1385.0,1920.0,700.0,Animal_Sea_Solid_Small,69.86984941689298,72.88675862480886,2.0,Animal_Sea_Solid_Small,-1.0,-1.0,1.0,0.8924331250600517,,,,,,,,
encoding,attention,12,17833292,17836309,17834649.0,17834811.0,163.0,163.0,1951.6,1420.1,1920.0,700.0,Animal_Sea_Solid_Small,69.86984941689298,72.88675862480886,2.0,Animal_Sea_Solid_Small,-1.0,-1.0,1.0,0.8924331250600517,,,,,,,,
encoding,attention,12,17833292,17836309,17835020.0,17835181.0,162.0,162.0,1943.4,1406.7,1920.0,700.0,Animal_Sea_Solid_Small,69.86984941689298,72.88675862480886,2.0,Animal_Sea_Solid_Small,-1.0,-1.0,1.0,0.8924331250600517,,,,,,,,
encoding,attention,12,17833292,17836309,17835195.0,17835536.0,342.0,342.0,1892.8,1348.3,1920.0,700.0,Animal_Sea_Solid_Small,69.86984941689298,72.88675862480886,2.0,Animal_Sea_Solid_Small,-1.0,-1.0,1.0,0.8924331250600517,,,,,,,,
encoding,attention,12,17833292,17836309,17835554.0,17836187.0,634.0,634.0,1904.8,1372.5,1920.0,700.0,Animal_Sea_Solid_Small,69.86984941689298,72.88675862480886,2.0,Animal_Sea_Solid_Small,-1.0,-1.0,1.0,0.8924331250600517,,,,,,,,
encoding,fixation,13,18165277,18165782,18165498.0,18165632.0,135.0,135.0,1942.8,1093.0,1920.0,1080.0,fixation,7.469233084004372,7.974639958934858,3.0,Object_Sea_Pattern_Small,-7.0,,,,,,,,,,,
encoding,image,13,18165782,18166793,18165805.0,18165960.0,156.0,156.0,1915.6,1203.7,1920.0,700.0,Object_Sea_Pattern_Small,7.974753083894029,8.98565391683951,3.0,Object_Sea_Pattern_Small,-7.0,,,,,,,,,,,
encoding,image,13,18165782,18166793,18165994.0,18166520.0,527.0,527.0,1933.3,1501.4,1920.0,700.0,Object_Sea_Pattern_Small,7.974753083894029,8.98565391683951,3.0,Object_Sea_Pattern_Small,-7.0,,,,,,,,,,,
encoding,image,13,18165782,18166793,18166534.0,18167011.0,478.0,259.0,1945.3,1450.7,1920.0,700.0,Object_Sea_Pattern_Small,7.974753083894029,8.98565391683951,3.0,Object_Sea_Pattern_Small,-7.0,,,,,,,,,,,
encoding,value,13,18166793,18172806,18167178.0,18167285.0,108.0,108.0,1937.3,1482.7,1920.0,700.0,Object_Sea_Pattern_Small,8.985765124903992,14.99854674981907,3.0,Object_Sea_Pattern_Small,-7.0,,,,,,,,,,,
encoding,value,13,18166793,18172806,18167302.0,18168818.0,1517.0,1517.0,1924.5,1394.2,1920.0,700.0,Object_Sea_Pattern_Small,8.985765124903992,14.99854674981907,3.0,Object_Sea_Pattern_Small,-7.0,,,,,,,,,,,
encoding,value,13,18166793,18172806,18169012.0,18169489.0,478.0,478.0,1928.3,1387.4,1920.0,700.0,Object_Sea_Pattern_Small,8.985765124903992,14.99854674981907,3.0,Object_Sea_Pattern_Small,-7.0,,,,,,,,,,,
encoding,value,13,18166793,18172806,18169678.0,18169823.0,146.0,146.0,1926.4,1415.4,1920.0,700.0,Object_Sea_Pattern_Small,8.985765124903992,14.99854674981907,3.0,Object_Sea_Pattern_Small,-7.0,,,,,,,,,,,
encoding,value,13,18166793,18172806,18169835.0,18170243.0,409.0,409.0,1932.7,1454.3,1920.0,700.0,Object_Sea_Pattern_Small,8.985765124903992,14.99854674981907,3.0,Object_Sea_Pattern_Small,-7.0,,,,,,,,,,,
encoding,value,13,18166793,18172806,18170265.0,18170475.0,211.0,211.0,1923.9,1486.1,1920.0,700.0,Object_Sea_Pattern_Small,8.985765124903992,14.99854674981907,3.0,Object_Sea_Pattern_Small,-7.0,,,,,,,,,,,
encoding,value,13,18166793,18172806,18170648.0,18170737.0,90.0,90.0,1916.1,1489.5,1920.0,700.0,Object_Sea_Pattern_Small,8.985765124903992,14.99854674981907,3.0,Object_Sea_Pattern_Small,-7.0,,,,,,,,,,,
encoding,value,13,18166793,18172806,18170753.0,18171098.0,346.0,346.0,1934.2,1399.5,1920.0,700.0,Object_Sea_Pattern_Small,8.985765124903992,14.99854674981907,3.0,Object_Sea_Pattern_Small,-7.0,,,,,,,,,,,
encoding,value,13,18166793,18172806,18171121.0,18171483.0,363.0,363.0,1925.1,1465.1,1920.0,700.0,Object_Sea_Pattern_Small,8.985765124903992,14.99854674981907,3.0,Object_Sea_Pattern_Small,-7.0,,,,,,,,,,,
encoding,value,13,18166793,18172806,18171502.0,18171674.0,173.0,173.0,1918.6,1373.8,1920.0,700.0,Object_Sea_Pattern_Small,8.985765124903992,14.99854674981907,3.0,Object_Sea_Pattern_Small,-7.0,,,,,,,,,,,
encoding,value,13,18166793,18172806,18171839.0,18172163.0,325.0,325.0,1931.4,1426.4,1920.0,700.0,Object_Sea_Pattern_Small,8.985765124903992,14.99854674981907,3.0,Object_Sea_Pattern_Small,-7.0,,,,,,,,,,,
encoding,value,13,18166793,18172806,18172171.0,18172647.0,477.0,477.0,1927.3,1396.4,1920.0,700.0,Object_Sea_Pattern_Small,8.985765124903992,14.99854674981907,3.0,Object_Sea_Pattern_Small,-7.0,,,,,,,,,,,
encoding,value,13,18166793,18172806,18172800.0,18172822.0,23.0,6.0,1909.1,1449.6,1920.0,700.0,Object_Sea_Pattern_Small,8.985765124903992,14.99854674981907,3.0,Object_Sea_Pattern_Small,-7.0,,,,,,,,,,,
encoding,attention,13,18172806,18175824,18172835.0,18172943.0,109.0,109.0,1919.0,1421.0,1920.0,700.0,Object_Sea_Pattern_Small,14.9986601669807,18.016661583911628,3.0,Object_Sea_Pattern_Small,-7.0,-7.0,1.0,0.96954904217273,,,,,,,,
encoding,attention,13,18172806,18175824,18172954.0,18173103.0,150.0,150.0,1921.3,1392.4,1920.0,700.0,Object_Sea_Pattern_Small,14.9986601669807,18.016661583911628,3.0,Object_Sea_Pattern_Small,-7.0,-7.0,1.0,0.96954904217273,,,,,,,,
encoding,attention,13,18172806,18175824,18173113.0,18173336.0,224.0,224.0,1958.0,1372.5,1920.0,700.0,Object_Sea_Pattern_Small,14.9986601669807,18.016661583911628,3.0,Object_Sea_Pattern_Small,-7.0,-7.0,1.0,0.96954904217273,,,,,,,,
encoding,attention,13,18172806,18175824,18173353.0,18174031.0,679.0,679.0,1875.5,1388.9,1920.0,700.0,Object_Sea_Pattern_Small,14.9986601669807,18.016661583911628,3.0,Object_Sea_Pattern_Small,-7.0,-7.0,1.0,0.96954904217273,,,,,,,,
encoding,attention,13,18172806,18175824,18174246.0,18174445.0,200.0,200.0,1914.3,1486.7,1920.0,700.0,Object_Sea_Pattern_Small,14.9986601669807,18.016661583911628,3.0,Object_Sea_Pattern_Small,-7.0,-7.0,1.0,0.96954904217273,,,,,,,,
encoding,attention,13,18172806,18175824,18174647.0,18174937.0,291.0,291.0,1938.1,1471.5,1920.0,700.0,Object_Sea_Pattern_Small,14.9986601669807,18.016661583911628,3.0,Object_Sea_Pattern_Small,-7.0,-7.0,1.0,0.96954904217273,,,,,,,,
encoding,attention,13,18172806,18175824,18174956.0,18175817.0,862.0,862.0,1888.4,1386.9,1920.0,700.0,Object_Sea_Pattern_Small,14.9986601669807,18.016661583911628,3.0,Object_Sea_Pattern_Small,-7.0,-7.0,1.0,0.96954904217273,,,,,,,,
encoding,fixation,14,18175825,18177330,18176025.0,18176044.0,20.0,20.0,1859.9,1439.9,1920.0,700.0,Object_Sea_Pattern_Small,18.01687370892614,19.52193212485872,3.0,Object_Land_Solid_Large,-9.0,,,,,,,,,,,
encoding,fixation,14,18175825,18177330,18176050.0,18176549.0,500.0,500.0,1863.6,1405.8,1920.0,700.0,Object_Sea_Pattern_Small,18.01687370892614,19.52193212485872,3.0,Object_Land_Solid_Large,-9.0,,,,,,,,,,,
encoding,fixation,14,18175825,18177330,18176752.0,18177126.0,375.0,375.0,1913.8,1252.3,1920.0,700.0,Object_Sea_Pattern_Small,18.01687370892614,19.52193212485872,3.0,Object_Land_Solid_Large,-9.0,,,,,,,,,,,
encoding,fixation,14,18175825,18177330,18177160.0,18177294.0,135.0,135.0,1941.5,1037.2,1920.0,1080.0,fixation,18.01687370892614,19.52193212485872,3.0,Object_Land_Solid_Large,-9.0,,,,,,,,,,,
encoding,fixation,14,18175825,18177330,18177302.0,18177558.0,257.0,28.0,1946.3,1070.4,1920.0,1080.0,fixation,18.01687370892614,19.52193212485872,3.0,Object_Land_Solid_Large,-9.0,,,,,,,,,,,
encoding,image,14,18177330,18178340,18177584.0,18178037.0,454.0,454.0,1628.3,903.9000000000001,1591.0,1269.0,Object_Land_Solid_Large,19.522050666855648,20.532568249851465,3.0,Object_Land_Solid_Large,-9.0,,,,,,,,,,,
encoding,image,14,18177330,18178340,18178259.0,18178293.0,35.0,35.0,1660.3,937.5999999999999,1591.0,1269.0,Object_Land_Solid_Large,19.522050666855648,20.532568249851465,3.0,Object_Land_Solid_Large,-9.0,,,,,,,,,,,
encoding,value,14,18178340,18184353,18178509.0,18178522.0,14.0,14.0,1551.1,1045.5,1591.0,1269.0,Object_Land_Solid_Large,20.532756791915745,26.54508237494156,3.0,Object_Land_Solid_Large,-9.0,,,,,,,,,,,
encoding,value,14,18178340,18184353,18178541.0,18178686.0,146.0,146.0,1619.3,912.4000000000001,1591.0,1269.0,Object_Land_Solid_Large,20.532756791915745,26.54508237494156,3.0,Object_Land_Solid_Large,-9.0,,,,,,,,,,,
encoding,value,14,18178340,18184353,18178709.0,18179336.0,628.0,628.0,1630.3,772.5999999999999,1591.0,1269.0,Object_Land_Solid_Large,20.532756791915745,26.54508237494156,3.0,Object_Land_Solid_Large,-9.0,,,,,,,,,,,
encoding,value,14,18178340,18184353,18179550.0,18179935.0,386.0,386.0,1614.8,849.2,1591.0,1269.0,Object_Land_Solid_Large,20.532756791915745,26.54508237494156,3.0,Object_Land_Solid_Large,-9.0,,,,,,,,,,,
encoding,value,14,18178340,18184353,18179976.0,18180186.0,211.0,211.0,1884.7,1203.0,1920.0,700.0,Object_Sea_Pattern_Small,20.532756791915745,26.54508237494156,3.0,Object_Land_Solid_Large,-9.0,,,,,,,,,,,
encoding,value,14,18178340,18184353,18180245.0,18180642.0,398.0,398.0,1604.6,831.0999999999999,1591.0,1269.0,Object_Land_Solid_Large,20.532756791915745,26.54508237494156,3.0,Object_Land_Solid_Large,-9.0,,,,,,,,,,,
encoding,value,14,18178340,18184353,18180654.0,18180845.0,192.0,192.0,1626.1,812.0999999999999,1591.0,1269.0,Object_Land_Solid_Large,20.532756791915745,26.54508237494156,3.0,Object_Land_Solid_Large,-9.0,,,,,,,,,,,
encoding,value,14,18178340,18184353,18180868.0,18182057.0,1190.0,1190.0,1608.3,885.9000000000001,1591.0,1269.0,Object_Land_Solid_Large,20.532756791915745,26.54508237494156,3.0,Object_Land_Solid_Large,-9.0,,,,,,,,,,,
encoding,value,14,18178340,18184353,18182241.0,18182588.0,348.0,348.0,1599.9,914.5999999999999,1591.0,1269.0,Object_Land_Solid_Large,20.532756791915745,26.54508237494156,3.0,Object_Land_Solid_Large,-9.0,,,,,,,,,,,
encoding,value,14,18178340,18184353,18182611.0,18183065.0,455.0,455.0,1621.4,792.5999999999999,1591.0,1269.0,Object_Land_Solid_Large,20.532756791915745,26.54508237494156,3.0,Object_Land_Solid_Large,-9.0,,,,,,,,,,,
encoding,value,14,18178340,18184353,18183253.0,18183273.0,21.0,21.0,1543.8,965.4000000000001,1591.0,1269.0,Object_Land_Solid_Large,20.532756791915745,26.54508237494156,3.0,Object_Land_Solid_Large,-9.0,,,,,,,,,,,
encoding,value,14,18178340,18184353,18183296.0,18183862.0,567.0,567.0,1639.3,801.8,1591.0,1269.0,Object_Land_Solid_Large,20.532756791915745,26.54508237494156,3.0,Object_Land_Solid_Large,-9.0,,,,,,,,,,,
encoding,value,14,18178340,18184353,18183870.0,18184743.0,874.0,483.0,1627.1,772.2,1591.0,1269.0,Object_Land_Solid_Large,20.532756791915745,26.54508237494156,3.0,Object_Land_Solid_Large,-9.0,,,,,,,,,,,
encoding,attention,14,18184353,18187370,18185055.0,18185499.0,445.0,445.0,1678.0,809.4000000000001,1591.0,1269.0,Object_Land_Solid_Large,26.54518720903434,29.561515458859503,3.0,Object_Land_Solid_Large,-9.0,-9.0,1.0,0.8627512918319553,,,,,,,,
encoding,attention,14,18184353,18187370,18185740.0,18185760.0,21.0,21.0,1744.5,1060.3,1591.0,1269.0,Object_Land_Solid_Large,26.54518720903434,29.561515458859503,3.0,Object_Land_Solid_Large,-9.0,-9.0,1.0,0.8627512918319553,,,,,,,,
encoding,attention,14,18184353,18187370,18186008.0,18186412.0,405.0,405.0,1914.7,1367.5,1920.0,700.0,Object_Sea_Pattern_Small,26.54518720903434,29.561515458859503,3.0,Object_Land_Solid_Large,-9.0,-9.0,1.0,0.8627512918319553,,,,,,,,
encoding,attention,14,18184353,18187370,18186465.0,18187295.0,831.0,831.0,1647.3,885.9000000000001,1591.0,1269.0,Object_Land_Solid_Large,26.54518720903434,29.561515458859503,3.0,Object_Land_Solid_Large,-9.0,-9.0,1.0,0.8627512918319553,,,,,,,,
encoding,fixation,15,18187370,18188375,18187509.0,18187520.0,12.0,12.0,1530.6,1072.8,1591.0,1269.0,Object_Land_Solid_Large,29.56166137498803,30.566683791810647,3.0,Object_Land_Pattern_Small,9.0,,,,,,,,,,,
encoding,fixation,15,18187370,18188375,18187544.0,18187695.0,152.0,152.0,1620.7,894.5999999999999,1591.0,1269.0,Object_Land_Solid_Large,29.56166137498803,30.566683791810647,3.0,Object_Land_Pattern_Small,9.0,,,,,,,,,,,
encoding,fixation,15,18187370,18188375,18187732.0,18187941.0,210.0,210.0,1938.9,1051.7,1920.0,1080.0,fixation,29.56166137498803,30.566683791810647,3.0,Object_Land_Pattern_Small,9.0,,,,,,,,,,,
encoding,fixation,15,18187370,18188375,18188224.0,18188337.0,114.0,114.0,1931.0,1116.1,1920.0,1080.0,fixation,29.56166137498803,30.566683791810647,3.0,Object_Land_Pattern_Small,9.0,,,,,,,,,,,
encoding,fixation,15,18187370,18188375,18188350.0,18188628.0,279.0,25.0,1952.3,1062.7,1920.0,1080.0,fixation,29.56166137498803,30.566683791810647,3.0,Object_Land_Pattern_Small,9.0,,,,,,,,,,,
encoding,image,15,18188375,18189387,18188661.0,18188860.0,200.0,200.0,2194.9,1226.5,2249.0,891.0,Object_Land_Pattern_Small,30.566872249823064,31.57898245891556,3.0,Object_Land_Pattern_Small,9.0,,,,,,,,,,,
encoding,image,15,18188375,18189387,18188875.0,18189074.0,200.0,200.0,2255.9,1294.7,2249.0,891.0,Object_Land_Pattern_Small,30.566872249823064,31.57898245891556,3.0,Object_Land_Pattern_Small,9.0,,,,,,,,,,,
encoding,image,15,18188375,18189387,18189257.0,18189309.0,53.0,53.0,2197.9,1343.6,2249.0,891.0,Object_Land_Pattern_Small,30.566872249823064,31.57898245891556,3.0,Object_Land_Pattern_Small,9.0,,,,,,,,,,,
encoding,value,15,18189387,18195399,18189516.0,18189657.0,142.0,142.0,2252.9,1272.7,2249.0,891.0,Object_Land_Pattern_Small,31.579168000025675,37.59057058393955,3.0,Object_Land_Pattern_Small,9.0,,,,,,,,,,,
encoding,value,15,18189387,18195399,18189681.0,18190176.0,496.0,496.0,2274.8,1153.5,2249.0,891.0,Object_Land_Pattern_Small,31.579168000025675,37.59057058393955,3.0,Object_Land_Pattern_Small,9.0,,,,,,,,,,,
encoding,value,15,18189387,18195399,18190341.0,18190424.0,84.0,84.0,2252.9,1226.7,2249.0,891.0,Object_Land_Pattern_Small,31.579168000025675,37.59057058393955,3.0,Object_Land_Pattern_Small,9.0,,,,,,,,,,,
encoding,value,15,18189387,18195399,18190614.0,18190868.0,255.0,255.0,2140.4,1152.4,2249.0,891.0,Object_Land_Pattern_Small,31.579168000025675,37.59057058393955,3.0,Object_Land_Pattern_Small,9.0,,,,,,,,,,,
encoding,value,15,18189387,18195399,18190902.0,18191051.0,150.0,150.0,1795.3,1001.0999999999999,1591.0,1269.0,Object_Land_Solid_Large,31.579168000025675,37.59057058393955,3.0,Object_Land_Pattern_Small,9.0,,,,,,,,,,,
encoding,value,15,18189387,18195399,18191092.0,18191343.0,252.0,252.0,2209.4,1200.4,2249.0,891.0,Object_Land_Pattern_Small,31.579168000025675,37.59057058393955,3.0,Object_Land_Pattern_Small,9.0,,,,,,,,,,,
encoding,value,15,18189387,18195399,18191540.0,18192434.0,895.0,895.0,2217.0,1226.0,2249.0,891.0,Object_Land_Pattern_Small,31.579168000025675,37.59057058393955,3.0,Object_Land_Pattern_Small,9.0,,,,,,,,,,,
encoding,value,15,18189387,18195399,18192456.0,18193065.0,610.0,610.0,1977.2,1133.4,2249.0,891.0,Object_Land_Pattern_Small,31.579168000025675,37.59057058393955,3.0,Object_Land_Pattern_Small,9.0,,,,,,,,,,,
encoding,value,15,18189387,18195399,18193102.0,18193441.0,340.0,340.0,2259.6,1199.9,2249.0,891.0,Object_Land_Pattern_Small,31.579168000025675,37.59057058393955,3.0,Object_Land_Pattern_Small,9.0,,,,,,,,,,,
encoding,value,15,18189387,18195399,18193451.0,18193899.0,449.0,449.0,2262.8,1158.3,2249.0,891.0,Object_Land_Pattern_Small,31.579168000025675,37.59057058393955,3.0,Object_Land_Pattern_Small,9.0,,,,,,,,,,,
encoding,value,15,18189387,18195399,18194652.0,18194837.0,186.0,186.0,2273.2,1156.4,2249.0,891.0,Object_Land_Pattern_Small,31.579168000025675,37.59057058393955,3.0,Object_Land_Pattern_Small,9.0,,,,,,,,,,,
encoding,value,15,18189387,18195399,18195031.0,18195207.0,177.0,177.0,2259.6,1198.2,2249.0,891.0,Object_Land_Pattern_Small,31.579168000025675,37.59057058393955,3.0,Object_Land_Pattern_Small,9.0,,,,,,,,,,,
encoding,value,15,18189387,18195399,18195223.0,18195796.0,574.0,176.0,2261.6,1146.6,2249.0,891.0,Object_Land_Pattern_Small,31.579168000025675,37.59057058393955,3.0,Object_Land_Pattern_Small,9.0,,,,,,,,,,,
encoding,attention,15,18195399,18198417,18196035.0,18196087.0,53.0,53.0,2255.2,1236.2,2249.0,891.0,Object_Land_Pattern_Small,37.590689916862175,40.60817108396441,3.0,Object_Land_Pattern_Small,9.0,9.0,1.0,1.128174499841407,,,,,,,,
encoding,attention,15,18195399,18198417,18196307.0,18196782.0,476.0,476.0,2214.8,1219.4,2249.0,891.0,Object_Land_Pattern_Small,37.590689916862175,40.60817108396441,3.0,Object_Land_Pattern_Small,9.0,9.0,1.0,1.128174499841407,,,,,,,,
encoding,attention,15,18195399,18198417,18196798.0,18197138.0,341.0,341.0,2223.2,1143.1,2249.0,891.0,Object_Land_Pattern_Small,37.590689916862175,40.60817108396441,3.0,Object_Land_Pattern_Small,9.0,9.0,1.0,1.128174499841407,,,,,,,,
encoding,attention,15,18195399,18198417,18197190.0,18197421.0,232.0,232.0,1941.6,1438.8,1920.0,700.0,Object_Sea_Pattern_Small,37.590689916862175,40.60817108396441,3.0,Object_Land_Pattern_Small,9.0,9.0,1.0,1.128174499841407,,,,,,,,
encoding,attention,15,18195399,18198417,18197510.0,18197716.0,207.0,207.0,2266.0,1165.8,2249.0,891.0,Object_Land_Pattern_Small,37.590689916862175,40.60817108396441,3.0,Object_Land_Pattern_Small,9.0,9.0,1.0,1.128174499841407,,,,,,,,
encoding,attention,15,18195399,18198417,18197737.0,18197760.0,24.0,24.0,2205.1,1212.4,2249.0,891.0,Object_Land_Pattern_Small,37.590689916862175,40.60817108396441,3.0,Object_Land_Pattern_Small,9.0,9.0,1.0,1.128174499841407,,,,,,,,
encoding,fixation,16,18198417,18199172,18198828.0,18198897.0,70.0,70.0,2088.6,1167.9,2249.0,891.0,Object_Land_Pattern_Small,40.60833441698924,41.36382841691375,3.0,Animal_Sea_Pattern_Small,-5.0,,,,,,,,,,,
encoding,fixation,16,18198417,18199172,18199091.0,18199445.0,355.0,81.0,1968.9,1163.2,2249.0,891.0,Object_Land_Pattern_Small,40.60833441698924,41.36382841691375,3.0,Animal_Sea_Pattern_Small,-5.0,,,,,,,,,,,
encoding,image,16,18199172,18200184,18199487.0,18199721.0,235.0,235.0,2209.5,896.7,2249.0,1269.0,Animal_Sea_Pattern_Small,41.3639349588193,42.37522616703063,3.0,Animal_Sea_Pattern_Small,-5.0,,,,,,,,,,,
encoding,image,16,18199172,18200184,18199739.0,18200473.0,735.0,445.0,2259.2,860.8,2249.0,1269.0,Animal_Sea_Pattern_Small,41.3639349588193,42.37522616703063,3.0,Animal_Sea_Pattern_Small,-5.0,,,,,,,,,,,
encoding,value,16,18200184,18206197,18200481.0,18200631.0,151.0,151.0,2296.3,844.0,2249.0,1269.0,Animal_Sea_Pattern_Small,42.37533591687679,48.387467874912545,3.0,Animal_Sea_Pattern_Small,-5.0,,,,,,,,,,,
encoding,value,16,18200184,18206197,18200810.0,18200836.0,27.0,27.0,2260.6,809.9000000000001,2249.0,1269.0,Animal_Sea_Pattern_Small,42.37533591687679,48.387467874912545,3.0,Animal_Sea_Pattern_Small,-5.0,,,,,,,,,,,
encoding,value,16,18200184,18206197,18201078.0,18201391.0,314.0,314.0,2277.3,854.8,2249.0,1269.0,Animal_Sea_Pattern_Small,42.37533591687679,48.387467874912545,3.0,Animal_Sea_Pattern_Small,-5.0,,,,,,,,,,,
encoding,value,16,18200184,18206197,18201787.0,18203538.0,1752.0,1752.0,2304.0,849.0,2249.0,1269.0,Animal_Sea_Pattern_Small,42.37533591687679,48.387467874912545,3.0,Animal_Sea_Pattern_Small,-5.0,,,,,,,,,,,
encoding,value,16,18200184,18206197,18203545.0,18204359.0,815.0,815.0,2277.3,829.8,2249.0,1269.0,Animal_Sea_Pattern_Small,42.37533591687679,48.387467874912545,3.0,Animal_Sea_Pattern_Small,-5.0,,,,,,,,,,,
encoding,value,16,18200184,18206197,18204594.0,18204821.0,228.0,228.0,2267.4,874.0,2249.0,1269.0,Animal_Sea_Pattern_Small,42.37533591687679,48.387467874912545,3.0,Animal_Sea_Pattern_Small,-5.0,,,,,,,,,,,
encoding,value,16,18200184,18206197,18204984.0,18205160.0,177.0,177.0,2302.5,813.0,2249.0,1269.0,Animal_Sea_Pattern_Small,42.37533591687679,48.387467874912545,3.0,Animal_Sea_Pattern_Small,-5.0,,,,,,,,,,,
encoding,value,16,18200184,18206197,18205174.0,18206132.0,959.0,959.0,2285.0,766.7,2249.0,1269.0,Animal_Sea_Pattern_Small,42.37533591687679,48.387467874912545,3.0,Animal_Sea_Pattern_Small,-5.0,,,,,,,,,,,
encoding,attention,16,18206197,18209214,18206331.0,18206710.0,380.0,380.0,2277.5,780.4000000000001,2249.0,1269.0,Animal_Sea_Pattern_Small,48.38762462488376,51.40483604185283,3.0,Animal_Sea_Pattern_Small,-5.0,-5.0,1.0,1.5163955830503255,,,,,,,,
encoding,attention,16,18206197,18209214,18206718.0,18206900.0,183.0,183.0,2238.4,764.9000000000001,2249.0,1269.0,Animal_Sea_Pattern_Small,48.38762462488376,51.40483604185283,3.0,Animal_Sea_Pattern_Small,-5.0,-5.0,1.0,1.5163955830503255,,,,,,,,
encoding,attention,16,18206197,18209214,18207117.0,18207995.0,879.0,879.0,2324.8,779.0999999999999,2249.0,1269.0,Animal_Sea_Pattern_Small,48.38762462488376,51.40483604185283,3.0,Animal_Sea_Pattern_Small,-5.0,-5.0,1.0,1.5163955830503255,,,,,,,,
encoding,attention,16,18206197,18209214,18208223.0,18208535.0,313.0,313.0,2247.8,909.0,2249.0,1269.0,Animal_Sea_Pattern_Small,48.38762462488376,51.40483604185283,3.0,Animal_Sea_Pattern_Small,-5.0,-5.0,1.0,1.5163955830503255,,,,,,,,
encoding,attention,16,18206197,18209214,18208579.0,18208720.0,142.0,142.0,2261.5,733.5999999999999,2249.0,1269.0,Animal_Sea_Pattern_Small,48.38762462488376,51.40483604185283,3.0,Animal_Sea_Pattern_Small,-5.0,-5.0,1.0,1.5163955830503255,,,,,,,,
encoding,attention,16,18206197,18209214,18208730.0,18208940.0,211.0,211.0,2257.0,773.5999999999999,2249.0,1269.0,Animal_Sea_Pattern_Small,48.38762462488376,51.40483604185283,3.0,Animal_Sea_Pattern_Small,-5.0,-5.0,1.0,1.5163955830503255,,,,,,,,
encoding,fixation,17,18209214,18209971,18209494.0,18209581.0,88.0,88.0,2078.7,984.9000000000001,2249.0,1269.0,Animal_Sea_Pattern_Small,51.40499591687694,52.16147099994123,3.0,Animal_Sea_Solid_Large,2.0,,,,,,,,,,,
encoding,fixation,17,18209214,18209971,18209601.0,18210172.0,572.0,370.0,1955.3,1064.6,1920.0,1080.0,fixation,51.40499591687694,52.16147099994123,3.0,Animal_Sea_Solid_Large,2.0,,,,,,,,,,,
encoding,image,17,18209971,18210982,18210213.0,18210606.0,394.0,394.0,1622.3,1279.7,1591.0,891.0,Animal_Sea_Solid_Large,52.16157904197462,53.172581208869815,3.0,Animal_Sea_Solid_Large,2.0,,,,,,,,,,,
encoding,image,17,18209971,18210982,18210824.0,18211197.0,374.0,158.0,1609.0,1315.1,1591.0,891.0,Animal_Sea_Solid_Large,52.16157904197462,53.172581208869815,3.0,Animal_Sea_Solid_Large,2.0,,,,,,,,,,,
encoding,value,17,18210982,18216994,18211221.0,18211624.0,404.0,404.0,1603.5,1176.4,1591.0,891.0,Animal_Sea_Solid_Large,53.17268612491898,59.184538958827034,3.0,Animal_Sea_Solid_Large,2.0,,,,,,,,,,,
encoding,value,17,18210982,18216994,18211846.0,18211995.0,150.0,150.0,1637.2,1329.0,1591.0,891.0,Animal_Sea_Solid_Large,53.17268612491898,59.184538958827034,3.0,Animal_Sea_Solid_Large,2.0,,,,,,,,,,,
encoding,value,17,18210982,18216994,18212004.0,18212340.0,337.0,337.0,1597.1,1321.7,1591.0,891.0,Animal_Sea_Solid_Large,53.17268612491898,59.184538958827034,3.0,Animal_Sea_Solid_Large,2.0,,,,,,,,,,,
encoding,value,17,18210982,18216994,18212544.0,18212837.0,294.0,294.0,1604.4,1285.4,1591.0,891.0,Animal_Sea_Solid_Large,53.17268612491898,59.184538958827034,3.0,Animal_Sea_Solid_Large,2.0,,,,,,,,,,,
encoding,value,17,18210982,18216994,18212858.0,18213582.0,725.0,725.0,1600.0,1183.2,1591.0,891.0,Animal_Sea_Solid_Large,53.17268612491898,59.184538958827034,3.0,Animal_Sea_Solid_Large,2.0,,,,,,,,,,,
encoding,value,17,18210982,18216994,18213784.0,18213993.0,210.0,210.0,1630.4,1210.1,1591.0,891.0,Animal_Sea_Solid_Large,53.17268612491898,59.184538958827034,3.0,Animal_Sea_Solid_Large,2.0,,,,,,,,,,,
encoding,value,17,18210982,18216994,18214001.0,18214630.0,630.0,630.0,1612.7,1189.0,1591.0,891.0,Animal_Sea_Solid_Large,53.17268612491898,59.184538958827034,3.0,Animal_Sea_Solid_Large,2.0,,,,,,,,,,,
encoding,value,17,18210982,18216994,18214862.0,18215212.0,351.0,351.0,1613.3,1194.1,1591.0,891.0,Animal_Sea_Solid_Large,53.17268612491898,59.184538958827034,3.0,Animal_Sea_Solid_Large,2.0,,,,,,,,,,,
encoding,value,17,18210982,18216994,18215438.0,18215792.0,355.0,355.0,1608.3,1184.4,1591.0,891.0,Animal_Sea_Solid_Large,53.17268612491898,59.184538958827034,3.0,Animal_Sea_Solid_Large,2.0,,,,,,,,,,,
encoding,value,17,18210982,18216994,18215977.0,18215998.0,22.0,22.0,1569.6,1298.3,1591.0,891.0,Animal_Sea_Solid_Large,53.17268612491898,59.184538958827034,3.0,Animal_Sea_Solid_Large,2.0,,,,,,,,,,,
encoding,value,17,18210982,18216994,18216017.0,18217554.0,1538.0,977.0,1611.7,1188.3,1591.0,891.0,Animal_Sea_Solid_Large,53.17268612491898,59.184538958827034,3.0,Animal_Sea_Solid_Large,2.0,,,,,,,,,,,
encoding,attention,17,18216994,18220011,18217800.0,18218132.0,333.0,333.0,1627.4,1207.4,1591.0,891.0,Animal_Sea_Solid_Large,59.18464479199611,62.20191366691142,3.0,Animal_Sea_Solid_Large,2.0,2.0,1.0,0.8958300410304219,,,,,,,,
encoding,attention,17,18216994,18220011,18218410.0,18218560.0,151.0,151.0,1630.4,1285.4,1591.0,891.0,Animal_Sea_Solid_Large,59.18464479199611,62.20191366691142,3.0,Animal_Sea_Solid_Large,2.0,2.0,1.0,0.8958300410304219,,,,,,,,
encoding,attention,17,18216994,18220011,18218576.0,18218891.0,316.0,316.0,1606.4,1316.9,1591.0,891.0,Animal_Sea_Solid_Large,59.18464479199611,62.20191366691142,3.0,Animal_Sea_Solid_Large,2.0,2.0,1.0,0.8958300410304219,,,,,,,,
encoding,attention,17,18216994,18220011,18218937.0,18219179.0,243.0,243.0,1895.0,980.2,1920.0,1460.0,Animal_Land_Solid_Large,59.18464479199611,62.20191366691142,3.0,Animal_Sea_Solid_Large,2.0,2.0,1.0,0.8958300410304219,,,,,,,,
encoding,attention,17,18216994,18220011,18219210.0,18219814.0,605.0,605.0,1621.9,1183.9,1591.0,891.0,Animal_Sea_Solid_Large,59.18464479199611,62.20191366691142,3.0,Animal_Sea_Solid_Large,2.0,2.0,1.0,0.8958300410304219,,,,,,,,
encoding,fixation,18,18220012,18220518,18220408.0,18220723.0,316.0,110.0,1983.2,1132.4,2249.0,891.0,Object_Land_Pattern_Small,62.2020676669199,62.70835891691968,3.0,Animal_Land_Solid_Large,1.0,,,,,,,,,,,
encoding,image,18,18220518,18221529,18220753.0,18221448.0,696.0,696.0,1980.8,713.0,1920.0,1460.0,Animal_Land_Solid_Large,62.70845908392221,63.719499917002395,3.0,Animal_Land_Solid_Large,1.0,,,,,,,,,,,
encoding,image,18,18220518,18221529,18221467.0,18221743.0,277.0,62.0,1967.5,651.0999999999999,1920.0,1460.0,Animal_Land_Solid_Large,62.70845908392221,63.719499917002395,3.0,Animal_Land_Solid_Large,1.0,,,,,,,,,,,
encoding,value,18,18221529,18227542,18221758.0,18221907.0,150.0,150.0,1944.2,595.3,1920.0,1460.0,Animal_Land_Solid_Large,63.719612458953634,69.73169149993919,3.0,Animal_Land_Solid_Large,1.0,,,,,,,,,,,
encoding,value,18,18221529,18227542,18222137.0,18222223.0,87.0,87.0,1812.5,1220.6,1591.0,891.0,Animal_Sea_Solid_Large,63.719612458953634,69.73169149993919,3.0,Animal_Land_Solid_Large,1.0,,,,,,,,,,,
encoding,value,18,18221529,18227542,18222396.0,18222534.0,139.0,139.0,1963.8,1177.7,1920.0,700.0,Object_Sea_Pattern_Small,63.719612458953634,69.73169149993919,3.0,Animal_Land_Solid_Large,1.0,,,,,,,,,,,
encoding,value,18,18221529,18227542,18222731.0,18222868.0,138.0,138.0,2031.8,1112.8,2249.0,891.0,Object_Land_Pattern_Small,63.719612458953634,69.73169149993919,3.0,Animal_Land_Solid_Large,1.0,,,,,,,,,,,
encoding,value,18,18221529,18227542,18222915.0,18223143.0,229.0,229.0,1955.8,971.8,1920.0,1460.0,Animal_Land_Solid_Large,63.719612458953634,69.73169149993919,3.0,Animal_Land_Solid_Large,1.0,,,,,,,,,,,
encoding,value,18,18221529,18227542,18223162.0,18223341.0,180.0,180.0,1957.6,1030.6,1920.0,1080.0,fixation,63.719612458953634,69.73169149993919,3.0,Animal_Land_Solid_Large,1.0,,,,,,,,,,,
encoding,value,18,18221529,18227542,18223540.0,18223768.0,229.0,229.0,2123.9,1245.1,2249.0,891.0,Object_Land_Pattern_Small,63.719612458953634,69.73169149993919,3.0,Animal_Land_Solid_Large,1.0,,,,,,,,,,,
encoding,value,18,18221529,18227542,18223983.0,18224206.0,224.0,224.0,1963.3,653.4000000000001,1920.0,1460.0,Animal_Land_Solid_Large,63.719612458953634,69.73169149993919,3.0,Animal_Land_Solid_Large,1.0,,,,,,,,,,,
encoding,value,18,18221529,18227542,18224229.0,18224624.0,396.0,396.0,1970.1,710.2,1920.0,1460.0,Animal_Land_Solid_Large,63.719612458953634,69.73169149993919,3.0,Animal_Land_Solid_Large,1.0,,,,,,,,,,,
encoding,value,18,18221529,18227542,18224642.0,18224944.0,303.0,303.0,1987.6,704.2,1920.0,1460.0,Animal_Land_Solid_Large,63.719612458953634,69.73169149993919,3.0,Animal_Land_Solid_Large,1.0,,,,,,,,,,,
encoding,value,18,18221529,18227542,18225138.0,18225269.0,132.0,132.0,1977.1,787.9000000000001,1920.0,1460.0,Animal_Land_Solid_Large,63.719612458953634,69.73169149993919,3.0,Animal_Land_Solid_Large,1.0,,,,,,,,,,,
encoding,value,18,18221529,18227542,18225290.0,18225950.0,661.0,661.0,1981.1,695.5999999999999,1920.0,1460.0,Animal_Land_Solid_Large,63.719612458953634,69.73169149993919,3.0,Animal_Land_Solid_Large,1.0,,,,,,,,,,,
encoding,value,18,18221529,18227542,18225972.0,18226492.0,521.0,521.0,1952.7,597.4000000000001,1920.0,1460.0,Animal_Land_Solid_Large,63.719612458953634,69.73169149993919,3.0,Animal_Land_Solid_Large,1.0,,,,,,,,,,,
encoding,value,18,18221529,18227542,18226515.0,18226909.0,395.0,395.0,1974.5,714.8,1920.0,1460.0,Animal_Land_Solid_Large,63.719612458953634,69.73169149993919,3.0,Animal_Land_Solid_Large,1.0,,,,,,,,,,,
encoding,value,18,18221529,18227542,18227073.0,18227109.0,37.0,37.0,1887.8,695.4000000000001,1920.0,1460.0,Animal_Land_Solid_Large,63.719612458953634,69.73169149993919,3.0,Animal_Land_Solid_Large,1.0,,,,,,,,,,,
encoding,value,18,18221529,18227542,18227116.0,18227460.0,345.0,345.0,1958.0,673.3,1920.0,1460.0,Animal_Land_Solid_Large,63.719612458953634,69.73169149993919,3.0,Animal_Land_Solid_Large,1.0,,,,,,,,,,,
encoding,value,18,18221529,18227542,18227473.0,18227785.0,313.0,69.0,1948.7,609.8,1920.0,1460.0,Animal_Land_Solid_Large,63.719612458953634,69.73169149993919,3.0,Animal_Land_Solid_Large,1.0,,,,,,,,,,,
encoding,attention,18,18227542,18230554,18227795.0,18228009.0,215.0,215.0,1909.2,580.3,1920.0,1460.0,Animal_Land_Solid_Large,69.73179970891215,72.74431287497282,3.0,Animal_Land_Solid_Large,1.0,,,,,,,,,,,
encoding,attention,18,18227542,18230554,18228021.0,18228235.0,215.0,215.0,1978.1,580.3,1920.0,1460.0,Animal_Land_Solid_Large,69.73179970891215,72.74431287497282,3.0,Animal_Land_Solid_Large,1.0,,,,,,,,,,,
encoding,attention,18,18227542,18230554,18228445.0,18228569.0,125.0,125.0,1948.8,638.0,1920.0,1460.0,Animal_Land_Solid_Large,69.73179970891215,72.74431287497282,3.0,Animal_Land_Solid_Large,1.0,,,,,,,,,,,
encoding,attention,18,18227542,18230554,18228798.0,18228958.0,161.0,161.0,1989.8,641.8,1920.0,1460.0,Animal_Land_Solid_Large,69.73179970891215,72.74431287497282,3.0,Animal_Land_Solid_Large,1.0,,,,,,,,,,,
encoding,attention,18,18227542,18230554,18228972.0,18229610.0,639.0,639.0,1991.9,585.3,1920.0,1460.0,Animal_Land_Solid_Large,69.73179970891215,72.74431287497282,3.0,Animal_Land_Solid_Large,1.0,,,,,,,,,,,
encoding,attention,18,18227542,18230554,18229787.0,18230363.0,577.0,577.0,1976.9,620.7,1920.0,1460.0,Animal_Land_Solid_Large,69.73179970891215,72.74431287497282,3.0,Animal_Land_Solid_Large,1.0,,,,,,,,,,,
encoding,fixation,19,18590574,18591330,18590621.0,18590899.0,279.0,279.0,1943.2,1104.8,1920.0,1080.0,fixation,6.493285417091101,7.248608167050406,4.0,Object_Land_Solid_Small,1.0,,,,,,,,,,,
encoding,fixation,19,18590574,18591330,18591116.0,18591548.0,433.0,214.0,1920.3,1267.7,1920.0,700.0,Animal_Land_Solid_Small,6.493285417091101,7.248608167050406,4.0,Object_Land_Solid_Small,1.0,,,,,,,,,,,
encoding,image,19,18591330,18592342,18591578.0,18591682.0,105.0,105.0,1989.2,1029.1,2249.0,1269.0,Object_Land_Solid_Small,7.248735875124112,8.260737958131358,4.0,Object_Land_Solid_Small,1.0,,,,,,,,,,,
encoding,image,19,18591330,18592342,18591712.0,18592057.0,346.0,346.0,2243.6,903.9000000000001,2249.0,1269.0,Object_Land_Solid_Small,7.248735875124112,8.260737958131358,4.0,Object_Land_Solid_Small,1.0,,,,,,,,,,,
encoding,image,19,18591330,18592342,18592067.0,18592546.0,480.0,275.0,2285.3,869.5,2249.0,1269.0,Object_Land_Solid_Small,7.248735875124112,8.260737958131358,4.0,Object_Land_Solid_Small,1.0,,,,,,,,,,,
encoding,value,19,18592342,18598356,18592565.0,18592693.0,129.0,129.0,2287.0,776.4000000000001,2249.0,1269.0,Object_Land_Solid_Small,8.260855625150725,14.274996374966577,4.0,Object_Land_Solid_Small,1.0,,,,,,,,,,,
encoding,value,19,18592342,18598356,18592869.0,18594978.0,2110.0,2110.0,2161.8,892.0,2249.0,1269.0,Object_Land_Solid_Small,8.260855625150725,14.274996374966577,4.0,Object_Land_Solid_Small,1.0,,,,,,,,,,,
encoding,value,19,18592342,18598356,18595117.0,18595778.0,662.0,662.0,2195.1,910.8,2249.0,1269.0,Object_Land_Solid_Small,8.260855625150725,14.274996374966577,4.0,Object_Land_Solid_Small,1.0,,,,,,,,,,,
encoding,value,19,18592342,18598356,18595798.0,18596086.0,289.0,289.0,2238.1,842.9000000000001,2249.0,1269.0,Object_Land_Solid_Small,8.260855625150725,14.274996374966577,4.0,Object_Land_Solid_Small,1.0,,,,,,,,,,,
encoding,value,19,18592342,18598356,18596285.0,18596755.0,471.0,471.0,2238.3,856.7,2249.0,1269.0,Object_Land_Solid_Small,8.260855625150725,14.274996374966577,4.0,Object_Land_Solid_Small,1.0,,,,,,,,,,,
encoding,value,19,18592342,18598356,18596776.0,18597275.0,500.0,500.0,2081.7,939.5,2249.0,1269.0,Object_Land_Solid_Small,8.260855625150725,14.274996374966577,4.0,Object_Land_Solid_Small,1.0,,,,,,,,,,,
encoding,value,19,18592342,18598356,18597300.0,18598249.0,950.0,950.0,2259.0,838.3,2249.0,1269.0,Object_Land_Solid_Small,8.260855625150725,14.274996374966577,4.0,Object_Land_Solid_Small,1.0,,,,,,,,,,,
encoding,attention,19,18598356,18601376,18598415.0,18598656.0,242.0,242.0,2217.7,915.2,2249.0,1269.0,Object_Land_Solid_Small,14.275129083078356,17.2945919171907,4.0,Object_Land_Solid_Small,1.0,1.0,1.0,2.171705459011718,,,,,,,,
encoding,attention,19,18598356,18601376,18598679.0,18598829.0,151.0,151.0,2263.9,756.0999999999999,2249.0,1269.0,Object_Land_Solid_Small,14.275129083078356,17.2945919171907,4.0,Object_Land_Solid_Small,1.0,1.0,1.0,2.171705459011718,,,,,,,,
encoding,attention,19,18598356,18601376,18598838.0,18599011.0,174.0,174.0,2311.3,764.3,2249.0,1269.0,Object_Land_Solid_Small,14.275129083078356,17.2945919171907,4.0,Object_Land_Solid_Small,1.0,1.0,1.0,2.171705459011718,,,,,,,,
encoding,attention,19,18598356,18601376,18599019.0,18599720.0,702.0,702.0,2242.0,771.8,2249.0,1269.0,Object_Land_Solid_Small,14.275129083078356,17.2945919171907,4.0,Object_Land_Solid_Small,1.0,1.0,1.0,2.171705459011718,,,,,,,,
encoding,attention,19,18598356,18601376,18599916.0,18599951.0,36.0,36.0,2218.6,847.9000000000001,2249.0,1269.0,Object_Land_Solid_Small,14.275129083078356,17.2945919171907,4.0,Object_Land_Solid_Small,1.0,1.0,1.0,2.171705459011718,,,,,,,,
encoding,attention,19,18598356,18601376,18600174.0,18600329.0,156.0,156.0,2232.4,753.0999999999999,2249.0,1269.0,Object_Land_Solid_Small,14.275129083078356,17.2945919171907,4.0,Object_Land_Solid_Small,1.0,1.0,1.0,2.171705459011718,,,,,,,,
encoding,attention,19,18598356,18601376,18600336.0,18600816.0,481.0,481.0,2235.7,772.9000000000001,2249.0,1269.0,Object_Land_Solid_Small,14.275129083078356,17.2945919171907,4.0,Object_Land_Solid_Small,1.0,1.0,1.0,2.171705459011718,,,,,,,,
encoding,attention,19,18598356,18601376,18601023.0,18601064.0,42.0,42.0,2162.7,961.4000000000001,2249.0,1269.0,Object_Land_Solid_Small,14.275129083078356,17.2945919171907,4.0,Object_Land_Solid_Small,1.0,1.0,1.0,2.171705459011718,,,,,,,,
encoding,fixation,20,18601376,18602381,18601796.0,18602094.0,299.0,299.0,1910.8,1111.0,1920.0,1080.0,fixation,17.29473645798862,18.2999843750149,4.0,Animal_Land_Pattern_Small,-3.0,,,,,,,,,,,
encoding,fixation,20,18601376,18602381,18602109.0,18602301.0,193.0,193.0,1952.7,1077.1,1920.0,1080.0,fixation,17.29473645798862,18.2999843750149,4.0,Animal_Land_Pattern_Small,-3.0,,,,,,,,,,,
encoding,image,20,18602381,18603393,18602505.0,18602652.0,148.0,148.0,1964.7,1096.8,1920.0,1080.0,fixation,18.30010141711682,19.31197450007312,4.0,Animal_Land_Pattern_Small,-3.0,,,,,,,,,,,
encoding,image,20,18602381,18603393,18602687.0,18602986.0,300.0,300.0,1624.7,914.4000000000001,1591.0,1269.0,Animal_Land_Pattern_Small,18.30010141711682,19.31197450007312,4.0,Animal_Land_Pattern_Small,-3.0,,,,,,,,,,,
encoding,image,20,18602381,18603393,18602996.0,18603597.0,602.0,397.0,1671.0,899.0999999999999,1591.0,1269.0,Animal_Land_Pattern_Small,18.30010141711682,19.31197450007312,4.0,Animal_Land_Pattern_Small,-3.0,,,,,,,,,,,
encoding,value,20,18603393,18609406,18603616.0,18603793.0,178.0,178.0,1656.3,787.3,1591.0,1269.0,Animal_Land_Pattern_Small,19.312122958013788,25.324278583051637,4.0,Animal_Land_Pattern_Small,-3.0,,,,,,,,,,,
encoding,value,20,18603393,18609406,18604300.0,18605840.0,1541.0,1541.0,1646.6,899.8,1591.0,1269.0,Animal_Land_Pattern_Small,19.312122958013788,25.324278583051637,4.0,Animal_Land_Pattern_Small,-3.0,,,,,,,,,,,
encoding,value,20,18603393,18609406,18606083.0,18606237.0,155.0,155.0,1654.6,859.3,1591.0,1269.0,Animal_Land_Pattern_Small,19.312122958013788,25.324278583051637,4.0,Animal_Land_Pattern_Small,-3.0,,,,,,,,,,,
encoding,value,20,18603393,18609406,18606254.0,18606621.0,368.0,368.0,1645.6,796.8,1591.0,1269.0,Animal_Land_Pattern_Small,19.312122958013788,25.324278583051637,4.0,Animal_Land_Pattern_Small,-3.0,,,,,,,,,,,
encoding,value,20,18603393,18609406,18606643.0,18606997.0,355.0,355.0,1626.3,904.4000000000001,1591.0,1269.0,Animal_Land_Pattern_Small,19.312122958013788,25.324278583051637,4.0,Animal_Land_Pattern_Small,-3.0,,,,,,,,,,,
encoding,value,20,18603393,18609406,18607253.0,18607886.0,634.0,634.0,1650.1,862.4000000000001,1591.0,1269.0,Animal_Land_Pattern_Small,19.312122958013788,25.324278583051637,4.0,Animal_Land_Pattern_Small,-3.0,,,,,,,,,,,
encoding,value,20,18603393,18609406,18608107.0,18608128.0,22.0,22.0,1594.5,1027.1,1591.0,1269.0,Animal_Land_Pattern_Small,19.312122958013788,25.324278583051637,4.0,Animal_Land_Pattern_Small,-3.0,,,,,,,,,,,
encoding,value,20,18603393,18609406,18608150.0,18608511.0,362.0,362.0,1638.9,910.4000000000001,1591.0,1269.0,Animal_Land_Pattern_Small,19.312122958013788,25.324278583051637,4.0,Animal_Land_Pattern_Small,-3.0,,,,,,,,,,,
encoding,value,20,18603393,18609406,18608524.0,18608769.0,246.0,246.0,1659.6,878.0,1591.0,1269.0,Animal_Land_Pattern_Small,19.312122958013788,25.324278583051637,4.0,Animal_Land_Pattern_Small,-3.0,,,,,,,,,,,
encoding,value,20,18603393,18609406,18608789.0,18609636.0,848.0,617.0,1631.3,785.2,1591.0,1269.0,Animal_Land_Pattern_Small,19.312122958013788,25.324278583051637,4.0,Animal_Land_Pattern_Small,-3.0,,,,,,,,,,,
encoding,attention,20,18609406,18612425,18609646.0,18609795.0,150.0,150.0,1682.8,772.4000000000001,1591.0,1269.0,Animal_Land_Pattern_Small,25.324397332966328,28.343280875124037,4.0,Animal_Land_Pattern_Small,-3.0,-3.0,1.0,0.8132862080819905,,,,,,,,
encoding,attention,20,18609406,18612425,18609810.0,18609947.0,138.0,138.0,1580.5,802.4000000000001,1591.0,1269.0,Animal_Land_Pattern_Small,25.324397332966328,28.343280875124037,4.0,Animal_Land_Pattern_Small,-3.0,-3.0,1.0,0.8132862080819905,,,,,,,,
encoding,attention,20,18609406,18612425,18610205.0,18610490.0,286.0,286.0,1592.8,843.9000000000001,1591.0,1269.0,Animal_Land_Pattern_Small,25.324397332966328,28.343280875124037,4.0,Animal_Land_Pattern_Small,-3.0,-3.0,1.0,0.8132862080819905,,,,,,,,
encoding,attention,20,18609406,18612425,18610783.0,18610908.0,126.0,126.0,1671.2,934.8,1591.0,1269.0,Animal_Land_Pattern_Small,25.324397332966328,28.343280875124037,4.0,Animal_Land_Pattern_Small,-3.0,-3.0,1.0,0.8132862080819905,,,,,,,,
encoding,attention,20,18609406,18612425,18611138.0,18611287.0,150.0,150.0,2011.3,976.9000000000001,2249.0,1269.0,Object_Land_Solid_Small,25.324397332966328,28.343280875124037,4.0,Animal_Land_Pattern_Small,-3.0,-3.0,1.0,0.8132862080819905,,,,,,,,
encoding,attention,20,18609406,18612425,18611310.0,18611624.0,315.0,315.0,2250.4,957.0,2249.0,1269.0,Object_Land_Solid_Small,25.324397332966328,28.343280875124037,4.0,Animal_Land_Pattern_Small,-3.0,-3.0,1.0,0.8132862080819905,,,,,,,,
encoding,attention,20,18609406,18612425,18611674.0,18611890.0,217.0,217.0,1692.4,887.5,1591.0,1269.0,Animal_Land_Pattern_Small,25.324397332966328,28.343280875124037,4.0,Animal_Land_Pattern_Small,-3.0,-3.0,1.0,0.8132862080819905,,,,,,,,
encoding,attention,20,18609406,18612425,18611899.0,18612210.0,312.0,312.0,1634.4,885.8,1591.0,1269.0,Animal_Land_Pattern_Small,25.324397332966328,28.343280875124037,4.0,Animal_Land_Pattern_Small,-3.0,-3.0,1.0,0.8132862080819905,,,,,,,,
encoding,fixation,21,18612425,18612931,18612754.0,18612911.0,158.0,158.0,1962.0,1117.6,1920.0,1080.0,fixation,28.343427458079532,28.84859766718,4.0,Animal_Land_Solid_Small,3.0,,,,,,,,,,,
encoding,fixation,21,18612425,18612931,18612926.0,18613070.0,145.0,5.0,1974.7,1042.7,1920.0,1080.0,fixation,28.343427458079532,28.84859766718,4.0,Animal_Land_Solid_Small,3.0,,,,,,,,,,,
encoding,image,21,18612931,18613941,18613083.0,18613216.0,134.0,134.0,1952.3,1091.8,1920.0,1080.0,fixation,28.848757833009586,29.85941066709347,4.0,Animal_Land_Solid_Small,3.0,,,,,,,,,,,
encoding,image,21,18612931,18613941,18613250.0,18613512.0,263.0,263.0,1934.0,1450.7,1920.0,700.0,Animal_Land_Solid_Small,28.848757833009586,29.85941066709347,4.0,Animal_Land_Solid_Small,3.0,,,,,,,,,,,
encoding,image,21,18612931,18613941,18613526.0,18613819.0,294.0,294.0,1969.1,1509.6,1920.0,700.0,Animal_Land_Solid_Small,28.848757833009586,29.85941066709347,4.0,Animal_Land_Solid_Small,3.0,,,,,,,,,,,
encoding,value,21,18613941,18619956,18613986.0,18614218.0,233.0,233.0,1911.0,1461.1,1920.0,700.0,Animal_Land_Solid_Small,29.859520375030115,35.873635333031416,4.0,Animal_Land_Solid_Small,3.0,,,,,,,,,,,
encoding,value,21,18613941,18619956,18614235.0,18614355.0,121.0,121.0,1940.9,1384.4,1920.0,700.0,Animal_Land_Solid_Small,29.859520375030115,35.873635333031416,4.0,Animal_Land_Solid_Small,3.0,,,,,,,,,,,
encoding,value,21,18613941,18619956,18614518.0,18614582.0,65.0,65.0,1945.2,1459.0,1920.0,700.0,Animal_Land_Solid_Small,29.859520375030115,35.873635333031416,4.0,Animal_Land_Solid_Small,3.0,,,,,,,,,,,
encoding,value,21,18613941,18619956,18614751.0,18615749.0,999.0,999.0,1968.2,1506.7,1920.0,700.0,Animal_Land_Solid_Small,29.859520375030115,35.873635333031416,4.0,Animal_Land_Solid_Small,3.0,,,,,,,,,,,
encoding,value,21,18613941,18619956,18615907.0,18617628.0,1722.0,1722.0,1931.2,1382.3,1920.0,700.0,Animal_Land_Solid_Small,29.859520375030115,35.873635333031416,4.0,Animal_Land_Solid_Small,3.0,,,,,,,,,,,
encoding,value,21,18613941,18619956,18617781.0,18618593.0,813.0,813.0,1939.1,1376.8,1920.0,700.0,Animal_Land_Solid_Small,29.859520375030115,35.873635333031416,4.0,Animal_Land_Solid_Small,3.0,,,,,,,,,,,
encoding,value,21,18613941,18619956,18618757.0,18618939.0,183.0,183.0,1943.1,1407.2,1920.0,700.0,Animal_Land_Solid_Small,29.859520375030115,35.873635333031416,4.0,Animal_Land_Solid_Small,3.0,,,,,,,,,,,
encoding,value,21,18613941,18619956,18618950.0,18619845.0,896.0,896.0,1927.3,1380.6,1920.0,700.0,Animal_Land_Solid_Small,29.859520375030115,35.873635333031416,4.0,Animal_Land_Solid_Small,3.0,,,,,,,,,,,
encoding,attention,21,18619956,18622974,18620026.0,18620175.0,150.0,150.0,1942.5,1457.3,1920.0,700.0,Animal_Land_Solid_Small,35.87373845814727,38.89141954202205,4.0,Animal_Land_Solid_Small,3.0,3.0,1.0,1.1185817499645054,,,,,,,,
encoding,attention,21,18619956,18622974,18620341.0,18620424.0,84.0,84.0,1901.8,1400.3,1920.0,700.0,Animal_Land_Solid_Small,35.87373845814727,38.89141954202205,4.0,Animal_Land_Solid_Small,3.0,3.0,1.0,1.1185817499645054,,,,,,,,
encoding,attention,21,18619956,18622974,18620436.0,18621370.0,935.0,935.0,1974.1,1375.1,1920.0,700.0,Animal_Land_Solid_Small,35.87373845814727,38.89141954202205,4.0,Animal_Land_Solid_Small,3.0,3.0,1.0,1.1185817499645054,,,,,,,,
encoding,attention,21,18619956,18622974,18621547.0,18621722.0,176.0,176.0,1927.6,1414.5,1920.0,700.0,Animal_Land_Solid_Small,35.87373845814727,38.89141954202205,4.0,Animal_Land_Solid_Small,3.0,3.0,1.0,1.1185817499645054,,,,,,,,
encoding,attention,21,18619956,18622974,18621909.0,18622061.0,153.0,153.0,1911.0,1254.9,1920.0,700.0,Animal_Land_Solid_Small,35.87373845814727,38.89141954202205,4.0,Animal_Land_Solid_Small,3.0,3.0,1.0,1.1185817499645054,,,,,,,,
encoding,attention,21,18619956,18622974,18622257.0,18622294.0,38.0,38.0,1860.0,1272.0,1920.0,700.0,Animal_Land_Solid_Small,35.87373845814727,38.89141954202205,4.0,Animal_Land_Solid_Small,3.0,3.0,1.0,1.1185817499645054,,,,,,,,
encoding,fixation,22,18622974,18623479,18623302.0,18623389.0,88.0,88.0,1946.6,1111.8,1920.0,1080.0,fixation,38.891572333173826,39.39657645812258,4.0,Object_Sea_Pattern_Large,8.0,,,,,,,,,,,
encoding,image,22,18623479,18624490,18623568.0,18623762.0,195.0,195.0,1941.0,1135.4,1920.0,1080.0,fixation,39.39668512507342,40.407884708140045,4.0,Object_Sea_Pattern_Large,8.0,,,,,,,,,,,
encoding,image,22,18623479,18624490,18623802.0,18624209.0,408.0,408.0,1606.2,1262.0,1591.0,891.0,Object_Sea_Pattern_Large,39.39668512507342,40.407884708140045,4.0,Object_Sea_Pattern_Large,8.0,,,,,,,,,,,
encoding,image,22,18623479,18624490,18624222.0,18624440.0,219.0,219.0,1627.9,1205.5,1591.0,891.0,Object_Sea_Pattern_Large,39.39668512507342,40.407884708140045,4.0,Object_Sea_Pattern_Large,8.0,,,,,,,,,,,
encoding,image,22,18623479,18624490,18624458.0,18624671.0,214.0,32.0,1644.3,1123.5,1591.0,891.0,Object_Sea_Pattern_Large,39.39668512507342,40.407884708140045,4.0,Object_Sea_Pattern_Large,8.0,,,,,,,,,,,
encoding,value,22,18624491,18630502,18624687.0,18624991.0,305.0,305.0,1624.9,1179.8,1591.0,891.0,Object_Sea_Pattern_Large,40.40799820818938,46.41953829210251,4.0,Object_Sea_Pattern_Large,8.0,,,,,,,,,,,
encoding,value,22,18624491,18630502,18625178.0,18625225.0,48.0,48.0,1651.9,1280.6,1591.0,891.0,Object_Sea_Pattern_Large,40.40799820818938,46.41953829210251,4.0,Object_Sea_Pattern_Large,8.0,,,,,,,,,,,
encoding,value,22,18624491,18630502,18625406.0,18625634.0,229.0,229.0,1690.7,1350.9,1591.0,891.0,Object_Sea_Pattern_Large,40.40799820818938,46.41953829210251,4.0,Object_Sea_Pattern_Large,8.0,,,,,,,,,,,
encoding,value,22,18624491,18630502,18625669.0,18625907.0,239.0,239.0,1863.7,1436.5,1920.0,700.0,Animal_Land_Solid_Small,40.40799820818938,46.41953829210251,4.0,Object_Sea_Pattern_Large,8.0,,,,,,,,,,,
encoding,value,22,18624491,18630502,18625931.0,18626136.0,206.0,206.0,1730.6,1227.9,1591.0,891.0,Object_Sea_Pattern_Large,40.40799820818938,46.41953829210251,4.0,Object_Sea_Pattern_Large,8.0,,,,,,,,,,,
encoding,value,22,18624491,18630502,18626152.0,18626558.0,407.0,407.0,1617.4,1187.7,1591.0,891.0,Object_Sea_Pattern_Large,40.40799820818938,46.41953829210251,4.0,Object_Sea_Pattern_Large,8.0,,,,,,,,,,,
encoding,value,22,18624491,18630502,18626596.0,18626853.0,258.0,258.0,1836.9,1124.7,1591.0,891.0,Object_Sea_Pattern_Large,40.40799820818938,46.41953829210251,4.0,Object_Sea_Pattern_Large,8.0,,,,,,,,,,,
encoding,value,22,18624491,18630502,18626888.0,18627491.0,604.0,604.0,1622.9,1201.3,1591.0,891.0,Object_Sea_Pattern_Large,40.40799820818938,46.41953829210251,4.0,Object_Sea_Pattern_Large,8.0,,,,,,,,,,,
encoding,value,22,18624491,18630502,18627513.0,18627713.0,201.0,201.0,1804.8,1164.6,1591.0,891.0,Object_Sea_Pattern_Large,40.40799820818938,46.41953829210251,4.0,Object_Sea_Pattern_Large,8.0,,,,,,,,,,,
encoding,value,22,18624491,18630502,18627736.0,18628262.0,527.0,527.0,1605.9,1198.3,1591.0,891.0,Object_Sea_Pattern_Large,40.40799820818938,46.41953829210251,4.0,Object_Sea_Pattern_Large,8.0,,,,,,,,,,,
encoding,value,22,18624491,18630502,18628448.0,18629018.0,571.0,571.0,1616.1,1190.5,1591.0,891.0,Object_Sea_Pattern_Large,40.40799820818938,46.41953829210251,4.0,Object_Sea_Pattern_Large,8.0,,,,,,,,,,,
encoding,value,22,18624491,18630502,18629232.0,18629617.0,386.0,386.0,1622.5,1215.2,1591.0,891.0,Object_Sea_Pattern_Large,40.40799820818938,46.41953829210251,4.0,Object_Sea_Pattern_Large,8.0,,,,,,,,,,,
encoding,value,22,18624491,18630502,18629627.0,18629826.0,200.0,200.0,1621.5,1182.8,1591.0,891.0,Object_Sea_Pattern_Large,40.40799820818938,46.41953829210251,4.0,Object_Sea_Pattern_Large,8.0,,,,,,,,,,,
encoding,value,22,18624491,18630502,18630046.0,18630831.0,786.0,456.0,1610.1,1190.7,1591.0,891.0,Object_Sea_Pattern_Large,40.40799820818938,46.41953829210251,4.0,Object_Sea_Pattern_Large,8.0,,,,,,,,,,,
encoding,attention,22,18630502,18633519,18630842.0,18631750.0,909.0,909.0,1657.5,1184.6,1591.0,891.0,Object_Sea_Pattern_Large,46.419694708194584,49.43663700018078,4.0,Object_Sea_Pattern_Large,8.0,8.0,1.0,0.992249583825469,,,,,,,,
encoding,attention,22,18630502,18633519,18631961.0,18632006.0,46.0,46.0,1683.9,1210.6,1591.0,891.0,Object_Sea_Pattern_Large,46.419694708194584,49.43663700018078,4.0,Object_Sea_Pattern_Large,8.0,8.0,1.0,0.992249583825469,,,,,,,,
encoding,attention,22,18630502,18633519,18632189.0,18632309.0,121.0,121.0,1697.8,1242.7,1591.0,891.0,Object_Sea_Pattern_Large,46.419694708194584,49.43663700018078,4.0,Object_Sea_Pattern_Large,8.0,8.0,1.0,0.992249583825469,,,,,,,,
encoding,attention,22,18630502,18633519,18632328.0,18633089.0,762.0,762.0,1656.3,1176.6,1591.0,891.0,Object_Sea_Pattern_Large,46.419694708194584,49.43663700018078,4.0,Object_Sea_Pattern_Large,8.0,8.0,1.0,0.992249583825469,,,,,,,,
encoding,attention,22,18630502,18633519,18633247.0,18633269.0,23.0,23.0,1645.1,1225.6,1591.0,891.0,Object_Sea_Pattern_Large,46.419694708194584,49.43663700018078,4.0,Object_Sea_Pattern_Large,8.0,8.0,1.0,0.992249583825469,,,,,,,,
encoding,fixation,23,18633520,18635026,18634203.0,18634343.0,141.0,141.0,1870.4,1155.9,1591.0,891.0,Object_Sea_Pattern_Large,49.43683887505904,50.9431854581926,4.0,Object_Sea_Solid_Large,-3.0,,,,,,,,,,,
encoding,fixation,23,18633520,18635026,18634360.0,18635290.0,931.0,666.0,1956.7,1087.0,1920.0,1080.0,fixation,49.43683887505904,50.9431854581926,4.0,Object_Sea_Solid_Large,-3.0,,,,,,,,,,,
encoding,image,23,18635026,18636039,18635326.0,18635561.0,236.0,236.0,1973.2,655.3,1920.0,1460.0,Object_Sea_Solid_Large,50.9432947919704,51.95554312504828,4.0,Object_Sea_Solid_Large,-3.0,,,,,,,,,,,
encoding,image,23,18635026,18636039,18635787.0,18635971.0,185.0,185.0,1979.5,743.4000000000001,1920.0,1460.0,Object_Sea_Solid_Large,50.9432947919704,51.95554312504828,4.0,Object_Sea_Solid_Large,-3.0,,,,,,,,,,,
encoding,image,23,18635026,18636039,18635982.0,18636237.0,256.0,57.0,1971.6,691.4000000000001,1920.0,1460.0,Object_Sea_Solid_Large,50.9432947919704,51.95554312504828,4.0,Object_Sea_Solid_Large,-3.0,,,,,,,,,,,
encoding,value,23,18636039,18642051,18636256.0,18636603.0,348.0,348.0,1973.2,584.7,1920.0,1460.0,Object_Sea_Solid_Large,51.9556601671502,57.96768166706897,4.0,Object_Sea_Solid_Large,-3.0,,,,,,,,,,,
encoding,value,23,18636039,18642051,18637100.0,18637113.0,14.0,14.0,1890.9,778.2,1920.0,1460.0,Object_Sea_Solid_Large,51.9556601671502,57.96768166706897,4.0,Object_Sea_Solid_Large,-3.0,,,,,,,,,,,
encoding,value,23,18636039,18642051,18637135.0,18637799.0,665.0,665.0,1964.7,696.3,1920.0,1460.0,Object_Sea_Solid_Large,51.9556601671502,57.96768166706897,4.0,Object_Sea_Solid_Large,-3.0,,,,,,,,,,,
encoding,value,23,18636039,18642051,18637820.0,18638129.0,310.0,310.0,1971.5,584.9000000000001,1920.0,1460.0,Object_Sea_Solid_Large,51.9556601671502,57.96768166706897,4.0,Object_Sea_Solid_Large,-3.0,,,,,,,,,,,
encoding,value,23,18636039,18642051,18638301.0,18638530.0,230.0,230.0,2164.7,845.5,2249.0,1269.0,Object_Land_Solid_Small,51.9556601671502,57.96768166706897,4.0,Object_Sea_Solid_Large,-3.0,,,,,,,,,,,
encoding,value,23,18636039,18642051,18638573.0,18639017.0,445.0,445.0,1958.0,633.5999999999999,1920.0,1460.0,Object_Sea_Solid_Large,51.9556601671502,57.96768166706897,4.0,Object_Sea_Solid_Large,-3.0,,,,,,,,,,,
encoding,value,23,18636039,18642051,18639218.0,18639507.0,290.0,290.0,1972.7,672.5,1920.0,1460.0,Object_Sea_Solid_Large,51.9556601671502,57.96768166706897,4.0,Object_Sea_Solid_Large,-3.0,,,,,,,,,,,
encoding,value,23,18636039,18642051,18639696.0,18639825.0,130.0,130.0,2098.4,726.3,1920.0,1460.0,Object_Sea_Solid_Large,51.9556601671502,57.96768166706897,4.0,Object_Sea_Solid_Large,-3.0,,,,,,,,,,,
encoding,value,23,18636039,18642051,18639846.0,18640233.0,388.0,388.0,1958.2,600.7,1920.0,1460.0,Object_Sea_Solid_Large,51.9556601671502,57.96768166706897,4.0,Object_Sea_Solid_Large,-3.0,,,,,,,,,,,
encoding,value,23,18636039,18642051,18640258.0,18640573.0,316.0,316.0,1948.5,678.8,1920.0,1460.0,Object_Sea_Solid_Large,51.9556601671502,57.96768166706897,4.0,Object_Sea_Solid_Large,-3.0,,,,,,,,,,,
encoding,value,23,18636039,18642051,18640584.0,18640814.0,231.0,231.0,2035.0,659.5999999999999,1920.0,1460.0,Object_Sea_Solid_Large,51.9556601671502,57.96768166706897,4.0,Object_Sea_Solid_Large,-3.0,,,,,,,,,,,
encoding,value,23,18636039,18642051,18640829.0,18641194.0,366.0,366.0,1963.9,599.0999999999999,1920.0,1460.0,Object_Sea_Solid_Large,51.9556601671502,57.96768166706897,4.0,Object_Sea_Solid_Large,-3.0,,,,,,,,,,,
encoding,value,23,18636039,18642051,18641471.0,18642007.0,537.0,537.0,1957.4,635.7,1920.0,1460.0,Object_Sea_Solid_Large,51.9556601671502,57.96768166706897,4.0,Object_Sea_Solid_Large,-3.0,,,,,,,,,,,
encoding,value,23,18636039,18642051,18642020.0,18642537.0,518.0,31.0,1979.3,580.4000000000001,1920.0,1460.0,Object_Sea_Solid_Large,51.9556601671502,57.96768166706897,4.0,Object_Sea_Solid_Large,-3.0,,,,,,,,,,,
encoding,attention,23,18642051,18645071,18642737.0,18643116.0,380.0,380.0,2005.9,613.8,1920.0,1460.0,Object_Sea_Solid_Large,57.96779916714877,60.98779729218222,4.0,Object_Sea_Solid_Large,-3.0,-3.0,1.0,1.1527692079544067,,,,,,,,
encoding,attention,23,18642051,18645071,18643125.0,18643510.0,386.0,386.0,1999.4,572.5999999999999,1920.0,1460.0,Object_Sea_Solid_Large,57.96779916714877,60.98779729218222,4.0,Object_Sea_Solid_Large,-3.0,-3.0,1.0,1.1527692079544067,,,,,,,,
encoding,attention,23,18642051,18645071,18643729.0,18643866.0,138.0,138.0,1956.6,732.0,1920.0,1460.0,Object_Sea_Solid_Large,57.96779916714877,60.98779729218222,4.0,Object_Sea_Solid_Large,-3.0,-3.0,1.0,1.1527692079544067,,,,,,,,
encoding,attention,23,18642051,18645071,18644044.0,18644122.0,79.0,79.0,2017.2,823.4000000000001,1920.0,1460.0,Object_Sea_Solid_Large,57.96779916714877,60.98779729218222,4.0,Object_Sea_Solid_Large,-3.0,-3.0,1.0,1.1527692079544067,,,,,,,,
encoding,attention,23,18642051,18645071,18644139.0,18644481.0,343.0,343.0,2142.2,832.5,2249.0,1269.0,Object_Land_Solid_Small,57.96779916714877,60.98779729218222,4.0,Object_Sea_Solid_Large,-3.0,-3.0,1.0,1.1527692079544067,,,,,,,,
encoding,attention,23,18642051,18645071,18644522.0,18644821.0,300.0,300.0,2014.4,609.3,1920.0,1460.0,Object_Sea_Solid_Large,57.96779916714877,60.98779729218222,4.0,Object_Sea_Solid_Large,-3.0,-3.0,1.0,1.1527692079544067,,,,,,,,
encoding,fixation,24,18645071,18646326,18645097.0,18645299.0,203.0,203.0,1966.5,675.7,1920.0,1460.0,Object_Sea_Solid_Large,60.98795025004074,62.24304141709581,4.0,Animal_Sea_Pattern_Large,-2.0,,,,,,,,,,,
encoding,fixation,24,18645071,18646326,18645461.0,18645558.0,98.0,98.0,1966.4,1051.9,1920.0,1080.0,fixation,60.98795025004074,62.24304141709581,4.0,Animal_Sea_Pattern_Large,-2.0,,,,,,,,,,,
encoding,fixation,24,18645071,18646326,18645751.0,18646001.0,251.0,251.0,1953.1,1104.2,1920.0,1080.0,fixation,60.98795025004074,62.24304141709581,4.0,Animal_Sea_Pattern_Large,-2.0,,,,,,,,,,,
encoding,fixation,24,18645071,18646326,18646008.0,18646353.0,346.0,318.0,1987.0,1088.9,1920.0,1080.0,fixation,60.98795025004074,62.24304141709581,4.0,Animal_Sea_Pattern_Large,-2.0,,,,,,,,,,,
encoding,image,24,18646326,18647336,18646372.0,18646534.0,163.0,163.0,2139.2,1130.2,2249.0,891.0,Animal_Sea_Pattern_Large,62.24315966712311,63.25303258304484,4.0,Animal_Sea_Pattern_Large,-2.0,,,,,,,,,,,
encoding,image,24,18646326,18647336,18646556.0,18647026.0,471.0,471.0,2264.0,1248.6,2249.0,891.0,Animal_Sea_Pattern_Large,62.24315966712311,63.25303258304484,4.0,Animal_Sea_Pattern_Large,-2.0,,,,,,,,,,,
encoding,image,24,18646326,18647336,18647046.0,18647264.0,219.0,219.0,2256.2,1153.8,2249.0,891.0,Animal_Sea_Pattern_Large,62.24315966712311,63.25303258304484,4.0,Animal_Sea_Pattern_Large,-2.0,,,,,,,,,,,
encoding,image,24,18646326,18647336,18647278.0,18647511.0,234.0,58.0,2223.6,1124.1,2249.0,891.0,Animal_Sea_Pattern_Large,62.24315966712311,63.25303258304484,4.0,Animal_Sea_Pattern_Large,-2.0,,,,,,,,,,,
encoding,value,24,18647337,18653348,18647522.0,18647664.0,143.0,143.0,2281.8,1150.6,2249.0,891.0,Animal_Sea_Pattern_Large,63.25314837507904,69.26453087502159,4.0,Animal_Sea_Pattern_Large,-2.0,,,,,,,,,,,
encoding,value,24,18647337,18653348,18647876.0,18648043.0,168.0,168.0,2234.8,1224.6,2249.0,891.0,Animal_Sea_Pattern_Large,63.25314837507904,69.26453087502159,4.0,Animal_Sea_Pattern_Large,-2.0,,,,,,,,,,,
encoding,value,24,18647337,18653348,18648226.0,18648552.0,327.0,327.0,2126.3,1085.4,2249.0,891.0,Animal_Sea_Pattern_Large,63.25314837507904,69.26453087502159,4.0,Animal_Sea_Pattern_Large,-2.0,,,,,,,,,,,
encoding,value,24,18647337,18653348,18648573.0,18650095.0,1523.0,1523.0,2280.4,1159.2,2249.0,891.0,Animal_Sea_Pattern_Large,63.25314837507904,69.26453087502159,4.0,Animal_Sea_Pattern_Large,-2.0,,,,,,,,,,,
encoding,value,24,18647337,18653348,18650266.0,18650375.0,110.0,110.0,2235.5,1147.2,2249.0,891.0,Animal_Sea_Pattern_Large,63.25314837507904,69.26453087502159,4.0,Animal_Sea_Pattern_Large,-2.0,,,,,,,,,,,
encoding,value,24,18647337,18653348,18650382.0,18651827.0,1446.0,1446.0,2274.1,1156.1,2249.0,891.0,Animal_Sea_Pattern_Large,63.25314837507904,69.26453087502159,4.0,Animal_Sea_Pattern_Large,-2.0,,,,,,,,,,,
encoding,value,24,18647337,18653348,18651934.0,18652074.0,141.0,141.0,2275.2,1152.4,2249.0,891.0,Animal_Sea_Pattern_Large,63.25314837507904,69.26453087502159,4.0,Animal_Sea_Pattern_Large,-2.0,,,,,,,,,,,
encoding,value,24,18647337,18653348,18652278.0,18653064.0,787.0,787.0,2274.9,1157.3,2249.0,891.0,Animal_Sea_Pattern_Large,63.25314837507904,69.26453087502159,4.0,Animal_Sea_Pattern_Large,-2.0,,,,,,,,,,,
encoding,value,24,18647337,18653348,18653271.0,18654492.0,1222.0,77.0,2254.1,1155.7,2249.0,891.0,Animal_Sea_Pattern_Large,63.25314837507904,69.26453087502159,4.0,Animal_Sea_Pattern_Large,-2.0,,,,,,,,,,,
encoding,attention,24,18653348,18656367,18654680.0,18654753.0,74.0,74.0,2215.6,1181.8,2249.0,891.0,Animal_Sea_Pattern_Large,69.26466958317906,72.2834889581427,4.0,Animal_Sea_Pattern_Large,-2.0,-2.0,1.0,0.8732072908896953,,,,,,,,
encoding,attention,24,18653348,18656367,18654954.0,18655358.0,405.0,405.0,2131.6,1035.8,2249.0,1269.0,Object_Land_Solid_Small,69.26466958317906,72.2834889581427,4.0,Animal_Sea_Pattern_Large,-2.0,-2.0,1.0,0.8732072908896953,,,,,,,,
encoding,attention,24,18653348,18656367,18655386.0,18656008.0,623.0,623.0,2256.0,1152.7,2249.0,891.0,Animal_Sea_Pattern_Large,69.26466958317906,72.2834889581427,4.0,Animal_Sea_Pattern_Large,-2.0,-2.0,1.0,0.8732072908896953,,,,,,,,
encoding,fixation,25,18958246,18958751,18958480.0,18958535.0,56.0,56.0,1934.6,1125.6,1920.0,1080.0,fixation,6.937171292025596,7.44242116692476,5.0,Object_Land_Pattern_Large,-7.0,,,,,,,,,,,
encoding,image,25,18958751,18959763,18958985.0,18959172.0,188.0,188.0,1964.6,1148.6,2249.0,891.0,Object_Land_Pattern_Small,7.442528083920479,8.45458458387293,5.0,Object_Land_Pattern_Large,-7.0,,,,,,,,,,,
encoding,image,25,18958751,18959763,18959203.0,18959350.0,148.0,148.0,1955.3,649.3,1920.0,1460.0,Object_Land_Pattern_Large,7.442528083920479,8.45458458387293,5.0,Object_Land_Pattern_Large,-7.0,,,,,,,,,,,
encoding,image,25,18958751,18959763,18959366.0,18960036.0,671.0,397.0,1973.7,661.5,1920.0,1460.0,Object_Land_Pattern_Large,7.442528083920479,8.45458458387293,5.0,Object_Land_Pattern_Large,-7.0,,,,,,,,,,,
encoding,value,25,18959763,18965777,18960054.0,18960241.0,188.0,188.0,1966.3,570.5,1920.0,1460.0,Object_Land_Pattern_Large,8.454706416931003,14.468234333908184,5.0,Object_Land_Pattern_Large,-7.0,,,,,,,,,,,
encoding,value,25,18959763,18965777,18960461.0,18960552.0,92.0,92.0,1962.3,643.5,1920.0,1460.0,Object_Land_Pattern_Large,8.454706416931003,14.468234333908184,5.0,Object_Land_Pattern_Large,-7.0,,,,,,,,,,,
