phase,event,onset,offset,trial_number,game,image,outcome,choice,correct,rt,letter,match,response,option,true_value,true_position,recalled_position,
encoding,fixation,18.047300291014835,19.571337833069265,1,1,Animal_Land_Solid_Small,-1,,,,,,,,,,,
encoding,image,19.57146779098548,20.590684375027195,1,1,Animal_Land_Solid_Small,-1,,,,,,,,,,,
encoding,value,20.590792041039094,26.606089957989752,1,1,Animal_Land_Solid_Small,-1,,,,,,,,,,,
encoding,attention,26.606213083025068,29.626339165959507,1,1,Animal_Land_Solid_Small,-1,-1,1,1.5644007502123713,,,,,,,,
encoding,fixation,29.626493625110015,30.131638166029006,2,1,Object_Sea_Solid_Small,4,,,,,,,,,,,
encoding,image,30.13177258311771,31.142291500000283,2,1,Object_Sea_Solid_Small,4,,,,,,,,,,,
encoding,value,31.142394333146513,37.15369608299807,2,1,Object_Sea_Solid_Small,4,,,,,,,,,,,
encoding,attention,37.153816415928304,40.170243750093505,2,1,Object_Sea_Solid_Small,4,+4,1,1.1015766661148518,,,,,,,,
encoding,fixation,40.17051754100248,40.675625916104764,3,1,Animal_Land_Pattern_Large,2,,,,,,,,,,,
encoding,image,40.67573841614649,41.687121249968186,3,1,Animal_Land_Pattern_Large,2,,,,,,,,,,,
encoding,value,41.687237499980256,47.699305874994025,3,1,Animal_Land_Pattern_Large,2,,,,,,,,,,,
encoding,attention,47.69941508304328,50.716915500117466,3,1,Animal_Land_Pattern_Large,2,+2,1,0.8630362499970943,,,,,,,,
encoding,fixation,50.71712058293633,51.97243654099293,4,1,Object_Sea_Pattern_Large,1,,,,,,,,,,,
encoding,image,51.972549291094765,52.98366554104723,4,1,Object_Sea_Pattern_Large,1,,,,,,,,,,,
encoding,value,52.98377875005826,58.99511087499559,4,1,Object_Sea_Pattern_Large,1,,,,,,,,,,,
encoding,attention,58.995231749955565,62.01243954105303,4,1,Object_Sea_Pattern_Large,1,+1,1,0.9987189578823745,,,,,,,,
encoding,fixation,62.01259704097174,63.52088504098356,5,1,Object_Sea_Solid_Large,-6,,,,,,,,,,,
encoding,image,63.521001833025366,64.53253970807418,5,1,Object_Sea_Solid_Large,-6,,,,,,,,,,,
encoding,value,64.53264412493445,70.5442256659735,5,1,Object_Sea_Solid_Large,-6,,,,,,,,,,,
encoding,attention,70.54434733302332,73.60335779096931,5,1,Object_Sea_Solid_Large,-6,-6,1,1.3995550000108778,,,,,,,,
encoding,fixation,73.60352133307606,75.10859104106203,6,1,Animal_Land_Pattern_Small,-2,,,,,,,,,,,
encoding,image,75.10870466614142,76.12036045803688,6,1,Animal_Land_Pattern_Small,-2,,,,,,,,,,,
encoding,value,76.12048445804976,82.13150229095481,6,1,Animal_Land_Pattern_Small,-2,,,,,,,,,,,
encoding,attention,82.1316265000496,85.14887654106133,6,1,Animal_Land_Pattern_Small,-2,-2,1,1.151018374832347,,,,,,,,
n-back,,,,1,1,,,,1,None,X,False,None,,,,,
n-back,,,,2,1,,,,1,None,X,False,None,,,,,
n-back,,,,3,1,,,,1,None,C,False,None,,,,,
n-back,,,,4,1,,,,1,None,Z,False,None,,,,,
n-back,,,,5,1,,,,1,None,Z,False,None,,,,,
n-back,,,,6,1,,,,1,None,B,False,None,,,,,
n-back,,,,7,1,,,,1,None,V,False,None,,,,,
n-back,,,,8,1,,,,1,0.7738556659314781,B,True,1,,,,,
n-back,,,,9,1,,,,1,None,N,False,None,,,,,
n-back,,,,10,1,,,,1,None,X,False,None,,,,,
n-back,,,,11,1,,,,1,None,V,False,None,,,,,
n-back,,,,12,1,,,,1,0.6897838329896331,X,True,1,,,,,
n-back,,,,13,1,,,,1,None,N,False,None,,,,,
n-back,,,,14,1,,,,1,None,Z,False,None,,,,,
n-back,,,,15,1,,,,1,0.584838166134432,N,True,1,,,,,
n-back,,,,16,1,,,,1,None,C,False,None,,,,,
n-back,,,,17,1,,,,0,None,N,True,None,,,,,
n-back,,,,18,1,,,,1,0.4433442500885576,C,True,1,,,,,
n-back,,,,19,1,,,,1,None,V,False,None,,,,,
n-back,,,,20,1,,,,0,None,C,True,None,,,,,
n-back,,,,21,1,,,,1,0.4471051669679582,V,True,1,,,,,
n-back,,,,22,1,,,,0,None,C,True,None,,,,,
n-back,,,,23,1,,,,1,None,X,False,None,,,,,
n-back,,,,24,1,,,,1,None,X,False,None,,,,,
n-back,,,,25,1,,,,1,None,C,False,None,,,,,
n-back,,,,26,1,,,,1,0.46817766688764095,X,True,1,,,,,
n-back,,,,27,1,,,,1,None,B,False,None,,,,,
n-back,,,,28,1,,,,0,None,X,True,None,,,,,
n-back,,,,29,1,,,,1,None,X,False,None,,,,,
n-back,,,,30,1,,,,1,None,N,False,None,,,,,
choice,fixation,170.19748433306813,171.70365004101768,1,1,,,,,,,,,Pattern,,,,
choice,option,171.71349849994294,172.9716775829438,1,1,,,,,,,,,Pattern,,,,
choice,choice,172.97181325010024,191.40623733308166,1,1,,,1,1,17.42345712496899,,,,Pattern,,,,
choice,fixation,191.40637395810336,192.161279583117,2,1,,,,,,,,,Land,,,,
choice,option,192.1707436661236,193.19930808292702,2,1,,,,,,,,,Land,,,,
choice,choice,193.1994361251127,208.42017229110934,2,1,,,1,0,14.209330167155713,,,,Land,,,,
choice,fixation,208.4202940829564,208.92514333315194,3,1,,,,,,,,,Object,,,,
choice,option,208.93473899993114,209.9629169581458,3,1,,,,,,,,,Object,,,,
choice,choice,209.96303933300078,220.98872791603208,3,1,,,2,1,10.012588582932949,,,,Object,,,,
choice,fixation,220.9888599999249,222.24391270801425,4,1,,,,,,,,,Sea,,,,
choice,option,222.25222299993038,223.28017262509093,4,1,,,,,,,,,Sea,,,,
choice,choice,223.28028379101306,228.65881245792843,4,1,,,2,1,4.36704312521033,,,,Sea,,,,
choice,fixation,228.658947332995,230.16396995796822,5,1,,,,,,,,,Solid,,,,
choice,option,230.173294166103,231.20068504102528,5,1,,,,,,,,,Solid,,,,
choice,choice,231.20079941605218,235.5395744999405,5,1,,,2,1,3.3294271249324083,,,,Solid,,,,
choice,fixation,235.53969633299857,236.04478058312088,6,1,,,,,,,,,Animal,,,,
choice,option,236.05408162507229,237.0805151250679,6,1,,,,,,,,,Animal,,,,
choice,choice,237.08062841603532,254.3830759159755,6,1,,,1,0,16.28990091686137,,,,Animal,,,,
choice,fixation,254.3832350410521,255.38828458311036,7,1,,,,,,,,,Large,,,,
choice,option,255.39741245796904,256.4247370411176,7,1,,,,,,,,,Large,,,,
choice,choice,256.42491395794787,267.74342683306895,7,1,,,2,1,10.30783583316952,,,,Large,,,,
choice,fixation,267.7435554161202,269.24846883304417,8,1,,,,,,,,,Small,,,,
choice,option,269.25755987502635,270.28639879100956,8,1,,,,,,,,,Small,,,,
choice,choice,270.2865072081331,281.1010603751056,8,1,,,2,0,9.804087583906949,,,,Small,,,,
memory,free_recall,342.0458866250701,387.5829863329418,0,1,,,,,,,,,,,,,
memory,value_recall,433.27114512515254,435.5901671249885,1,1,Animal_Land_Solid_Small,,,,2.316548707894981,,,,,-1,,,
memory,value_recall,437.3868682079483,440.36835837503895,2,1,Object_Sea_Pattern_Large,,,,2.977262750035152,,,,,1,,,
memory,value_recall,441.4143831250258,443.1728904580232,3,1,Object_Sea_Solid_Large,,,,1.7551740841008723,,,,,-6,,,
memory,value_recall,445.22053849999793,447.35130625008605,4,1,Animal_Land_Pattern_Small,,,,2.1267013328615576,,,,,-2,,,
memory,value_recall,448.64760429109447,450.99067199998535,5,1,Animal_Land_Pattern_Large,,,,2.3387143751606345,,,,,2,,,
memory,value_recall,453.03895983309485,455.2770272081252,6,1,Object_Sea_Solid_Small,,,,2.2336392919532955,,,,,4,,,
memory,spatial_recall,475.5260680830106,478.68953933310695,6,1,Animal_Land_Solid_Small,,,1,3.159269125200808,,,,,,"[0, 380]","[0, 380]",
memory,spatial_recall,480.25298875011504,484.37158895796165,6,1,Animal_Land_Pattern_Small,,,1,4.1144417088944465,,,,,,"[-329, -190]","[-329, -190]",
memory,spatial_recall,486.4312957909424,490.27119008312,6,1,Object_Sea_Solid_Large,,,1,3.8360040420666337,,,,,,"[0, -380]","[0, -380]",
memory,spatial_recall,491.3274608750362,493.83220720803365,6,1,Object_Sea_Pattern_Large,,,1,2.5017782079521567,,,,,,"[-329, 190]","[-329, 190]",
memory,spatial_recall,494.8857112079859,497.6030885409564,6,1,Object_Sea_Solid_Small,,,1,2.714250958058983,,,,,,"[329, 189]","[329, 189]",
memory,spatial_recall,498.9086520001292,501.49876137496904,6,1,Animal_Land_Pattern_Large,,,1,2.5859656671527773,,,,,,"[329, -190]","[329, -190]",
encoding,fixation,7.605510166846216,8.3611704998184,7,2,Object_Land_Pattern_Small,-4,,,,,,,,,,,
encoding,image,8.361315208021551,9.373625041916966,7,2,Object_Land_Pattern_Small,-4,,,,,,,,,,,
encoding,value,9.37379724998027,15.386710916878656,7,2,Object_Land_Pattern_Small,-4,,,,,,,,,,,
encoding,attention,15.386818500002846,18.40506749995984,7,2,Object_Land_Pattern_Small,-4,-4,1,1.4862256669439375,,,,,,,,
encoding,fixation,18.40523395780474,19.660373749909922,8,2,Object_Land_Solid_Large,3,,,,,,,,,,,
encoding,image,19.660474666859955,20.670344416983426,8,2,Object_Land_Solid_Large,3,,,,,,,,,,,
encoding,value,20.670450457837433,26.682132749818265,8,2,Object_Land_Solid_Large,3,,,,,,,,,,,
encoding,attention,26.682243207935244,29.69922462501563,8,2,Object_Land_Solid_Large,3,+3,1,1.1594535000622272,,,,,,,,
encoding,fixation,29.699363957857713,30.454292749986053,9,2,Animal_Sea_Solid_Large,-4,,,,,,,,,,,
encoding,image,30.45439283293672,31.465364333009347,9,2,Animal_Sea_Solid_Large,-4,,,,,,,,,,,
encoding,value,31.465477749938145,37.476900291861966,9,2,Animal_Sea_Solid_Large,-4,,,,,,,,,,,
encoding,attention,37.4770130419638,40.493940291926265,9,2,Animal_Sea_Solid_Large,-4,-4,1,0.8448681249283254,,,,,,,,
encoding,fixation,40.494082749821246,41.24939624988474,10,2,Object_Land_Pattern_Large,3,,,,,,,,,,,
encoding,image,41.24950124998577,42.26041583297774,10,2,Object_Land_Pattern_Large,3,,,,,,,,,,,
encoding,value,42.2605833329726,48.273030458018184,10,2,Object_Land_Pattern_Large,3,,,,,,,,,,,
encoding,attention,48.273138666991144,51.29178299987689,10,2,Object_Land_Pattern_Large,3,+3,1,1.7271264579612762,,,,,,,,
encoding,fixation,51.29193670791574,52.299042999977246,11,2,Animal_Sea_Pattern_Small,6,,,,,,,,,,,
encoding,image,52.299141000024974,53.310972957871854,11,2,Animal_Sea_Pattern_Small,6,,,,,,,,,,,
encoding,value,53.31109437486157,59.32253558281809,11,2,Animal_Sea_Pattern_Small,6,,,,,,,,,,,
encoding,attention,59.3226676248014,62.34033333300613,11,2,Animal_Sea_Pattern_Small,6,+6,1,0.8802912922110409,,,,,,,,
encoding,fixation,62.34048149990849,62.84610474994406,12,2,Animal_Sea_Solid_Small,-1,,,,,,,,,,,
encoding,image,62.84626612486318,63.857053332962096,12,2,Animal_Sea_Solid_Small,-1,,,,,,,,,,,
encoding,value,63.85725091700442,69.86970720789395,12,2,Animal_Sea_Solid_Small,-1,,,,,,,,,,,
encoding,attention,69.86984941689298,72.88675862480886,12,2,Animal_Sea_Solid_Small,-1,-1,1,0.8924331250600517,,,,,,,,
n-back,,,,31,2,,,,0,None,C,True,None,,,,,
n-back,,,,32,2,,,,1,None,C,False,None,,,,,
n-back,,,,33,2,,,,1,0.8461169998627156,C,True,1,,,,,
n-back,,,,34,2,,,,1,None,N,False,None,,,,,
n-back,,,,35,2,,,,1,0.6007002079859376,C,True,1,,,,,
n-back,,,,36,2,,,,1,1.3387969159521163,N,True,1,,,,,
n-back,,,,37,2,,,,1,1.4047972499392927,C,True,1,,,,,
n-back,,,,38,2,,,,1,None,C,False,None,,,,,
n-back,,,,39,2,,,,1,0.531492916867137,C,True,1,,,,,
n-back,,,,40,2,,,,1,None,N,False,None,,,,,
n-back,,,,41,2,,,,1,None,Z,False,None,,,,,
n-back,,,,42,2,,,,1,None,V,False,None,,,,,
n-back,,,,43,2,,,,1,None,C,False,None,,,,,
n-back,,,,44,2,,,,1,None,B,False,None,,,,,
n-back,,,,45,2,,,,1,None,B,False,None,,,,,
n-back,,,,46,2,,,,1,None,X,False,None,,,,,
n-back,,,,47,2,,,,1,None,X,False,None,,,,,
n-back,,,,48,2,,,,1,None,C,False,None,,,,,
n-back,,,,49,2,,,,1,None,N,False,None,,,,,
n-back,,,,50,2,,,,1,0.5576730000320822,C,True,1,,,,,
n-back,,,,51,2,,,,1,1.0354391250293702,N,True,1,,,,,
n-back,,,,52,2,,,,1,None,N,False,None,,,,,
n-back,,,,53,2,,,,1,0.5073570830281824,N,True,1,,,,,
n-back,,,,54,2,,,,1,None,Z,False,None,,,,,
n-back,,,,55,2,,,,1,None,C,False,None,,,,,
n-back,,,,56,2,,,,1,0.531823042081669,Z,True,1,,,,,
n-back,,,,57,2,,,,1,None,X,False,None,,,,,
n-back,,,,58,2,,,,0,0.5523782500531524,C,False,1,,,,,
n-back,,,,59,2,,,,1,None,C,False,None,,,,,
n-back,,,,60,2,,,,1,None,X,False,None,,,,,
choice,fixation,147.15085699991323,148.1557472499553,9,2,,,,,,,,,Sea,,,,
choice,option,148.1641674998682,149.1908316668123,9,2,,,,,,,,,Sea,,,,
choice,choice,149.19094108301215,168.76649908302352,9,2,,,2,0,18.561785416910425,,,,Sea,,,,
choice,fixation,168.76666258298792,170.0217620418407,10,2,,,,,,,,,Large,,,,
choice,option,170.030767749995,171.05796920787543,10,2,,,,,,,,,Large,,,,
choice,choice,171.05807654187083,187.4396067080088,10,2,,,2,0,15.368631707970053,,,,Large,,,,
choice,fixation,187.4397965830285,188.94479891681112,11,2,,,,,,,,,Solid,,,,
choice,option,188.95410483283922,189.9819588328246,11,2,,,,,,,,,Solid,,,,
choice,choice,189.98207545792684,204.6455782079138,11,2,,,1,0,13.652239332906902,,,,Solid,,,,
choice,fixation,204.64570862497203,205.65071487496607,12,2,,,,,,,,,Animal,,,,
choice,option,205.65994191681966,206.68718904186971,12,2,,,,,,,,,Animal,,,,
choice,choice,206.68729333300143,214.94897933281027,12,2,,,1,1,7.250959000084549,,,,Animal,,,,
choice,fixation,214.94912720797583,215.70403229189105,13,2,,,,,,,,,Pattern,,,,
choice,option,215.7131010829471,216.7398167080246,13,2,,,,,,,,,Pattern,,,,
choice,choice,216.7399317920208,230.54028195794672,13,2,,,1,1,12.789561999961734,,,,Pattern,,,,
choice,fixation,230.54042245796882,231.5453741250094,14,2,,,,,,,,,Object,,,,
choice,option,231.55483854189515,232.58202016702853,14,2,,,,,,,,,Object,,,,
choice,choice,232.58213449991308,245.924358749995,14,2,,,2,0,12.331255791941658,,,,Object,,,,
choice,fixation,245.92447979189456,247.43195858295076,15,2,,,,,,,,,Land,,,,
choice,option,247.44067420787178,248.46809470793232,15,2,,,,,,,,,Land,,,,
choice,choice,248.46820270782337,261.4443499168847,15,2,,,2,0,11.965316249988973,,,,Land,,,,
choice,fixation,261.4444821670186,262.69929699995555,16,2,,,,,,,,,Small,,,,
choice,option,262.708198874956,263.7351194578223,16,2,,,,,,,,,Small,,,,
choice,choice,263.7352387078572,273.1733252918348,16,2,,,1,1,8.427871792111546,,,,Small,,,,
memory,free_recall,287.96674845786765,303.0853056248743,6,2,,,,,,,,,,,,,
memory,value_recall,308.19538754201494,317.02369620790705,7,2,Object_Land_Pattern_Large,,,,8.824047917034477,,,,,3,,,
memory,value_recall,318.0728284998331,324.7140764167998,8,2,Animal_Sea_Solid_Large,,,,6.637256584130228,,,,,-4,,,
memory,value_recall,325.76060308283195,329.7351929577999,9,2,Object_Land_Solid_Large,,,,3.970475665992126,,,,,3,,,
memory,value_recall,331.53216966683976,334.8533545830287,10,2,Animal_Sea_Solid_Small,,,,3.315956916892901,,,,,-1,,,
memory,value_recall,335.90221045794897,338.6377558328677,11,2,Object_Land_Pattern_Small,,,,2.732953708153218,,,,,-4,,,
memory,value_recall,339.9343105419539,343.68737941700965,12,2,Animal_Sea_Pattern_Small,,,,3.7489642079453915,,,,,6,,,
memory,spatial_recall,349.4022840829566,354.26683387486264,12,2,Object_Land_Pattern_Large,,,1,4.8603310831822455,,,,,,"[0, -380]","[0, -380]",
memory,spatial_recall,356.0782757499255,359.6019647498615,12,2,Animal_Sea_Pattern_Small,,,1,3.5196342919953167,,,,,,"[329, -190]","[329, -190]",
memory,spatial_recall,360.9140571670141,363.08535945788026,12,2,Animal_Sea_Solid_Small,,,1,2.1673789168708026,,,,,,"[0, 380]","[0, 380]",
memory,spatial_recall,364.89721033303067,367.9774650828913,12,2,Object_Land_Pattern_Small,,,1,3.0763777499087155,,,,,,"[329, 189]","[329, 189]",
memory,spatial_recall,369.7867997919675,372.0624922919087,12,2,Animal_Sea_Solid_Large,,,1,2.2713978751562536,,,,,,"[-329, 190]","[-329, 190]",
memory,spatial_recall,374.1270051668398,377.34988470794633,12,2,Object_Land_Solid_Large,,,1,3.2185718750115484,,,,,,"[-329, -190]","[-329, -190]",
encoding,fixation,7.469233084004372,7.974639958934858,13,3,Object_Sea_Pattern_Small,-7,,,,,,,,,,,
encoding,image,7.974753083894029,8.98565391683951,13,3,Object_Sea_Pattern_Small,-7,,,,,,,,,,,
encoding,value,8.985765124903992,14.99854674981907,13,3,Object_Sea_Pattern_Small,-7,,,,,,,,,,,
encoding,attention,14.998660166980699,18.016661583911628,13,3,Object_Sea_Pattern_Small,-7,-7,1,0.96954904217273,,,,,,,,
encoding,fixation,18.01687370892614,19.521932124858722,14,3,Object_Land_Solid_Large,-9,,,,,,,,,,,
encoding,image,19.522050666855648,20.532568249851465,14,3,Object_Land_Solid_Large,-9,,,,,,,,,,,
encoding,value,20.532756791915745,26.545082374941558,14,3,Object_Land_Solid_Large,-9,,,,,,,,,,,
encoding,attention,26.54518720903434,29.561515458859503,14,3,Object_Land_Solid_Large,-9,-9,1,0.8627512918319553,,,,,,,,
encoding,fixation,29.561661374988034,30.566683791810647,15,3,Object_Land_Pattern_Small,9,,,,,,,,,,,
encoding,image,30.566872249823064,31.57898245891556,15,3,Object_Land_Pattern_Small,9,,,,,,,,,,,
encoding,value,31.579168000025675,37.59057058393955,15,3,Object_Land_Pattern_Small,9,,,,,,,,,,,
encoding,attention,37.590689916862175,40.60817108396441,15,3,Object_Land_Pattern_Small,9,+9,1,1.128174499841407,,,,,,,,
encoding,fixation,40.60833441698924,41.36382841691375,16,3,Animal_Sea_Pattern_Small,-5,,,,,,,,,,,
encoding,image,41.3639349588193,42.37522616703063,16,3,Animal_Sea_Pattern_Small,-5,,,,,,,,,,,
encoding,value,42.37533591687679,48.387467874912545,16,3,Animal_Sea_Pattern_Small,-5,,,,,,,,,,,
encoding,attention,48.387624624883756,51.40483604185283,16,3,Animal_Sea_Pattern_Small,-5,-5,1,1.5163955830503255,,,,,,,,
encoding,fixation,51.40499591687694,52.16147099994123,17,3,Animal_Sea_Solid_Large,2,,,,,,,,,,,
encoding,image,52.16157904197462,53.172581208869815,17,3,Animal_Sea_Solid_Large,2,,,,,,,,,,,
encoding,value,53.17268612491898,59.184538958827034,17,3,Animal_Sea_Solid_Large,2,,,,,,,,,,,
encoding,attention,59.18464479199611,62.20191366691142,17,3,Animal_Sea_Solid_Large,2,+2,1,0.8958300410304219,,,,,,,,
encoding,fixation,62.2020676669199,62.70835891691968,18,3,Animal_Land_Solid_Large,1,,,,,,,,,,,
encoding,image,62.70845908392221,63.719499917002395,18,3,Animal_Land_Solid_Large,1,,,,,,,,,,,
encoding,value,63.719612458953634,69.73169149993919,18,3,Animal_Land_Solid_Large,1,,,,,,,,,,,
encoding,attention,69.73179970891215,72.74431287497282,18,3,Animal_Land_Solid_Large,1,None,None,None,,,,,,,,
n-back,,,,61,3,,,,1,None,X,False,None,,,,,
n-back,,,,62,3,,,,1,None,N,False,None,,,,,
n-back,,,,63,3,,,,1,None,C,False,None,,,,,
n-back,,,,64,3,,,,1,None,V,False,None,,,,,
n-back,,,,65,3,,,,1,0.7200619590003043,C,True,1,,,,,
n-back,,,,66,3,,,,1,0.6315510000567883,V,True,1,,,,,
n-back,,,,67,3,,,,1,None,V,False,None,,,,,
n-back,,,,68,3,,,,0,0.7181349161546677,C,False,1,,,,,
n-back,,,,69,3,,,,1,None,N,False,None,,,,,
n-back,,,,70,3,,,,1,None,Z,False,None,,,,,
n-back,,,,71,3,,,,1,0.5557442500721663,N,True,1,,,,,
n-back,,,,72,3,,,,1,0.7487453748472035,Z,True,1,,,,,
n-back,,,,73,3,,,,1,0.7658940418623388,N,True,1,,,,,
n-back,,,,74,3,,,,1,None,B,False,None,,,,,
n-back,,,,75,3,,,,1,None,X,False,None,,,,,
n-back,,,,76,3,,,,1,None,N,False,None,,,,,
n-back,,,,77,3,,,,1,0.4770184999797493,X,True,1,,,,,
n-back,,,,78,3,,,,1,None,C,False,None,,,,,
n-back,,,,79,3,,,,1,0.7965285838581622,X,True,1,,,,,
n-back,,,,80,3,,,,1,None,Z,False,None,,,,,
n-back,,,,81,3,,,,1,None,V,False,None,,,,,
n-back,,,,82,3,,,,1,None,B,False,None,,,,,
n-back,,,,83,3,,,,1,0.4911173328291625,V,True,1,,,,,
n-back,,,,84,3,,,,1,None,V,False,None,,,,,
n-back,,,,85,3,,,,1,0.5295562918763608,V,True,1,,,,,
n-back,,,,86,3,,,,1,None,B,False,None,,,,,
n-back,,,,87,3,,,,1,0.571383791975677,V,True,1,,,,,
n-back,,,,88,3,,,,1,None,V,False,None,,,,,
n-back,,,,89,3,,,,1,None,Z,False,None,,,,,
n-back,,,,90,3,,,,1,None,Z,False,None,,,,,
choice,fixation,138.69528987491503,139.95002570888028,17,3,,,,,,,,,Land,,,,
choice,option,139.9579344589729,140.98559237481095,17,3,,,,,,,,,Land,,,,
choice,choice,140.98572483402677,158.9790208749473,17,3,,,2,0,16.982401750050485,,,,Land,,,,
choice,fixation,158.97914891690016,159.48402608395554,18,3,,,,,,,,,Small,,,,
choice,option,159.49292604182847,160.52071737498045,18,3,,,,,,,,,Small,,,,
choice,choice,160.52083104196936,178.9791420418769,18,3,,,2,1,17.442537209019065,,,,Small,,,,
choice,fixation,178.97925874986686,179.73417858383618,19,3,,,,,,,,,Pattern,,,,
choice,option,179.74327983381227,180.76960145891644,19,3,,,,,,,,,Pattern,,,,
choice,choice,180.76971541694365,201.51564687490463,19,3,,,1,0,19.735091750044376,,,,Pattern,,,,
choice,fixation,201.51577545888722,202.02120804181322,20,3,,,,,,,,,Animal,,,,
choice,option,202.03029974992387,203.05796608398668,20,3,,,,,,,,,Animal,,,,
choice,choice,203.05808891681954,213.87367766699754,20,3,,,1,0,9.805347916902974,,,,Animal,,,,
choice,fixation,213.87380091683008,214.8787164168898,21,3,,,,,,,,,Object,,,,
choice,option,214.88784133386798,215.91530112503096,21,3,,,,,,,,,Object,,,,
choice,choice,215.91540845902637,217.73931595892645,21,3,,,2,1,0.8129454581066966,,,,Object,,,,
choice,fixation,217.73945837491192,218.24630887503736,22,3,,,,,,,,,Solid,,,,
choice,option,218.25567287486047,219.28320962493308,22,3,,,,,,,,,Solid,,,,
choice,choice,219.28333083400503,229.10722124995664,22,3,,,2,1,8.813332249876112,,,,Solid,,,,
choice,fixation,229.10736320889555,230.11242024996318,23,3,,,,,,,,,Sea,,,,
choice,option,230.12143075000495,231.14826525002718,23,3,,,,,,,,,Sea,,,,
choice,choice,231.14837833400816,252.68436070880853,23,3,,,1,0,20.525390999857336,,,,Sea,,,,
choice,fixation,252.68455087486655,253.43956499989145,24,3,,,,,,,,,Large,,,,
choice,option,253.44840808399022,254.47488495893776,24,3,,,,,,,,,Large,,,,
choice,choice,254.47499858401716,258.98238933389075,24,3,,,2,1,3.4979097079485655,,,,Large,,,,
memory,free_recall,273.2206840419676,282.3004102089908,12,3,,,,,,,,,,,,,
memory,value_recall,287.1950343339704,291.42923229187727,13,3,Animal_Land_Solid_Large,,,,4.230142541928217,,,,,1,,,
memory,value_recall,293.4786728338804,302.34914104198106,14,3,Animal_Sea_Pattern_Small,,,,8.866401124978438,,,,,-5,,,
memory,value_recall,303.39649874996394,308.9322212089319,15,3,Object_Sea_Pattern_Small,,,,5.532503625145182,,,,,-7,,,
memory,value_recall,310.72903529182076,314.47736050002277,16,3,Object_Land_Solid_Large,,,,3.7442019579466432,,,,,-9,,,
memory,value_recall,316.0232907498721,318.6210318750236,17,3,Object_Land_Pattern_Small,,,,2.593137790914625,,,,,9,,,
memory,value_recall,319.6702675840352,325.83530516689643,18,3,Animal_Sea_Solid_Large,,,,6.161679457873106,,,,,2,,,
memory,spatial_recall,329.3347089588642,333.590488958871,18,3,Object_Land_Pattern_Small,,,1,4.251333166845143,,,,,,"[329, 189]","[329, 189]",
memory,spatial_recall,335.65081929182634,336.8569113749545,18,3,Object_Sea_Pattern_Small,,,1,1.2016772080678493,,,,,,"[0, 380]","[0, 380]",
memory,spatial_recall,338.91449912497774,340.4483481249772,18,3,Animal_Sea_Solid_Large,,,1,1.5298649589531124,,,,,,"[-329, 190]","[-329, 190]",
memory,spatial_recall,341.5052692499012,343.8957065839786,18,3,Animal_Sea_Pattern_Small,,,1,2.3862728339154273,,,,,,"[329, -190]","[329, -190]",
memory,spatial_recall,345.69930591690354,347.49621474999003,18,3,Object_Land_Solid_Large,,,1,1.7926828330382705,,,,,,"[-329, -190]","[-329, -190]",
memory,spatial_recall,348.8044463749975,350.4300982088316,18,3,Animal_Land_Solid_Large,,,1,1.6199473750311881,,,,,,"[0, -380]","[0, -380]",
encoding,fixation,6.493285417091101,7.248608167050406,19,4,Object_Land_Solid_Small,1,,,,,,,,,,,
encoding,image,7.248735875124112,8.260737958131358,19,4,Object_Land_Solid_Small,1,,,,,,,,,,,
encoding,value,8.260855625150725,14.274996374966577,19,4,Object_Land_Solid_Small,1,,,,,,,,,,,
encoding,attention,14.275129083078355,17.2945919171907,19,4,Object_Land_Solid_Small,1,+1,1,2.1717054590117186,,,,,,,,
encoding,fixation,17.29473645798862,18.2999843750149,20,4,Animal_Land_Pattern_Small,-3,,,,,,,,,,,
encoding,image,18.30010141711682,19.31197450007312,20,4,Animal_Land_Pattern_Small,-3,,,,,,,,,,,
encoding,value,19.312122958013788,25.324278583051637,20,4,Animal_Land_Pattern_Small,-3,,,,,,,,,,,
encoding,attention,25.324397332966328,28.343280875124037,20,4,Animal_Land_Pattern_Small,-3,-3,1,0.8132862080819905,,,,,,,,
encoding,fixation,28.343427458079532,28.84859766718,21,4,Animal_Land_Solid_Small,3,,,,,,,,,,,
encoding,image,28.848757833009586,29.85941066709347,21,4,Animal_Land_Solid_Small,3,,,,,,,,,,,
encoding,value,29.859520375030115,35.873635333031416,21,4,Animal_Land_Solid_Small,3,,,,,,,,,,,
encoding,attention,35.87373845814727,38.89141954202205,21,4,Animal_Land_Solid_Small,3,+3,1,1.1185817499645054,,,,,,,,
encoding,fixation,38.891572333173826,39.39657645812258,22,4,Object_Sea_Pattern_Large,8,,,,,,,,,,,
encoding,image,39.39668512507342,40.407884708140045,22,4,Object_Sea_Pattern_Large,8,,,,,,,,,,,
encoding,value,40.40799820818938,46.419538292102516,22,4,Object_Sea_Pattern_Large,8,,,,,,,,,,,
encoding,attention,46.419694708194584,49.43663700018078,22,4,Object_Sea_Pattern_Large,8,+8,1,0.992249583825469,,,,,,,,
encoding,fixation,49.43683887505904,50.9431854581926,23,4,Object_Sea_Solid_Large,-3,,,,,,,,,,,
encoding,image,50.9432947919704,51.95554312504828,23,4,Object_Sea_Solid_Large,-3,,,,,,,,,,,
encoding,value,51.9556601671502,57.96768166706897,23,4,Object_Sea_Solid_Large,-3,,,,,,,,,,,
encoding,attention,57.96779916714877,60.98779729218222,23,4,Object_Sea_Solid_Large,-3,-3,1,1.1527692079544067,,,,,,,,
encoding,fixation,60.98795025004074,62.24304141709581,24,4,Animal_Sea_Pattern_Large,-2,,,,,,,,,,,
encoding,image,62.24315966712311,63.25303258304484,24,4,Animal_Sea_Pattern_Large,-2,,,,,,,,,,,
encoding,value,63.253148375079036,69.26453087502159,24,4,Animal_Sea_Pattern_Large,-2,,,,,,,,,,,
encoding,attention,69.26466958317906,72.2834889581427,24,4,Animal_Sea_Pattern_Large,-2,-2,1,0.8732072908896953,,,,,,,,
n-back,,,,91,4,,,,1,None,B,False,None,,,,,
n-back,,,,92,4,,,,1,None,N,False,None,,,,,
n-back,,,,93,4,,,,1,0.5000719169620425,B,True,1,,,,,
n-back,,,,94,4,,,,1,0.3965549170970917,N,True,1,,,,,
n-back,,,,95,4,,,,1,None,Z,False,None,,,,,
n-back,,,,96,4,,,,1,None,Z,False,None,,,,,
n-back,,,,97,4,,,,1,None,B,False,None,,,,,
n-back,,,,98,4,,,,1,None,X,False,None,,,,,
n-back,,,,99,4,,,,1,0.4272703330498189,B,True,1,,,,,
n-back,,,,100,4,,,,1,None,V,False,None,,,,,
n-back,,,,101,4,,,,1,None,C,False,None,,,,,
n-back,,,,102,4,,,,1,0.4930960419587791,V,True,1,,,,,
n-back,,,,103,4,,,,1,None,V,False,None,,,,,
n-back,,,,104,4,,,,1,None,Z,False,None,,,,,
n-back,,,,105,4,,,,1,None,N,False,None,,,,,
n-back,,,,106,4,,,,1,0.5391473749186844,Z,True,1,,,,,
n-back,,,,107,4,,,,1,None,B,False,None,,,,,
n-back,,,,108,4,,,,1,None,V,False,None,,,,,
n-back,,,,109,4,,,,1,0.4163315000478178,B,True,1,,,,,
n-back,,,,110,4,,,,1,None,Z,False,None,,,,,
n-back,,,,111,4,,,,1,None,V,False,None,,,,,
n-back,,,,112,4,,,,1,None,B,False,None,,,,,
n-back,,,,113,4,,,,1,0.44097254192456603,V,True,1,,,,,
n-back,,,,114,4,,,,1,0.8777736248448491,B,True,1,,,,,
n-back,,,,115,4,,,,1,None,N,False,None,,,,,
n-back,,,,116,4,,,,1,None,C,False,None,,,,,
n-back,,,,117,4,,,,1,0.3754968331195414,N,True,1,,,,,
n-back,,,,118,4,,,,1,None,Z,False,None,,,,,
n-back,,,,119,4,,,,1,0.5441390408668667,N,True,1,,,,,
n-back,,,,120,4,,,,1,None,B,False,None,,,,,
choice,fixation,148.09209229215048,149.09541158308275,25,4,,,,,,,,,Pattern,,,,
choice,option,149.10471054213122,150.13388937502168,25,4,,,,,,,,,Pattern,,,,
choice,choice,150.1339986671228,175.25396429211833,25,4,,,1,1,24.104879916878417,,,,Pattern,,,,
choice,fixation,175.25408087507822,176.0097556670662,26,4,,,,,,,,,Large,,,,
choice,option,176.01912354212254,177.04723400017247,26,4,,,,,,,,,Large,,,,
choice,choice,177.04735291702673,190.62666962505318,26,4,,,1,1,12.563955582911149,,,,Large,,,,
choice,fixation,190.62693679216318,191.1334836250171,27,4,,,,,,,,,Small,,,,
choice,option,191.14417608315125,192.17420387500897,27,4,,,,,,,,,Small,,,,
choice,choice,192.17440741718747,202.7476289169863,27,4,,,1,1,9.55982149997726,,,,Small,,,,
choice,fixation,202.74775845813565,203.75373970810324,28,4,,,,,,,,,Object,,,,
choice,option,203.76356683298945,204.79160362505354,28,4,,,,,,,,,Object,,,,
choice,choice,204.79171579214744,215.660532833077,28,4,,,1,1,9.858170750085264,,,,Object,,,,
choice,fixation,215.66066137515008,216.16580112511292,29,4,,,,,,,,,Animal,,,,
choice,option,216.175399833126,217.20316612510942,29,4,,,,,,,,,Animal,,,,
choice,choice,217.20332579198293,228.2179835420102,29,4,,,1,0,10.004674291005358,,,,Animal,,,,
choice,fixation,228.2181221670471,229.4731762080919,30,4,,,,,,,,,Sea,,,,
choice,option,229.48135037510656,230.5082925830502,30,4,,,,,,,,,Sea,,,,
choice,choice,230.50839541712776,241.36272391700186,30,4,,,1,1,9.843965291976929,,,,Sea,,,,
choice,fixation,241.36284037516452,242.86827345797792,31,4,,,,,,,,,Solid,,,,
choice,option,242.8776945420541,243.90675570815802,31,4,,,,,,,,,Solid,,,,
choice,choice,243.9068536250852,256.53058216697536,31,4,,,2,0,11.613055207999423,,,,Solid,,,,
choice,fixation,256.53071683319286,257.5360421251971,32,4,,,,,,,,,Land,,,,
choice,option,257.54474304197356,258.5731689580716,32,4,,,,,,,,,Land,,,,
choice,choice,258.57327108317986,269.8507902501151,32,4,,,2,0,10.267218082910404,,,,Land,,,,
memory,free_recall,283.14872858300805,294.9808637921233,18,4,,,,,,,,,,,,,
memory,value_recall,299.618028457975,304.3814774581697,19,4,Animal_Sea_Pattern_Large,,,,4.758240916999057,,,,,-2,,,
memory,value_recall,305.6781283749733,309.564804750029,20,4,Animal_Land_Solid_Small,,,,3.882461082888767,,,,,3,,,
memory,value_recall,311.1131980000064,313.70048487512395,21,4,Object_Land_Solid_Small,,,,2.583234457997605,,,,,1,,,
memory,value_recall,314.99658962502144,317.1890603750944,22,4,Object_Sea_Pattern_Large,,,,2.188054374884814,,,,,8,,,
memory,value_recall,318.485909458017,321.40657166717574,23,4,Object_Sea_Solid_Large,,,,2.9162922077812254,,,,,-3,,,
memory,value_recall,323.45274612517096,326.23706533317454,24,4,Animal_Land_Pattern_Small,,,,2.7802797090262175,,,,,-3,,,
memory,spatial_recall,330.6666063750163,334.0598046670202,24,4,Object_Sea_Solid_Large,,,1,3.386420541908592,,,,,,"[0, -380]","[0, -380]",
memory,spatial_recall,335.8752739171032,338.7933748331852,24,4,Object_Sea_Pattern_Large,,,1,2.9138588330242783,,,,,,"[-329, 190]","[-329, 190]",
memory,spatial_recall,340.8550031250343,342.95193383307196,24,4,Animal_Land_Pattern_Small,,,1,2.092672417173162,,,,,,"[-329, -190]","[-329, -190]",
memory,spatial_recall,344.7578011669684,348.6765749580227,24,4,Animal_Land_Solid_Small,,,1,3.914621875155717,,,,,,"[0, 380]","[0, 380]",
memory,spatial_recall,350.485982083017,352.6181838330813,24,4,Animal_Sea_Pattern_Large,,,1,2.1282689999789,,,,,,"[329, 189]","[329, 189]",
memory,spatial_recall,353.92674825014547,355.2594726670068,24,4,Object_Land_Solid_Small,,,1,1.3286382090300322,,,,,,"[329, -190]","[329, -190]",
encoding,fixation,6.937171292025596,7.44242116692476,25,5,Object_Land_Pattern_Large,-7,,,,,,,,,,,
encoding,image,7.442528083920479,8.45458458387293,25,5,Object_Land_Pattern_Large,-7,,,,,,,,,,,
encoding,value,8.454706416931003,14.468234333908185,25,5,Object_Land_Pattern_Large,-7,,,,,,,,,,,
encoding,attention,14.468336708843708,17.48785408399999,25,5,Object_Land_Pattern_Large,-7,-7,1,1.2622665839735419,,,,,,,,
encoding,fixation,17.488005624851212,18.993079958949238,26,5,Animal_Sea_Pattern_Small,5,,,,,,,,,,,
encoding,image,18.99322658381425,20.00468866690062,26,5,Animal_Sea_Pattern_Small,5,,,,,,,,,,,
encoding,value,20.00481650000438,26.017446958925575,26,5,Animal_Sea_Pattern_Small,5,,,,,,,,,,,
encoding,attention,26.0175754588563,29.035556124988943,26,5,Animal_Sea_Pattern_Small,5,+5,1,1.3865990831982344,,,,,,,,
encoding,fixation,29.035707250004634,30.040743874851614,27,5,Object_Land_Solid_Large,5,,,,,,,,,,,
encoding,image,30.040851666824892,31.051167958881706,27,5,Object_Land_Solid_Large,5,,,,,,,,,,,
encoding,value,31.051271624863148,37.061811249936,27,5,Object_Land_Solid_Large,5,,,,,,,,,,,
encoding,attention,37.06194220902398,40.07894354197197,27,5,Object_Land_Solid_Large,5,+5,1,0.7746036669705063,,,,,,,,
encoding,fixation,40.07912141690031,40.58420754200779,28,5,Object_Land_Pattern_Small,1,,,,,,,,,,,
encoding,image,40.58430487499572,41.595111625036225,28,5,Object_Land_Pattern_Small,1,,,,,,,,,,,
encoding,value,41.595277374843135,47.607422791887075,28,5,Object_Land_Pattern_Small,1,,,,,,,,,,,
encoding,attention,47.60757049988024,50.627381041878834,28,5,Object_Land_Pattern_Small,1,+1,1,1.0848380830138922,,,,,,,,
encoding,fixation,50.62755374982953,52.13261754182167,29,5,Animal_Sea_Solid_Small,-5,,,,,,,,,,,
encoding,image,52.13273329194635,53.144391499925405,29,5,Animal_Sea_Solid_Small,-5,,,,,,,,,,,
encoding,value,53.14449283387512,59.15555466688238,29,5,Animal_Sea_Solid_Small,-5,,,,,,,,,,,
encoding,attention,59.15567387500778,62.17269254196435,29,5,Animal_Sea_Solid_Small,-5,-5,1,1.6653690000530332,,,,,,,,
encoding,fixation,62.172861833823845,63.177909791935235,30,5,Animal_Sea_Solid_Large,-5,,,,,,,,,,,
encoding,image,63.17800874984823,64.18927833391353,30,5,Animal_Sea_Solid_Large,-5,,,,,,,,,,,
encoding,value,64.18939587497152,70.20153520884924,30,5,Animal_Sea_Solid_Large,-5,,,,,,,,,,,
encoding,attention,70.20166183402762,73.22115029185079,30,5,Animal_Sea_Solid_Large,-5,-5,1,1.3624346249271184,,,,,,,,
n-back,,,,121,5,,,,1,None,N,False,None,,,,,
n-back,,,,122,5,,,,0,None,Z,True,None,,,,,
n-back,,,,123,5,,,,1,0.6282377089373767,N,True,1,,,,,
n-back,,,,124,5,,,,1,None,X,False,None,,,,,
n-back,,,,125,5,,,,1,0.3800107908900827,N,True,1,,,,,
n-back,,,,126,5,,,,1,None,Z,False,None,,,,,
n-back,,,,127,5,,,,1,0.4026058327872306,N,True,1,,,,,
n-back,,,,128,5,,,,1,1.4029910829849541,Z,True,1,,,,,
n-back,,,,129,5,,,,1,None,B,False,None,,,,,
n-back,,,,130,5,,,,1,None,B,False,None,,,,,
n-back,,,,131,5,,,,1,None,V,False,None,,,,,
n-back,,,,132,5,,,,1,None,C,False,None,,,,,
n-back,,,,133,5,,,,1,None,C,False,None,,,,,
n-back,,,,134,5,,,,1,0.5494355000555515,C,True,1,,,,,
n-back,,,,135,5,,,,1,None,Z,False,None,,,,,
n-back,,,,136,5,,,,1,None,X,False,None,,,,,
n-back,,,,137,5,,,,1,None,V,False,None,,,,,
n-back,,,,138,5,,,,1,None,Z,False,None,,,,,
n-back,,,,139,5,,,,1,0.418169833952561,V,True,1,,,,,
n-back,,,,140,5,,,,1,None,C,False,None,,,,,
n-back,,,,141,5,,,,1,None,B,False,None,,,,,
n-back,,,,142,5,,,,1,None,B,False,None,,,,,
n-back,,,,143,5,,,,1,None,V,False,None,,,,,
n-back,,,,144,5,,,,1,None,V,False,None,,,,,
n-back,,,,145,5,,,,1,None,X,False,None,,,,,
n-back,,,,146,5,,,,1,None,B,False,None,,,,,
n-back,,,,147,5,,,,1,None,C,False,None,,,,,
n-back,,,,148,5,,,,1,0.5137124999891967,B,True,1,,,,,
n-back,,,,149,5,,,,1,0.4105476248078048,C,True,1,,,,,
n-back,,,,150,5,,,,1,0.7436544168740511,B,True,1,,,,,
choice,fixation,149.5708728339523,151.08058641687967,33,5,,,,,,,,,Large,,,,
choice,option,151.08855883404613,152.11707458388992,33,5,,,,,,,,,Large,,,,
choice,choice,152.11717791692354,167.60146616701968,33,5,,,2,1,14.472967916168272,,,,Large,,,,
choice,fixation,167.60158416698687,168.35673616686836,34,5,,,,,,,,,Land,,,,
choice,option,168.36561237485148,169.3944865418598,34,5,,,,,,,,,Land,,,,
choice,choice,169.39458908396773,202.75090833404101,34,5,,,1,0,32.34563187509775,,,,Land,,,,
choice,fixation,202.7510379590094,204.0061571248807,35,5,,,,,,,,,Pattern,,,,
choice,option,204.01544595882297,205.04439570894465,35,5,,,,,,,,,Pattern,,,,
choice,choice,205.04451079200953,221.54616104182787,35,5,,,1,0,15.487820666981861,,,,Pattern,,,,
choice,fixation,221.54628916690126,222.8012100418564,36,5,,,,,,,,,Animal,,,,
choice,option,222.81065312493593,223.8382483748719,36,5,,,,,,,,,Animal,,,,
choice,choice,223.83836033381522,230.81558525003493,36,5,,,2,1,5.966604333836585,,,,Animal,,,,
choice,fixation,230.815695208963,231.82136924983934,37,5,,,,,,,,,Small,,,,
choice,option,231.8304125838913,232.8569406250026,37,5,,,,,,,,,Small,,,,
choice,choice,232.85709654190578,241.3024209998548,37,5,,,1,1,7.434939791914076,,,,Small,,,,
choice,fixation,241.30253708385862,241.80782695882954,38,5,,,,,,,,,Object,,,,
choice,option,241.81708766683005,242.8446994998958,38,5,,,,,,,,,Object,,,,
choice,choice,242.84480833401904,254.7121721250005,38,5,,,1,0,10.856216750107706,,,,Object,,,,
choice,fixation,254.71229345886968,255.71723066689447,39,5,,,,,,,,,Sea,,,,
choice,option,255.7257315418683,256.75341879203916,39,5,,,,,,,,,Sea,,,,
choice,choice,256.75353683391586,267.10283204191364,39,5,,,2,1,9.338756249984726,,,,Sea,,,,
choice,fixation,267.1029560419265,267.608605499845,40,5,,,,,,,,,Solid,,,,
choice,option,267.61784804193303,268.64563054195605,40,5,,,,,,,,,Solid,,,,
choice,choice,268.6457767088432,275.0859092499595,40,5,,,2,1,5.429793833056465,,,,Solid,,,,
memory,free_recall,286.001930374885,298.10549683403224,24,5,,,,,,,,,,,,,
memory,value_recall,302.8170181249734,307.3216119168792,25,5,Animal_Sea_Pattern_Small,,,,4.501248457934707,,,,,5,,,
memory,value_recall,309.36817433382384,314.3766785420012,26,5,Animal_Sea_Solid_Large,,,,5.003879667026922,,,,,-5,,,
memory,value_recall,315.92300858395174,320.4972250419669,27,5,Object_Land_Pattern_Small,,,,4.570231458870694,,,,,1,,,
memory,value_recall,321.79468254186213,324.5053281248547,28,5,Animal_Sea_Solid_Small,,,,2.7064794588368386,,,,,-5,,,
memory,value_recall,326.552639124915,331.9380610419903,29,5,Object_Land_Solid_Large,,,,5.3812510839197785,,,,,5,,,
memory,value_recall,333.7352569999639,336.6287988338154,30,5,Object_Land_Pattern_Large,,,,2.888994875131175,,,,,-7,,,
memory,spatial_recall,340.1639553338755,344.22830333397724,30,5,Object_Land_Pattern_Large,,,1,4.060007958905771,,,,,,"[0, -380]","[0, -380]",
memory,spatial_recall,345.28661320894025,347.4950301668141,30,5,Object_Land_Pattern_Small,,,1,2.2053227501455694,,,,,,"[329, 189]","[329, 189]",
memory,spatial_recall,349.5513288748916,350.7820026248228,30,5,Animal_Sea_Solid_Small,,,1,1.226409165887162,,,,,,"[0, 380]","[0, 380]",
memory,spatial_recall,351.83127270895056,354.7266773749143,30,5,Object_Land_Solid_Large,,,1,2.8909037918783724,,,,,,"[-329, -190]","[-329, -190]",
memory,spatial_recall,356.7933834588621,358.24775558384135,30,5,Animal_Sea_Solid_Large,,,1,1.4502177089452744,,,,,,"[-329, 190]","[-329, 190]",
memory,spatial_recall,359.29786212486215,361.64688912499696,30,5,Animal_Sea_Pattern_Small,,,1,2.3466383339837193,,,,,,"[329, -190]","[329, -190]",
encoding,fixation,7.7188183749094605,8.97478950000368,31,6,Animal_Sea_Pattern_Small,9,,,,,,,,,,,
encoding,image,8.974926540860906,9.98747399984859,31,6,Animal_Sea_Pattern_Small,9,,,,,,,,,,,
encoding,value,9.98759066592902,16.001119040884078,31,6,Animal_Sea_Pattern_Small,9,,,,,,,,,,,
encoding,attention,16.001220708014444,19.020817624870688,31,6,Animal_Sea_Pattern_Small,9,+9,1,1.064148458885029,,,,,,,,
encoding,fixation,19.02098787482828,20.276581874815747,32,6,Animal_Sea_Solid_Large,-4,,,,,,,,,,,
encoding,image,20.276741165900603,21.288144457852468,32,6,Animal_Sea_Solid_Large,-4,,,,,,,,,,,
encoding,value,21.288262290880084,27.301436165813357,32,6,Animal_Sea_Solid_Large,-4,,,,,,,,,,,
encoding,attention,27.301592165837064,30.31976908282377,32,6,Animal_Sea_Solid_Large,-4,-4,1,0.8281166658271104,,,,,,,,
encoding,fixation,30.319983332883567,31.825023374985904,33,6,Object_Land_Solid_Large,6,,,,,,,,,,,
encoding,image,31.825127999996766,32.83571270783432,33,6,Object_Land_Solid_Large,6,,,,,,,,,,,
encoding,value,32.83589895791374,38.846807583002374,33,6,Object_Land_Solid_Large,6,,,,,,,,,,,
encoding,attention,38.84698191587813,41.86532674985938,33,6,Object_Land_Solid_Large,6,+6,1,0.8034481671638787,,,,,,,,
encoding,fixation,41.86554720788263,43.119923915946856,34,6,Object_Sea_Pattern_Small,-3,,,,,,,,,,,
encoding,image,43.120037332875654,44.13113479083404,34,6,Object_Sea_Pattern_Small,-3,,,,,,,,,,,
encoding,value,44.131248040823266,50.14310474996455,34,6,Object_Sea_Pattern_Small,-3,,,,,,,,,,,
encoding,attention,50.143219207879156,53.16001912485808,34,6,Object_Sea_Pattern_Small,-3,-3,1,1.7645566249266267,,,,,,,,
encoding,fixation,53.16017483291216,53.66533320792951,35,6,Animal_Land_Solid_Large,-4,,,,,,,,,,,
encoding,image,53.66542712482624,54.67806033301167,35,6,Animal_Land_Solid_Large,-4,,,,,,,,,,,
encoding,value,54.67818908300251,60.69058729079552,35,6,Animal_Land_Solid_Large,-4,,,,,,,,,,,
encoding,attention,60.69069550000131,63.71009874995798,35,6,Animal_Land_Solid_Large,-4,-4,1,0.7747157497797161,,,,,,,,
encoding,fixation,63.710267999907956,64.46526429080404,36,6,Object_Land_Pattern_Small,-1,,,,,,,,,,,
encoding,image,64.46536004100926,65.47667249990627,36,6,Object_Land_Pattern_Small,-1,,,,,,,,,,,
encoding,value,65.47677629091777,71.48844579095021,36,6,Object_Land_Pattern_Small,-1,,,,,,,,,,,
encoding,attention,71.48856099997647,74.507213790901,36,6,Object_Land_Pattern_Small,-1,-1,1,0.9037037079688162,,,,,,,,
n-back,,,,151,6,,,,0,None,V,True,None,,,,,
n-back,,,,152,6,,,,1,None,X,False,None,,,,,
n-back,,,,153,6,,,,1,None,C,False,None,,,,,
n-back,,,,154,6,,,,1,0.39623475004918873,X,True,1,,,,,
n-back,,,,155,6,,,,1,None,N,False,None,,,,,
n-back,,,,156,6,,,,1,0.8182207080535591,X,True,1,,,,,
n-back,,,,157,6,,,,1,0.6840600001160055,N,True,1,,,,,
n-back,,,,158,6,,,,1,None,C,False,None,,,,,
n-back,,,,159,6,,,,1,None,C,False,None,,,,,
n-back,,,,160,6,,,,1,0.5441311250906438,C,True,1,,,,,
n-back,,,,161,6,,,,1,0.502903165994212,C,True,1,,,,,
n-back,,,,162,6,,,,1,None,X,False,None,,,,,
n-back,,,,163,6,,,,1,None,N,False,None,,,,,
n-back,,,,164,6,,,,1,None,C,False,None,,,,,
n-back,,,,165,6,,,,1,None,B,False,None,,,,,
n-back,,,,166,6,,,,1,None,X,False,None,,,,,
n-back,,,,167,6,,,,1,0.40626624994911253,B,True,1,,,,,
n-back,,,,168,6,,,,1,0.47373654204420745,X,True,1,,,,,
n-back,,,,169,6,,,,1,None,C,False,None,,,,,
n-back,,,,170,6,,,,1,None,B,False,None,,,,,
n-back,,,,171,6,,,,1,0.6267472908366472,C,True,1,,,,,
n-back,,,,172,6,,,,1,None,X,False,None,,,,,
n-back,,,,173,6,,,,1,0.3312833341769874,C,True,1,,,,,
n-back,,,,174,6,,,,1,None,B,False,None,,,,,
n-back,,,,175,6,,,,1,None,B,False,None,,,,,
n-back,,,,176,6,,,,1,None,V,False,None,,,,,
n-back,,,,177,6,,,,1,None,N,False,None,,,,,
n-back,,,,178,6,,,,1,None,Z,False,None,,,,,
n-back,,,,179,6,,,,1,None,Z,False,None,,,,,
n-back,,,,180,6,,,,1,None,C,False,None,,,,,
choice,fixation,147.25871912483126,148.51460170792416,41,6,,,,,,,,,Large,,,,
choice,option,148.523079165956,149.55059174983762,41,6,,,,,,,,,Large,,,,
choice,choice,149.55074624996632,161.84610408288427,41,6,,,2,1,11.283762458944693,,,,Large,,,,
choice,fixation,161.84623599983752,162.85142083279788,42,6,,,,,,,,,Small,,,,
choice,option,162.86055279080756,163.88877774984576,42,6,,,,,,,,,Small,,,,
choice,choice,163.88889208296314,166.40545358299278,42,6,,,1,1,1.5062583750113845,,,,Small,,,,
choice,fixation,166.405586916022,167.41113074985333,43,6,,,,,,,,,Pattern,,,,
choice,option,167.42004224983975,168.44674833281897,43,6,,,,,,,,,Pattern,,,,
choice,choice,168.4468562908005,170.67513537500054,43,6,,,1,1,1.2186193750239909,,,,Pattern,,,,
choice,fixation,170.67525829095393,171.68019720795564,44,6,,,,,,,,,Animal,,,,
choice,option,171.68967162491754,172.71869908296503,44,6,,,,,,,,,Animal,,,,
choice,choice,172.71882712491788,177.1320923748426,44,6,,,1,1,3.403420041082427,,,,Animal,,,,
choice,fixation,177.13222208293155,178.1372862078715,45,6,,,,,,,,,Object,,,,
choice,option,178.14654041593894,179.17266216594726,45,6,,,,,,,,,Object,,,,
choice,choice,179.17278308281675,183.37465787492692,45,6,,,2,0,3.1921332920901477,,,,Object,,,,
choice,fixation,183.37478370801546,184.8798444159329,46,6,,,,,,,,,Solid,,,,
choice,option,184.88898166595027,185.91603616601788,46,6,,,,,,,,,Solid,,,,
choice,choice,185.91613479098305,190.85200195782818,46,6,,,2,1,3.9249142080079764,,,,Solid,,,,
choice,fixation,190.8521422909107,191.85708975000307,47,6,,,,,,,,,Sea,,,,
choice,option,191.8650653329678,192.89066887483932,47,6,,,,,,,,,Sea,,,,
choice,choice,192.89082620781846,194.32454204093665,47,6,,,1,1,0.42372804204933345,,,,Sea,,,,
choice,fixation,194.32469033286907,195.57992258295417,48,6,,,,,,,,,Land,,,,
choice,option,195.58883062493987,196.61549808294512,48,6,,,,,,,,,Land,,,,
choice,choice,196.61567012500018,198.3312127077952,48,6,,,2,0,0.7061553329695016,,,,Land,,,,
memory,free_recall,212.70947354100645,228.23855329095386,30,6,,,,,,,,,,,,,
memory,value_recall,232.0378554998897,235.22301962482743,31,6,Animal_Sea_Pattern_Small,,,,3.1807707499247044,,,,,9,,,
memory,value_recall,237.01861912501045,240.8625018328894,32,6,Object_Land_Solid_Large,,,,3.839655000017956,,,,,6,,,
memory,value_recall,242.65970845799893,247.08668645797297,33,6,Object_Sea_Pattern_Small,,,,4.4227196669671685,,,,,-3,,,
memory,value_recall,248.38379937480204,250.63850124995224,34,6,Animal_Sea_Solid_Large,,,,2.250598791986704,,,,,-4,,,
memory,value_recall,252.6863786659669,254.85381304100156,35,6,Animal_Land_Solid_Large,,,,2.1631036249455065,,,,,-4,,,
memory,value_recall,255.90182741591707,257.88697820785455,36,6,Object_Land_Pattern_Small,,,,1.9819271669257432,,,,,-1,,,
memory,spatial_recall,261.5736627499573,263.58696695789695,36,6,Object_Land_Solid_Large,,,1,2.0090172921773046,,,,,,"[-329, -190]","[-329, -190]",
memory,spatial_recall,264.90375091601163,265.8255248328205,36,6,Animal_Land_Solid_Large,,,1,0.9178736670874059,,,,,,"[0, -380]","[0, -380]",
memory,spatial_recall,267.88418054091744,269.7195222498849,36,6,Animal_Sea_Solid_Large,,,1,1.8312446249183267,,,,,,"[-329, 190]","[-329, 190]",
memory,spatial_recall,271.2760613330174,272.31986337481067,36,6,Object_Land_Pattern_Small,,,1,1.0395453330129385,,,,,,"[329, 189]","[329, 189]",
memory,spatial_recall,274.13008220796473,276.40285104094073,36,6,Object_Sea_Pattern_Small,,,1,2.268308083061129,,,,,,"[0, 380]","[0, 380]",
memory,spatial_recall,277.4577783748973,279.2199935829267,36,6,Animal_Sea_Pattern_Small,,,1,1.7578042501118034,,,,,,"[329, -190]","[329, -190]",
encoding,fixation,6.6258025001734495,7.380243792198598,37,7,Animal_Land_Pattern_Large,-4,,,,,,,,,,,
encoding,image,7.380358166992664,8.392351499991491,37,7,Animal_Land_Pattern_Large,-4,,,,,,,,,,,
encoding,value,8.392485500080511,14.406451417133212,37,7,Animal_Land_Pattern_Large,-4,,,,,,,,,,,
encoding,attention,14.406596834072843,17.42433770908974,37,7,Animal_Land_Pattern_Large,-4,-4,1,1.0401884170714766,,,,,,,,
encoding,fixation,17.424501500092447,18.42988670920022,38,7,Object_Sea_Solid_Large,1,,,,,,,,,,,
encoding,image,18.430008875206113,19.442046834155917,38,7,Object_Sea_Solid_Large,1,,,,,,,,,,,
encoding,value,19.442159250145778,25.454875709023327,38,7,Object_Sea_Solid_Large,1,,,,,,,,,,,
encoding,attention,25.455013542203233,28.473805584013462,38,7,Object_Sea_Solid_Large,1,+1,1,1.1494303331710398,,,,,,,,
encoding,fixation,28.473972500069067,29.47916475008242,39,7,Animal_Land_Pattern_Small,4,,,,,,,,,,,
encoding,image,29.479286834131926,30.4908202921506,39,7,Animal_Land_Pattern_Small,4,,,,,,,,,,,
encoding,value,30.490991625003517,36.50264745904133,39,7,Animal_Land_Pattern_Small,4,,,,,,,,,,,
encoding,attention,36.50276649999432,39.51959991711192,39,7,Animal_Land_Pattern_Small,4,+4,1,1.8880251669324934,,,,,,,,
encoding,fixation,39.51978058414534,40.02501170919277,40,7,Object_Sea_Pattern_Large,2,,,,,,,,,,,
encoding,image,40.025112292030826,41.0363086250145,40,7,Object_Sea_Pattern_Large,2,,,,,,,,,,,
encoding,value,41.036434167064726,47.049800084205344,40,7,Object_Sea_Pattern_Large,2,,,,,,,,,,,
encoding,attention,47.04991887509823,50.067112792050466,40,7,Object_Sea_Pattern_Large,2,+2,1,1.0202828750479966,,,,,,,,
encoding,fixation,50.06733987503685,51.32299170899205,41,7,Animal_Land_Solid_Small,3,,,,,,,,,,,
encoding,image,51.32310916716233,52.33411191706546,41,7,Animal_Land_Solid_Small,3,,,,,,,,,,,
encoding,value,52.33421820914373,58.34596012509428,41,7,Animal_Land_Solid_Small,3,,,,,,,,,,,
encoding,attention,58.3460593749769,61.36329862498678,41,7,Animal_Land_Solid_Small,3,+3,1,1.5032156251836568,,,,,,,,
encoding,fixation,61.36344116716646,62.61842200020328,42,7,Object_Sea_Solid_Small,-6,,,,,,,,,,,
encoding,image,62.61855070898309,63.63024349999614,42,7,Object_Sea_Solid_Small,-6,,,,,,,,,,,
encoding,value,63.630376500077546,69.64095600019209,42,7,Object_Sea_Solid_Small,-6,,,,,,,,,,,
encoding,attention,69.6410617090296,72.6573580421973,42,7,Object_Sea_Solid_Small,-6,-6,1,2.028753374936059,,,,,,,,
n-back,,,,181,7,,,,0,None,N,True,None,,,,,
n-back,,,,182,7,,,,1,None,B,False,None,,,,,
n-back,,,,183,7,,,,1,0.4981793330516666,N,True,1,,,,,
n-back,,,,184,7,,,,1,0.3274798330385238,B,True,1,,,,,
n-back,,,,185,7,,,,1,0.3463225420564413,N,True,1,,,,,
n-back,,,,186,7,,,,1,None,V,False,None,,,,,
n-back,,,,187,7,,,,1,None,B,False,None,,,,,
n-back,,,,188,7,,,,1,None,N,False,None,,,,,
n-back,,,,189,7,,,,1,0.509877166012302,B,True,1,,,,,
n-back,,,,190,7,,,,1,None,C,False,None,,,,,
n-back,,,,191,7,,,,1,0.37172708404250443,B,True,1,,,,,
n-back,,,,192,7,,,,1,None,B,False,None,,,,,
n-back,,,,193,7,,,,1,0.9055522079579532,B,True,1,,,,,
n-back,,,,194,7,,,,1,None,Z,False,None,,,,,
n-back,,,,195,7,,,,1,None,V,False,None,,,,,
n-back,,,,196,7,,,,1,None,N,False,None,,,,,
n-back,,,,197,7,,,,1,None,C,False,None,,,,,
n-back,,,,198,7,,,,1,None,X,False,None,,,,,
n-back,,,,199,7,,,,1,None,B,False,None,,,,,
n-back,,,,200,7,,,,1,0.5326678748242557,X,True,1,,,,,
n-back,,,,201,7,,,,1,None,Z,False,None,,,,,
n-back,,,,202,7,,,,0,0.5102602918632329,B,False,1,,,,,
n-back,,,,203,7,,,,1,None,C,False,None,,,,,
n-back,,,,204,7,,,,1,0.6018590829335153,B,True,1,,,,,
n-back,,,,205,7,,,,1,None,Z,False,None,,,,,
n-back,,,,206,7,,,,1,None,V,False,None,,,,,
n-back,,,,207,7,,,,0,0.6897867498919368,X,False,1,,,,,
n-back,,,,208,7,,,,1,None,B,False,None,,,,,
n-back,,,,209,7,,,,1,0.46844150009565055,X,True,1,,,,,
n-back,,,,210,7,,,,1,None,Z,False,None,,,,,
choice,fixation,149.07818370917812,150.08147966698743,49,7,,,,,,,,,Land,,,,
choice,option,150.08974391710944,151.11681941710413,49,7,,,,,,,,,Land,,,,
choice,choice,151.11694570910186,161.38445037510246,49,7,,,1,1,9.256175499875098,,,,Land,,,,
choice,fixation,161.38456429215148,162.14038887503557,50,7,,,,,,,,,Sea,,,,
choice,option,162.14928641705774,163.176829834003,50,7,,,,,,,,,Sea,,,,
choice,choice,163.176950750174,168.51193450018764,50,7,,,2,1,4.323566500097513,,,,Sea,,,,
choice,fixation,168.51210508402437,170.01713316701353,51,7,,,,,,,,,Pattern,,,,
choice,option,170.0263344591949,171.05439829197712,51,7,,,,,,,,,Pattern,,,,
choice,choice,171.0545065421611,176.33415670902468,51,7,,,1,1,4.266422374872491,,,,Pattern,,,,
choice,fixation,176.3342900001444,177.08930279198103,52,7,,,,,,,,,Small,,,,
choice,option,177.09877995913848,178.12494029197842,52,7,,,,,,,,,Small,,,,
choice,choice,178.1250599999912,184.40159079199657,52,7,,,2,0,5.264287500176579,,,,Small,,,,
choice,fixation,184.40173695911653,185.4066782090813,53,7,,,,,,,,,Object,,,,
choice,option,185.41621475014836,186.44532475015149,53,7,,,,,,,,,Object,,,,
choice,choice,186.44542750017717,189.96875058417208,53,7,,,2,1,2.5135684590786695,,,,Object,,,,
choice,fixation,189.96888637519442,190.72400854201987,54,7,,,,,,,,,Solid,,,,
choice,option,190.7335190421436,191.76220900006592,54,7,,,,,,,,,Solid,,,,
choice,choice,191.7623259590473,193.406373542035,54,7,,,2,1,0.6345050418749452,,,,Solid,,,,
choice,fixation,193.4065057921689,194.6633555002045,55,7,,,,,,,,,Animal,,,,
choice,option,194.75322800013237,195.78051191708073,55,7,,,,,,,,,Animal,,,,
choice,choice,195.7806378339883,198.48837712500244,55,7,,,1,1,1.6962060830555856,,,,Animal,,,,
choice,fixation,198.48849995899945,198.99461066699587,56,7,,,,,,,,,Large,,,,
choice,option,199.0038940841332,200.0310042500496,56,7,,,,,,,,,Large,,,,
choice,choice,200.03111437498592,202.90263787517324,56,7,,,1,0,1.86171295796521,,,,Large,,,,
memory,free_recall,217.56978658400476,233.5441909171641,36,7,,,,,,,,,,,,,
memory,value_recall,237.18241037498228,241.79582495917566,37,7,Animal_Land_Pattern_Small,,,,4.609201333019882,,,,,4,,,
memory,value_recall,242.84669062518515,247.26031833398156,38,7,Object_Sea_Solid_Large,,,,4.41043574991636,,,,,1,,,
memory,value_recall,248.8076695841737,251.81082650017925,39,7,Object_Sea_Pattern_Large,,,,2.9989581659901887,,,,,2,,,
memory,value_recall,253.8564092090819,257.01657141698524,40,7,Animal_Land_Solid_Small,,,,3.1547174998559058,,,,,3,,,
memory,value_recall,258.31352504203096,263.6488882501144,41,7,Animal_Land_Pattern_Large,,,,5.3310069581493735,,,,,-4,,,
memory,value_recall,265.44559754198417,267.88910387502983,42,7,Object_Sea_Solid_Small,,,,2.4391073749866337,,,,,-6,,,
memory,spatial_recall,272.77409487520345,277.37825841712765,42,7,Object_Sea_Solid_Large,,,1,4.600136416964233,,,,,,"[0, -380]","[0, -380]",
memory,spatial_recall,278.94685258413665,279.9404723341577,42,7,Animal_Land_Pattern_Small,,,1,0.9894502498209476,,,,,,"[-329, -190]","[-329, -190]",
memory,spatial_recall,281.74454841716215,284.0126528341789,42,7,Object_Sea_Solid_Small,,,1,2.2640602078754455,,,,,,"[329, 189]","[329, 189]",
memory,spatial_recall,285.31748087517917,288.2650428339839,42,7,Animal_Land_Pattern_Large,,,1,2.9435165419708937,,,,,,"[329, -190]","[329, -190]",
memory,spatial_recall,290.32786458404735,293.7406710840296,42,7,Object_Sea_Pattern_Large,,,1,3.4085609579924494,,,,,,"[-329, 190]","[-329, 190]",
memory,spatial_recall,295.0469907501247,298.58200987498276,42,7,Animal_Land_Solid_Small,,,1,3.530339791206643,,,,,,"[0, 380]","[0, 380]",
