subject,phase,event,trial_number,game,option,choice,rt,roi_content,item_index,is_center,is_relevant,fix_start,fix_end,fix_duration_bounded
126,choice,choice,1,1.0,Object,2.0,15.031035791849716,Object_Land_Solid_Large,0,0,1,24236139,24236209,70
126,choice,choice,1,1.0,Object,2.0,15.031035791849716,Object_Sea_Pattern_Large,1,0,1,24236705,24237035,330
126,choice,choice,1,1.0,Object,2.0,15.031035791849716,Object_Land_Solid_Large,0,0,1,24237192,24237339,147
126,choice,choice,1,1.0,Object,2.0,15.031035791849716,Object_Land_Pattern_Small,2,0,1,24237778,24238162,384
126,choice,choice,1,1.0,Object,2.0,15.031035791849716,Object_Land_Solid_Large,0,0,1,24241499,24241824,325
126,choice,choice,1,1.0,Object,2.0,15.031035791849716,Object_Sea_Pattern_Large,1,0,1,24241861,24242093,232
126,choice,choice,1,1.0,Object,2.0,15.031035791849716,Object_Land_Pattern_Small,2,0,1,24242269,24242665,396
126,choice,choice,1,1.0,Object,2.0,15.031035791849716,Object_Land_Solid_Large,0,0,1,24242687,24243020,333
126,choice,choice,1,1.0,Object,2.0,15.031035791849716,Object_Sea_Pattern_Large,1,0,1,24243046,24243206,160
126,choice,choice,1,1.0,Object,2.0,15.031035791849716,fixation,-1,1,0,24243783,24244787,1004
126,choice,choice,1,1.0,Object,2.0,15.031035791849716,Animal_Sea_Solid_Large,3,0,0,24244819,24245502,683
126,choice,choice,1,1.0,Object,2.0,15.031035791849716,Object_Land_Pattern_Small,2,0,1,24245526,24245889,363
126,choice,choice,1,1.0,Object,2.0,15.031035791849716,Object_Land_Solid_Large,0,0,1,24245914,24246528,614
126,choice,choice,1,1.0,Object,2.0,15.031035791849716,Object_Sea_Pattern_Large,1,0,1,24246703,24247510,807
126,choice,choice,1,1.0,Object,2.0,15.031035791849716,Object_Land_Solid_Large,0,0,1,24247533,24247857,324
126,choice,choice,1,1.0,Object,2.0,15.031035791849716,Object_Sea_Pattern_Large,1,0,1,24247882,24248659,777
126,choice,choice,1,1.0,Object,2.0,15.031035791849716,Animal_Sea_Solid_Small,4,0,0,24248831,24249085,254
126,choice,choice,1,1.0,Object,2.0,15.031035791849716,fixation,-1,1,0,24249123,24250328,1205
126,choice,choice,2,1.0,Large,2.0,6.397403499810025,Object_Land_Pattern_Small,2,0,0,24253413,24254119,706
126,choice,choice,2,1.0,Large,2.0,6.397403499810025,Object_Land_Solid_Large,0,0,1,24254333,24254574,241
126,choice,choice,2,1.0,Large,2.0,6.397403499810025,Object_Sea_Pattern_Large,1,0,1,24254601,24254972,371
126,choice,choice,2,1.0,Large,2.0,6.397403499810025,Object_Land_Pattern_Small,2,0,0,24254997,24255821,824
126,choice,choice,2,1.0,Large,2.0,6.397403499810025,fixation,-1,1,0,24256202,24256542,340
126,choice,choice,2,1.0,Large,2.0,6.397403499810025,Object_Sea_Pattern_Large,1,0,1,24256565,24257004,439
126,choice,choice,2,1.0,Large,2.0,6.397403499810025,fixation,-1,1,0,24257171,24257801,630
126,choice,choice,2,1.0,Large,2.0,6.397403499810025,Animal_Sea_Solid_Small,4,0,0,24257840,24258057,217
126,choice,choice,2,1.0,Large,2.0,6.397403499810025,fixation,-1,1,0,24258110,24258856,746
126,choice,choice,2,1.0,Large,2.0,6.397403499810025,Object_Land_Pattern_Small,2,0,0,24258891,24259194,303
126,choice,choice,2,1.0,Large,2.0,6.397403499810025,fixation,-1,1,0,24259217,24259618,401
126,choice,choice,2,1.0,Large,2.0,6.397403499810025,Animal_Land_Pattern_Small,5,0,0,24259630,24259720,90
126,choice,choice,3,1.0,Land,1.0,3.836166833993047,Object_Land_Pattern_Small,2,0,1,24263576,24263858,282
126,choice,choice,3,1.0,Land,1.0,3.836166833993047,Animal_Sea_Solid_Large,3,0,0,24263881,24264166,285
126,choice,choice,3,1.0,Land,1.0,3.836166833993047,fixation,-1,1,0,24264333,24264498,165
126,choice,choice,3,1.0,Land,1.0,3.836166833993047,Object_Land_Pattern_Small,2,0,1,24264774,24265052,278
126,choice,choice,3,1.0,Land,1.0,3.836166833993047,Animal_Land_Pattern_Small,5,0,1,24265071,24265466,395
126,choice,choice,3,1.0,Land,1.0,3.836166833993047,Object_Sea_Pattern_Large,1,0,0,24265633,24266153,520
126,choice,choice,3,1.0,Land,1.0,3.836166833993047,Animal_Sea_Solid_Small,4,0,0,24266178,24266456,278
126,choice,choice,3,1.0,Land,1.0,3.836166833993047,fixation,-1,1,0,24266468,24266609,141
126,choice,choice,4,1.0,Pattern,1.0,1.4415675001218915,fixation,-1,1,0,24269336,24269574,238
126,choice,choice,4,1.0,Pattern,1.0,1.4415675001218915,Object_Land_Solid_Large,0,0,0,24269595,24270015,420
126,choice,choice,4,1.0,Pattern,1.0,1.4415675001218915,fixation,-1,1,0,24270039,24270609,570
126,choice,choice,5,1.0,Animal,1.0,0.6047304591629654,fixation,-1,1,0,24273852,24274260,408
126,choice,choice,6,1.0,Sea,2.0,2.9008276669774204,Object_Land_Solid_Large,0,0,0,24277142,24277286,144
126,choice,choice,6,1.0,Sea,2.0,2.9008276669774204,Object_Sea_Pattern_Large,1,0,1,24277720,24278677,957
126,choice,choice,6,1.0,Sea,2.0,2.9008276669774204,fixation,-1,1,0,24278699,24279692,993
126,choice,choice,7,1.0,Solid,2.0,2.599116000114009,fixation,-1,1,0,24282703,24283021,318
126,choice,choice,7,1.0,Solid,2.0,2.599116000114009,Object_Sea_Pattern_Large,1,0,0,24283044,24283555,511
126,choice,choice,7,1.0,Solid,2.0,2.599116000114009,fixation,-1,1,0,24283610,24283921,311
126,choice,choice,7,1.0,Solid,2.0,2.599116000114009,Object_Land_Pattern_Small,2,0,0,24284084,24284599,515
126,choice,choice,7,1.0,Solid,2.0,2.599116000114009,fixation,-1,1,0,24284660,24284872,212
126,choice,choice,7,1.0,Solid,2.0,2.599116000114009,Animal_Land_Pattern_Small,5,0,0,24284884,24285042,158
126,choice,choice,7,1.0,Solid,2.0,2.599116000114009,fixation,-1,1,0,24285050,24285122,72
126,choice,choice,8,1.0,Small,1.0,0.5078011250589043,Animal_Sea_Solid_Large,3,0,0,24288214,24288397,183
126,choice,choice,8,1.0,Small,1.0,0.5078011250589043,fixation,-1,1,0,24288418,24288616,198
126,choice,choice,9,2.0,Animal,1.0,3.262173834023997,Object_Land_Pattern_Small,0,0,0,24713244,24713397,153
126,choice,choice,9,2.0,Animal,1.0,3.262173834023997,Object_Land_Solid_Large,1,0,0,24713431,24713973,542
126,choice,choice,9,2.0,Animal,1.0,3.262173834023997,Object_Land_Pattern_Small,0,0,0,24714152,24714312,160
126,choice,choice,9,2.0,Animal,1.0,3.262173834023997,fixation,-1,1,0,24714327,24714736,409
126,choice,choice,9,2.0,Animal,1.0,3.262173834023997,Object_Land_Pattern_Small,0,0,0,24714875,24715080,205
126,choice,choice,9,2.0,Animal,1.0,3.262173834023997,fixation,-1,1,0,24715110,24715836,726
126,choice,choice,10,2.0,Object,2.0,4.494048124877736,Object_Land_Solid_Large,1,0,1,24719506,24719731,225
126,choice,choice,10,2.0,Object,2.0,4.494048124877736,Animal_Sea_Pattern_Small,2,0,0,24719756,24719892,136
126,choice,choice,10,2.0,Object,2.0,4.494048124877736,Object_Land_Solid_Large,1,0,1,24720276,24720537,261
126,choice,choice,10,2.0,Object,2.0,4.494048124877736,Animal_Sea_Pattern_Small,2,0,0,24720643,24721281,638
126,choice,choice,10,2.0,Object,2.0,4.494048124877736,fixation,-1,1,0,24721478,24722657,1179
126,choice,choice,10,2.0,Object,2.0,4.494048124877736,Object_Land_Pattern_Small,0,0,1,24722881,24723288,407
126,choice,choice,10,2.0,Object,2.0,4.494048124877736,fixation,-1,1,0,24723486,24723670,184
126,choice,choice,11,2.0,Large,2.0,4.392171416897327,Object_Land_Pattern_Small,0,0,0,24727251,24727606,355
126,choice,choice,11,2.0,Large,2.0,4.392171416897327,Object_Land_Solid_Large,1,0,1,24727627,24727795,168
126,choice,choice,11,2.0,Large,2.0,4.392171416897327,fixation,-1,1,0,24727975,24728177,202
126,choice,choice,11,2.0,Large,2.0,4.392171416897327,Object_Sea_Pattern_Small,3,0,0,24728210,24728741,531
126,choice,choice,11,2.0,Large,2.0,4.392171416897327,fixation,-1,1,0,24728971,24729174,203
126,choice,choice,11,2.0,Large,2.0,4.392171416897327,Object_Land_Pattern_Small,0,0,0,24729199,24729660,461
126,choice,choice,11,2.0,Large,2.0,4.392171416897327,Animal_Sea_Solid_Large,4,0,1,24730193,24730362,169
126,choice,choice,11,2.0,Large,2.0,4.392171416897327,fixation,-1,1,0,24730378,24731186,808
126,choice,choice,12,2.0,Solid,1.0,2.568537084152922,Animal_Sea_Pattern_Small,2,0,0,24734041,24734300,259
126,choice,choice,12,2.0,Solid,1.0,2.568537084152922,fixation,-1,1,0,24734478,24735100,622
126,choice,choice,12,2.0,Solid,1.0,2.568537084152922,Animal_Sea_Pattern_Small,2,0,0,24735173,24735426,253
126,choice,choice,12,2.0,Solid,1.0,2.568537084152922,Animal_Sea_Solid_Large,4,0,1,24735478,24736193,715
126,choice,choice,12,2.0,Solid,1.0,2.568537084152922,Animal_Land_Solid_Large,5,0,1,24736420,24736487,67
126,choice,choice,13,2.0,Sea,2.0,6.884249666938558,Object_Land_Pattern_Small,0,0,0,24739332,24739707,375
126,choice,choice,13,2.0,Sea,2.0,6.884249666938558,fixation,-1,1,0,24739744,24740481,737
126,choice,choice,13,2.0,Sea,2.0,6.884249666938558,Animal_Land_Solid_Large,5,0,0,24740709,24741175,466
126,choice,choice,13,2.0,Sea,2.0,6.884249666938558,Animal_Sea_Solid_Large,4,0,1,24741353,24741529,176
126,choice,choice,13,2.0,Sea,2.0,6.884249666938558,Object_Sea_Pattern_Small,3,0,1,24741549,24741736,187
126,choice,choice,13,2.0,Sea,2.0,6.884249666938558,Animal_Sea_Pattern_Small,2,0,1,24741761,24742047,286
126,choice,choice,13,2.0,Sea,2.0,6.884249666938558,Object_Sea_Pattern_Small,3,0,1,24742069,24742436,367
126,choice,choice,13,2.0,Sea,2.0,6.884249666938558,Object_Land_Pattern_Small,0,0,0,24743343,24743668,325
126,choice,choice,13,2.0,Sea,2.0,6.884249666938558,Animal_Land_Solid_Large,5,0,0,24743705,24744302,597
126,choice,choice,13,2.0,Sea,2.0,6.884249666938558,Object_Sea_Pattern_Small,3,0,1,24744482,24744669,187
126,choice,choice,13,2.0,Sea,2.0,6.884249666938558,Animal_Sea_Pattern_Small,2,0,1,24744700,24745000,300
126,choice,choice,13,2.0,Sea,2.0,6.884249666938558,Object_Land_Solid_Large,1,0,0,24745026,24745282,256
126,choice,choice,13,2.0,Sea,2.0,6.884249666938558,Object_Land_Pattern_Small,0,0,0,24745469,24745826,357
126,choice,choice,13,2.0,Sea,2.0,6.884249666938558,Animal_Land_Solid_Large,5,0,0,24745865,24746059,194
126,choice,choice,14,2.0,Land,1.0,5.504129500128329,Object_Land_Solid_Large,1,0,1,24749342,24751306,1964
126,choice,choice,14,2.0,Land,1.0,5.504129500128329,Object_Land_Pattern_Small,0,0,1,24751919,24752450,531
126,choice,choice,14,2.0,Land,1.0,5.504129500128329,Animal_Sea_Solid_Large,4,0,0,24752671,24752934,263
126,choice,choice,14,2.0,Land,1.0,5.504129500128329,Animal_Land_Solid_Large,5,0,1,24752953,24754081,1128
126,choice,choice,14,2.0,Land,1.0,5.504129500128329,Animal_Sea_Solid_Large,4,0,0,24754337,24754479,142
126,choice,choice,15,2.0,Pattern,1.0,3.49060345813632,Object_Land_Pattern_Small,0,0,1,24758110,24758342,232
126,choice,choice,15,2.0,Pattern,1.0,3.49060345813632,Object_Land_Solid_Large,1,0,0,24758365,24758559,194
126,choice,choice,15,2.0,Pattern,1.0,3.49060345813632,Animal_Sea_Pattern_Small,2,0,1,24758587,24758864,277
126,choice,choice,15,2.0,Pattern,1.0,3.49060345813632,Object_Land_Pattern_Small,0,0,1,24758900,24759154,254
126,choice,choice,15,2.0,Pattern,1.0,3.49060345813632,Object_Sea_Pattern_Small,3,0,1,24759184,24759794,610
126,choice,choice,15,2.0,Pattern,1.0,3.49060345813632,Animal_Sea_Pattern_Small,2,0,1,24759989,24760658,669
126,choice,choice,15,2.0,Pattern,1.0,3.49060345813632,Object_Land_Solid_Large,1,0,0,24760692,24761078,386
126,choice,choice,15,2.0,Pattern,1.0,3.49060345813632,Animal_Sea_Solid_Large,4,0,0,24761248,24761426,178
126,choice,choice,15,2.0,Pattern,1.0,3.49060345813632,fixation,-1,1,0,24761449,24761522,73
126,choice,choice,16,2.0,Small,1.0,2.8924131661187857,Object_Land_Solid_Large,1,0,0,24765328,24765576,248
126,choice,choice,16,2.0,Small,1.0,2.8924131661187857,Animal_Sea_Pattern_Small,2,0,1,24765600,24766018,418
126,choice,choice,16,2.0,Small,1.0,2.8924131661187857,fixation,-1,1,0,24766757,24767469,712
126,choice,choice,16,2.0,Small,1.0,2.8924131661187857,Object_Sea_Pattern_Small,3,0,1,24767490,24767767,277
126,choice,choice,16,2.0,Small,1.0,2.8924131661187857,fixation,-1,1,0,24767782,24767966,184
126,choice,choice,17,3.0,Solid,1.0,23.21593016711995,Animal_Sea_Pattern_Small,0,0,0,25109440,25109569,129
126,choice,choice,17,3.0,Solid,1.0,23.21593016711995,Object_Land_Solid_Large,1,0,1,25109596,25110162,566
126,choice,choice,17,3.0,Solid,1.0,23.21593016711995,Object_Land_Solid_Small,2,0,1,25110347,25110678,331
126,choice,choice,17,3.0,Solid,1.0,23.21593016711995,Animal_Sea_Solid_Large,3,0,1,25110699,25111502,803
126,choice,choice,17,3.0,Solid,1.0,23.21593016711995,Object_Land_Solid_Small,2,0,1,25111704,25111994,290
126,choice,choice,17,3.0,Solid,1.0,23.21593016711995,Animal_Sea_Solid_Large,3,0,1,25112016,25112386,370
126,choice,choice,17,3.0,Solid,1.0,23.21593016711995,Object_Land_Solid_Small,2,0,1,25112409,25113285,876
126,choice,choice,17,3.0,Solid,1.0,23.21593016711995,Animal_Sea_Solid_Large,3,0,1,25114775,25115114,339
126,choice,choice,17,3.0,Solid,1.0,23.21593016711995,fixation,-1,1,0,25115136,25115926,790
126,choice,choice,17,3.0,Solid,1.0,23.21593016711995,Animal_Sea_Pattern_Small,0,0,0,25115953,25116072,119
126,choice,choice,17,3.0,Solid,1.0,23.21593016711995,Object_Land_Solid_Large,1,0,1,25116100,25116539,439
126,choice,choice,17,3.0,Solid,1.0,23.21593016711995,Animal_Sea_Pattern_Small,0,0,0,25116563,25117579,1016
126,choice,choice,17,3.0,Solid,1.0,23.21593016711995,Object_Land_Pattern_Small,4,0,0,25117797,25118371,574
126,choice,choice,17,3.0,Solid,1.0,23.21593016711995,Object_Land_Solid_Large,1,0,1,25118391,25119423,1032
126,choice,choice,17,3.0,Solid,1.0,23.21593016711995,Animal_Sea_Solid_Large,3,0,1,25119605,25120658,1053
126,choice,choice,17,3.0,Solid,1.0,23.21593016711995,Object_Land_Pattern_Small,4,0,0,25120705,25120739,34
126,choice,choice,17,3.0,Solid,1.0,23.21593016711995,Object_Land_Solid_Large,1,0,1,25120764,25121170,406
126,choice,choice,17,3.0,Solid,1.0,23.21593016711995,Animal_Sea_Pattern_Small,0,0,0,25121207,25121403,196
126,choice,choice,17,3.0,Solid,1.0,23.21593016711995,Animal_Sea_Solid_Large,3,0,1,25121446,25121892,446
126,choice,choice,17,3.0,Solid,1.0,23.21593016711995,fixation,-1,1,0,25121923,25122190,267
126,choice,choice,17,3.0,Solid,1.0,23.21593016711995,Animal_Sea_Pattern_Large,5,0,0,25122353,25122571,218
126,choice,choice,17,3.0,Solid,1.0,23.21593016711995,Object_Land_Solid_Small,2,0,1,25122595,25122822,227
126,choice,choice,17,3.0,Solid,1.0,23.21593016711995,Animal_Sea_Pattern_Large,5,0,0,25122845,25123105,260
126,choice,choice,17,3.0,Solid,1.0,23.21593016711995,Animal_Sea_Pattern_Small,0,0,0,25123150,25123617,467
126,choice,choice,17,3.0,Solid,1.0,23.21593016711995,Object_Land_Solid_Small,2,0,1,25123782,25124246,464
126,choice,choice,17,3.0,Solid,1.0,23.21593016711995,Object_Land_Pattern_Small,4,0,0,25124313,25124595,282
126,choice,choice,17,3.0,Solid,1.0,23.21593016711995,Object_Land_Solid_Small,2,0,1,25124639,25126933,2294
126,choice,choice,17,3.0,Solid,1.0,23.21593016711995,Animal_Sea_Pattern_Large,5,0,0,25127315,25128731,1416
126,choice,choice,17,3.0,Solid,1.0,23.21593016711995,Animal_Sea_Solid_Large,3,0,1,25129414,25129774,360
126,choice,choice,17,3.0,Solid,1.0,23.21593016711995,Object_Land_Solid_Small,2,0,1,25129804,25130161,357
126,choice,choice,17,3.0,Solid,1.0,23.21593016711995,Object_Land_Solid_Large,1,0,1,25130361,25130680,319
126,choice,choice,17,3.0,Solid,1.0,23.21593016711995,Object_Land_Pattern_Small,4,0,0,25130705,25131071,366
126,choice,choice,17,3.0,Solid,1.0,23.21593016711995,fixation,-1,1,0,25131105,25131265,160
126,choice,choice,17,3.0,Solid,1.0,23.21593016711995,Object_Land_Solid_Small,2,0,1,25131293,25131534,241
126,choice,choice,17,3.0,Solid,1.0,23.21593016711995,Animal_Sea_Pattern_Large,5,0,0,25131728,25131877,149
126,choice,choice,17,3.0,Solid,1.0,23.21593016711995,Object_Land_Solid_Small,2,0,1,25131916,25132215,299
126,choice,choice,18,3.0,Large,2.0,6.86982262507081,Object_Land_Solid_Large,1,0,1,25135870,25136216,346
126,choice,choice,18,3.0,Large,2.0,6.86982262507081,Animal_Sea_Pattern_Large,5,0,1,25136255,25136726,471
126,choice,choice,18,3.0,Large,2.0,6.86982262507081,Animal_Sea_Pattern_Small,0,0,0,25136918,25137137,219
126,choice,choice,18,3.0,Large,2.0,6.86982262507081,Object_Land_Solid_Large,1,0,1,25137161,25137606,445
126,choice,choice,18,3.0,Large,2.0,6.86982262507081,Animal_Sea_Pattern_Small,0,0,0,25137800,25138043,243
126,choice,choice,18,3.0,Large,2.0,6.86982262507081,Animal_Sea_Pattern_Large,5,0,1,25138080,25139210,1130
126,choice,choice,18,3.0,Large,2.0,6.86982262507081,Object_Land_Solid_Small,2,0,0,25139638,25140128,490
126,choice,choice,18,3.0,Large,2.0,6.86982262507081,Animal_Sea_Solid_Large,3,0,1,25140167,25140525,358
126,choice,choice,18,3.0,Large,2.0,6.86982262507081,Object_Land_Pattern_Small,4,0,0,25140690,25141079,389
126,choice,choice,18,3.0,Large,2.0,6.86982262507081,fixation,-1,1,0,25141090,25141478,388
126,choice,choice,18,3.0,Large,2.0,6.86982262507081,Animal_Sea_Pattern_Large,5,0,1,25141681,25142109,428
126,choice,choice,18,3.0,Large,2.0,6.86982262507081,Object_Land_Solid_Small,2,0,0,25142142,25142305,163
126,choice,choice,19,3.0,Object,2.0,10.278016875032336,Object_Land_Pattern_Small,4,0,1,25145707,25146379,672
126,choice,choice,19,3.0,Object,2.0,10.278016875032336,fixation,-1,1,0,25146581,25146829,248
126,choice,choice,19,3.0,Object,2.0,10.278016875032336,Animal_Sea_Pattern_Small,0,0,0,25147001,25147423,422
126,choice,choice,19,3.0,Object,2.0,10.278016875032336,Animal_Sea_Pattern_Large,5,0,0,25147461,25147719,258
126,choice,choice,19,3.0,Object,2.0,10.278016875032336,Object_Land_Solid_Small,2,0,1,25147742,25147999,257
126,choice,choice,19,3.0,Object,2.0,10.278016875032336,Object_Land_Solid_Large,1,0,1,25148178,25148384,206
126,choice,choice,19,3.0,Object,2.0,10.278016875032336,Object_Land_Pattern_Small,4,0,1,25148415,25148739,324
126,choice,choice,19,3.0,Object,2.0,10.278016875032336,Animal_Sea_Pattern_Small,0,0,0,25148900,25149040,140
126,choice,choice,19,3.0,Object,2.0,10.278016875032336,Animal_Sea_Pattern_Large,5,0,0,25149074,25150260,1186
126,choice,choice,19,3.0,Object,2.0,10.278016875032336,Object_Land_Solid_Large,1,0,1,25150514,25150755,241
126,choice,choice,19,3.0,Object,2.0,10.278016875032336,Object_Land_Pattern_Small,4,0,1,25150779,25151143,364
126,choice,choice,19,3.0,Object,2.0,10.278016875032336,Object_Land_Solid_Large,1,0,1,25151334,25151687,353
126,choice,choice,19,3.0,Object,2.0,10.278016875032336,Object_Land_Pattern_Small,4,0,1,25151711,25152470,759
126,choice,choice,19,3.0,Object,2.0,10.278016875032336,Object_Land_Solid_Small,2,0,1,25152853,25153499,646
126,choice,choice,19,3.0,Object,2.0,10.278016875032336,Animal_Sea_Pattern_Large,5,0,0,25153541,25154782,1241
126,choice,choice,19,3.0,Object,2.0,10.278016875032336,fixation,-1,1,0,25154998,25155390,392
126,choice,choice,20,3.0,Small,1.0,2.5887738750316203,Object_Land_Pattern_Small,4,0,1,25158866,25159117,251
126,choice,choice,20,3.0,Small,1.0,2.5887738750316203,fixation,-1,1,0,25159140,25159464,324
126,choice,choice,20,3.0,Small,1.0,2.5887738750316203,Animal_Sea_Pattern_Large,5,0,0,25159642,25160194,552
126,choice,choice,20,3.0,Small,1.0,2.5887738750316203,Animal_Sea_Solid_Large,3,0,0,25160242,25160570,328
126,choice,choice,21,3.0,Pattern,2.0,11.040360792074353,Animal_Sea_Pattern_Small,0,0,1,25164971,25165612,641
126,choice,choice,21,3.0,Pattern,2.0,11.040360792074353,Animal_Sea_Pattern_Large,5,0,1,25165632,25166222,590
126,choice,choice,21,3.0,Pattern,2.0,11.040360792074353,Animal_Sea_Pattern_Small,0,0,1,25166435,25167647,1212
126,choice,choice,21,3.0,Pattern,2.0,11.040360792074353,Object_Land_Pattern_Small,4,0,1,25167849,25168249,400
126,choice,choice,21,3.0,Pattern,2.0,11.040360792074353,Animal_Sea_Pattern_Large,5,0,1,25168450,25169196,746
126,choice,choice,21,3.0,Pattern,2.0,11.040360792074353,Object_Land_Solid_Small,2,0,0,25169237,25169351,114
126,choice,choice,21,3.0,Pattern,2.0,11.040360792074353,Animal_Sea_Solid_Large,3,0,0,25169384,25169617,233
126,choice,choice,21,3.0,Pattern,2.0,11.040360792074353,Animal_Sea_Pattern_Small,0,0,1,25169784,25170676,892
126,choice,choice,21,3.0,Pattern,2.0,11.040360792074353,Animal_Sea_Pattern_Large,5,0,1,25170865,25171073,208
126,choice,choice,21,3.0,Pattern,2.0,11.040360792074353,Object_Land_Solid_Small,2,0,0,25171092,25171296,204
126,choice,choice,21,3.0,Pattern,2.0,11.040360792074353,Animal_Sea_Pattern_Small,0,0,1,25171336,25173252,1916
126,choice,choice,21,3.0,Pattern,2.0,11.040360792074353,Object_Land_Solid_Large,1,0,0,25173671,25174175,504
126,choice,choice,21,3.0,Pattern,2.0,11.040360792074353,Animal_Sea_Pattern_Large,5,0,1,25174239,25174892,653
126,choice,choice,21,3.0,Pattern,2.0,11.040360792074353,Object_Land_Solid_Large,1,0,0,25174939,25175136,197
126,choice,choice,21,3.0,Pattern,2.0,11.040360792074353,Object_Land_Solid_Small,2,0,0,25175185,25175352,167
126,choice,choice,22,3.0,Animal,2.0,13.73490958311595,fixation,-1,1,0,25178641,25178888,247
126,choice,choice,22,3.0,Animal,2.0,13.73490958311595,Animal_Sea_Solid_Large,3,0,1,25179084,25179420,336
126,choice,choice,22,3.0,Animal,2.0,13.73490958311595,Object_Land_Solid_Small,2,0,0,25179442,25180364,922
126,choice,choice,22,3.0,Animal,2.0,13.73490958311595,Animal_Sea_Solid_Large,3,0,1,25180567,25181345,778
126,choice,choice,22,3.0,Animal,2.0,13.73490958311595,Object_Land_Pattern_Small,4,0,0,25181584,25181802,218
126,choice,choice,22,3.0,Animal,2.0,13.73490958311595,Animal_Sea_Solid_Large,3,0,1,25181817,25182096,279
126,choice,choice,22,3.0,Animal,2.0,13.73490958311595,Object_Land_Pattern_Small,4,0,0,25182379,25182955,576
126,choice,choice,22,3.0,Animal,2.0,13.73490958311595,Animal_Sea_Pattern_Small,0,0,1,25182990,25186212,3222
126,choice,choice,22,3.0,Animal,2.0,13.73490958311595,Object_Land_Pattern_Small,4,0,0,25186571,25187552,981
126,choice,choice,22,3.0,Animal,2.0,13.73490958311595,Object_Land_Solid_Large,1,0,0,25187777,25188137,360
126,choice,choice,22,3.0,Animal,2.0,13.73490958311595,Object_Land_Solid_Small,2,0,0,25188281,25188758,477
126,choice,choice,22,3.0,Animal,2.0,13.73490958311595,Animal_Sea_Solid_Large,3,0,1,25188794,25189266,472
126,choice,choice,22,3.0,Animal,2.0,13.73490958311595,Animal_Sea_Pattern_Small,0,0,1,25189493,25190196,703
126,choice,choice,22,3.0,Animal,2.0,13.73490958311595,Object_Land_Solid_Large,1,0,0,25190364,25190687,323
126,choice,choice,22,3.0,Animal,2.0,13.73490958311595,Object_Land_Solid_Small,2,0,0,25190710,25190963,253
126,choice,choice,22,3.0,Animal,2.0,13.73490958311595,Animal_Sea_Pattern_Large,5,0,1,25190984,25191464,480
126,choice,choice,22,3.0,Animal,2.0,13.73490958311595,Animal_Sea_Solid_Large,3,0,1,25191669,25191862,193
126,choice,choice,23,3.0,Sea,2.0,5.31303304200992,Object_Land_Pattern_Small,4,0,0,25195471,25195768,297
126,choice,choice,23,3.0,Sea,2.0,5.31303304200992,fixation,-1,1,0,25195980,25196129,149
126,choice,choice,23,3.0,Sea,2.0,5.31303304200992,Animal_Sea_Pattern_Large,5,0,1,25196154,25196680,526
126,choice,choice,23,3.0,Sea,2.0,5.31303304200992,Animal_Sea_Pattern_Small,0,0,1,25196721,25197034,313
126,choice,choice,23,3.0,Sea,2.0,5.31303304200992,Animal_Sea_Pattern_Large,5,0,1,25197058,25197357,299
126,choice,choice,23,3.0,Sea,2.0,5.31303304200992,Object_Land_Solid_Small,2,0,0,25197416,25197755,339
126,choice,choice,23,3.0,Sea,2.0,5.31303304200992,Animal_Sea_Pattern_Large,5,0,1,25197923,25199039,1116
126,choice,choice,23,3.0,Sea,2.0,5.31303304200992,Object_Land_Solid_Small,2,0,0,25199302,25199838,536
126,choice,choice,23,3.0,Sea,2.0,5.31303304200992,Animal_Sea_Solid_Large,3,0,1,25200334,25200542,208
126,choice,choice,23,3.0,Sea,2.0,5.31303304200992,Animal_Sea_Pattern_Large,5,0,1,25200579,25200689,110
126,choice,choice,24,3.0,Land,1.0,7.785888125188649,Object_Land_Pattern_Small,4,0,1,25204109,25204390,281
126,choice,choice,24,3.0,Land,1.0,7.785888125188649,Object_Land_Solid_Large,1,0,1,25204411,25204844,433
126,choice,choice,24,3.0,Land,1.0,7.785888125188649,Animal_Sea_Pattern_Small,0,0,0,25204867,25205138,271
126,choice,choice,24,3.0,Land,1.0,7.785888125188649,Object_Land_Solid_Large,1,0,1,25205323,25205897,574
126,choice,choice,24,3.0,Land,1.0,7.785888125188649,Animal_Sea_Solid_Large,3,0,0,25205951,25206263,312
126,choice,choice,24,3.0,Land,1.0,7.785888125188649,Object_Land_Pattern_Small,4,0,1,25206462,25206754,292
126,choice,choice,24,3.0,Land,1.0,7.785888125188649,fixation,-1,1,0,25206778,25207203,425
126,choice,choice,24,3.0,Land,1.0,7.785888125188649,Object_Land_Pattern_Small,4,0,1,25207385,25207607,222
126,choice,choice,24,3.0,Land,1.0,7.785888125188649,Object_Land_Solid_Large,1,0,1,25207629,25208067,438
126,choice,choice,24,3.0,Land,1.0,7.785888125188649,Object_Land_Pattern_Small,4,0,1,25208088,25208259,171
126,choice,choice,24,3.0,Land,1.0,7.785888125188649,Animal_Sea_Pattern_Large,5,0,0,25208452,25208658,206
126,choice,choice,24,3.0,Land,1.0,7.785888125188649,Object_Land_Solid_Small,2,0,1,25208679,25208926,247
126,choice,choice,24,3.0,Land,1.0,7.785888125188649,Animal_Sea_Pattern_Large,5,0,0,25208953,25209910,957
126,choice,choice,24,3.0,Land,1.0,7.785888125188649,Object_Land_Solid_Small,2,0,1,25210614,25210837,223
126,choice,choice,24,3.0,Land,1.0,7.785888125188649,Animal_Sea_Solid_Large,3,0,0,25210847,25211036,189
126,choice,choice,24,3.0,Land,1.0,7.785888125188649,Animal_Sea_Pattern_Large,5,0,0,25211074,25211278,204
126,choice,choice,25,4.0,Pattern,2.0,15.474328249925748,Object_Sea_Solid_Large,0,0,0,25526403,25526534,131
126,choice,choice,25,4.0,Pattern,2.0,15.474328249925748,Object_Land_Pattern_Large,1,0,1,25526559,25527048,489
126,choice,choice,25,4.0,Pattern,2.0,15.474328249925748,Animal_Land_Pattern_Small,2,0,1,25527258,25527743,485
126,choice,choice,25,4.0,Pattern,2.0,15.474328249925748,Animal_Sea_Solid_Large,3,0,0,25527779,25528001,222
126,choice,choice,25,4.0,Pattern,2.0,15.474328249925748,Object_Land_Pattern_Small,4,0,1,25528041,25528478,437
126,choice,choice,25,4.0,Pattern,2.0,15.474328249925748,fixation,-1,1,0,25528644,25528883,239
126,choice,choice,25,4.0,Pattern,2.0,15.474328249925748,Animal_Sea_Solid_Small,5,0,0,25528901,25529329,428
126,choice,choice,25,4.0,Pattern,2.0,15.474328249925748,Animal_Sea_Solid_Large,3,0,0,25529345,25529605,260
126,choice,choice,25,4.0,Pattern,2.0,15.474328249925748,fixation,-1,1,0,25529799,25530241,442
126,choice,choice,25,4.0,Pattern,2.0,15.474328249925748,Animal_Land_Pattern_Small,2,0,1,25530255,25530489,234
126,choice,choice,25,4.0,Pattern,2.0,15.474328249925748,Object_Sea_Solid_Large,0,0,0,25530688,25531106,418
126,choice,choice,25,4.0,Pattern,2.0,15.474328249925748,Animal_Land_Pattern_Small,2,0,1,25531137,25534642,3505
126,choice,choice,25,4.0,Pattern,2.0,15.474328249925748,Animal_Sea_Solid_Small,5,0,0,25535796,25536337,541
126,choice,choice,25,4.0,Pattern,2.0,15.474328249925748,Animal_Land_Pattern_Small,2,0,1,25536574,25536721,147
126,choice,choice,25,4.0,Pattern,2.0,15.474328249925748,Animal_Sea_Solid_Small,5,0,0,25536992,25538569,1577
126,choice,choice,25,4.0,Pattern,2.0,15.474328249925748,Animal_Sea_Solid_Large,3,0,0,25538994,25539820,826
126,choice,choice,25,4.0,Pattern,2.0,15.474328249925748,Animal_Land_Pattern_Small,2,0,1,25540070,25541177,1107
126,choice,choice,25,4.0,Pattern,2.0,15.474328249925748,Animal_Sea_Solid_Small,5,0,0,25541290,25541408,118
126,choice,choice,26,4.0,Large,1.0,4.679384042043239,Object_Sea_Solid_Large,0,0,1,25544727,25545236,509
126,choice,choice,26,4.0,Large,1.0,4.679384042043239,Object_Land_Pattern_Small,4,0,0,25545283,25545515,232
126,choice,choice,26,4.0,Large,1.0,4.679384042043239,Object_Sea_Solid_Large,0,0,1,25545704,25546136,432
126,choice,choice,26,4.0,Large,1.0,4.679384042043239,Animal_Land_Pattern_Small,2,0,0,25546542,25546825,283
126,choice,choice,26,4.0,Large,1.0,4.679384042043239,Object_Land_Pattern_Large,1,0,1,25546990,25547260,270
126,choice,choice,26,4.0,Large,1.0,4.679384042043239,Object_Sea_Solid_Large,0,0,1,25547284,25547835,551
126,choice,choice,26,4.0,Large,1.0,4.679384042043239,Animal_Land_Pattern_Small,2,0,0,25547874,25548304,430
126,choice,choice,26,4.0,Large,1.0,4.679384042043239,Animal_Sea_Solid_Large,3,0,1,25548483,25548942,459
126,choice,choice,27,4.0,Animal,1.0,2.624577875016257,Animal_Sea_Solid_Small,5,0,1,25553241,25553392,151
126,choice,choice,27,4.0,Animal,1.0,2.624577875016257,fixation,-1,1,0,25553408,25553597,189
126,choice,choice,27,4.0,Animal,1.0,2.624577875016257,Animal_Sea_Solid_Large,3,0,1,25553623,25554068,445
126,choice,choice,27,4.0,Animal,1.0,2.624577875016257,Animal_Sea_Solid_Small,5,0,1,25554106,25554398,292
126,choice,choice,27,4.0,Animal,1.0,2.624577875016257,Animal_Land_Pattern_Small,2,0,1,25554425,25554679,254
126,choice,choice,27,4.0,Animal,1.0,2.624577875016257,Object_Land_Pattern_Large,1,0,0,25554705,25555036,331
126,choice,choice,27,4.0,Animal,1.0,2.624577875016257,Animal_Sea_Solid_Small,5,0,1,25555224,25555352,128
126,choice,choice,28,4.0,Solid,1.0,5.044246041914448,Animal_Sea_Solid_Small,5,0,1,25559136,25559511,375
126,choice,choice,28,4.0,Solid,1.0,5.044246041914448,Object_Sea_Solid_Large,0,0,1,25559567,25559939,372
126,choice,choice,28,4.0,Solid,1.0,5.044246041914448,Object_Land_Pattern_Small,4,0,0,25559961,25560463,502
126,choice,choice,28,4.0,Solid,1.0,5.044246041914448,Object_Land_Pattern_Large,1,0,0,25560664,25561159,495
126,choice,choice,28,4.0,Solid,1.0,5.044246041914448,Object_Sea_Solid_Large,0,0,1,25561223,25561581,358
126,choice,choice,28,4.0,Solid,1.0,5.044246041914448,Animal_Sea_Solid_Small,5,0,1,25561618,25562051,433
126,choice,choice,28,4.0,Solid,1.0,5.044246041914448,Animal_Land_Pattern_Small,2,0,0,25562217,25562386,169
126,choice,choice,28,4.0,Solid,1.0,5.044246041914448,fixation,-1,1,0,25562409,25562859,450
126,choice,choice,28,4.0,Solid,1.0,5.044246041914448,Animal_Sea_Solid_Large,3,0,1,25562881,25563211,330
126,choice,choice,28,4.0,Solid,1.0,5.044246041914448,Animal_Land_Pattern_Small,2,0,0,25563242,25563523,281
126,choice,choice,29,4.0,Object,2.0,2.754751458996907,Object_Sea_Solid_Large,0,0,1,25566385,25566648,263
126,choice,choice,29,4.0,Object,2.0,2.754751458996907,Animal_Land_Pattern_Small,2,0,0,25566796,25566920,124
126,choice,choice,29,4.0,Object,2.0,2.754751458996907,Animal_Sea_Solid_Large,3,0,0,25567356,25568134,778
126,choice,choice,30,4.0,Land,2.0,11.457677708007395,Object_Sea_Solid_Large,0,0,0,25572320,25572653,333
126,choice,choice,30,4.0,Land,2.0,11.457677708007395,Object_Land_Pattern_Small,4,0,1,25573637,25574104,467
126,choice,choice,30,4.0,Land,2.0,11.457677708007395,Object_Sea_Solid_Large,0,0,0,25574130,25575187,1057
126,choice,choice,30,4.0,Land,2.0,11.457677708007395,Object_Land_Pattern_Large,1,0,1,25575371,25575836,465
126,choice,choice,30,4.0,Land,2.0,11.457677708007395,fixation,-1,1,0,25576009,25576283,274
126,choice,choice,30,4.0,Land,2.0,11.457677708007395,Animal_Sea_Solid_Large,3,0,0,25576306,25576859,553
126,choice,choice,30,4.0,Land,2.0,11.457677708007395,Animal_Land_Pattern_Small,2,0,1,25577081,25577999,918
126,choice,choice,30,4.0,Land,2.0,11.457677708007395,Animal_Sea_Solid_Small,5,0,0,25578410,25578903,493
126,choice,choice,30,4.0,Land,2.0,11.457677708007395,fixation,-1,1,0,25578943,25579434,491
126,choice,choice,30,4.0,Land,2.0,11.457677708007395,Animal_Sea_Solid_Small,5,0,0,25579456,25579652,196
126,choice,choice,30,4.0,Land,2.0,11.457677708007395,fixation,-1,1,0,25579673,25579994,321
126,choice,choice,30,4.0,Land,2.0,11.457677708007395,Object_Land_Pattern_Small,4,0,1,25580167,25581039,872
126,choice,choice,30,4.0,Land,2.0,11.457677708007395,Object_Land_Pattern_Large,1,0,1,25581063,25581516,453
126,choice,choice,30,4.0,Land,2.0,11.457677708007395,Object_Sea_Solid_Large,0,0,0,25581718,25582147,429
126,choice,choice,30,4.0,Land,2.0,11.457677708007395,Animal_Land_Pattern_Small,2,0,1,25582184,25582383,199
126,choice,choice,30,4.0,Land,2.0,11.457677708007395,Animal_Sea_Solid_Small,5,0,0,25582528,25582679,151
126,choice,choice,31,4.0,Small,2.0,10.980356957996264,Object_Land_Pattern_Small,4,0,1,25587131,25587338,207
126,choice,choice,31,4.0,Small,2.0,10.980356957996264,fixation,-1,1,0,25587358,25588155,797
126,choice,choice,31,4.0,Small,2.0,10.980356957996264,Object_Land_Pattern_Small,4,0,1,25588353,25588553,200
126,choice,choice,31,4.0,Small,2.0,10.980356957996264,fixation,-1,1,0,25588570,25589213,643
126,choice,choice,31,4.0,Small,2.0,10.980356957996264,Object_Land_Pattern_Small,4,0,1,25589231,25589685,454
126,choice,choice,31,4.0,Small,2.0,10.980356957996264,fixation,-1,1,0,25589924,25591050,1126
126,choice,choice,31,4.0,Small,2.0,10.980356957996264,Object_Land_Pattern_Large,1,0,0,25591744,25592150,406
126,choice,choice,31,4.0,Small,2.0,10.980356957996264,Object_Land_Pattern_Small,4,0,1,25592175,25592500,325
126,choice,choice,31,4.0,Small,2.0,10.980356957996264,Object_Sea_Solid_Large,0,0,0,25592670,25592932,262
126,choice,choice,31,4.0,Small,2.0,10.980356957996264,fixation,-1,1,0,25592951,25593179,228
126,choice,choice,31,4.0,Small,2.0,10.980356957996264,Animal_Sea_Solid_Large,3,0,0,25593205,25593518,313
126,choice,choice,31,4.0,Small,2.0,10.980356957996264,Animal_Sea_Solid_Small,5,0,1,25593714,25593867,153
126,choice,choice,31,4.0,Small,2.0,10.980356957996264,Object_Land_Pattern_Small,4,0,1,25595140,25595549,409
126,choice,choice,31,4.0,Small,2.0,10.980356957996264,fixation,-1,1,0,25595568,25596228,660
126,choice,choice,31,4.0,Small,2.0,10.980356957996264,Object_Land_Pattern_Small,4,0,1,25596257,25596422,165
126,choice,choice,31,4.0,Small,2.0,10.980356957996264,fixation,-1,1,0,25596600,25597054,454
126,choice,choice,31,4.0,Small,2.0,10.980356957996264,Animal_Sea_Solid_Small,5,0,1,25597108,25597270,162
126,choice,choice,32,4.0,Sea,1.0,3.2208840418606997,fixation,-1,1,0,25600798,25601075,277
126,choice,choice,32,4.0,Sea,1.0,3.2208840418606997,Object_Sea_Solid_Large,0,0,1,25601097,25601140,43
126,choice,choice,32,4.0,Sea,1.0,3.2208840418606997,Object_Land_Pattern_Large,1,0,0,25601415,25601994,579
126,choice,choice,32,4.0,Sea,1.0,3.2208840418606997,fixation,-1,1,0,25602052,25602363,311
126,choice,choice,32,4.0,Sea,1.0,3.2208840418606997,Animal_Land_Pattern_Small,2,0,0,25602387,25602589,202
126,choice,choice,32,4.0,Sea,1.0,3.2208840418606997,Animal_Sea_Solid_Small,5,0,1,25602605,25602815,210
126,choice,choice,32,4.0,Sea,1.0,3.2208840418606997,Animal_Land_Pattern_Small,2,0,0,25602835,25603100,265
126,choice,choice,32,4.0,Sea,1.0,3.2208840418606997,Animal_Sea_Solid_Large,3,0,1,25603137,25603528,391
126,choice,choice,32,4.0,Sea,1.0,3.2208840418606997,Animal_Sea_Solid_Small,5,0,1,25603539,25603660,121
126,choice,choice,32,4.0,Sea,1.0,3.2208840418606997,Animal_Sea_Solid_Large,3,0,1,25603686,25603786,100
126,choice,choice,33,5.0,Sea,1.0,17.153503249865025,Animal_Land_Solid_Small,0,0,0,25929374,25929591,217
126,choice,choice,33,5.0,Sea,1.0,17.153503249865025,Object_Sea_Pattern_Large,1,0,1,25929630,25931005,1375
126,choice,choice,33,5.0,Sea,1.0,17.153503249865025,Animal_Land_Solid_Small,0,0,0,25931215,25931658,443
126,choice,choice,33,5.0,Sea,1.0,17.153503249865025,fixation,-1,1,0,25931860,25932059,199
126,choice,choice,33,5.0,Sea,1.0,17.153503249865025,Object_Sea_Pattern_Large,1,0,1,25932080,25933008,928
126,choice,choice,33,5.0,Sea,1.0,17.153503249865025,Object_Sea_Solid_Small,2,0,1,25933208,25933473,265
126,choice,choice,33,5.0,Sea,1.0,17.153503249865025,Animal_Land_Solid_Large,3,0,0,25933643,25933860,217
126,choice,choice,33,5.0,Sea,1.0,17.153503249865025,Object_Sea_Pattern_Small,4,0,1,25933882,25934116,234
126,choice,choice,33,5.0,Sea,1.0,17.153503249865025,Animal_Land_Solid_Large,3,0,0,25934329,25934902,573
126,choice,choice,33,5.0,Sea,1.0,17.153503249865025,Object_Sea_Pattern_Small,4,0,1,25935121,25935594,473
126,choice,choice,33,5.0,Sea,1.0,17.153503249865025,Object_Sea_Solid_Small,2,0,1,25935649,25935860,211
126,choice,choice,33,5.0,Sea,1.0,17.153503249865025,Animal_Land_Solid_Large,3,0,0,25936041,25936208,167
126,choice,choice,33,5.0,Sea,1.0,17.153503249865025,Object_Sea_Pattern_Large,1,0,1,25936235,25936679,444
126,choice,choice,33,5.0,Sea,1.0,17.153503249865025,Animal_Land_Pattern_Large,5,0,0,25937044,25937348,304
126,choice,choice,33,5.0,Sea,1.0,17.153503249865025,Object_Sea_Pattern_Large,1,0,1,25937375,25937622,247
126,choice,choice,33,5.0,Sea,1.0,17.153503249865025,Animal_Land_Pattern_Large,5,0,0,25937653,25937838,185
126,choice,choice,33,5.0,Sea,1.0,17.153503249865025,fixation,-1,1,0,25938015,25938174,159
126,choice,choice,33,5.0,Sea,1.0,17.153503249865025,Object_Sea_Solid_Small,2,0,1,25938207,25939352,1145
126,choice,choice,33,5.0,Sea,1.0,17.153503249865025,Object_Sea_Pattern_Small,4,0,1,25939975,25940608,633
126,choice,choice,33,5.0,Sea,1.0,17.153503249865025,Animal_Land_Solid_Large,3,0,0,25940659,25940844,185
126,choice,choice,33,5.0,Sea,1.0,17.153503249865025,Object_Sea_Solid_Small,2,0,1,25941368,25941729,361
126,choice,choice,33,5.0,Sea,1.0,17.153503249865025,Animal_Land_Solid_Large,3,0,0,25941876,25942232,356
126,choice,choice,33,5.0,Sea,1.0,17.153503249865025,Object_Sea_Solid_Small,2,0,1,25942265,25943353,1088
126,choice,choice,33,5.0,Sea,1.0,17.153503249865025,Animal_Land_Solid_Large,3,0,0,25944813,25945383,570
126,choice,choice,34,5.0,Small,2.0,7.947979750111699,Object_Sea_Solid_Small,2,0,1,25949831,25950021,190
126,choice,choice,34,5.0,Small,2.0,7.947979750111699,Animal_Land_Pattern_Large,5,0,0,25950208,25950754,546
126,choice,choice,34,5.0,Small,2.0,7.947979750111699,fixation,-1,1,0,25950936,25951234,298
126,choice,choice,34,5.0,Small,2.0,7.947979750111699,Animal_Land_Solid_Small,0,0,1,25951259,25951814,555
126,choice,choice,34,5.0,Small,2.0,7.947979750111699,fixation,-1,1,0,25952031,25952356,325
126,choice,choice,34,5.0,Small,2.0,7.947979750111699,Object_Sea_Pattern_Large,1,0,0,25952537,25952730,193
126,choice,choice,34,5.0,Small,2.0,7.947979750111699,Object_Sea_Solid_Small,2,0,1,25952755,25953305,550
126,choice,choice,34,5.0,Small,2.0,7.947979750111699,Object_Sea_Pattern_Small,4,0,1,25953514,25953691,177
126,choice,choice,34,5.0,Small,2.0,7.947979750111699,Animal_Land_Solid_Large,3,0,0,25953885,25954166,281
126,choice,choice,34,5.0,Small,2.0,7.947979750111699,fixation,-1,1,0,25954176,25954418,242
126,choice,choice,34,5.0,Small,2.0,7.947979750111699,Animal_Land_Solid_Large,3,0,0,25954439,25954870,431
126,choice,choice,34,5.0,Small,2.0,7.947979750111699,Object_Sea_Pattern_Small,4,0,1,25955076,25955346,270
126,choice,choice,34,5.0,Small,2.0,7.947979750111699,Object_Sea_Solid_Small,2,0,1,25955503,25955745,242
126,choice,choice,34,5.0,Small,2.0,7.947979750111699,Animal_Land_Solid_Large,3,0,0,25956855,25957532,677
126,choice,choice,35,5.0,Large,1.0,16.63656320888549,Animal_Land_Solid_Small,0,0,0,25960842,25961102,260
126,choice,choice,35,5.0,Large,1.0,16.63656320888549,Object_Sea_Pattern_Large,1,0,1,25961287,25962279,992
126,choice,choice,35,5.0,Large,1.0,16.63656320888549,Object_Sea_Pattern_Small,4,0,0,25962496,25962694,198
126,choice,choice,35,5.0,Large,1.0,16.63656320888549,fixation,-1,1,0,25962869,25963609,740
126,choice,choice,35,5.0,Large,1.0,16.63656320888549,Object_Sea_Pattern_Small,4,0,0,25963636,25963854,218
126,choice,choice,35,5.0,Large,1.0,16.63656320888549,Object_Sea_Solid_Small,2,0,0,25963876,25964534,658
126,choice,choice,35,5.0,Large,1.0,16.63656320888549,Animal_Land_Solid_Large,3,0,1,25964742,25965114,372
126,choice,choice,35,5.0,Large,1.0,16.63656320888549,fixation,-1,1,0,25965138,25965532,394
126,choice,choice,35,5.0,Large,1.0,16.63656320888549,Object_Sea_Pattern_Large,1,0,1,25965555,25966197,642
126,choice,choice,35,5.0,Large,1.0,16.63656320888549,fixation,-1,1,0,25966388,25966684,296
126,choice,choice,35,5.0,Large,1.0,16.63656320888549,Object_Sea_Solid_Small,2,0,0,25966709,25966970,261
126,choice,choice,35,5.0,Large,1.0,16.63656320888549,Animal_Land_Pattern_Large,5,0,1,25967158,25967545,387
126,choice,choice,35,5.0,Large,1.0,16.63656320888549,fixation,-1,1,0,25967568,25967880,312
126,choice,choice,35,5.0,Large,1.0,16.63656320888549,Object_Sea_Solid_Small,2,0,0,25968070,25968669,599
126,choice,choice,35,5.0,Large,1.0,16.63656320888549,Animal_Land_Solid_Small,0,0,0,25968874,25969081,207
126,choice,choice,35,5.0,Large,1.0,16.63656320888549,Object_Sea_Pattern_Small,4,0,0,25969119,25969435,316
126,choice,choice,35,5.0,Large,1.0,16.63656320888549,Animal_Land_Pattern_Large,5,0,1,25969654,25970555,901
126,choice,choice,35,5.0,Large,1.0,16.63656320888549,Object_Sea_Pattern_Large,1,0,1,25970837,25971103,266
126,choice,choice,35,5.0,Large,1.0,16.63656320888549,fixation,-1,1,0,25971127,25971420,293
126,choice,choice,35,5.0,Large,1.0,16.63656320888549,Object_Sea_Pattern_Large,1,0,1,25971630,25972156,526
126,choice,choice,35,5.0,Large,1.0,16.63656320888549,Animal_Land_Solid_Small,0,0,0,25972220,25972440,220
126,choice,choice,35,5.0,Large,1.0,16.63656320888549,Object_Sea_Pattern_Large,1,0,1,25972471,25973575,1104
126,choice,choice,35,5.0,Large,1.0,16.63656320888549,Animal_Land_Pattern_Large,5,0,1,25973833,25974063,230
126,choice,choice,35,5.0,Large,1.0,16.63656320888549,fixation,-1,1,0,25974253,25974817,564
126,choice,choice,35,5.0,Large,1.0,16.63656320888549,Animal_Land_Solid_Large,3,0,1,25975016,25975628,612
126,choice,choice,35,5.0,Large,1.0,16.63656320888549,Object_Sea_Pattern_Small,4,0,0,25975675,25976187,512
126,choice,choice,35,5.0,Large,1.0,16.63656320888549,Animal_Land_Solid_Small,0,0,0,25976423,25976648,225
126,choice,choice,35,5.0,Large,1.0,16.63656320888549,Object_Sea_Pattern_Small,4,0,0,25976681,25976943,262
126,choice,choice,35,5.0,Large,1.0,16.63656320888549,Animal_Land_Solid_Large,3,0,1,25977013,25977206,193
126,choice,choice,35,5.0,Large,1.0,16.63656320888549,Object_Sea_Solid_Small,2,0,0,25977246,25977356,110
126,choice,choice,36,5.0,Land,1.0,21.59061612514779,Animal_Land_Pattern_Large,5,0,1,25980181,25980479,298
126,choice,choice,36,5.0,Land,1.0,21.59061612514779,Animal_Land_Solid_Small,0,0,1,25980505,25981794,1289
126,choice,choice,36,5.0,Land,1.0,21.59061612514779,Object_Sea_Pattern_Large,1,0,0,25982178,25982415,237
126,choice,choice,36,5.0,Land,1.0,21.59061612514779,Object_Sea_Pattern_Small,4,0,0,25982440,25982670,230
126,choice,choice,36,5.0,Land,1.0,21.59061612514779,fixation,-1,1,0,25982866,25983099,233
126,choice,choice,36,5.0,Land,1.0,21.59061612514779,Object_Sea_Solid_Small,2,0,0,25983137,25983465,328
126,choice,choice,36,5.0,Land,1.0,21.59061612514779,Animal_Land_Solid_Small,0,0,1,25983489,25984090,601
126,choice,choice,36,5.0,Land,1.0,21.59061612514779,fixation,-1,1,0,25984296,25984603,307
126,choice,choice,36,5.0,Land,1.0,21.59061612514779,Animal_Land_Solid_Large,3,0,1,25984792,25985391,599
126,choice,choice,36,5.0,Land,1.0,21.59061612514779,fixation,-1,1,0,25985435,25986125,690
126,choice,choice,36,5.0,Land,1.0,21.59061612514779,Animal_Land_Solid_Large,3,0,1,25986318,25986899,581
126,choice,choice,36,5.0,Land,1.0,21.59061612514779,Object_Sea_Solid_Small,2,0,0,25986908,25987131,223
126,choice,choice,36,5.0,Land,1.0,21.59061612514779,Object_Sea_Pattern_Large,1,0,0,25987313,25987660,347
126,choice,choice,36,5.0,Land,1.0,21.59061612514779,Object_Sea_Pattern_Small,4,0,0,25988631,25989616,985
126,choice,choice,36,5.0,Land,1.0,21.59061612514779,Object_Sea_Pattern_Large,1,0,0,25992434,25992761,327
126,choice,choice,36,5.0,Land,1.0,21.59061612514779,Object_Sea_Solid_Small,2,0,0,25992791,25993124,333
126,choice,choice,36,5.0,Land,1.0,21.59061612514779,fixation,-1,1,0,25993143,25993440,297
126,choice,choice,36,5.0,Land,1.0,21.59061612514779,Object_Sea_Pattern_Small,4,0,0,25993459,25993650,191
126,choice,choice,36,5.0,Land,1.0,21.59061612514779,Object_Sea_Pattern_Large,1,0,0,25993813,25994118,305
126,choice,choice,36,5.0,Land,1.0,21.59061612514779,Animal_Land_Pattern_Large,5,0,1,25994182,25994474,292
126,choice,choice,36,5.0,Land,1.0,21.59061612514779,Animal_Land_Solid_Small,0,0,1,25994496,25994693,197
126,choice,choice,36,5.0,Land,1.0,21.59061612514779,Object_Sea_Pattern_Large,1,0,0,25994877,25995125,248
126,choice,choice,36,5.0,Land,1.0,21.59061612514779,Animal_Land_Solid_Small,0,0,1,25995163,25995524,361
126,choice,choice,36,5.0,Land,1.0,21.59061612514779,fixation,-1,1,0,25995549,25995848,299
126,choice,choice,36,5.0,Land,1.0,21.59061612514779,Animal_Land_Pattern_Large,5,0,1,25996042,25996649,607
126,choice,choice,36,5.0,Land,1.0,21.59061612514779,fixation,-1,1,0,25996680,25997174,494
126,choice,choice,36,5.0,Land,1.0,21.59061612514779,Animal_Land_Solid_Large,3,0,1,25997356,25998033,677
126,choice,choice,36,5.0,Land,1.0,21.59061612514779,Object_Sea_Pattern_Small,4,0,0,25998155,25998478,323
126,choice,choice,36,5.0,Land,1.0,21.59061612514779,Object_Sea_Solid_Small,2,0,0,26000559,26000899,340
126,choice,choice,36,5.0,Land,1.0,21.59061612514779,Animal_Land_Solid_Large,3,0,1,26000919,26001280,361
126,choice,choice,37,5.0,Animal,2.0,10.390841125044972,Animal_Land_Solid_Small,0,0,1,26004487,26005022,535
126,choice,choice,37,5.0,Animal,2.0,10.390841125044972,Object_Sea_Pattern_Large,1,0,0,26005041,26005272,231
126,choice,choice,37,5.0,Animal,2.0,10.390841125044972,Object_Sea_Solid_Small,2,0,0,26005466,26005734,268
126,choice,choice,37,5.0,Animal,2.0,10.390841125044972,Object_Sea_Pattern_Small,4,0,0,26005768,26006041,273
126,choice,choice,37,5.0,Animal,2.0,10.390841125044972,Object_Sea_Solid_Small,2,0,0,26006078,26006897,819
126,choice,choice,37,5.0,Animal,2.0,10.390841125044972,fixation,-1,1,0,26007649,26007920,271
126,choice,choice,37,5.0,Animal,2.0,10.390841125044972,Object_Sea_Pattern_Large,1,0,0,26007934,26008256,322
126,choice,choice,37,5.0,Animal,2.0,10.390841125044972,Animal_Land_Pattern_Large,5,0,1,26008616,26008918,302
126,choice,choice,37,5.0,Animal,2.0,10.390841125044972,Object_Sea_Pattern_Large,1,0,0,26008954,26010032,1078
126,choice,choice,37,5.0,Animal,2.0,10.390841125044972,Object_Sea_Solid_Small,2,0,0,26010800,26011460,660
126,choice,choice,37,5.0,Animal,2.0,10.390841125044972,Animal_Land_Pattern_Large,5,0,1,26011682,26012615,933
126,choice,choice,37,5.0,Animal,2.0,10.390841125044972,Animal_Land_Solid_Small,0,0,1,26012893,26013195,302
126,choice,choice,37,5.0,Animal,2.0,10.390841125044972,Animal_Land_Solid_Large,3,0,1,26013227,26013531,304
126,choice,choice,37,5.0,Animal,2.0,10.390841125044972,Object_Sea_Solid_Small,2,0,0,26013743,26014085,342
126,choice,choice,37,5.0,Animal,2.0,10.390841125044972,Object_Sea_Pattern_Small,4,0,0,26014106,26014289,183
126,choice,choice,37,5.0,Animal,2.0,10.390841125044972,fixation,-1,1,0,26014303,26014695,392
126,choice,choice,38,5.0,Solid,1.0,12.347756624920294,Animal_Land_Solid_Small,0,0,1,26018165,26018542,377
126,choice,choice,38,5.0,Solid,1.0,12.347756624920294,Object_Sea_Solid_Small,2,0,1,26018730,26018974,244
126,choice,choice,38,5.0,Solid,1.0,12.347756624920294,Animal_Land_Solid_Large,3,0,1,26018996,26019254,258
126,choice,choice,38,5.0,Solid,1.0,12.347756624920294,fixation,-1,1,0,26019280,26019590,310
126,choice,choice,38,5.0,Solid,1.0,12.347756624920294,Object_Sea_Solid_Small,2,0,1,26019804,26020626,822
126,choice,choice,38,5.0,Solid,1.0,12.347756624920294,Animal_Land_Pattern_Large,5,0,0,26020880,26021423,543
126,choice,choice,38,5.0,Solid,1.0,12.347756624920294,Object_Sea_Solid_Small,2,0,1,26021445,26021697,252
126,choice,choice,38,5.0,Solid,1.0,12.347756624920294,Animal_Land_Solid_Large,3,0,1,26021924,26022283,359
126,choice,choice,38,5.0,Solid,1.0,12.347756624920294,Object_Sea_Pattern_Small,4,0,0,26022305,26023051,746
126,choice,choice,38,5.0,Solid,1.0,12.347756624920294,Animal_Land_Solid_Large,3,0,1,26023269,26023730,461
126,choice,choice,38,5.0,Solid,1.0,12.347756624920294,Animal_Land_Solid_Small,0,0,1,26023968,26025317,1349
126,choice,choice,38,5.0,Solid,1.0,12.347756624920294,Animal_Land_Solid_Large,3,0,1,26025596,26026271,675
126,choice,choice,38,5.0,Solid,1.0,12.347756624920294,Object_Sea_Pattern_Small,4,0,0,26026500,26026876,376
126,choice,choice,38,5.0,Solid,1.0,12.347756624920294,Animal_Land_Solid_Large,3,0,1,26026899,26027474,575
126,choice,choice,38,5.0,Solid,1.0,12.347756624920294,Object_Sea_Pattern_Small,4,0,0,26027497,26027958,461
126,choice,choice,38,5.0,Solid,1.0,12.347756624920294,Object_Sea_Pattern_Large,1,0,0,26028135,26028341,206
126,choice,choice,38,5.0,Solid,1.0,12.347756624920294,Object_Sea_Pattern_Small,4,0,0,26028361,26028623,262
126,choice,choice,38,5.0,Solid,1.0,12.347756624920294,Animal_Land_Solid_Large,3,0,1,26028649,26028834,185
126,choice,choice,39,5.0,Object,1.0,8.970703708939254,Object_Sea_Solid_Small,2,0,1,26032480,26032957,477
126,choice,choice,39,5.0,Object,1.0,8.970703708939254,Object_Sea_Pattern_Large,1,0,1,26033158,26033477,319
126,choice,choice,39,5.0,Object,1.0,8.970703708939254,Object_Sea_Pattern_Small,4,0,1,26033500,26034158,658
126,choice,choice,39,5.0,Object,1.0,8.970703708939254,Animal_Land_Pattern_Large,5,0,0,26034411,26034555,144
126,choice,choice,39,5.0,Object,1.0,8.970703708939254,Animal_Land_Solid_Small,0,0,0,26034582,26034831,249
126,choice,choice,39,5.0,Object,1.0,8.970703708939254,Animal_Land_Pattern_Large,5,0,0,26034999,26035188,189
126,choice,choice,39,5.0,Object,1.0,8.970703708939254,Object_Sea_Pattern_Large,1,0,1,26035214,26036131,917
126,choice,choice,39,5.0,Object,1.0,8.970703708939254,Object_Sea_Solid_Small,2,0,1,26036347,26036994,647
126,choice,choice,39,5.0,Object,1.0,8.970703708939254,Animal_Land_Solid_Small,0,0,0,26037210,26037374,164
126,choice,choice,39,5.0,Object,1.0,8.970703708939254,Animal_Land_Solid_Large,3,0,0,26037413,26037730,317
126,choice,choice,39,5.0,Object,1.0,8.970703708939254,Object_Sea_Pattern_Small,4,0,1,26037755,26038186,431
126,choice,choice,39,5.0,Object,1.0,8.970703708939254,Object_Sea_Pattern_Large,1,0,1,26038233,26038697,464
126,choice,choice,39,5.0,Object,1.0,8.970703708939254,Animal_Land_Solid_Small,0,0,0,26038905,26039072,167
126,choice,choice,39,5.0,Object,1.0,8.970703708939254,Object_Sea_Pattern_Large,1,0,1,26039100,26039597,497
126,choice,choice,39,5.0,Object,1.0,8.970703708939254,Animal_Land_Pattern_Large,5,0,0,26040064,26040490,426
126,choice,choice,39,5.0,Object,1.0,8.970703708939254,Object_Sea_Solid_Small,2,0,1,26040643,26040856,213
126,choice,choice,40,5.0,Pattern,1.0,2.894476625137031,Object_Sea_Pattern_Small,4,0,1,26044962,26045153,191
126,choice,choice,40,5.0,Pattern,1.0,2.894476625137031,Animal_Land_Solid_Small,0,0,0,26045338,26045666,328
126,choice,choice,40,5.0,Pattern,1.0,2.894476625137031,Animal_Land_Solid_Large,3,0,0,26045702,26045995,293
126,choice,choice,40,5.0,Pattern,1.0,2.894476625137031,Object_Sea_Pattern_Small,4,0,1,26046179,26046525,346
126,choice,choice,41,6.0,Land,2.0,19.98801629198715,Animal_Land_Pattern_Large,0,0,1,26343024,26344475,1451
126,choice,choice,41,6.0,Land,2.0,19.98801629198715,fixation,-1,1,0,26344852,26346009,1157
126,choice,choice,41,6.0,Land,2.0,19.98801629198715,Object_Land_Solid_Small,1,0,1,26346228,26346697,469
126,choice,choice,41,6.0,Land,2.0,19.98801629198715,Object_Sea_Solid_Small,2,0,0,26346922,26347298,376
126,choice,choice,41,6.0,Land,2.0,19.98801629198715,Animal_Sea_Pattern_Large,3,0,0,26347349,26347659,310
126,choice,choice,41,6.0,Land,2.0,19.98801629198715,Object_Sea_Pattern_Large,4,0,0,26347677,26348266,589
126,choice,choice,41,6.0,Land,2.0,19.98801629198715,Animal_Sea_Pattern_Large,3,0,0,26348495,26348869,374
126,choice,choice,41,6.0,Land,2.0,19.98801629198715,Animal_Land_Solid_Small,5,0,1,26349038,26349273,235
126,choice,choice,41,6.0,Land,2.0,19.98801629198715,Object_Sea_Pattern_Large,4,0,0,26349297,26349597,300
126,choice,choice,41,6.0,Land,2.0,19.98801629198715,Animal_Land_Solid_Small,5,0,1,26349641,26349986,345
126,choice,choice,41,6.0,Land,2.0,19.98801629198715,Animal_Land_Pattern_Large,0,0,1,26350008,26350334,326
126,choice,choice,41,6.0,Land,2.0,19.98801629198715,fixation,-1,1,0,26350363,26350574,211
126,choice,choice,41,6.0,Land,2.0,19.98801629198715,Animal_Land_Solid_Small,5,0,1,26350770,26351674,904
126,choice,choice,41,6.0,Land,2.0,19.98801629198715,Animal_Land_Pattern_Large,0,0,1,26351926,26352881,955
126,choice,choice,41,6.0,Land,2.0,19.98801629198715,fixation,-1,1,0,26353116,26354228,1112
126,choice,choice,41,6.0,Land,2.0,19.98801629198715,Animal_Land_Pattern_Large,0,0,1,26354437,26354990,553
126,choice,choice,41,6.0,Land,2.0,19.98801629198715,Object_Sea_Pattern_Large,4,0,0,26355010,26355415,405
126,choice,choice,41,6.0,Land,2.0,19.98801629198715,Animal_Land_Solid_Small,5,0,1,26355584,26355897,313
126,choice,choice,41,6.0,Land,2.0,19.98801629198715,Animal_Land_Pattern_Large,0,0,1,26355919,26356178,259
126,choice,choice,41,6.0,Land,2.0,19.98801629198715,Animal_Land_Solid_Small,5,0,1,26356203,26356712,509
126,choice,choice,41,6.0,Land,2.0,19.98801629198715,Animal_Land_Pattern_Large,0,0,1,26356996,26357336,340
126,choice,choice,41,6.0,Land,2.0,19.98801629198715,Object_Sea_Pattern_Large,4,0,0,26357379,26357715,336
126,choice,choice,41,6.0,Land,2.0,19.98801629198715,Animal_Sea_Pattern_Large,3,0,0,26357946,26358217,271
126,choice,choice,41,6.0,Land,2.0,19.98801629198715,Object_Sea_Solid_Small,2,0,0,26358252,26358713,461
126,choice,choice,41,6.0,Land,2.0,19.98801629198715,Object_Sea_Pattern_Large,4,0,0,26358733,26359334,601
126,choice,choice,41,6.0,Land,2.0,19.98801629198715,Animal_Sea_Pattern_Large,3,0,0,26359587,26359847,260
126,choice,choice,41,6.0,Land,2.0,19.98801629198715,Object_Sea_Pattern_Large,4,0,0,26359855,26361593,1738
126,choice,choice,41,6.0,Land,2.0,19.98801629198715,Animal_Sea_Pattern_Large,3,0,0,26362425,26362599,174
126,choice,choice,41,6.0,Land,2.0,19.98801629198715,fixation,-1,1,0,26362616,26362621,5
126,choice,choice,42,6.0,Animal,1.0,13.781136417062951,Animal_Land_Pattern_Large,0,0,1,26365952,26366315,363
126,choice,choice,42,6.0,Animal,1.0,13.781136417062951,Animal_Land_Solid_Small,5,0,1,26366335,26366629,294
126,choice,choice,42,6.0,Animal,1.0,13.781136417062951,Animal_Land_Pattern_Large,0,0,1,26366810,26367049,239
126,choice,choice,42,6.0,Animal,1.0,13.781136417062951,Animal_Land_Solid_Small,5,0,1,26367073,26368093,1020
126,choice,choice,42,6.0,Animal,1.0,13.781136417062951,Animal_Land_Pattern_Large,0,0,1,26368652,26369182,530
126,choice,choice,42,6.0,Animal,1.0,13.781136417062951,Animal_Land_Solid_Small,5,0,1,26369202,26369473,271
126,choice,choice,42,6.0,Animal,1.0,13.781136417062951,Animal_Land_Pattern_Large,0,0,1,26369652,26369889,237
126,choice,choice,42,6.0,Animal,1.0,13.781136417062951,Animal_Sea_Pattern_Large,3,0,1,26369928,26370508,580
126,choice,choice,42,6.0,Animal,1.0,13.781136417062951,Animal_Land_Solid_Small,5,0,1,26370728,26371024,296
126,choice,choice,42,6.0,Animal,1.0,13.781136417062951,Animal_Land_Pattern_Large,0,0,1,26371047,26371339,292
126,choice,choice,42,6.0,Animal,1.0,13.781136417062951,Object_Sea_Pattern_Large,4,0,0,26371362,26371576,214
126,choice,choice,42,6.0,Animal,1.0,13.781136417062951,Object_Land_Solid_Small,1,0,0,26371616,26371829,213
126,choice,choice,42,6.0,Animal,1.0,13.781136417062951,Object_Sea_Solid_Small,2,0,0,26372011,26372506,495
126,choice,choice,42,6.0,Animal,1.0,13.781136417062951,Animal_Land_Solid_Small,5,0,1,26373254,26373504,250
126,choice,choice,42,6.0,Animal,1.0,13.781136417062951,Object_Sea_Pattern_Large,4,0,0,26373534,26373988,454
126,choice,choice,42,6.0,Animal,1.0,13.781136417062951,Animal_Land_Pattern_Large,0,0,1,26374054,26374384,330
126,choice,choice,42,6.0,Animal,1.0,13.781136417062951,Object_Sea_Pattern_Large,4,0,0,26374414,26374619,205
126,choice,choice,42,6.0,Animal,1.0,13.781136417062951,Animal_Land_Pattern_Large,0,0,1,26374822,26375832,1010
126,choice,choice,42,6.0,Animal,1.0,13.781136417062951,Animal_Land_Solid_Small,5,0,1,26376065,26376361,296
126,choice,choice,42,6.0,Animal,1.0,13.781136417062951,Object_Sea_Solid_Small,2,0,0,26376541,26378007,1466
126,choice,choice,42,6.0,Animal,1.0,13.781136417062951,Object_Sea_Pattern_Large,4,0,0,26379105,26379431,326
126,choice,choice,43,6.0,Small,2.0,11.617140916874632,Object_Sea_Solid_Small,2,0,1,26383081,26383608,527
126,choice,choice,43,6.0,Small,2.0,11.617140916874632,Animal_Land_Solid_Small,5,0,1,26383833,26384077,244
126,choice,choice,43,6.0,Small,2.0,11.617140916874632,fixation,-1,1,0,26384102,26385125,1023
126,choice,choice,43,6.0,Small,2.0,11.617140916874632,Object_Sea_Pattern_Large,4,0,0,26385331,26385691,360
126,choice,choice,43,6.0,Small,2.0,11.617140916874632,Animal_Sea_Pattern_Large,3,0,0,26385897,26385980,83
126,choice,choice,43,6.0,Small,2.0,11.617140916874632,Object_Sea_Solid_Small,2,0,1,26386997,26387368,371
126,choice,choice,43,6.0,Small,2.0,11.617140916874632,Object_Land_Solid_Small,1,0,1,26387393,26387644,251
126,choice,choice,43,6.0,Small,2.0,11.617140916874632,Animal_Land_Solid_Small,5,0,1,26388715,26389054,339
126,choice,choice,43,6.0,Small,2.0,11.617140916874632,fixation,-1,1,0,26389090,26389398,308
126,choice,choice,43,6.0,Small,2.0,11.617140916874632,Animal_Land_Solid_Small,5,0,1,26389601,26390107,506
126,choice,choice,43,6.0,Small,2.0,11.617140916874632,Animal_Land_Pattern_Large,0,0,0,26390299,26390570,271
126,choice,choice,43,6.0,Small,2.0,11.617140916874632,Object_Sea_Solid_Small,2,0,1,26390612,26391046,434
126,choice,choice,43,6.0,Small,2.0,11.617140916874632,Object_Land_Solid_Small,1,0,1,26392668,26393251,583
126,choice,choice,43,6.0,Small,2.0,11.617140916874632,Object_Sea_Solid_Small,2,0,1,26394029,26394107,78
126,choice,choice,44,6.0,Sea,2.0,11.799802042078229,Object_Sea_Pattern_Large,4,0,1,26397818,26398440,622
126,choice,choice,44,6.0,Sea,2.0,11.799802042078229,Animal_Land_Solid_Small,5,0,0,26398663,26398938,275
126,choice,choice,44,6.0,Sea,2.0,11.799802042078229,Object_Sea_Solid_Small,2,0,1,26398964,26399245,281
126,choice,choice,44,6.0,Sea,2.0,11.799802042078229,Object_Land_Solid_Small,1,0,0,26399429,26399902,473
126,choice,choice,44,6.0,Sea,2.0,11.799802042078229,Animal_Sea_Pattern_Large,3,0,1,26400981,26401207,226
126,choice,choice,44,6.0,Sea,2.0,11.799802042078229,Object_Sea_Pattern_Large,4,0,1,26401230,26402749,1519
126,choice,choice,44,6.0,Sea,2.0,11.799802042078229,Object_Sea_Solid_Small,2,0,1,26403000,26403372,372
126,choice,choice,44,6.0,Sea,2.0,11.799802042078229,Object_Land_Solid_Small,1,0,0,26403551,26404240,689
126,choice,choice,44,6.0,Sea,2.0,11.799802042078229,Animal_Sea_Pattern_Large,3,0,1,26404281,26404524,243
126,choice,choice,44,6.0,Sea,2.0,11.799802042078229,Object_Sea_Solid_Small,2,0,1,26404731,26405166,435
126,choice,choice,44,6.0,Sea,2.0,11.799802042078229,Animal_Sea_Pattern_Large,3,0,1,26405193,26405494,301
126,choice,choice,44,6.0,Sea,2.0,11.799802042078229,Object_Sea_Pattern_Large,4,0,1,26405691,26406157,466
126,choice,choice,44,6.0,Sea,2.0,11.799802042078229,Animal_Land_Pattern_Large,0,0,0,26406220,26406561,341
126,choice,choice,44,6.0,Sea,2.0,11.799802042078229,Object_Sea_Solid_Small,2,0,1,26406748,26407011,263
126,choice,choice,44,6.0,Sea,2.0,11.799802042078229,Object_Land_Solid_Small,1,0,0,26407035,26407298,263
126,choice,choice,44,6.0,Sea,2.0,11.799802042078229,Object_Sea_Solid_Small,2,0,1,26408084,26408319,235
126,choice,choice,44,6.0,Sea,2.0,11.799802042078229,Animal_Sea_Pattern_Large,3,0,1,26408357,26408733,376
126,choice,choice,44,6.0,Sea,2.0,11.799802042078229,Object_Sea_Solid_Small,2,0,1,26408765,26409125,360
126,choice,choice,45,6.0,Pattern,2.0,7.044610874960199,fixation,-1,1,0,26412139,26412371,232
126,choice,choice,45,6.0,Pattern,2.0,7.044610874960199,Object_Land_Solid_Small,1,0,0,26412534,26412784,250
126,choice,choice,45,6.0,Pattern,2.0,7.044610874960199,Animal_Land_Solid_Small,5,0,0,26412808,26413014,206
126,choice,choice,45,6.0,Pattern,2.0,7.044610874960199,Object_Sea_Pattern_Large,4,0,1,26413041,26413690,649
126,choice,choice,45,6.0,Pattern,2.0,7.044610874960199,Object_Sea_Solid_Small,2,0,0,26413756,26414032,276
126,choice,choice,45,6.0,Pattern,2.0,7.044610874960199,fixation,-1,1,0,26414223,26414523,300
126,choice,choice,45,6.0,Pattern,2.0,7.044610874960199,Animal_Sea_Pattern_Large,3,0,1,26414546,26414797,251
126,choice,choice,45,6.0,Pattern,2.0,7.044610874960199,Object_Sea_Pattern_Large,4,0,1,26415016,26415973,957
126,choice,choice,45,6.0,Pattern,2.0,7.044610874960199,Animal_Land_Pattern_Large,0,0,1,26416818,26417104,286
126,choice,choice,45,6.0,Pattern,2.0,7.044610874960199,Animal_Land_Solid_Small,5,0,0,26417142,26417516,374
126,choice,choice,45,6.0,Pattern,2.0,7.044610874960199,Animal_Land_Pattern_Large,0,0,1,26417709,26417960,251
126,choice,choice,45,6.0,Pattern,2.0,7.044610874960199,Object_Sea_Pattern_Large,4,0,1,26417985,26418412,427
126,choice,choice,45,6.0,Pattern,2.0,7.044610874960199,Animal_Land_Pattern_Large,0,0,1,26418618,26418910,292
126,choice,choice,45,6.0,Pattern,2.0,7.044610874960199,Object_Sea_Pattern_Large,4,0,1,26418953,26419078,125
126,choice,choice,46,6.0,Object,2.0,8.609627458965406,Object_Land_Solid_Small,1,0,1,26421721,26421910,189
126,choice,choice,46,6.0,Object,2.0,8.609627458965406,Object_Sea_Solid_Small,2,0,1,26422103,26422757,654
126,choice,choice,46,6.0,Object,2.0,8.609627458965406,Object_Land_Solid_Small,1,0,1,26422940,26423222,282
126,choice,choice,46,6.0,Object,2.0,8.609627458965406,Animal_Sea_Pattern_Large,3,0,0,26423241,26423414,173
126,choice,choice,46,6.0,Object,2.0,8.609627458965406,Animal_Land_Solid_Small,5,0,0,26423458,26424049,591
126,choice,choice,46,6.0,Object,2.0,8.609627458965406,Animal_Land_Pattern_Large,0,0,0,26424259,26424423,164
126,choice,choice,46,6.0,Object,2.0,8.609627458965406,Object_Sea_Pattern_Large,4,0,1,26424602,26424622,20
126,choice,choice,46,6.0,Object,2.0,8.609627458965406,Object_Land_Solid_Small,1,0,1,26424680,26425124,444
126,choice,choice,46,6.0,Object,2.0,8.609627458965406,Animal_Sea_Pattern_Large,3,0,0,26425794,26426020,226
126,choice,choice,46,6.0,Object,2.0,8.609627458965406,Object_Sea_Pattern_Large,4,0,1,26426184,26426832,648
126,choice,choice,46,6.0,Object,2.0,8.609627458965406,Animal_Land_Pattern_Large,0,0,0,26427420,26427688,268
126,choice,choice,46,6.0,Object,2.0,8.609627458965406,Object_Sea_Solid_Small,2,0,1,26427723,26427972,249
126,choice,choice,46,6.0,Object,2.0,8.609627458965406,Animal_Sea_Pattern_Large,3,0,0,26428186,26428779,593
126,choice,choice,46,6.0,Object,2.0,8.609627458965406,Object_Sea_Pattern_Large,4,0,1,26428804,26428999,195
126,choice,choice,46,6.0,Object,2.0,8.609627458965406,Object_Land_Solid_Small,1,0,1,26429416,26429633,217
126,choice,choice,47,6.0,Solid,2.0,7.204642083030194,fixation,-1,1,0,26433754,26434214,460
126,choice,choice,47,6.0,Solid,2.0,7.204642083030194,Animal_Land_Solid_Small,5,0,1,26434237,26434462,225
126,choice,choice,47,6.0,Solid,2.0,7.204642083030194,fixation,-1,1,0,26434740,26435052,312
126,choice,choice,47,6.0,Solid,2.0,7.204642083030194,Object_Sea_Solid_Small,2,0,1,26435071,26435399,328
126,choice,choice,47,6.0,Solid,2.0,7.204642083030194,fixation,-1,1,0,26435419,26435659,240
126,choice,choice,47,6.0,Solid,2.0,7.204642083030194,Animal_Land_Solid_Small,5,0,1,26435881,26436229,348
126,choice,choice,47,6.0,Solid,2.0,7.204642083030194,Animal_Land_Pattern_Large,0,0,0,26436442,26436739,297
126,choice,choice,47,6.0,Solid,2.0,7.204642083030194,Animal_Sea_Pattern_Large,3,0,0,26436765,26436996,231
126,choice,choice,47,6.0,Solid,2.0,7.204642083030194,Object_Sea_Solid_Small,2,0,1,26437195,26437698,503
126,choice,choice,47,6.0,Solid,2.0,7.204642083030194,Animal_Land_Solid_Small,5,0,1,26437936,26438101,165
126,choice,choice,47,6.0,Solid,2.0,7.204642083030194,Animal_Sea_Pattern_Large,3,0,0,26438139,26438482,343
126,choice,choice,47,6.0,Solid,2.0,7.204642083030194,fixation,-1,1,0,26438680,26438887,207
126,choice,choice,47,6.0,Solid,2.0,7.204642083030194,Object_Sea_Pattern_Large,4,0,0,26438914,26439139,225
126,choice,choice,47,6.0,Solid,2.0,7.204642083030194,Animal_Land_Solid_Small,5,0,1,26439344,26439546,202
126,choice,choice,47,6.0,Solid,2.0,7.204642083030194,Animal_Land_Pattern_Large,0,0,0,26439570,26440210,640
126,choice,choice,47,6.0,Solid,2.0,7.204642083030194,Object_Sea_Pattern_Large,4,0,0,26440288,26440501,213
126,choice,choice,47,6.0,Solid,2.0,7.204642083030194,Object_Land_Solid_Small,1,0,1,26440678,26440744,66
126,choice,choice,48,6.0,Large,1.0,3.410829999949783,Animal_Land_Pattern_Large,0,0,1,26443669,26443872,203
126,choice,choice,48,6.0,Large,1.0,3.410829999949783,Object_Sea_Pattern_Large,4,0,1,26443895,26444188,293
126,choice,choice,48,6.0,Large,1.0,3.410829999949783,Animal_Land_Pattern_Large,0,0,1,26444379,26444525,146
126,choice,choice,48,6.0,Large,1.0,3.410829999949783,Object_Sea_Pattern_Large,4,0,1,26444552,26444800,248
126,choice,choice,48,6.0,Large,1.0,3.410829999949783,Animal_Land_Pattern_Large,0,0,1,26445060,26445304,244
126,choice,choice,48,6.0,Large,1.0,3.410829999949783,Animal_Land_Solid_Small,5,0,0,26445489,26445730,241
126,choice,choice,48,6.0,Large,1.0,3.410829999949783,fixation,-1,1,0,26445752,26446138,386
126,choice,choice,48,6.0,Large,1.0,3.410829999949783,Animal_Sea_Pattern_Large,3,0,1,26446161,26446442,281
126,choice,choice,49,7.0,Small,2.0,11.28176770801656,fixation,-1,1,0,26784067,26784283,216
126,choice,choice,49,7.0,Small,2.0,11.28176770801656,Animal_Land_Solid_Small,0,0,1,26784309,26784876,567
126,choice,choice,49,7.0,Small,2.0,11.28176770801656,fixation,-1,1,0,26785084,26785288,204
126,choice,choice,49,7.0,Small,2.0,11.28176770801656,Object_Sea_Pattern_Small,1,0,1,26785490,26786072,582
126,choice,choice,49,7.0,Small,2.0,11.28176770801656,Object_Sea_Solid_Small,2,0,1,26786131,26786330,199
126,choice,choice,49,7.0,Small,2.0,11.28176770801656,Animal_Land_Solid_Large,3,0,0,26786514,26786579,65
126,choice,choice,49,7.0,Small,2.0,11.28176770801656,Object_Sea_Pattern_Small,1,0,1,26786606,26786720,114
126,choice,choice,49,7.0,Small,2.0,11.28176770801656,Animal_Land_Solid_Large,3,0,0,26787684,26787946,262
126,choice,choice,49,7.0,Small,2.0,11.28176770801656,Object_Sea_Pattern_Small,1,0,1,26787972,26788239,267
126,choice,choice,49,7.0,Small,2.0,11.28176770801656,Object_Sea_Pattern_Large,4,0,0,26789180,26789580,400
126,choice,choice,49,7.0,Small,2.0,11.28176770801656,fixation,-1,1,0,26789602,26789862,260
126,choice,choice,49,7.0,Small,2.0,11.28176770801656,Animal_Land_Pattern_Large,5,0,0,26790064,26790410,346
126,choice,choice,49,7.0,Small,2.0,11.28176770801656,Animal_Land_Solid_Large,3,0,0,26790447,26790629,182
126,choice,choice,49,7.0,Small,2.0,11.28176770801656,Object_Sea_Pattern_Small,1,0,1,26790659,26790910,251
126,choice,choice,49,7.0,Small,2.0,11.28176770801656,Animal_Land_Solid_Large,3,0,0,26791089,26791226,137
126,choice,choice,49,7.0,Small,2.0,11.28176770801656,Object_Sea_Pattern_Small,1,0,1,26791266,26791478,212
126,choice,choice,49,7.0,Small,2.0,11.28176770801656,Animal_Land_Solid_Large,3,0,0,26791798,26792215,417
126,choice,choice,49,7.0,Small,2.0,11.28176770801656,Object_Sea_Solid_Small,2,0,1,26792250,26792324,74
126,choice,choice,49,7.0,Small,2.0,11.28176770801656,Object_Sea_Pattern_Small,1,0,1,26792768,26792999,231
126,choice,choice,49,7.0,Small,2.0,11.28176770801656,Object_Sea_Solid_Small,2,0,1,26794576,26795063,487
126,choice,choice,50,7.0,Object,2.0,11.921567665878683,Animal_Land_Solid_Small,0,0,0,26798449,26798693,244
126,choice,choice,50,7.0,Object,2.0,11.921567665878683,Object_Sea_Pattern_Small,1,0,1,26798724,26799013,289
126,choice,choice,50,7.0,Object,2.0,11.921567665878683,Object_Sea_Solid_Small,2,0,1,26799218,26799408,190
126,choice,choice,50,7.0,Object,2.0,11.921567665878683,Object_Sea_Pattern_Small,1,0,1,26799437,26799895,458
126,choice,choice,50,7.0,Object,2.0,11.921567665878683,fixation,-1,1,0,26800326,26800568,242
126,choice,choice,50,7.0,Object,2.0,11.921567665878683,Object_Sea_Solid_Small,2,0,1,26800602,26801367,765
126,choice,choice,50,7.0,Object,2.0,11.921567665878683,Animal_Land_Solid_Small,0,0,0,26801590,26801944,354
126,choice,choice,50,7.0,Object,2.0,11.921567665878683,Animal_Land_Solid_Large,3,0,0,26802153,26802359,206
126,choice,choice,50,7.0,Object,2.0,11.921567665878683,Object_Sea_Pattern_Small,1,0,1,26802574,26802602,28
126,choice,choice,50,7.0,Object,2.0,11.921567665878683,Object_Sea_Pattern_Large,4,0,1,26802625,26803279,654
126,choice,choice,50,7.0,Object,2.0,11.921567665878683,Animal_Land_Pattern_Large,5,0,0,26804252,26804472,220
126,choice,choice,50,7.0,Object,2.0,11.921567665878683,Object_Sea_Solid_Small,2,0,1,26804512,26804710,198
126,choice,choice,50,7.0,Object,2.0,11.921567665878683,Object_Sea_Pattern_Small,1,0,1,26804901,26805165,264
126,choice,choice,50,7.0,Object,2.0,11.921567665878683,Object_Sea_Solid_Small,2,0,1,26805192,26805631,439
126,choice,choice,50,7.0,Object,2.0,11.921567665878683,fixation,-1,1,0,26805652,26806241,589
126,choice,choice,50,7.0,Object,2.0,11.921567665878683,Animal_Land_Solid_Small,0,0,0,26806563,26806712,149
126,choice,choice,50,7.0,Object,2.0,11.921567665878683,Object_Sea_Pattern_Small,1,0,1,26806754,26807245,491
126,choice,choice,50,7.0,Object,2.0,11.921567665878683,Animal_Land_Solid_Small,0,0,0,26807490,26808009,519
126,choice,choice,50,7.0,Object,2.0,11.921567665878683,Object_Sea_Pattern_Large,4,0,1,26808229,26808564,335
126,choice,choice,50,7.0,Object,2.0,11.921567665878683,fixation,-1,1,0,26808588,26808989,401
126,choice,choice,50,7.0,Object,2.0,11.921567665878683,Object_Sea_Pattern_Small,1,0,1,26809021,26809393,372
126,choice,choice,50,7.0,Object,2.0,11.921567665878683,Animal_Land_Solid_Large,3,0,0,26809423,26809668,245
126,choice,choice,50,7.0,Object,2.0,11.921567665878683,fixation,-1,1,0,26809857,26809980,123
126,choice,choice,52,7.0,Pattern,2.0,13.248797458130866,Animal_Land_Solid_Small,0,0,0,26816932,26817095,163
126,choice,choice,52,7.0,Pattern,2.0,13.248797458130866,Object_Sea_Pattern_Large,4,0,1,26817321,26817802,481
126,choice,choice,52,7.0,Pattern,2.0,13.248797458130866,Animal_Land_Solid_Small,0,0,0,26818076,26818516,440
126,choice,choice,52,7.0,Pattern,2.0,13.248797458130866,Animal_Land_Pattern_Large,5,0,1,26818716,26819248,532
126,choice,choice,52,7.0,Pattern,2.0,13.248797458130866,Object_Sea_Pattern_Large,4,0,1,26819463,26819603,140
126,choice,choice,52,7.0,Pattern,2.0,13.248797458130866,Animal_Land_Pattern_Large,5,0,1,26819656,26820605,949
126,choice,choice,52,7.0,Pattern,2.0,13.248797458130866,Object_Sea_Pattern_Large,4,0,1,26820807,26821236,429
126,choice,choice,52,7.0,Pattern,2.0,13.248797458130866,fixation,-1,1,0,26821269,26821793,524
126,choice,choice,52,7.0,Pattern,2.0,13.248797458130866,Object_Sea_Solid_Small,2,0,0,26822014,26822388,374
126,choice,choice,52,7.0,Pattern,2.0,13.248797458130866,fixation,-1,1,0,26822595,26822771,176
126,choice,choice,52,7.0,Pattern,2.0,13.248797458130866,Object_Sea_Pattern_Large,4,0,1,26822797,26823442,645
126,choice,choice,52,7.0,Pattern,2.0,13.248797458130866,Object_Sea_Solid_Small,2,0,0,26823679,26824294,615
126,choice,choice,52,7.0,Pattern,2.0,13.248797458130866,Object_Sea_Pattern_Small,1,0,1,26824538,26825180,642
126,choice,choice,52,7.0,Pattern,2.0,13.248797458130866,Object_Sea_Pattern_Large,4,0,1,26825394,26825613,219
126,choice,choice,52,7.0,Pattern,2.0,13.248797458130866,Animal_Land_Pattern_Large,5,0,1,26825637,26825898,261
126,choice,choice,52,7.0,Pattern,2.0,13.248797458130866,Object_Sea_Pattern_Large,4,0,1,26825938,26826157,219
126,choice,choice,52,7.0,Pattern,2.0,13.248797458130866,Object_Sea_Pattern_Small,1,0,1,26826349,26826582,233
126,choice,choice,52,7.0,Pattern,2.0,13.248797458130866,Object_Sea_Solid_Small,2,0,0,26826613,26826862,249
126,choice,choice,52,7.0,Pattern,2.0,13.248797458130866,Animal_Land_Solid_Large,3,0,0,26827083,26827290,207
126,choice,choice,52,7.0,Pattern,2.0,13.248797458130866,Object_Sea_Pattern_Small,1,0,1,26827320,26827473,153
126,choice,choice,52,7.0,Pattern,2.0,13.248797458130866,Object_Sea_Pattern_Large,4,0,1,26827736,26827928,192
126,choice,choice,52,7.0,Pattern,2.0,13.248797458130866,Animal_Land_Pattern_Large,5,0,1,26828874,26829011,137
126,choice,choice,52,7.0,Pattern,2.0,13.248797458130866,Animal_Land_Solid_Large,3,0,0,26829400,26829572,172
126,choice,choice,53,7.0,Large,2.0,15.076771292136982,Animal_Land_Pattern_Large,5,0,1,26833806,26834002,196
126,choice,choice,53,7.0,Large,2.0,15.076771292136982,Animal_Land_Solid_Large,3,0,1,26834034,26834628,594
126,choice,choice,53,7.0,Large,2.0,15.076771292136982,Animal_Land_Solid_Small,0,0,0,26834865,26835550,685
126,choice,choice,53,7.0,Large,2.0,15.076771292136982,Animal_Land_Pattern_Large,5,0,1,26835744,26836058,314
126,choice,choice,53,7.0,Large,2.0,15.076771292136982,Animal_Land_Solid_Small,0,0,0,26836077,26836354,277
126,choice,choice,53,7.0,Large,2.0,15.076771292136982,Animal_Land_Pattern_Large,5,0,1,26836546,26836990,444
126,choice,choice,53,7.0,Large,2.0,15.076771292136982,fixation,-1,1,0,26837180,26838036,856
126,choice,choice,53,7.0,Large,2.0,15.076771292136982,Object_Sea_Solid_Small,2,0,0,26838279,26838543,264
126,choice,choice,53,7.0,Large,2.0,15.076771292136982,fixation,-1,1,0,26838570,26838785,215
126,choice,choice,53,7.0,Large,2.0,15.076771292136982,Object_Sea_Pattern_Large,4,0,1,26838809,26839137,328
126,choice,choice,53,7.0,Large,2.0,15.076771292136982,Animal_Land_Solid_Small,0,0,0,26839926,26840224,298
126,choice,choice,53,7.0,Large,2.0,15.076771292136982,Object_Sea_Solid_Small,2,0,0,26840263,26840519,256
126,choice,choice,53,7.0,Large,2.0,15.076771292136982,Object_Sea_Pattern_Small,1,0,0,26840708,26840961,253
126,choice,choice,53,7.0,Large,2.0,15.076771292136982,Object_Sea_Solid_Small,2,0,0,26841023,26841236,213
126,choice,choice,53,7.0,Large,2.0,15.076771292136982,Animal_Land_Pattern_Large,5,0,1,26841262,26841669,407
126,choice,choice,53,7.0,Large,2.0,15.076771292136982,Animal_Land_Solid_Large,3,0,1,26842971,26843698,727
126,choice,choice,53,7.0,Large,2.0,15.076771292136982,Object_Sea_Pattern_Small,1,0,0,26843735,26843965,230
126,choice,choice,53,7.0,Large,2.0,15.076771292136982,fixation,-1,1,0,26843976,26844279,303
126,choice,choice,53,7.0,Large,2.0,15.076771292136982,Object_Sea_Solid_Small,2,0,0,26844454,26844551,97
126,choice,choice,53,7.0,Large,2.0,15.076771292136982,Object_Sea_Pattern_Small,1,0,0,26845081,26845538,457
126,choice,choice,53,7.0,Large,2.0,15.076771292136982,Object_Sea_Pattern_Large,4,0,1,26845736,26846156,420
126,choice,choice,53,7.0,Large,2.0,15.076771292136982,Object_Sea_Pattern_Small,1,0,0,26846395,26846671,276
126,choice,choice,53,7.0,Large,2.0,15.076771292136982,Object_Sea_Pattern_Large,4,0,1,26847292,26847581,289
126,choice,choice,53,7.0,Large,2.0,15.076771292136982,Animal_Land_Solid_Small,0,0,0,26847623,26848036,413
126,choice,choice,54,7.0,Solid,1.0,15.91356954188086,Animal_Land_Pattern_Large,5,0,0,26851329,26851757,428
126,choice,choice,54,7.0,Solid,1.0,15.91356954188086,Animal_Land_Solid_Large,3,0,1,26851794,26852110,316
126,choice,choice,54,7.0,Solid,1.0,15.91356954188086,Object_Sea_Solid_Small,2,0,1,26852316,26852672,356
126,choice,choice,54,7.0,Solid,1.0,15.91356954188086,Animal_Land_Solid_Large,3,0,1,26852690,26852916,226
126,choice,choice,54,7.0,Solid,1.0,15.91356954188086,Object_Sea_Solid_Small,2,0,1,26853143,26853652,509
126,choice,choice,54,7.0,Solid,1.0,15.91356954188086,Animal_Land_Solid_Large,3,0,1,26853838,26854081,243
126,choice,choice,54,7.0,Solid,1.0,15.91356954188086,Object_Sea_Solid_Small,2,0,1,26854109,26854439,330
126,choice,choice,54,7.0,Solid,1.0,15.91356954188086,Object_Sea_Pattern_Small,1,0,0,26854474,26854756,282
126,choice,choice,54,7.0,Solid,1.0,15.91356954188086,fixation,-1,1,0,26854948,26855205,257
126,choice,choice,54,7.0,Solid,1.0,15.91356954188086,Animal_Land_Solid_Small,0,0,1,26855229,26855516,287
126,choice,choice,54,7.0,Solid,1.0,15.91356954188086,Animal_Land_Solid_Large,3,0,1,26855552,26855784,232
126,choice,choice,54,7.0,Solid,1.0,15.91356954188086,Object_Sea_Pattern_Small,1,0,0,26855979,26856154,175
126,choice,choice,54,7.0,Solid,1.0,15.91356954188086,Object_Sea_Pattern_Large,4,0,0,26856179,26856362,183
126,choice,choice,54,7.0,Solid,1.0,15.91356954188086,Object_Sea_Pattern_Small,1,0,0,26857411,26858447,1036
126,choice,choice,54,7.0,Solid,1.0,15.91356954188086,Object_Sea_Pattern_Large,4,0,0,26858667,26858806,139
126,choice,choice,54,7.0,Solid,1.0,15.91356954188086,Animal_Land_Solid_Small,0,0,1,26859459,26860090,631
126,choice,choice,54,7.0,Solid,1.0,15.91356954188086,fixation,-1,1,0,26860307,26860568,261
126,choice,choice,54,7.0,Solid,1.0,15.91356954188086,Object_Sea_Pattern_Large,4,0,0,26860741,26860863,122
126,choice,choice,54,7.0,Solid,1.0,15.91356954188086,Object_Sea_Pattern_Small,1,0,0,26861558,26861808,250
126,choice,choice,54,7.0,Solid,1.0,15.91356954188086,Object_Sea_Solid_Small,2,0,1,26861832,26862420,588
126,choice,choice,54,7.0,Solid,1.0,15.91356954188086,Animal_Land_Solid_Large,3,0,1,26862662,26863184,522
126,choice,choice,54,7.0,Solid,1.0,15.91356954188086,Object_Sea_Solid_Small,2,0,1,26865630,26865902,272
126,choice,choice,55,7.0,Sea,2.0,14.47692641709,Animal_Land_Pattern_Large,5,0,0,26869834,26870001,167
126,choice,choice,55,7.0,Sea,2.0,14.47692641709,Object_Sea_Pattern_Large,4,0,1,26870186,26870406,220
126,choice,choice,55,7.0,Sea,2.0,14.47692641709,Object_Sea_Pattern_Small,1,0,1,26870430,26871185,755
126,choice,choice,55,7.0,Sea,2.0,14.47692641709,fixation,-1,1,0,26872099,26872406,307
126,choice,choice,55,7.0,Sea,2.0,14.47692641709,Object_Sea_Pattern_Small,1,0,1,26872434,26873381,947
126,choice,choice,55,7.0,Sea,2.0,14.47692641709,fixation,-1,1,0,26873844,26874027,183
126,choice,choice,55,7.0,Sea,2.0,14.47692641709,Object_Sea_Solid_Small,2,0,1,26874044,26874310,266
126,choice,choice,55,7.0,Sea,2.0,14.47692641709,Object_Sea_Pattern_Small,1,0,1,26874518,26874798,280
126,choice,choice,55,7.0,Sea,2.0,14.47692641709,Animal_Land_Pattern_Large,5,0,0,26874825,26875660,835
126,choice,choice,55,7.0,Sea,2.0,14.47692641709,Animal_Land_Solid_Small,0,0,0,26875923,26876168,245
126,choice,choice,55,7.0,Sea,2.0,14.47692641709,Animal_Land_Solid_Large,3,0,0,26876413,26876440,27
126,choice,choice,55,7.0,Sea,2.0,14.47692641709,Object_Sea_Pattern_Small,1,0,1,26876471,26878333,1862
126,choice,choice,55,7.0,Sea,2.0,14.47692641709,Animal_Land_Pattern_Large,5,0,0,26879177,26879392,215
126,choice,choice,55,7.0,Sea,2.0,14.47692641709,Object_Sea_Pattern_Large,4,0,1,26879418,26879897,479
126,choice,choice,55,7.0,Sea,2.0,14.47692641709,Animal_Land_Solid_Small,0,0,0,26880113,26880396,283
126,choice,choice,55,7.0,Sea,2.0,14.47692641709,Animal_Land_Pattern_Large,5,0,0,26880416,26880966,550
126,choice,choice,55,7.0,Sea,2.0,14.47692641709,Object_Sea_Pattern_Large,4,0,1,26881185,26881483,298
126,choice,choice,55,7.0,Sea,2.0,14.47692641709,Object_Sea_Pattern_Small,1,0,1,26881664,26881805,141
126,choice,choice,55,7.0,Sea,2.0,14.47692641709,Object_Sea_Pattern_Large,4,0,1,26881827,26881986,159
126,choice,choice,55,7.0,Sea,2.0,14.47692641709,Animal_Land_Pattern_Large,5,0,0,26882022,26882225,203
126,choice,choice,55,7.0,Sea,2.0,14.47692641709,Object_Sea_Solid_Small,2,0,1,26882463,26882758,295
126,choice,choice,55,7.0,Sea,2.0,14.47692641709,fixation,-1,1,0,26882780,26883190,410
126,choice,choice,55,7.0,Sea,2.0,14.47692641709,Animal_Land_Solid_Small,0,0,0,26883411,26883623,212
126,choice,choice,55,7.0,Sea,2.0,14.47692641709,Object_Sea_Pattern_Small,1,0,1,26883672,26883922,250
126,choice,choice,56,7.0,Land,1.0,7.87322258297354,Animal_Land_Pattern_Large,5,0,1,26887182,26888460,1278
126,choice,choice,56,7.0,Land,1.0,7.87322258297354,Animal_Land_Solid_Small,0,0,1,26888934,26889494,560
126,choice,choice,56,7.0,Land,1.0,7.87322258297354,Animal_Land_Pattern_Large,5,0,1,26889737,26890012,275
126,choice,choice,56,7.0,Land,1.0,7.87322258297354,Animal_Land_Solid_Small,0,0,1,26890223,26890757,534
126,choice,choice,56,7.0,Land,1.0,7.87322258297354,fixation,-1,1,0,26890821,26891088,267
126,choice,choice,56,7.0,Land,1.0,7.87322258297354,Animal_Land_Pattern_Large,5,0,1,26891279,26891511,232
126,choice,choice,56,7.0,Land,1.0,7.87322258297354,Object_Sea_Solid_Small,2,0,0,26891549,26891792,243
126,choice,choice,56,7.0,Land,1.0,7.87322258297354,Object_Sea_Pattern_Small,1,0,0,26891990,26892417,427
126,choice,choice,56,7.0,Land,1.0,7.87322258297354,Animal_Land_Solid_Large,3,0,1,26893561,26893822,261
