phase,event,onset,offset,trial_number,game,image,outcome,choice,correct,rt,letter,match,response,option,true_value,true_position,recalled_position,
encoding,fixation,15.55464016715996,16.82481620903127,1,1,Object_Sea_Pattern_Large,-3,,,,,,,,,,,
encoding,image,16.824953709030524,17.846512792166322,1,1,Object_Sea_Pattern_Large,-3,,,,,,,,,,,
encoding,value,17.846618000185117,23.86593733401969,1,1,Object_Sea_Pattern_Large,-3,,,,,,,,,,,
encoding,attention,23.86610725009814,26.88392766704783,1,1,Object_Sea_Pattern_Large,-3,-3,1,1.4580616250168532,,,,,,,,
encoding,fixation,26.884145667077973,28.38931275019422,2,1,Animal_Land_Pattern_Small,-5,,,,,,,,,,,
encoding,image,28.389428000198677,29.40061354218051,2,1,Animal_Land_Pattern_Small,-5,,,,,,,,,,,
encoding,value,29.400734959170222,35.41257541719824,2,1,Animal_Land_Pattern_Small,-5,,,,,,,,,,,
encoding,attention,35.412682875059545,38.43080883403309,2,1,Animal_Land_Pattern_Small,-5,-5,1,1.1772619169205427,,,,,,,,
encoding,fixation,38.43097412516363,39.93606445915066,3,1,Object_Land_Solid_Large,-9,,,,,,,,,,,
encoding,image,39.936169375199825,40.945618625031784,3,1,Object_Land_Solid_Large,-9,,,,,,,,,,,
encoding,value,40.9457431670744,46.956040624994785,3,1,Object_Land_Solid_Large,-9,,,,,,,,,,,
encoding,attention,46.956211500102654,49.975283125182614,3,1,Object_Land_Solid_Large,-9,-9,1,1.3792659998871386,,,,,,,,
encoding,fixation,49.9754468339961,50.73333533410914,4,1,Object_Land_Pattern_Small,9,,,,,,,,,,,
encoding,image,50.7334508751519,51.7449067090638,4,1,Object_Land_Pattern_Small,9,,,,,,,,,,,
encoding,value,51.74502554209903,57.75649670907296,4,1,Object_Land_Pattern_Small,9,,,,,,,,,,,
encoding,attention,57.75661762501113,60.77428425010294,4,1,Object_Land_Pattern_Small,9,+9,1,0.9287749580107629,,,,,,,,
encoding,fixation,60.77447570906952,62.029683750122786,5,1,Animal_Sea_Solid_Small,1,,,,,,,,,,,
encoding,image,62.029794625006616,63.041016375180334,5,1,Animal_Sea_Solid_Small,1,,,,,,,,,,,
encoding,value,63.04116383404471,69.05259250011295,5,1,Animal_Sea_Solid_Small,1,,,,,,,,,,,
encoding,attention,69.05272475001402,72.13536029215902,5,1,Animal_Sea_Solid_Small,1,+1,1,1.1543007500004023,,,,,,,,
encoding,fixation,72.13552150013857,72.89132225001231,6,1,Animal_Sea_Solid_Large,3,,,,,,,,,,,
encoding,image,72.8914285840001,73.90254291705787,6,1,Animal_Sea_Solid_Large,3,,,,,,,,,,,
encoding,value,73.90266691707075,79.9159488750156,6,1,Animal_Sea_Solid_Large,3,,,,,,,,,,,
encoding,attention,79.91606033407152,82.93378741713241,6,1,Animal_Sea_Solid_Large,3,+3,1,1.0823347091209143,,,,,,,,
n-back,,,,1,1,,,,1,None,C,False,None,,,,,
n-back,,,,2,1,,,,1,None,Z,False,None,,,,,
n-back,,,,3,1,,,,1,None,Z,False,None,,,,,
n-back,,,,4,1,,,,0,0.8450304579455405,C,False,1,,,,,
n-back,,,,5,1,,,,1,None,N,False,None,,,,,
n-back,,,,6,1,,,,0,None,C,True,None,,,,,
n-back,,,,7,1,,,,1,None,B,False,None,,,,,
n-back,,,,8,1,,,,1,1.0470555420033634,C,True,1,,,,,
n-back,,,,9,1,,,,0,None,B,True,None,,,,,
n-back,,,,10,1,,,,1,None,Z,False,None,,,,,
n-back,,,,11,1,,,,1,None,Z,False,None,,,,,
n-back,,,,12,1,,,,0,0.8572101250756532,B,False,1,,,,,
n-back,,,,13,1,,,,1,None,V,False,None,,,,,
n-back,,,,14,1,,,,1,None,Z,False,None,,,,,
n-back,,,,15,1,,,,1,0.791673333151266,V,True,1,,,,,
n-back,,,,16,1,,,,0,None,Z,True,None,,,,,
n-back,,,,17,1,,,,0,None,V,True,None,,,,,
n-back,,,,18,1,,,,1,None,C,False,None,,,,,
n-back,,,,19,1,,,,1,0.4641135421115905,V,True,1,,,,,
n-back,,,,20,1,,,,1,None,N,False,None,,,,,
n-back,,,,21,1,,,,1,None,Z,False,None,,,,,
n-back,,,,22,1,,,,1,0.8109824578277767,N,True,1,,,,,
n-back,,,,23,1,,,,0,None,Z,True,None,,,,,
n-back,,,,24,1,,,,1,None,B,False,None,,,,,
n-back,,,,25,1,,,,1,None,B,False,None,,,,,
n-back,,,,26,1,,,,1,None,X,False,None,,,,,
n-back,,,,27,1,,,,1,None,Z,False,None,,,,,
n-back,,,,28,1,,,,1,None,N,False,None,,,,,
n-back,,,,29,1,,,,0,None,Z,True,None,,,,,
n-back,,,,30,1,,,,1,None,C,False,None,,,,,
choice,fixation,174.99271050002426,175.99842887511477,1,1,,,,,,,,,Object,,,,
choice,option,176.01148641714826,179.16152404202148,1,1,,,,,,,,,Object,,,,
choice,choice,179.16164837498218,195.2038613341283,1,1,,,2,1,15.031035791849717,,,,Object,,,,
choice,fixation,195.20399004220963,195.9592800422106,2,1,,,,,,,,,Large,,,,
choice,option,195.9688520000782,196.99946800014004,2,1,,,,,,,,,Large,,,,
choice,choice,196.9996072500944,204.40634287521243,2,1,,,2,1,6.397403499810025,,,,Large,,,,
choice,fixation,204.40647541708313,205.41160554206,3,1,,,,,,,,,Land,,,,
choice,option,205.42046516714618,206.4495579591021,3,1,,,,,,,,,Land,,,,
choice,choice,206.4496796671301,211.29830816714093,3,1,,,1,0,3.8361668339930475,,,,Land,,,,
choice,fixation,211.29848816711456,211.80401116702706,4,1,,,,,,,,,Pattern,,,,
choice,option,211.81465449999087,212.84249879210256,4,1,,,,,,,,,Pattern,,,,
choice,choice,212.842602084158,215.29624962504022,4,1,,,1,1,1.4415675001218915,,,,Pattern,,,,
choice,fixation,215.29638783400878,216.3014921671711,5,1,,,,,,,,,Animal,,,,
choice,option,216.3111894170288,217.3389190840535,5,1,,,,,,,,,Animal,,,,
choice,choice,217.33904287498444,218.9532748342026,5,1,,,1,0,0.6047304591629654,,,,Animal,,,,
choice,fixation,218.95343729201704,219.45864112512209,6,1,,,,,,,,,Sea,,,,
choice,option,219.46743208402768,220.49615495908074,6,1,,,,,,,,,Sea,,,,
choice,choice,220.4962588341441,224.40647187503055,6,1,,,2,0,2.9008276669774204,,,,Sea,,,,
choice,fixation,224.40659616701305,225.16187341720797,7,1,,,,,,,,,Solid,,,,
choice,option,225.17153412499465,226.19915695907548,7,1,,,,,,,,,Solid,,,,
choice,choice,226.19928725017235,229.80846754205413,7,1,,,2,1,2.599116000114009,,,,Solid,,,,
choice,fixation,229.80859933421016,230.81576495920308,8,1,,,,,,,,,Small,,,,
choice,option,230.82474537519738,231.8520291671157,8,1,,,,,,,,,Small,,,,
choice,choice,231.85215024999343,233.369353834074,8,1,,,1,1,0.5078011250589043,,,,Small,,,,
memory,free_recall,293.9771915420424,326.1085247921292,0,1,,,,,,,,,,,,,
memory,value_recall,371.6495656671468,374.8736230840441,1,1,Animal_Sea_Solid_Large,,,,3.2208083749283105,,,,,3,,,
memory,value_recall,376.6701562500093,382.4013161251787,2,1,Animal_Land_Pattern_Small,,,,5.725262375082821,,,,,-5,,,
memory,value_recall,383.9497887501493,387.13758916710503,3,1,Object_Land_Pattern_Small,,,,3.183876834111288,,,,,9,,,
memory,value_recall,388.68342479201965,391.8655496670399,4,1,Object_Sea_Pattern_Large,,,,3.1779808329883963,,,,,-3,,,
memory,value_recall,392.9116292500403,395.7696335001383,5,1,Animal_Sea_Solid_Small,,,,2.8539365420583636,,,,,1,,,
memory,value_recall,397.81709945900366,402.4261587501969,6,1,Object_Land_Solid_Large,,,,4.604645082959905,,,,,-9,,,
memory,spatial_recall,423.9051797091961,427.5239461250603,6,1,Animal_Sea_Solid_Small,,,1,3.6146975001320243,,,,,,"[0, -380]","[0, -380]",
memory,spatial_recall,429.08588991709985,432.57635525008664,6,1,Object_Sea_Pattern_Large,,,1,3.4864659591112286,,,,,,"[329, 189]","[329, 189]",
memory,spatial_recall,434.1327453341801,438.1565425840672,6,1,Object_Land_Solid_Large,,,1,4.019593500066549,,,,,,"[0, 380]","[0, 380]",
memory,spatial_recall,439.96960308402777,444.22242054203525,6,1,Object_Land_Pattern_Small,,,1,4.248973416164517,,,,,,"[-329, 190]","[-329, 190]",
memory,spatial_recall,445.5363431251608,448.090922875097,6,1,Animal_Sea_Solid_Large,,,1,2.5505623330827802,,,,,,"[-329, -190]","[-329, -190]",
memory,spatial_recall,449.65085383411497,452.89979766705073,6,1,Animal_Land_Pattern_Small,,,0,3.2450207080692053,,,,,,"[329, -190]","[329, 189]",
encoding,fixation,15.522966624936089,17.02864725003019,7,2,Object_Land_Solid_Large,-5,,,,,,,,,,,
encoding,image,17.028773667057976,18.041792209027335,7,2,Object_Land_Solid_Large,-5,,,,,,,,,,,
encoding,value,18.04191533406265,24.05439970898442,7,2,Object_Land_Solid_Large,-5,,,,,,,,,,,
encoding,attention,24.054520834004506,27.07437412510626,7,2,Object_Land_Solid_Large,-5,-5,1,1.3339954998809844,,,,,,,,
encoding,fixation,27.074558041989803,28.0796266249381,8,2,Object_Sea_Pattern_Small,8,,,,,,,,,,,
encoding,image,28.079744667047635,29.09140225010924,8,2,Object_Sea_Pattern_Small,8,,,,,,,,,,,
encoding,value,29.09157666703686,35.103331584017724,8,2,Object_Sea_Pattern_Small,8,,,,,,,,,,,
encoding,attention,35.103511959081516,38.12221383396536,8,2,Object_Sea_Pattern_Small,8,+8,1,0.9309501249808818,,,,,,,,
encoding,fixation,38.122385249938816,39.377769709099084,9,2,Animal_Sea_Solid_Large,9,,,,,,,,,,,
encoding,image,39.37789712497033,40.38914320897311,9,2,Animal_Sea_Solid_Large,9,,,,,,,,,,,
encoding,value,40.38927024998702,46.40132625005208,9,2,Animal_Sea_Solid_Large,9,,,,,,,,,,,
encoding,attention,46.401435625040904,49.42056087497622,9,2,Animal_Sea_Solid_Large,9,+9,1,1.234300458105281,,,,,,,,
encoding,fixation,49.42080204212107,50.67604754213244,10,2,Animal_Land_Solid_Large,-2,,,,,,,,,,,
encoding,image,50.67615750012919,51.68820874998346,10,2,Animal_Land_Solid_Large,-2,,,,,,,,,,,
encoding,value,51.68832650012337,57.700696459040046,10,2,Animal_Land_Solid_Large,-2,,,,,,,,,,,
encoding,attention,57.70081449998543,60.71992583409883,10,2,Animal_Land_Solid_Large,-2,-2,1,0.9656124161556363,,,,,,,,
encoding,fixation,60.72011695895344,61.475727166980505,11,2,Object_Land_Pattern_Small,6,,,,,,,,,,,
encoding,image,61.47583245905116,62.48855770891532,11,2,Object_Land_Pattern_Small,6,,,,,,,,,,,
encoding,value,62.48868550010957,68.50111337495036,11,2,Object_Land_Pattern_Small,6,,,,,,,,,,,
encoding,attention,68.50124899996445,71.51873904210515,11,2,Object_Land_Pattern_Small,6,+6,1,0.7274019171018153,,,,,,,,
encoding,fixation,71.51889170892537,72.52439158409834,12,2,Animal_Sea_Pattern_Small,-8,,,,,,,,,,,
encoding,image,72.52450112509541,73.53718174993992,12,2,Animal_Sea_Pattern_Small,-8,,,,,,,,,,,
encoding,value,73.537299167132,79.54891870892607,12,2,Animal_Sea_Pattern_Small,-8,,,,,,,,,,,
encoding,attention,79.54905545897782,82.5673213750124,12,2,Animal_Sea_Pattern_Small,-8,-8,1,0.767016040859744,,,,,,,,
n-back,,,,31,2,,,,1,None,C,False,None,,,,,
n-back,,,,32,2,,,,1,None,Z,False,None,,,,,
n-back,,,,33,2,,,,1,None,N,False,None,,,,,
n-back,,,,34,2,,,,1,1.0788410829845816,Z,True,1,,,,,
n-back,,,,35,2,,,,0,None,N,True,None,,,,,
n-back,,,,36,2,,,,0,0.9451364579144865,X,False,1,,,,,
n-back,,,,37,2,,,,0,None,N,True,None,,,,,
n-back,,,,38,2,,,,1,None,V,False,None,,,,,
n-back,,,,39,2,,,,1,None,V,False,None,,,,,
n-back,,,,40,2,,,,1,0.6218462090473622,V,True,1,,,,,
n-back,,,,41,2,,,,1,None,B,False,None,,,,,
n-back,,,,42,2,,,,1,None,C,False,None,,,,,
n-back,,,,43,2,,,,1,None,N,False,None,,,,,
n-back,,,,44,2,,,,1,None,X,False,None,,,,,
n-back,,,,45,2,,,,1,None,V,False,None,,,,,
n-back,,,,46,2,,,,1,None,V,False,None,,,,,
n-back,,,,47,2,,,,1,None,C,False,None,,,,,
n-back,,,,48,2,,,,1,None,N,False,None,,,,,
n-back,,,,49,2,,,,1,None,Z,False,None,,,,,
n-back,,,,50,2,,,,1,None,X,False,None,,,,,
n-back,,,,51,2,,,,1,0.706822375068441,Z,True,1,,,,,
n-back,,,,52,2,,,,1,1.1950839159544557,X,True,1,,,,,
n-back,,,,53,2,,,,0,None,Z,True,None,,,,,
n-back,,,,54,2,,,,0,None,X,True,None,,,,,
n-back,,,,55,2,,,,1,None,N,False,None,,,,,
n-back,,,,56,2,,,,0,1.0547205419279635,Z,False,1,,,,,
n-back,,,,57,2,,,,1,None,V,False,None,,,,,
n-back,,,,58,2,,,,1,None,N,False,None,,,,,
n-back,,,,59,2,,,,0,None,V,True,None,,,,,
n-back,,,,60,2,,,,1,0.6044245839584619,N,True,1,,,,,
choice,fixation,164.99871608405374,166.50192683399655,9,2,,,,,,,,,Animal,,,,
choice,option,166.51154487510212,167.54312924994156,9,2,,,,,,,,,Animal,,,,
choice,choice,167.54327883408405,171.81529558403417,9,2,,,1,0,3.262173834023997,,,,Animal,,,,
choice,fixation,171.81542887492105,172.57044620905071,10,2,,,,,,,,,Object,,,,
choice,option,172.58013258408755,173.6081449589692,10,2,,,,,,,,,Object,,,,
choice,choice,173.60827979212627,179.11189041705802,10,2,,,2,0,4.494048124877736,,,,Object,,,,
choice,fixation,179.11209720908664,180.36690675001591,11,2,,,,,,,,,Large,,,,
choice,option,180.37604870903306,181.403426917037,11,2,,,,,,,,,Large,,,,
choice,choice,181.4035374999512,186.80753908399493,11,2,,,2,0,4.392171416897327,,,,Large,,,,
choice,fixation,186.8076623340603,187.31259674998,12,2,,,,,,,,,Solid,,,,
choice,option,187.32196999993175,188.34929408412427,12,2,,,,,,,,,Solid,,,,
choice,choice,188.34946054196917,191.92795037501492,12,2,,,1,1,2.568537084152922,,,,Solid,,,,
choice,fixation,191.9280726669822,192.68297404213808,13,2,,,,,,,,,Sea,,,,
choice,option,192.6917222919874,193.72036795900203,13,2,,,,,,,,,Sea,,,,
choice,choice,193.72056633397005,201.6146572921425,13,2,,,2,0,6.884249666938558,,,,Sea,,,,
choice,fixation,201.6147912919987,202.3698340000119,14,2,,,,,,,,,Land,,,,
choice,option,202.37834083405323,203.4051995840855,14,2,,,,,,,,,Land,,,,
choice,choice,203.40531804203056,209.9190243750345,14,2,,,1,0,5.504129500128329,,,,Land,,,,
choice,fixation,209.91915533412248,211.42480454198085,15,2,,,,,,,,,Pattern,,,,
choice,option,211.43413225002587,212.46161520900205,15,2,,,,,,,,,Pattern,,,,
choice,choice,212.4617273749318,216.9618540420197,15,2,,,1,1,3.49060345813632,,,,Pattern,,,,
choice,fixation,216.9619725421071,218.4672530000098,16,2,,,,,,,,,Small,,,,
choice,option,218.4766469169408,219.50319545902312,16,2,,,,,,,,,Small,,,,
choice,choice,219.50333629199304,223.40824145893566,16,2,,,1,1,2.8924131661187857,,,,Small,,,,
memory,free_recall,238.32851054193452,274.91254404210486,6,2,,,,,,,,,,,,,
memory,value_recall,287.2745887921192,291.1844597500749,7,2,Object_Land_Solid_Large,,,,3.9057047499809414,,,,,-5,,,
memory,value_recall,292.98208233411424,296.3248151249718,8,2,Object_Land_Pattern_Small,,,,3.3384827910922468,,,,,6,,,
memory,value_recall,297.8743673749268,302.94466195907444,9,2,Object_Sea_Pattern_Small,,,,5.066325959051028,,,,,8,,,
memory,value_recall,304.2421986251138,309.78421620908193,10,2,Animal_Sea_Pattern_Small,,,,5.537771957926452,,,,,-8,,,
memory,value_recall,311.58161979191937,314.3921007090248,11,2,Animal_Land_Solid_Large,,,,2.806369291851297,,,,,-2,,,
memory,value_recall,315.4392463751137,317.8324244171381,12,2,Animal_Sea_Solid_Large,,,,2.3905113330110908,,,,,9,,,
memory,spatial_recall,325.51765200006776,330.26483254204504,12,2,Object_Land_Pattern_Small,,,1,4.741343250032514,,,,,,"[-329, 190]","[-329, 190]",
memory,spatial_recall,331.3300834589172,334.04172650002874,12,2,Object_Sea_Pattern_Small,,,1,2.7077007500920445,,,,,,"[329, -190]","[329, -190]",
memory,spatial_recall,335.09870420908555,337.5979623750318,12,2,Animal_Sea_Pattern_Small,,,1,2.496703915996477,,,,,,"[329, 189]","[329, 189]",
memory,spatial_recall,339.65711304196157,340.7319626249373,12,2,Object_Land_Solid_Large,,,1,1.0706963338889182,,,,,,"[0, 380]","[0, 380]",
memory,spatial_recall,342.2905382090248,344.76264141709544,12,2,Animal_Land_Solid_Large,,,1,2.4680915840435773,,,,,,"[0, -380]","[0, -380]",
memory,spatial_recall,346.82808483392,348.3609583750367,12,2,Animal_Sea_Solid_Large,,,1,1.52878824993968,,,,,,"[-329, -190]","[-329, -190]",
encoding,fixation,11.100668790983036,11.857219791039824,13,3,Object_Land_Solid_Small,1,,,,,,,,,,,
encoding,image,11.857358082896098,12.868574999971315,13,3,Object_Land_Solid_Small,1,,,,,,,,,,,
encoding,value,12.868748124921694,18.883751458022743,13,3,Object_Land_Solid_Small,1,,,,,,,,,,,
encoding,attention,18.883937458042055,21.902705332962796,13,3,Object_Land_Solid_Small,1,+1,1,1.2831131669227034,,,,,,,,
encoding,fixation,21.902930333046243,23.40865358291194,14,3,Animal_Sea_Pattern_Small,-9,,,,,,,,,,,
encoding,image,23.40880808304064,24.42027295799926,14,3,Animal_Sea_Pattern_Small,-9,,,,,,,,,,,
encoding,value,24.420419041067362,30.433385750046,14,3,Animal_Sea_Pattern_Small,-9,,,,,,,,,,,
encoding,attention,30.43350933305919,33.45229837484658,14,3,Animal_Sea_Pattern_Small,-9,-9,1,1.3831113749183714,,,,,,,,
encoding,fixation,33.45250437501818,34.20780108286999,15,3,Animal_Sea_Solid_Large,9,,,,,,,,,,,
encoding,image,34.20793520798907,35.21894033299759,15,3,Animal_Sea_Solid_Large,9,,,,,,,,,,,
encoding,value,35.219135500025004,41.23113516601734,15,3,Animal_Sea_Solid_Large,9,,,,,,,,,,,
encoding,attention,41.23130345786922,44.250861749984324,15,3,Animal_Sea_Solid_Large,9,+9,1,1.5037100419867784,,,,,,,,
encoding,fixation,44.25105054094456,45.00682937493548,16,3,Object_Land_Solid_Large,-9,,,,,,,,,,,
encoding,image,45.00696974992752,46.016941874986514,16,3,Object_Land_Solid_Large,-9,,,,,,,,,,,
encoding,value,46.01707324991003,52.02804824989289,16,3,Object_Land_Solid_Large,-9,,,,,,,,,,,
encoding,attention,52.02823008294217,55.04609991586767,16,3,Object_Land_Solid_Large,-9,-9,1,0.9241059580817819,,,,,,,,
encoding,fixation,55.046307208016515,56.05146079091355,17,3,Animal_Sea_Pattern_Large,-8,,,,,,,,,,,
encoding,image,56.05158787500113,57.06209958298132,17,3,Animal_Sea_Pattern_Large,-8,,,,,,,,,,,
encoding,value,57.06226687505841,63.07436216599308,17,3,Animal_Sea_Pattern_Large,-8,,,,,,,,,,,
encoding,attention,63.074484874960035,66.09155979100615,17,3,Animal_Sea_Pattern_Large,-8,-8,1,2.370225459104404,,,,,,,,
encoding,fixation,66.0917930828873,66.84690025006421,18,3,Object_Land_Pattern_Small,5,,,,,,,,,,,
encoding,image,66.84701474988833,67.85840908298269,18,3,Object_Land_Pattern_Small,5,,,,,,,,,,,
encoding,value,67.8585989580024,73.87034779088572,18,3,Object_Land_Pattern_Small,5,,,,,,,,,,,
encoding,attention,73.87046866607852,76.88844258291647,18,3,Object_Land_Pattern_Small,5,+5,1,1.0977052499074489,,,,,,,,
n-back,,,,61,3,,,,0,None,B,True,None,,,,,
n-back,,,,62,3,,,,0,None,V,True,None,,,,,
n-back,,,,63,3,,,,1,0.4249071250669658,B,True,1,,,,,
n-back,,,,64,3,,,,1,0.7970265841577202,V,True,1,,,,,
n-back,,,,65,3,,,,1,None,X,False,None,,,,,
n-back,,,,66,3,,,,1,0.7130590002052486,V,True,1,,,,,
n-back,,,,67,3,,,,1,None,C,False,None,,,,,
n-back,,,,68,3,,,,1,None,B,False,None,,,,,
n-back,,,,69,3,,,,1,None,B,False,None,,,,,
n-back,,,,70,3,,,,1,0.5712333749979734,B,True,1,,,,,
n-back,,,,71,3,,,,1,None,V,False,None,,,,,
n-back,,,,72,3,,,,1,None,V,False,None,,,,,
n-back,,,,73,3,,,,1,0.4175129998475313,V,True,1,,,,,
n-back,,,,74,3,,,,1,None,N,False,None,,,,,
n-back,,,,75,3,,,,1,0.5948386250529438,V,True,1,,,,,
n-back,,,,76,3,,,,1,None,Z,False,None,,,,,
n-back,,,,77,3,,,,1,None,C,False,None,,,,,
n-back,,,,78,3,,,,1,None,N,False,None,,,,,
n-back,,,,79,3,,,,1,None,Z,False,None,,,,,
n-back,,,,80,3,,,,1,None,V,False,None,,,,,
n-back,,,,81,3,,,,1,None,B,False,None,,,,,
n-back,,,,82,3,,,,1,None,Z,False,None,,,,,
n-back,,,,83,3,,,,1,0.42878950014710426,B,True,1,,,,,
n-back,,,,84,3,,,,1,None,X,False,None,,,,,
n-back,,,,85,3,,,,1,None,V,False,None,,,,,
n-back,,,,86,3,,,,1,0.8660868750885129,X,True,1,,,,,
n-back,,,,87,3,,,,1,None,B,False,None,,,,,
n-back,,,,88,3,,,,1,None,B,False,None,,,,,
n-back,,,,89,3,,,,1,None,X,False,None,,,,,
n-back,,,,90,3,,,,1,None,N,False,None,,,,,
choice,fixation,157.60489762504585,158.85819016606547,17,3,,,,,,,,,Solid,,,,
choice,option,158.86728804092854,159.8974408749491,17,3,,,,,,,,,Solid,,,,
choice,choice,159.89759725006297,184.1245071250014,17,3,,,1,1,23.21593016711995,,,,Solid,,,,
choice,fixation,184.12468266603537,185.12870995793492,18,3,,,,,,,,,Large,,,,
choice,option,185.13764520804398,186.16525466600433,18,3,,,,,,,,,Large,,,,
choice,choice,186.16536933300085,194.0480467500165,18,3,,,2,1,6.86982262507081,,,,Large,,,,
choice,fixation,194.04822754091583,194.80340766604058,19,3,,,,,,,,,Object,,,,
choice,option,194.81350966589525,195.84178320807405,19,3,,,,,,,,,Object,,,,
choice,choice,195.84189524990506,207.1305370000191,19,3,,,2,1,10.278016875032336,,,,Object,,,,
choice,fixation,207.13068108307198,208.13558212504722,20,3,,,,,,,,,Small,,,,
choice,option,208.14480512496084,209.17181616602466,20,3,,,,,,,,,Small,,,,
choice,choice,209.17193883284926,212.77044774987735,20,3,,,1,0,2.5887738750316203,,,,Small,,,,
choice,fixation,212.77057970804162,214.2755120410584,21,3,,,,,,,,,Pattern,,,,
choice,option,214.2845420408994,215.31121674994938,21,3,,,,,,,,,Pattern,,,,
choice,choice,215.31133804097772,227.3631609159056,21,3,,,2,1,11.040360792074353,,,,Pattern,,,,
choice,fixation,227.36327954102308,228.11824916605838,22,3,,,,,,,,,Animal,,,,
choice,option,228.1275851659011,229.15433266595937,22,3,,,,,,,,,Animal,,,,
choice,choice,229.15449820784852,243.90049695805646,22,3,,,2,1,13.73490958311595,,,,Animal,,,,
choice,fixation,243.90064450004138,245.15677037485875,23,3,,,,,,,,,Sea,,,,
choice,option,245.16539974999614,246.19197166594677,23,3,,,,,,,,,Sea,,,,
choice,choice,246.19208862492815,252.51467958302237,23,3,,,2,1,5.31303304200992,,,,Sea,,,,
choice,fixation,252.5148020409979,253.76970066595823,24,3,,,,,,,,,Land,,,,
choice,option,253.77854108298197,254.80690345796756,24,3,,,,,,,,,Land,,,,
choice,choice,254.80702741607092,263.60302575002424,24,3,,,1,0,7.785888125188649,,,,Land,,,,
memory,free_recall,293.4125234999228,323.41280987486243,12,3,,,,,,,,,,,,,
memory,value_recall,333.70160224987194,338.4602536659222,13,3,Animal_Sea_Solid_Large,,,,4.754504959098995,,,,,9,,,
memory,value_recall,340.2574848749209,342.8453411660157,14,3,Object_Land_Solid_Small,,,,2.583687791833654,,,,,1,,,
memory,value_recall,344.8919604578987,347.7646252498962,15,3,Object_Land_Solid_Large,,,,2.8686217500362545,,,,,-9,,,
memory,value_recall,349.81012887507677,352.61266395798884,16,3,Animal_Sea_Pattern_Small,,,,2.797473957994953,,,,,-9,,,
memory,value_recall,353.65865450003184,358.6683294160757,17,3,Object_Land_Pattern_Small,,,,5.006452583009377,,,,,5,,,
memory,value_recall,360.7147718749475,363.34866650006734,18,3,Animal_Sea_Pattern_Large,,,,2.6297252089716494,,,,,-8,,,
memory,spatial_recall,369.9138545410242,372.8286986660678,18,3,Animal_Sea_Solid_Large,,,1,2.910787583095953,,,,,,"[-329, -190]","[-329, -190]",
memory,spatial_recall,374.1413602079265,376.4236003330443,18,3,Object_Land_Solid_Large,,,1,2.278266957961023,,,,,,"[0, 380]","[0, 380]",
memory,spatial_recall,378.479852499906,380.06063070800155,18,3,Object_Land_Solid_Small,,,1,1.5767495839390904,,,,,,"[0, -380]","[0, -380]",
memory,spatial_recall,381.36817937507294,382.5103916658554,18,3,Animal_Sea_Pattern_Small,,,1,1.1372841668780893,,,,,,"[329, 189]","[329, 189]",
memory,spatial_recall,384.5676021659747,386.36075491597876,18,3,Object_Land_Pattern_Small,,,1,1.7869913750328124,,,,,,"[-329, 190]","[-329, 190]",
memory,spatial_recall,388.4134419579059,390.1971942910459,18,3,Animal_Sea_Pattern_Large,,,1,1.7796225419733673,,,,,,"[329, -190]","[329, -190]",
encoding,fixation,8.521447417093441,9.777416958939284,19,4,Object_Sea_Solid_Large,7,,,,,,,,,,,
encoding,image,9.777546792058274,10.789484333945438,19,4,Object_Sea_Solid_Large,7,,,,,,,,,,,
encoding,value,10.78960541705601,16.803042042069137,19,4,Object_Sea_Solid_Large,7,,,,,,,,,,,
encoding,attention,16.803223042050377,19.821651834063232,19,4,Object_Sea_Solid_Large,7,+7,1,1.2893544170074165,,,,,,,,
encoding,fixation,19.82182720908895,20.327617208939046,20,4,Animal_Land_Pattern_Small,5,,,,,,,,,,,
encoding,image,20.32774075004272,21.33853195910342,20,4,Animal_Land_Pattern_Small,5,,,,,,,,,,,
encoding,value,21.338640625122935,27.350496999919415,20,4,Animal_Land_Pattern_Small,5,,,,,,,,,,,
encoding,attention,27.35060708411038,30.36793079203926,20,4,Animal_Land_Pattern_Small,5,+5,1,0.9660808751359582,,,,,,,,
encoding,fixation,30.368083250010386,31.874075709143654,21,4,Animal_Sea_Solid_Small,-2,,,,,,,,,,,
encoding,image,31.874183624982834,32.885111833922565,21,4,Animal_Sea_Solid_Small,-2,,,,,,,,,,,
encoding,value,32.88529045903124,38.89711037511006,21,4,Animal_Sea_Solid_Small,-2,,,,,,,,,,,
encoding,attention,38.89722962514497,41.91399829206057,21,4,Animal_Sea_Solid_Small,-2,-2,1,0.8051221249625087,,,,,,,,
encoding,fixation,41.914158541942015,43.16935016703792,22,4,Object_Land_Pattern_Large,-4,,,,,,,,,,,
encoding,image,43.1694587089587,44.18058354198001,22,4,Object_Land_Pattern_Large,-4,,,,,,,,,,,
encoding,value,44.180699709104374,50.19674724992365,22,4,Object_Land_Pattern_Large,-4,,,,,,,,,,,
encoding,attention,50.196886209072545,53.21530837495811,22,4,Object_Land_Pattern_Large,-4,-4,1,1.0019809170626104,,,,,,,,
encoding,fixation,53.215571084059775,53.97170854196884,23,4,Animal_Sea_Solid_Large,-1,,,,,,,,,,,
encoding,image,53.97182908398099,54.98303491692059,23,4,Animal_Sea_Solid_Large,-1,,,,,,,,,,,
encoding,value,54.98316454212181,60.997459792066365,23,4,Animal_Sea_Solid_Large,-1,,,,,,,,,,,
encoding,attention,60.99756637495011,64.01859100000001,23,4,Animal_Sea_Solid_Large,-1,-1,1,1.9114000829868019,,,,,,,,
encoding,fixation,64.01875170902349,64.77378291706555,24,4,Object_Land_Pattern_Small,-2,,,,,,,,,,,
encoding,image,64.77391258394346,65.78561516711488,24,4,Object_Land_Pattern_Small,-2,,,,,,,,,,,
encoding,value,65.78572149993852,71.79747679200955,24,4,Object_Land_Pattern_Small,-2,,,,,,,,,,,
encoding,attention,71.79758541705087,74.81534916698001,24,4,Object_Land_Pattern_Small,-2,-2,1,1.0239460419397801,,,,,,,,
n-back,,,,91,4,,,,0,None,Z,True,None,,,,,
n-back,,,,92,4,,,,0,None,V,True,None,,,,,
n-back,,,,93,4,,,,1,None,C,False,None,,,,,
n-back,,,,94,4,,,,1,0.6484856659080833,V,True,1,,,,,
n-back,,,,95,4,,,,1,0.8606084999628365,C,True,1,,,,,
n-back,,,,96,4,,,,1,None,C,False,None,,,,,
n-back,,,,97,4,,,,1,0.4273368751164526,C,True,1,,,,,
n-back,,,,98,4,,,,0,None,C,True,None,,,,,
n-back,,,,99,4,,,,1,None,Z,False,None,,,,,
n-back,,,,100,4,,,,1,None,V,False,None,,,,,
n-back,,,,101,4,,,,1,0.6163985829334706,Z,True,1,,,,,
n-back,,,,102,4,,,,1,None,B,False,None,,,,,
n-back,,,,103,4,,,,1,None,C,False,None,,,,,
n-back,,,,104,4,,,,1,None,C,False,None,,,,,
n-back,,,,105,4,,,,1,None,V,False,None,,,,,
n-back,,,,106,4,,,,1,None,V,False,None,,,,,
n-back,,,,107,4,,,,1,None,X,False,None,,,,,
n-back,,,,108,4,,,,1,None,C,False,None,,,,,
n-back,,,,109,4,,,,1,None,C,False,None,,,,,
n-back,,,,110,4,,,,1,None,B,False,None,,,,,
n-back,,,,111,4,,,,1,None,V,False,None,,,,,
n-back,,,,112,4,,,,1,0.5646346660796553,B,True,1,,,,,
n-back,,,,113,4,,,,1,None,X,False,None,,,,,
n-back,,,,114,4,,,,1,0.8256413340568542,B,True,1,,,,,
n-back,,,,115,4,,,,1,None,N,False,None,,,,,
n-back,,,,116,4,,,,0,None,B,True,None,,,,,
n-back,,,,117,4,,,,1,None,C,False,None,,,,,
n-back,,,,118,4,,,,1,None,N,False,None,,,,,
n-back,,,,119,4,,,,1,None,B,False,None,,,,,
n-back,,,,120,4,,,,1,None,Z,False,None,,,,,
choice,fixation,152.92953179194592,154.1835463750176,25,4,,,,,,,,,Pattern,,,,
choice,option,154.19267358398065,155.21932224999182,25,4,,,,,,,,,Pattern,,,,
choice,choice,155.21944108395837,171.70488395914435,25,4,,,2,1,15.474328249925748,,,,Pattern,,,,
choice,fixation,171.70503524993546,172.95929641695693,26,4,,,,,,,,,Large,,,,
choice,option,172.96844566706568,173.99753437493928,26,4,,,,,,,,,Large,,,,
choice,choice,173.99764670897275,179.68664737511426,26,4,,,1,1,4.679384042043239,,,,Large,,,,
choice,fixation,179.6867889999412,181.19171958393417,27,4,,,,,,,,,Animal,,,,
choice,option,181.20117079210468,182.22987254196778,27,4,,,,,,,,,Animal,,,,
choice,choice,182.22999745910056,185.8642655420117,27,4,,,1,1,2.624577875016257,,,,Animal,,,,
choice,fixation,185.8643907920923,186.86917579197325,28,4,,,,,,,,,Solid,,,,
choice,option,186.87852675002068,187.90498566697352,28,4,,,,,,,,,Solid,,,,
choice,choice,187.90511275012977,193.9583548340015,28,4,,,1,1,5.044246041914448,,,,Solid,,,,
choice,fixation,193.95849575009197,194.4634717090521,29,4,,,,,,,,,Object,,,,
choice,option,194.4724733750336,195.4983974590432,29,4,,,,,,,,,Object,,,,
choice,choice,195.49851329205558,199.26327820913866,29,4,,,2,0,2.754751458996907,,,,Object,,,,
choice,fixation,199.26340287504718,199.7685885420069,30,4,,,,,,,,,Land,,,,
choice,option,199.77762308414094,200.803968250053,30,4,,,,,,,,,Land,,,,
choice,choice,200.80407595913857,213.27377095911652,30,4,,,2,1,11.457677708007395,,,,Land,,,,
choice,fixation,213.27389929210767,214.77970958407968,31,4,,,,,,,,,Small,,,,
choice,option,214.78906270908192,215.81630291696638,31,4,,,,,,,,,Small,,,,
choice,choice,215.8164322921075,227.80743608414195,31,4,,,2,0,10.980356957996264,,,,Small,,,,
choice,fixation,227.80756229208782,228.81240287492983,32,4,,,,,,,,,Sea,,,,
choice,option,228.8205620420631,229.84767933399417,32,4,,,,,,,,,Sea,,,,
choice,choice,229.84787270892411,234.08000966697,32,4,,,1,1,3.2208840418606997,,,,Sea,,,,
memory,free_recall,250.38566204207018,269.44447029195726,18,4,,,,,,,,,,,,,
memory,value_recall,275.59810420894064,279.6894446250517,19,4,Animal_Sea_Solid_Small,,,,4.087270207935944,,,,,-2,,,
memory,value_recall,281.4900764999911,284.8345874170773,20,4,Object_Sea_Solid_Large,,,,3.338380582863465,,,,,7,,,
memory,value_recall,286.130665167002,289.41809245897457,21,4,Object_Land_Pattern_Small,,,,3.2831213751342148,,,,,-2,,,
memory,value_recall,291.21491712494753,293.6982187090907,22,4,Animal_Land_Pattern_Small,,,,2.479257999919355,,,,,5,,,
memory,value_recall,294.7461174170021,297.78578033391386,23,4,Object_Land_Pattern_Large,,,,3.036191332852468,,,,,-4,,,
memory,value_recall,298.83125604200177,302.2328180000186,24,4,Animal_Sea_Solid_Large,,,,3.3982882918789983,,,,,-1,,,
memory,spatial_recall,306.1692857919261,308.2388120840769,24,4,Animal_Land_Pattern_Small,,,1,2.0653488331008703,,,,,,"[329, -190]","[329, -190]",
memory,spatial_recall,309.8026831669267,311.2046557920985,24,4,Object_Land_Pattern_Small,,,1,1.3979865841101855,,,,,,"[-329, 190]","[-329, 190]",
memory,spatial_recall,313.0163631250616,314.63633158407174,24,4,Animal_Sea_Solid_Small,,,1,1.6156892499420792,,,,,,"[0, -380]","[0, -380]",
memory,spatial_recall,316.202295291936,317.76713762502186,24,4,Object_Sea_Solid_Large,,,1,1.56086854217574,,,,,,"[0, 380]","[0, 380]",
memory,spatial_recall,319.07449112506583,320.93302379199304,24,4,Animal_Sea_Solid_Large,,,1,1.8539333750959486,,,,,,"[-329, -190]","[-329, -190]",
memory,spatial_recall,322.2417396251112,323.2800707090646,24,4,Object_Land_Pattern_Large,,,1,1.0333589580841362,,,,,,"[329, 189]","[329, 189]",
encoding,fixation,6.655819542007521,7.66156733315438,25,5,Animal_Land_Pattern_Large,4,,,,,,,,,,,
encoding,image,7.66168654197827,8.674488916993141,25,5,Animal_Land_Pattern_Large,4,,,,,,,,,,,
encoding,value,8.674634833121672,14.68810183298774,25,5,Animal_Land_Pattern_Large,4,,,,,,,,,,,
encoding,attention,14.688211166998371,17.706716375192627,25,5,Animal_Land_Pattern_Large,4,+4,1,1.5299449160229415,,,,,,,,
encoding,fixation,17.7069022920914,18.46259787515737,26,5,Object_Sea_Solid_Small,7,,,,,,,,,,,
encoding,image,18.46277604205534,19.47388037503697,26,5,Object_Sea_Solid_Small,7,,,,,,,,,,,
encoding,value,19.473971375031397,25.485864708200097,26,5,Object_Sea_Solid_Small,7,,,,,,,,,,,
encoding,attention,25.48597174999304,28.502812042133883,26,5,Object_Sea_Solid_Small,7,+7,1,1.8700892908964306,,,,,,,,
encoding,fixation,28.50297833303921,29.508138083154336,27,5,Animal_Land_Solid_Large,4,,,,,,,,,,,
encoding,image,29.508260667091236,30.520471083000302,27,5,Animal_Land_Solid_Large,4,,,,,,,,,,,
encoding,value,30.520577125018463,36.53243324998766,27,5,Animal_Land_Solid_Large,4,,,,,,,,,,,
encoding,attention,36.532566542038694,39.55049387505278,27,5,Animal_Land_Solid_Large,4,+4,1,1.0053380830213428,,,,,,,,
encoding,fixation,39.550657333107665,40.30569291720167,28,5,Object_Sea_Pattern_Small,1,,,,,,,,,,,
encoding,image,40.30580491712317,41.3165307501331,28,5,Object_Sea_Pattern_Small,1,,,,,,,,,,,
encoding,value,41.316650208085775,47.327889583073556,28,5,Object_Sea_Pattern_Small,1,,,,,,,,,,,
encoding,attention,47.32801333302632,50.34555666707456,28,5,Object_Sea_Pattern_Small,1,+1,1,0.8528437910135835,,,,,,,,
encoding,fixation,50.345713458023965,51.85089800017886,29,5,Animal_Land_Solid_Small,-9,,,,,,,,,,,
encoding,image,51.85100995819084,52.86171120801009,29,5,Animal_Land_Solid_Small,-9,,,,,,,,,,,
encoding,value,52.86182362516411,58.873537708073854,29,5,Animal_Land_Solid_Small,-9,,,,,,,,,,,
encoding,attention,58.87371183303185,61.891799750039354,29,5,Animal_Land_Solid_Small,-9,-9,1,1.4239618750289083,,,,,,,,
encoding,fixation,61.89203841704875,62.89716679207049,30,5,Object_Sea_Pattern_Large,-7,,,,,,,,,,,
encoding,image,62.89727195817977,63.911746208090335,30,5,Object_Sea_Pattern_Large,-7,,,,,,,,,,,
encoding,value,63.91193833318539,69.92327870801091,30,5,Object_Sea_Pattern_Large,-7,,,,,,,,,,,
encoding,attention,69.92339391703717,72.9413934580516,30,5,Object_Sea_Pattern_Large,-7,-7,1,1.4955003338400275,,,,,,,,
n-back,,,,121,5,,,,1,None,C,False,None,,,,,
n-back,,,,122,5,,,,1,None,C,False,None,,,,,
n-back,,,,123,5,,,,1,0.6694221249781549,C,True,1,,,,,
n-back,,,,124,5,,,,1,0.9747296660207212,C,True,1,,,,,
n-back,,,,125,5,,,,1,None,X,False,None,,,,,
n-back,,,,126,5,,,,1,0.6536282498855144,C,True,1,,,,,
n-back,,,,127,5,,,,1,None,Z,False,None,,,,,
n-back,,,,128,5,,,,1,None,N,False,None,,,,,
n-back,,,,129,5,,,,1,0.916427832795307,Z,True,1,,,,,
n-back,,,,130,5,,,,1,None,Z,False,None,,,,,
n-back,,,,131,5,,,,1,None,B,False,None,,,,,
n-back,,,,132,5,,,,1,0.5347954169847071,Z,True,1,,,,,
n-back,,,,133,5,,,,1,0.9152485418599099,B,True,1,,,,,
n-back,,,,134,5,,,,1,None,C,False,None,,,,,
n-back,,,,135,5,,,,1,0.44662358285859227,B,True,1,,,,,
n-back,,,,136,5,,,,1,None,X,False,None,,,,,
n-back,,,,137,5,,,,1,None,C,False,None,,,,,
n-back,,,,138,5,,,,1,None,Z,False,None,,,,,
n-back,,,,139,5,,,,1,0.4814959999639541,C,True,1,,,,,
n-back,,,,140,5,,,,1,None,N,False,None,,,,,
n-back,,,,141,5,,,,1,None,N,False,None,,,,,
n-back,,,,142,5,,,,1,0.5236997089814395,N,True,1,,,,,
n-back,,,,143,5,,,,1,None,Z,False,None,,,,,
n-back,,,,144,5,,,,1,0.6360731250606477,N,True,1,,,,,
n-back,,,,145,5,,,,1,None,X,False,None,,,,,
n-back,,,,146,5,,,,1,None,B,False,None,,,,,
n-back,,,,147,5,,,,1,None,V,False,None,,,,,
n-back,,,,148,5,,,,1,None,V,False,None,,,,,
n-back,,,,149,5,,,,1,None,C,False,None,,,,,
n-back,,,,150,5,,,,1,None,X,False,None,,,,,
choice,fixation,149.42903191712685,150.68267683312297,33,5,,,,,,,,,Sea,,,,
choice,option,150.69096854212694,151.72076554200612,33,5,,,,,,,,,Sea,,,,
choice,choice,151.72093941713683,169.88800995820202,33,5,,,1,1,17.153503249865025,,,,Sea,,,,
choice,fixation,169.88820987497456,171.14444691711105,34,5,,,,,,,,,Small,,,,
choice,option,171.1541740000248,172.18179500009865,34,5,,,,,,,,,Small,,,,
choice,choice,172.18190375017002,181.1412700000219,34,5,,,2,1,7.947979750111699,,,,Small,,,,
choice,fixation,181.14141633315012,182.14648804208264,35,5,,,,,,,,,Large,,,,
choice,option,182.155060792109,183.18308237497695,35,5,,,,,,,,,Large,,,,
choice,choice,183.18319191713817,200.8313511251472,35,5,,,1,1,16.63656320888549,,,,Large,,,,
choice,fixation,200.83146891719662,201.58670041710138,36,5,,,,,,,,,Land,,,,
choice,option,201.5954845000524,202.6209099581465,36,5,,,,,,,,,Land,,,,
choice,choice,202.62102125003003,225.22277350001968,36,5,,,1,0,21.59061612514779,,,,Land,,,,
choice,fixation,225.22291633300483,225.72809454216622,37,5,,,,,,,,,Animal,,,,
choice,option,225.7377985829953,226.76605066703632,37,5,,,,,,,,,Animal,,,,
choice,choice,226.76616708305664,238.17120287497528,37,5,,,2,1,10.390841125044972,,,,Animal,,,,
choice,fixation,238.17146754218265,238.67924891714938,38,5,,,,,,,,,Solid,,,,
choice,option,238.6893213330768,239.71867558313534,38,5,,,,,,,,,Solid,,,,
choice,choice,239.71878325007856,253.07792600011453,38,5,,,1,1,12.347756624920294,,,,Solid,,,,
choice,fixation,253.07808495801874,253.83379625016823,39,5,,,,,,,,,Object,,,,
choice,option,253.84415183309466,254.87090408313088,39,5,,,,,,,,,Object,,,,
choice,choice,254.8710160420742,264.8538360001985,39,5,,,1,1,8.970703708939254,,,,Object,,,,
choice,fixation,264.85399429220706,266.11076570814475,40,5,,,,,,,,,Pattern,,,,
choice,option,266.1203734581359,267.1474151671864,40,5,,,,,,,,,Pattern,,,,
choice,choice,267.14754133298993,271.0518085830845,40,5,,,1,0,2.894476625137031,,,,Pattern,,,,
memory,free_recall,283.53472395800054,312.20827225013636,24,5,,,,,,,,,,,,,
memory,value_recall,317.03758762497455,319.6478704169858,25,5,Object_Sea_Solid_Small,,,,2.603706499794498,,,,,7,,,
memory,value_recall,321.69425087515265,324.6546765000094,26,5,Object_Sea_Pattern_Small,,,,2.956208375049755,,,,,1,,,
memory,value_recall,326.20056804199703,328.2641470830422,27,5,Animal_Land_Solid_Small,,,,2.059496416011825,,,,,-9,,,
memory,value_recall,330.061755125178,334.06341408309527,28,5,Animal_Land_Pattern_Large,,,,3.997316125081852,,,,,4,,,
memory,value_recall,335.1114935830701,337.59937850013375,29,5,Animal_Land_Solid_Large,,,,2.484537292039022,,,,,4,,,
memory,value_recall,338.6455574580468,342.6867065001279,30,5,Object_Sea_Pattern_Large,,,,4.037905249977484,,,,,-7,,,
memory,spatial_recall,346.3100570831448,349.6143291250337,30,5,Animal_Land_Solid_Small,,,1,3.3000881250482053,,,,,,"[-329, 190]","[-329, 190]",
memory,spatial_recall,350.6728885001503,352.75216191704385,30,5,Animal_Land_Pattern_Large,,,1,2.0762222909834236,,,,,,"[0, 380]","[0, 380]",
memory,spatial_recall,354.0610135421157,355.64982091705315,30,5,Object_Sea_Solid_Small,,,1,1.5847822909709066,,,,,,"[-329, -190]","[-329, -190]",
memory,spatial_recall,357.21242991718464,358.64679766702466,30,5,Object_Sea_Pattern_Small,,,1,1.4303674998227507,,,,,,"[329, -190]","[329, -190]",
memory,spatial_recall,360.4541763330344,362.5609306250699,30,5,Object_Sea_Pattern_Large,,,1,2.10167304193601,,,,,,"[329, 189]","[329, 189]",
memory,spatial_recall,364.6192160421051,366.56823733309284,30,5,Animal_Land_Solid_Large,,,1,1.9445445840246975,,,,,,"[0, -380]","[0, -380]",
encoding,fixation,9.696622708113864,10.952207040973008,31,6,Object_Sea_Pattern_Large,-3,,,,,,,,,,,
encoding,image,10.95232233311981,11.964308290975168,31,6,Object_Sea_Pattern_Large,-3,,,,,,,,,,,
encoding,value,11.964430707972497,17.977323291124776,31,6,Object_Sea_Pattern_Large,-3,,,,,,,,,,,
encoding,attention,17.977431083098054,20.995656125014648,31,6,Object_Sea_Pattern_Large,-3,-3,1,1.2913302078377455,,,,,,,,
encoding,fixation,20.995815958129242,22.500863207969815,32,6,Animal_Sea_Pattern_Large,9,,,,,,,,,,,
encoding,image,22.50098191597499,23.51149879093282,32,6,Animal_Sea_Pattern_Large,9,,,,,,,,,,,
encoding,value,23.511664499994367,29.522860083030537,32,6,Animal_Sea_Pattern_Large,9,,,,,,,,,,,
encoding,attention,29.522982832975686,32.53984791599214,32,6,Animal_Sea_Pattern_Large,9,+9,1,1.5354189169593155,,,,,,,,
encoding,fixation,32.539996083127335,33.29512054100633,33,6,Animal_Land_Pattern_Large,-5,,,,,,,,,,,
encoding,image,33.295221500098705,34.30625829100609,33,6,Animal_Land_Pattern_Large,-5,,,,,,,,,,,
encoding,value,34.306370249949396,40.318368332926184,33,6,Animal_Land_Pattern_Large,-5,,,,,,,,,,,
encoding,attention,40.31849225005135,43.33696270803921,33,6,Animal_Land_Pattern_Large,-5,-5,1,1.2660509999841452,,,,,,,,
encoding,fixation,43.33715787506662,44.8425884579774,34,6,Animal_Land_Solid_Small,-2,,,,,,,,,,,
encoding,image,44.84271620796062,45.853811958106235,34,6,Animal_Land_Solid_Small,-2,,,,,,,,,,,
encoding,value,45.853911583079025,51.86546216602437,34,6,Animal_Land_Solid_Small,-2,,,,,,,,,,,
encoding,attention,51.865585250081494,54.88307550013997,34,6,Animal_Land_Solid_Small,-2,-2,1,1.1924880419392139,,,,,,,,
encoding,fixation,54.88324129092507,55.88884812500328,35,6,Object_Land_Solid_Small,5,,,,,,,,,,,
encoding,image,55.888989916071296,56.90036316611804,35,6,Object_Land_Solid_Small,5,,,,,,,,,,,
encoding,value,56.9005014160648,62.91423058300279,35,6,Object_Land_Solid_Small,5,,,,,,,,,,,
encoding,attention,62.91435091593303,65.9318372909911,35,6,Object_Land_Solid_Small,5,+5,1,0.9202607918996364,,,,,,,,
encoding,fixation,65.93209204101004,66.93719725008123,36,6,Object_Sea_Solid_Small,-5,,,,,,,,,,,
encoding,image,66.93730787513778,67.94790570810437,36,6,Object_Sea_Solid_Small,-5,,,,,,,,,,,
encoding,value,67.94803116610274,73.95852645812556,36,6,Object_Sea_Solid_Small,-5,,,,,,,,,,,
encoding,attention,73.95866270805709,76.97505512507632,36,6,Object_Sea_Solid_Small,-5,-5,1,0.8839567499235272,,,,,,,,
n-back,,,,151,6,,,,1,None,N,False,None,,,,,
n-back,,,,152,6,,,,1,None,V,False,None,,,,,
n-back,,,,153,6,,,,1,0.4620173331350088,N,True,1,,,,,
n-back,,,,154,6,,,,1,0.7403036670293659,V,True,1,,,,,
n-back,,,,155,6,,,,1,0.9005605829879642,N,True,1,,,,,
n-back,,,,156,6,,,,1,0.7146650420036167,V,True,1,,,,,
n-back,,,,157,6,,,,1,None,B,False,None,,,,,
n-back,,,,158,6,,,,1,0.4587452500127256,V,True,1,,,,,
n-back,,,,159,6,,,,1,None,V,False,None,,,,,
n-back,,,,160,6,,,,1,None,B,False,None,,,,,
n-back,,,,161,6,,,,1,0.9887665419373661,V,True,1,,,,,
n-back,,,,162,6,,,,1,None,C,False,None,,,,,
n-back,,,,163,6,,,,1,None,C,False,None,,,,,
n-back,,,,164,6,,,,1,0.5518850840162486,C,True,1,,,,,
n-back,,,,165,6,,,,1,None,X,False,None,,,,,
n-back,,,,166,6,,,,1,0.42864870792254806,C,True,1,,,,,
n-back,,,,167,6,,,,1,0.6057194999884814,X,True,1,,,,,
n-back,,,,168,6,,,,1,None,Z,False,None,,,,,
n-back,,,,169,6,,,,1,None,B,False,None,,,,,
n-back,,,,170,6,,,,1,None,C,False,None,,,,,
n-back,,,,171,6,,,,1,None,X,False,None,,,,,
n-back,,,,172,6,,,,1,None,X,False,None,,,,,
n-back,,,,173,6,,,,1,None,N,False,None,,,,,
n-back,,,,174,6,,,,1,None,B,False,None,,,,,
n-back,,,,175,6,,,,1,None,Z,False,None,,,,,
n-back,,,,176,6,,,,1,1.0456117091234773,B,True,1,,,,,
n-back,,,,177,6,,,,1,None,C,False,None,,,,,
n-back,,,,178,6,,,,1,None,X,False,None,,,,,
n-back,,,,179,6,,,,1,None,Z,False,None,,,,,
n-back,,,,180,6,,,,1,None,B,False,None,,,,,
choice,fixation,153.58014866593294,154.33338979096152,41,6,,,,,,,,,Land,,,,
choice,option,154.34187012491748,155.3673014161177,41,6,,,,,,,,,Land,,,,
choice,choice,155.36742066591978,176.36649887496606,41,6,,,2,1,19.98801629198715,,,,Land,,,,
choice,fixation,176.36664499994367,177.62184270797297,42,6,,,,,,,,,Animal,,,,
choice,option,177.63156591611914,178.6592997079715,42,6,,,,,,,,,Animal,,,,
choice,choice,178.65944562503137,193.4525739159435,42,6,,,1,1,13.781136417062953,,,,Animal,,,,
choice,fixation,193.45271020801738,194.20629429095425,43,6,,,,,,,,,Small,,,,
choice,option,194.21516891592182,195.2415142499376,43,6,,,,,,,,,Small,,,,
choice,choice,195.24162391596474,207.869837166043,43,6,,,2,1,11.617140916874632,,,,Small,,,,
choice,fixation,207.86998091614805,209.12552808295004,44,6,,,,,,,,,Sea,,,,
choice,option,209.13415312510915,210.16163208312355,44,6,,,,,,,,,Sea,,,,
choice,choice,210.16178800002672,222.97236766596325,44,6,,,2,0,11.799802042078227,,,,Sea,,,,
choice,fixation,222.97250404092483,223.72746666613966,45,6,,,,,,,,,Pattern,,,,
choice,option,223.73663945798762,224.76398479100317,45,6,,,,,,,,,Pattern,,,,
choice,choice,224.76414404110983,232.81949858297594,45,6,,,2,0,7.044610874960199,,,,Pattern,,,,
choice,fixation,232.81963933305815,233.32455483311787,46,6,,,,,,,,,Object,,,,
choice,option,233.33381900005043,234.3596984159667,46,6,,,,,,,,,Object,,,,
choice,choice,234.3598117500078,243.9821178750135,46,6,,,2,1,8.609627458965406,,,,Object,,,,
choice,fixation,243.98226070799865,245.23720108298585,47,6,,,,,,,,,Solid,,,,
choice,option,245.24655866599642,246.2736701660324,47,6,,,,,,,,,Solid,,,,
choice,choice,246.2737845829688,254.49218758312054,47,6,,,2,1,7.204642083030194,,,,Solid,,,,
choice,fixation,254.4923110830132,254.9975927080959,48,6,,,,,,,,,Large,,,,
choice,option,255.00605150009505,256.03270212514326,48,6,,,,,,,,,Large,,,,
choice,choice,256.03287337510847,260.4531935409177,48,6,,,1,1,3.410829999949783,,,,Large,,,,
memory,free_recall,273.7344161660876,289.6704960409552,30,6,,,,,,,,,,,,,
memory,value_recall,295.228327000048,300.0382910000626,31,6,Object_Sea_Pattern_Large,,,,4.806800917023793,,,,,-3,,,
memory,value_recall,301.33317145798355,304.36584487510845,32,6,Animal_Land_Solid_Small,,,,3.028186958981678,,,,,-2,,,
memory,value_recall,305.6618534580339,309.74201425001957,33,6,Animal_Land_Pattern_Large,,,,4.075935832923278,,,,,-5,,,
memory,value_recall,311.2883917079307,313.87018450000323,34,6,Object_Sea_Solid_Small,,,,2.57758712512441,,,,,-5,,,
memory,value_recall,315.91613283311017,317.8232617911417,35,6,Animal_Sea_Pattern_Large,,,,1.9017910410184413,,,,,9,,,
memory,value_recall,319.3698124580551,321.5028656250797,36,6,Object_Land_Solid_Small,,,,2.128945166943595,,,,,5,,,
memory,spatial_recall,325.2204728750512,327.6882461661007,36,6,Object_Land_Solid_Small,,,1,2.4637207919731736,,,,,,"[0, -380]","[0, -380]",
memory,spatial_recall,329.24911320814863,331.6177932911087,36,6,Object_Sea_Solid_Small,,,1,2.364650750067085,,,,,,"[-329, -190]","[-329, -190]",
memory,spatial_recall,333.4243715410121,336.05537008307874,36,6,Animal_Land_Pattern_Large,,,1,2.6246772080194205,,,,,,"[0, 380]","[0, 380]",
memory,spatial_recall,338.1172131251078,339.1341295831371,36,6,Animal_Land_Solid_Small,,,1,1.0116239578928798,,,,,,"[-329, 190]","[-329, 190]",
memory,spatial_recall,340.43109324993566,343.0895242081024,36,6,Object_Sea_Pattern_Large,,,1,2.6541517910081893,,,,,,"[329, 189]","[329, 189]",
memory,spatial_recall,344.39779400010593,347.23796724993736,36,6,Animal_Sea_Pattern_Large,,,1,2.8361978749744594,,,,,,"[329, -190]","[329, -190]",
encoding,fixation,16.379265166819096,17.3853970838245,37,7,Object_Sea_Pattern_Large,-7,,,,,,,,,,,
encoding,image,17.385531791951507,18.397540624951944,37,7,Object_Sea_Pattern_Large,-7,,,,,,,,,,,
encoding,value,18.39766495884396,24.411717499839142,37,7,Object_Sea_Pattern_Large,-7,,,,,,,,,,,
encoding,attention,24.411852458957583,27.43352924985811,37,7,Object_Sea_Pattern_Large,-7,-7,1,1.3766867499798536,,,,,,,,
encoding,fixation,27.433711083838716,27.93916679196991,38,7,Object_Sea_Solid_Small,2,,,,,,,,,,,
encoding,image,27.939295375021175,28.950376208871603,38,7,Object_Sea_Solid_Small,2,,,,,,,,,,,
encoding,value,28.95050320890732,34.962374958908185,38,7,Object_Sea_Solid_Small,2,,,,,,,,,,,
encoding,attention,34.962573959026486,37.98099237494171,38,7,Object_Sea_Solid_Small,2,+2,1,1.1647365000098944,,,,,,,,
encoding,fixation,37.981178999878466,38.48650720901787,39,7,Object_Sea_Pattern_Small,2,,,,,,,,,,,
encoding,image,38.486634959001094,39.497583583928645,39,7,Object_Sea_Pattern_Small,2,,,,,,,,,,,
encoding,value,39.4977172089275,45.509430249920115,39,7,Object_Sea_Pattern_Small,2,,,,,,,,,,,
encoding,attention,45.50953670893796,48.52707429183647,39,7,Object_Sea_Pattern_Small,2,+2,1,0.7758562499657273,,,,,,,,
encoding,fixation,48.52722637495026,49.78236470883712,40,7,Animal_Land_Solid_Small,-5,,,,,,,,,,,
encoding,image,49.78248795890249,50.793273583985865,40,7,Animal_Land_Solid_Small,-5,,,,,,,,,,,
encoding,value,50.79339379188605,56.80501783383079,40,7,Animal_Land_Solid_Small,-5,,,,,,,,,,,
encoding,attention,56.80513408384286,59.82501837494783,40,7,Animal_Land_Solid_Small,-5,-5,1,1.6789485830813646,,,,,,,,
encoding,fixation,59.82518249982968,60.330202041892335,41,7,Animal_Land_Solid_Large,5,,,,,,,,,,,
encoding,image,60.330309291835874,61.34207516699098,41,7,Animal_Land_Solid_Large,5,,,,,,,,,,,
encoding,value,61.342234666924924,67.35489504202269,41,7,Animal_Land_Solid_Large,5,,,,,,,,,,,
encoding,attention,67.35502720880322,70.37325008399785,41,7,Animal_Land_Solid_Large,5,+5,1,1.402554834028706,,,,,,,,
encoding,fixation,70.37342412490398,71.62856079195626,42,7,Animal_Land_Pattern_Large,1,,,,,,,,,,,
encoding,image,71.62867879192345,72.64263229188509,42,7,Animal_Land_Pattern_Large,1,,,,,,,,,,,
encoding,value,72.64274408388883,78.65438608382829,42,7,Animal_Land_Pattern_Large,1,,,,,,,,,,,
encoding,attention,78.65450320881791,81.67255208385177,42,7,Animal_Land_Pattern_Large,1,+1,1,1.0313449171371758,,,,,,,,
n-back,,,,181,7,,,,1,None,V,False,None,,,,,
n-back,,,,182,7,,,,1,None,B,False,None,,,,,
n-back,,,,183,7,,,,1,None,N,False,None,,,,,
n-back,,,,184,7,,,,1,None,X,False,None,,,,,
n-back,,,,185,7,,,,1,None,B,False,None,,,,,
n-back,,,,186,7,,,,1,0.5464012909214944,X,True,1,,,,,
n-back,,,,187,7,,,,1,None,N,False,None,,,,,
n-back,,,,188,7,,,,0,None,X,True,None,,,,,
n-back,,,,189,7,,,,1,None,V,False,None,,,,,
n-back,,,,190,7,,,,1,None,V,False,None,,,,,
n-back,,,,191,7,,,,1,None,C,False,None,,,,,
n-back,,,,192,7,,,,1,1.0995018749963492,V,True,1,,,,,
n-back,,,,193,7,,,,1,None,N,False,None,,,,,
n-back,,,,194,7,,,,1,None,C,False,None,,,,,
n-back,,,,195,7,,,,1,None,Z,False,None,,,,,
n-back,,,,196,7,,,,0,None,C,True,None,,,,,
n-back,,,,197,7,,,,1,None,N,False,None,,,,,
n-back,,,,198,7,,,,1,None,X,False,None,,,,,
n-back,,,,199,7,,,,1,0.523760125041008,N,True,1,,,,,
n-back,,,,200,7,,,,1,None,N,False,None,,,,,
n-back,,,,201,7,,,,0,None,N,True,None,,,,,
n-back,,,,202,7,,,,1,0.46630037506110966,N,True,1,,,,,
n-back,,,,203,7,,,,1,None,Z,False,None,,,,,
n-back,,,,204,7,,,,1,1.1069068328943104,N,True,1,,,,,
n-back,,,,205,7,,,,1,None,B,False,None,,,,,
n-back,,,,206,7,,,,1,None,V,False,None,,,,,
n-back,,,,207,7,,,,0,None,B,True,None,,,,,
n-back,,,,208,7,,,,1,None,X,False,None,,,,,
n-back,,,,209,7,,,,1,None,N,False,None,,,,,
n-back,,,,210,7,,,,1,0.5658459579572082,X,True,1,,,,,
choice,fixation,161.02223070897162,162.5256431249436,49,7,,,,,,,,,Small,,,,
choice,option,162.5344950419385,163.56397074996494,49,7,,,,,,,,,Small,,,,
choice,choice,163.56410379195586,175.8574857499916,49,7,,,2,1,11.28176770801656,,,,Small,,,,
choice,fixation,175.8576005420182,176.86285549984314,50,7,,,,,,,,,Object,,,,
choice,option,176.87211574986577,177.89992908388376,50,7,,,,,,,,,Object,,,,
choice,choice,177.900045708986,190.83227866701782,50,7,,,2,1,11.921567665878683,,,,Object,,,,
choice,fixation,190.83240074990317,191.83744333381765,51,7,,,,,,,,,Animal,,,,
choice,option,191.8468269999139,192.8754882919602,51,7,,,,,,,,,Animal,,,,
choice,choice,192.87561591691338,194.76655908394605,51,7,,,1,1,0.8812013329006732,,,,Animal,,,,
choice,fixation,194.76668170886114,195.2722474168986,52,7,,,,,,,,,Pattern,,,,
choice,option,195.28136149980128,196.31025512493216,52,7,,,,,,,,,Pattern,,,,
choice,choice,196.3103591669351,210.57122554187663,52,7,,,2,1,13.248797458130866,,,,Pattern,,,,
choice,fixation,210.57137366686948,212.07649929192849,53,7,,,,,,,,,Large,,,,
choice,option,212.08542762487195,213.11210224987008,53,7,,,,,,,,,Large,,,,
choice,choice,213.11222416698,229.20036670891568,53,7,,,2,1,15.076771292136982,,,,Large,,,,
choice,fixation,229.20050183380954,229.95557829202153,54,7,,,,,,,,,Solid,,,,
choice,option,229.9652529999148,230.99213549983688,54,7,,,,,,,,,Solid,,,,
choice,choice,230.99225141690113,247.91659304196946,54,7,,,1,1,15.913569541880861,,,,Solid,,,,
choice,fixation,247.91674274997786,248.42171037499793,55,7,,,,,,,,,Sea,,,,
choice,option,248.42980108386837,249.45893099997193,55,7,,,,,,,,,Sea,,,,
choice,choice,249.45903649996035,264.94967479188927,55,7,,,2,1,14.476926417089999,,,,Sea,,,,
choice,fixation,264.9498270419426,265.45502291689627,56,7,,,,,,,,,Land,,,,
choice,option,265.46407745894976,266.49221954192035,56,7,,,,,,,,,Land,,,,
choice,choice,266.492334124865,275.37699795886874,56,7,,,1,1,7.87322258297354,,,,Land,,,,
memory,free_recall,291.9789471249096,308.2017958338838,36,7,,,,,,,,,,,,,
memory,value_recall,315.6601148338523,319.56978391692974,37,7,Animal_Land_Solid_Small,,,,3.9055673328693956,,,,,-5,,,
memory,value_recall,320.61679679201916,323.4341852918733,38,7,Object_Sea_Solid_Small,,,,2.814096749993041,,,,,2,,,
memory,value_recall,324.4800116668921,329.9699388749432,39,7,Animal_Land_Solid_Large,,,,5.4873519169632345,,,,,5,,,
memory,value_recall,331.5167686250061,339.45962929190136,40,7,Object_Sea_Pattern_Small,,,,7.938670290866867,,,,,2,,,
memory,value_recall,341.50712612480856,343.47627749992535,41,7,Animal_Land_Pattern_Large,,,,1.9649099169764668,,,,,1,,,
memory,value_recall,345.52215120894834,347.5788845419884,42,7,Object_Sea_Pattern_Large,,,,2.052632624981925,,,,,-7,,,
memory,spatial_recall,351.68746770895086,355.23028775001876,42,7,Object_Sea_Pattern_Small,,,1,3.5388823330868036,,,,,,"[329, -190]","[329, -190]",
memory,spatial_recall,356.29641587496735,358.01764308381826,42,7,Animal_Land_Solid_Small,,,1,1.7186363330110908,,,,,,"[-329, 190]","[-329, 190]",
memory,spatial_recall,359.829584708903,362.5496638750192,42,7,Animal_Land_Pattern_Large,,,1,2.716043750056997,,,,,,"[0, 380]","[0, 380]",
memory,spatial_recall,364.11402362491935,368.47587629198097,42,7,Animal_Land_Solid_Large,,,1,4.357669124845415,,,,,,"[0, -380]","[0, -380]",
memory,spatial_recall,370.29076808388345,371.84314362495206,42,7,Object_Sea_Solid_Small,,,1,1.5482271250803024,,,,,,"[-329, -190]","[-329, -190]",
memory,spatial_recall,372.89298408385366,375.7965033748187,42,7,Object_Sea_Pattern_Large,,,1,2.9011403750628233,,,,,,"[329, 189]","[329, 189]",
