phase,event,trial_number,eyetracker_onset,eyetracker_offset,fix_start,fix_end,fix_duration_full,fix_duration_bounded,fix_x,fix_y,roi_x,roi_y,roi_content,onset,offset,game,image,outcome,choice,correct,rt,letter,match,response,option,true_value,true_position,recalled_position,Unnamed: 18
encoding,fixation,1,24071865,24073135,24072109,24072270,162,162,1962.1,1091.0,1920.0,1080.0,fixation,15.55464016715996,16.82481620903127,1.0,Object_Sea_Pattern_Large,-3.0,,,,,,,,,,,
encoding,fixation,1,24071865,24073135,24072434,24072646,213,213,1950.5,1104.2,1920.0,1080.0,fixation,15.55464016715996,16.82481620903127,1.0,Object_Sea_Pattern_Large,-3.0,,,,,,,,,,,
encoding,fixation,1,24071865,24073135,24072656,24073128,473,473,1979.3,1075.4,1920.0,1080.0,fixation,15.55464016715996,16.82481620903127,1.0,Object_Sea_Pattern_Large,-3.0,,,,,,,,,,,
encoding,image,1,24073135,24074157,24073149,24073343,195,195,1996.0,1210.0,2249.0,891.0,Object_Sea_Pattern_Large,16.824953709030524,17.846512792166322,1.0,Object_Sea_Pattern_Large,-3.0,,,,,,,,,,,
encoding,image,1,24073135,24074157,24073370,24074547,1178,787,2272.4,1231.0,2249.0,891.0,Object_Sea_Pattern_Large,16.824953709030524,17.846512792166322,1.0,Object_Sea_Pattern_Large,-3.0,,,,,,,,,,,
encoding,value,1,24074157,24080176,24074565,24074831,267,267,2279.7,1134.9,2249.0,891.0,Object_Sea_Pattern_Large,17.846618000185117,23.86593733401969,1.0,Object_Sea_Pattern_Large,-3.0,,,,,,,,,,,
encoding,value,1,24074157,24080176,24074850,24075212,363,363,2269.1,1227.9,2249.0,891.0,Object_Sea_Pattern_Large,17.846618000185117,23.86593733401969,1.0,Object_Sea_Pattern_Large,-3.0,,,,,,,,,,,
encoding,value,1,24074157,24080176,24075360,24075708,349,349,2283.2,1147.7,2249.0,891.0,Object_Sea_Pattern_Large,17.846618000185117,23.86593733401969,1.0,Object_Sea_Pattern_Large,-3.0,,,,,,,,,,,
encoding,value,1,24074157,24080176,24075723,24077222,1500,1500,2266.9,1180.8,2249.0,891.0,Object_Sea_Pattern_Large,17.846618000185117,23.86593733401969,1.0,Object_Sea_Pattern_Large,-3.0,,,,,,,,,,,
encoding,value,1,24074157,24080176,24077234,24078369,1136,1136,2266.4,1139.5,2249.0,891.0,Object_Sea_Pattern_Large,17.846618000185117,23.86593733401969,1.0,Object_Sea_Pattern_Large,-3.0,,,,,,,,,,,
encoding,value,1,24074157,24080176,24078503,24080767,2265,1673,2276.5,1157.4,2249.0,891.0,Object_Sea_Pattern_Large,17.846618000185117,23.86593733401969,1.0,Object_Sea_Pattern_Large,-3.0,,,,,,,,,,,
encoding,attention,1,24080177,24083195,24080784,24081177,394,394,2226.7,1167.5,2249.0,891.0,Object_Sea_Pattern_Large,23.86610725009814,26.88392766704783,1.0,Object_Sea_Pattern_Large,-3.0,-3.0,1.0,1.4580616250168532,,,,,,,,
encoding,attention,1,24080177,24083195,24081350,24081959,610,610,2220.9,1154.3,2249.0,891.0,Object_Sea_Pattern_Large,23.86610725009814,26.88392766704783,1.0,Object_Sea_Pattern_Large,-3.0,-3.0,1.0,1.4580616250168532,,,,,,,,
encoding,attention,1,24080177,24083195,24081977,24082263,287,287,2311.3,1131.2,2249.0,891.0,Object_Sea_Pattern_Large,23.86610725009814,26.88392766704783,1.0,Object_Sea_Pattern_Large,-3.0,-3.0,1.0,1.4580616250168532,,,,,,,,
encoding,attention,1,24080177,24083195,24082431,24082610,180,180,2275.8,1160.2,2249.0,891.0,Object_Sea_Pattern_Large,23.86610725009814,26.88392766704783,1.0,Object_Sea_Pattern_Large,-3.0,-3.0,1.0,1.4580616250168532,,,,,,,,
encoding,attention,1,24080177,24083195,24082622,24083050,429,429,2302.2,1137.0,2249.0,891.0,Object_Sea_Pattern_Large,23.86610725009814,26.88392766704783,1.0,Object_Sea_Pattern_Large,-3.0,-3.0,1.0,1.4580616250168532,,,,,,,,
encoding,fixation,2,24083195,24084700,24083430,24083654,225,225,1953.2,1047.6,1920.0,1080.0,fixation,26.884145667077973,28.38931275019422,1.0,Animal_Land_Pattern_Small,-5.0,,,,,,,,,,,
encoding,fixation,2,24083195,24084700,24083836,24084075,240,240,1942.2,1091.6,1920.0,1080.0,fixation,26.884145667077973,28.38931275019422,1.0,Animal_Land_Pattern_Small,-5.0,,,,,,,,,,,
encoding,fixation,2,24083195,24084700,24084087,24084896,810,613,1942.5,1034.6,1920.0,1080.0,fixation,26.884145667077973,28.38931275019422,1.0,Animal_Land_Pattern_Small,-5.0,,,,,,,,,,,
encoding,image,2,24084700,24085712,24084933,24085132,200,200,2254.7,885.5999999999999,2249.0,1269.0,Animal_Land_Pattern_Small,28.389428000198677,29.40061354218051,1.0,Animal_Land_Pattern_Small,-5.0,,,,,,,,,,,
encoding,image,2,24084700,24085712,24085140,24085428,289,289,2267.6,852.0999999999999,2249.0,1269.0,Animal_Land_Pattern_Small,28.389428000198677,29.40061354218051,1.0,Animal_Land_Pattern_Small,-5.0,,,,,,,,,,,
encoding,image,2,24084700,24085712,24085588,24085899,312,124,2236.2,813.0999999999999,2249.0,1269.0,Animal_Land_Pattern_Small,28.389428000198677,29.40061354218051,1.0,Animal_Land_Pattern_Small,-5.0,,,,,,,,,,,
encoding,value,2,24085712,24091724,24085908,24086471,564,564,2229.9,773.2,2249.0,1269.0,Animal_Land_Pattern_Small,29.400734959170222,35.41257541719824,1.0,Animal_Land_Pattern_Small,-5.0,,,,,,,,,,,
encoding,value,2,24085712,24091724,24086619,24087300,682,682,2235.5,767.3,2249.0,1269.0,Animal_Land_Pattern_Small,29.400734959170222,35.41257541719824,1.0,Animal_Land_Pattern_Small,-5.0,,,,,,,,,,,
encoding,value,2,24085712,24091724,24087321,24087724,404,404,2257.2,915.4000000000001,2249.0,1269.0,Animal_Land_Pattern_Small,29.400734959170222,35.41257541719824,1.0,Animal_Land_Pattern_Small,-5.0,,,,,,,,,,,
encoding,value,2,24085712,24091724,24087908,24088039,132,132,2276.0,907.7,2249.0,1269.0,Animal_Land_Pattern_Small,29.400734959170222,35.41257541719824,1.0,Animal_Land_Pattern_Small,-5.0,,,,,,,,,,,
encoding,value,2,24085712,24091724,24088048,24088933,886,886,2257.6,873.5,2249.0,1269.0,Animal_Land_Pattern_Small,29.400734959170222,35.41257541719824,1.0,Animal_Land_Pattern_Small,-5.0,,,,,,,,,,,
encoding,value,2,24085712,24091724,24088950,24092358,3409,2774,2254.6,787.4000000000001,2249.0,1269.0,Animal_Land_Pattern_Small,29.400734959170222,35.41257541719824,1.0,Animal_Land_Pattern_Small,-5.0,,,,,,,,,,,
encoding,attention,2,24091724,24094742,24092369,24092510,142,142,2251.9,790.8,2249.0,1269.0,Animal_Land_Pattern_Small,35.412682875059545,38.43080883403309,1.0,Animal_Land_Pattern_Small,-5.0,-5.0,1.0,1.1772619169205427,,,,,,,,
encoding,attention,2,24091724,24094742,24092518,24093165,648,648,2214.0,777.3,2249.0,1269.0,Animal_Land_Pattern_Small,35.412682875059545,38.43080883403309,1.0,Animal_Land_Pattern_Small,-5.0,-5.0,1.0,1.1772619169205427,,,,,,,,
encoding,attention,2,24091724,24094742,24093305,24093612,308,308,2293.0,804.3,2249.0,1269.0,Animal_Land_Pattern_Small,35.412682875059545,38.43080883403309,1.0,Animal_Land_Pattern_Small,-5.0,-5.0,1.0,1.1772619169205427,,,,,,,,
encoding,attention,2,24091724,24094742,24093625,24094150,526,526,2285.6,855.5999999999999,2249.0,1269.0,Animal_Land_Pattern_Small,35.412682875059545,38.43080883403309,1.0,Animal_Land_Pattern_Small,-5.0,-5.0,1.0,1.1772619169205427,,,,,,,,
encoding,attention,2,24091724,24094742,24094158,24094595,438,438,2260.0,876.3,2249.0,1269.0,Animal_Land_Pattern_Small,35.412682875059545,38.43080883403309,1.0,Animal_Land_Pattern_Small,-5.0,-5.0,1.0,1.1772619169205427,,,,,,,,
encoding,fixation,3,24094742,24096247,24095003,24095222,220,220,1985.2,1050.3,2249.0,1269.0,Animal_Land_Pattern_Small,38.43097412516363,39.93606445915066,1.0,Object_Land_Solid_Large,-9.0,,,,,,,,,,,
encoding,fixation,3,24094742,24096247,24095386,24095686,301,301,2023.6,1070.1,2249.0,1269.0,Animal_Land_Pattern_Small,38.43097412516363,39.93606445915066,1.0,Object_Land_Solid_Large,-9.0,,,,,,,,,,,
encoding,fixation,3,24094742,24096247,24095697,24096071,375,375,1985.6,1048.8,2249.0,1269.0,Animal_Land_Pattern_Small,38.43097412516363,39.93606445915066,1.0,Object_Land_Solid_Large,-9.0,,,,,,,,,,,
encoding,fixation,3,24094742,24096247,24096078,24096437,360,169,2017.7,1089.2,2249.0,891.0,Object_Sea_Pattern_Large,38.43097412516363,39.93606445915066,1.0,Object_Land_Solid_Large,-9.0,,,,,,,,,,,
encoding,image,3,24096247,24097257,24096478,24096633,156,156,1953.1,1383.2,1920.0,700.0,Object_Land_Solid_Large,39.936169375199825,40.945618625031784,1.0,Object_Land_Solid_Large,-9.0,,,,,,,,,,,
encoding,image,3,24096247,24097257,24096646,24096955,310,310,1928.3,1433.2,1920.0,700.0,Object_Land_Solid_Large,39.936169375199825,40.945618625031784,1.0,Object_Land_Solid_Large,-9.0,,,,,,,,,,,
encoding,image,3,24096247,24097257,24097130,24097316,187,127,1959.7,1245.3,1920.0,700.0,Object_Land_Solid_Large,39.936169375199825,40.945618625031784,1.0,Object_Land_Solid_Large,-9.0,,,,,,,,,,,
encoding,value,3,24097257,24103268,24097332,24097511,180,180,1941.7,1319.7,1920.0,700.0,Object_Land_Solid_Large,40.9457431670744,46.956040624994785,1.0,Object_Land_Solid_Large,-9.0,,,,,,,,,,,
encoding,value,3,24097257,24103268,24097519,24097922,404,404,1933.8,1345.6,1920.0,700.0,Object_Land_Solid_Large,40.9457431670744,46.956040624994785,1.0,Object_Land_Solid_Large,-9.0,,,,,,,,,,,
encoding,value,3,24097257,24103268,24098076,24098239,164,164,1893.1,1413.5,1920.0,700.0,Object_Land_Solid_Large,40.9457431670744,46.956040624994785,1.0,Object_Land_Solid_Large,-9.0,,,,,,,,,,,
encoding,value,3,24097257,24103268,24098248,24098971,724,724,1931.2,1459.7,1920.0,700.0,Object_Land_Solid_Large,40.9457431670744,46.956040624994785,1.0,Object_Land_Solid_Large,-9.0,,,,,,,,,,,
encoding,value,3,24097257,24103268,24099151,24099406,256,256,1937.0,1448.2,1920.0,700.0,Object_Land_Solid_Large,40.9457431670744,46.956040624994785,1.0,Object_Land_Solid_Large,-9.0,,,,,,,,,,,
encoding,value,3,24097257,24103268,24099428,24099659,232,232,2124.6,1380.5,2249.0,891.0,Object_Sea_Pattern_Large,40.9457431670744,46.956040624994785,1.0,Object_Land_Solid_Large,-9.0,,,,,,,,,,,
encoding,value,3,24097257,24103268,24099684,24099888,205,205,2373.6,1349.8,2249.0,891.0,Object_Sea_Pattern_Large,40.9457431670744,46.956040624994785,1.0,Object_Land_Solid_Large,-9.0,,,,,,,,,,,
encoding,value,3,24097257,24103268,24099926,24100550,625,625,1948.4,1386.3,1920.0,700.0,Object_Land_Solid_Large,40.9457431670744,46.956040624994785,1.0,Object_Land_Solid_Large,-9.0,,,,,,,,,,,
encoding,value,3,24097257,24103268,24100560,24100796,237,237,1963.7,1367.1,1920.0,700.0,Object_Land_Solid_Large,40.9457431670744,46.956040624994785,1.0,Object_Land_Solid_Large,-9.0,,,,,,,,,,,
encoding,value,3,24097257,24103268,24100990,24101759,770,770,1933.8,1442.4,1920.0,700.0,Object_Land_Solid_Large,40.9457431670744,46.956040624994785,1.0,Object_Land_Solid_Large,-9.0,,,,,,,,,,,
encoding,value,3,24097257,24103268,24101782,24102072,291,291,1936.2,1320.5,1920.0,700.0,Object_Land_Solid_Large,40.9457431670744,46.956040624994785,1.0,Object_Land_Solid_Large,-9.0,,,,,,,,,,,
encoding,value,3,24097257,24103268,24102280,24103153,874,874,1939.7,1323.1,1920.0,700.0,Object_Land_Solid_Large,40.9457431670744,46.956040624994785,1.0,Object_Land_Solid_Large,-9.0,,,,,,,,,,,
encoding,value,3,24097257,24103268,24103162,24103525,364,106,1916.9,1311.6,1920.0,700.0,Object_Land_Solid_Large,40.9457431670744,46.956040624994785,1.0,Object_Land_Solid_Large,-9.0,,,,,,,,,,,
encoding,attention,3,24103268,24106287,24103536,24103979,444,444,1879.1,1349.3,1920.0,700.0,Object_Land_Solid_Large,46.956211500102654,49.975283125182614,1.0,Object_Land_Solid_Large,-9.0,-9.0,1.0,1.3792659998871386,,,,,,,,
encoding,attention,3,24103268,24106287,24103997,24104347,351,351,1978.3,1353.6,1920.0,700.0,Object_Land_Solid_Large,46.956211500102654,49.975283125182614,1.0,Object_Land_Solid_Large,-9.0,-9.0,1.0,1.3792659998871386,,,,,,,,
encoding,attention,3,24103268,24106287,24104357,24104570,214,214,1926.0,1352.4,1920.0,700.0,Object_Land_Solid_Large,46.956211500102654,49.975283125182614,1.0,Object_Land_Solid_Large,-9.0,-9.0,1.0,1.3792659998871386,,,,,,,,
encoding,attention,3,24103268,24106287,24104578,24104930,353,353,1969.0,1352.6,1920.0,700.0,Object_Land_Solid_Large,46.956211500102654,49.975283125182614,1.0,Object_Land_Solid_Large,-9.0,-9.0,1.0,1.3792659998871386,,,,,,,,
encoding,attention,3,24103268,24106287,24105090,24106025,936,936,1936.0,1408.4,1920.0,700.0,Object_Land_Solid_Large,46.956211500102654,49.975283125182614,1.0,Object_Land_Solid_Large,-9.0,-9.0,1.0,1.3792659998871386,,,,,,,,
encoding,fixation,4,24106287,24107045,24106507,24106642,136,136,1934.4,1045.2,1920.0,1080.0,fixation,49.9754468339961,50.73333533410914,1.0,Object_Land_Pattern_Small,9.0,,,,,,,,,,,
encoding,fixation,4,24106287,24107045,24106816,24107101,286,229,1921.9,1080.5,1920.0,1080.0,fixation,49.9754468339961,50.73333533410914,1.0,Object_Land_Pattern_Small,9.0,,,,,,,,,,,
encoding,image,4,24107045,24108057,24107118,24107222,105,105,1875.7,1164.8,1920.0,700.0,Object_Land_Solid_Large,50.7334508751519,51.7449067090638,1.0,Object_Land_Pattern_Small,9.0,,,,,,,,,,,
encoding,image,4,24107045,24108057,24107248,24108006,759,759,1621.4,1234.4,1591.0,891.0,Object_Land_Pattern_Small,50.7334508751519,51.7449067090638,1.0,Object_Land_Pattern_Small,9.0,,,,,,,,,,,
encoding,value,4,24108057,24114069,24108214,24108352,139,139,1626.9,1231.7,1591.0,891.0,Object_Land_Pattern_Small,51.74502554209903,57.75649670907296,1.0,Object_Land_Pattern_Small,9.0,,,,,,,,,,,
encoding,value,4,24108057,24114069,24108367,24108972,606,606,1638.9,1147.1,1591.0,891.0,Object_Land_Pattern_Small,51.74502554209903,57.75649670907296,1.0,Object_Land_Pattern_Small,9.0,,,,,,,,,,,
encoding,value,4,24108057,24114069,24109155,24109541,387,387,1640.3,1180.4,1591.0,891.0,Object_Land_Pattern_Small,51.74502554209903,57.75649670907296,1.0,Object_Land_Pattern_Small,9.0,,,,,,,,,,,
encoding,value,4,24108057,24114069,24109555,24109897,343,343,1612.3,1244.5,1591.0,891.0,Object_Land_Pattern_Small,51.74502554209903,57.75649670907296,1.0,Object_Land_Pattern_Small,9.0,,,,,,,,,,,
encoding,value,4,24108057,24114069,24109921,24110048,128,128,1695.3,1111.2,1591.0,891.0,Object_Land_Pattern_Small,51.74502554209903,57.75649670907296,1.0,Object_Land_Pattern_Small,9.0,,,,,,,,,,,
encoding,value,4,24108057,24114069,24110059,24110263,205,205,1639.1,1131.1,1591.0,891.0,Object_Land_Pattern_Small,51.74502554209903,57.75649670907296,1.0,Object_Land_Pattern_Small,9.0,,,,,,,,,,,
encoding,value,4,24108057,24114069,24110284,24110860,577,577,1650.0,1251.4,1591.0,891.0,Object_Land_Pattern_Small,51.74502554209903,57.75649670907296,1.0,Object_Land_Pattern_Small,9.0,,,,,,,,,,,
encoding,value,4,24108057,24114069,24110881,24112028,1148,1148,1666.1,1150.6,1591.0,891.0,Object_Land_Pattern_Small,51.74502554209903,57.75649670907296,1.0,Object_Land_Pattern_Small,9.0,,,,,,,,,,,
encoding,value,4,24108057,24114069,24112189,24112334,146,146,1677.5,1160.5,1591.0,891.0,Object_Land_Pattern_Small,51.74502554209903,57.75649670907296,1.0,Object_Land_Pattern_Small,9.0,,,,,,,,,,,
encoding,value,4,24108057,24114069,24112344,24113645,1302,1302,1639.4,1168.1,1591.0,891.0,Object_Land_Pattern_Small,51.74502554209903,57.75649670907296,1.0,Object_Land_Pattern_Small,9.0,,,,,,,,,,,
encoding,value,4,24108057,24114069,24113817,24114106,290,252,1630.7,1169.1,1591.0,891.0,Object_Land_Pattern_Small,51.74502554209903,57.75649670907296,1.0,Object_Land_Pattern_Small,9.0,,,,,,,,,,,
encoding,attention,4,24114069,24117087,24114115,24114351,237,237,1677.7,1153.7,1591.0,891.0,Object_Land_Pattern_Small,57.75661762501113,60.77428425010294,1.0,Object_Land_Pattern_Small,9.0,9.0,1.0,0.9287749580107628,,,,,,,,
encoding,attention,4,24114069,24117087,24114365,24115231,867,867,1589.5,1150.1,1591.0,891.0,Object_Land_Pattern_Small,57.75661762501113,60.77428425010294,1.0,Object_Land_Pattern_Small,9.0,9.0,1.0,0.9287749580107628,,,,,,,,
encoding,attention,4,24114069,24117087,24115249,24115595,347,347,1652.2,1229.2,1591.0,891.0,Object_Land_Pattern_Small,57.75661762501113,60.77428425010294,1.0,Object_Land_Pattern_Small,9.0,9.0,1.0,0.9287749580107628,,,,,,,,
encoding,attention,4,24114069,24117087,24115777,24115942,166,166,1675.5,1179.0,1591.0,891.0,Object_Land_Pattern_Small,57.75661762501113,60.77428425010294,1.0,Object_Land_Pattern_Small,9.0,9.0,1.0,0.9287749580107628,,,,,,,,
encoding,attention,4,24114069,24117087,24115968,24116225,258,258,1902.3,1082.7,1920.0,1080.0,fixation,57.75661762501113,60.77428425010294,1.0,Object_Land_Pattern_Small,9.0,9.0,1.0,0.9287749580107628,,,,,,,,
encoding,attention,4,24114069,24117087,24116250,24116585,336,336,1615.9,1171.2,1591.0,891.0,Object_Land_Pattern_Small,57.75661762501113,60.77428425010294,1.0,Object_Land_Pattern_Small,9.0,9.0,1.0,0.9287749580107628,,,,,,,,
encoding,fixation,5,24117087,24118342,24117283,24117608,326,326,1935.2,1074.4,1920.0,1080.0,fixation,60.77447570906952,62.029683750122786,1.0,Animal_Sea_Solid_Small,1.0,,,,,,,,,,,
encoding,fixation,5,24117087,24118342,24117778,24118549,772,564,1935.0,1044.9,1920.0,1080.0,fixation,60.77447570906952,62.029683750122786,1.0,Animal_Sea_Solid_Small,1.0,,,,,,,,,,,
encoding,image,5,24118342,24119353,24118589,24119464,876,764,1901.5,665.2,1920.0,1460.0,Animal_Sea_Solid_Small,62.029794625006616,63.041016375180334,1.0,Animal_Sea_Solid_Small,1.0,,,,,,,,,,,
encoding,value,5,24119354,24125365,24119599,24120215,617,617,1882.6,585.5,1920.0,1460.0,Animal_Sea_Solid_Small,63.04116383404471,69.05259250011295,1.0,Animal_Sea_Solid_Small,1.0,,,,,,,,,,,
encoding,value,5,24119354,24125365,24120228,24120922,695,695,1905.7,671.5999999999999,1920.0,1460.0,Animal_Sea_Solid_Small,63.04116383404471,69.05259250011295,1.0,Animal_Sea_Solid_Small,1.0,,,,,,,,,,,
encoding,value,5,24119354,24125365,24121064,24121375,312,312,1916.3,684.0999999999999,1920.0,1460.0,Animal_Sea_Solid_Small,63.04116383404471,69.05259250011295,1.0,Animal_Sea_Solid_Small,1.0,,,,,,,,,,,
encoding,value,5,24119354,24125365,24121384,24122582,1199,1199,1904.5,686.2,1920.0,1460.0,Animal_Sea_Solid_Small,63.04116383404471,69.05259250011295,1.0,Animal_Sea_Solid_Small,1.0,,,,,,,,,,,
encoding,value,5,24119354,24125365,24122596,24123044,449,449,1896.9,614.0999999999999,1920.0,1460.0,Animal_Sea_Solid_Small,63.04116383404471,69.05259250011295,1.0,Animal_Sea_Solid_Small,1.0,,,,,,,,,,,
encoding,value,5,24119354,24125365,24123187,24126006,2820,2178,1904.2,627.4000000000001,1920.0,1460.0,Animal_Sea_Solid_Small,63.04116383404471,69.05259250011295,1.0,Animal_Sea_Solid_Small,1.0,,,,,,,,,,,
encoding,attention,5,24125365,24128448,24126019,24126837,819,819,1859.1,611.4000000000001,1920.0,1460.0,Animal_Sea_Solid_Small,69.05272475001402,72.13536029215902,1.0,Animal_Sea_Solid_Small,1.0,1.0,1.0,1.1543007500004023,,,,,,,,
encoding,attention,5,24125365,24128448,24126994,24127133,140,140,1908.0,872.3,1920.0,1460.0,Animal_Sea_Solid_Small,69.05272475001402,72.13536029215902,1.0,Animal_Sea_Solid_Small,1.0,1.0,1.0,1.1543007500004023,,,,,,,,
encoding,attention,5,24125365,24128448,24127162,24127512,351,351,1959.1,1050.7,1920.0,1080.0,fixation,69.05272475001402,72.13536029215902,1.0,Animal_Sea_Solid_Small,1.0,1.0,1.0,1.1543007500004023,,,,,,,,
encoding,attention,5,24125365,24128448,24127554,24127844,291,291,1925.7,660.5999999999999,1920.0,1460.0,Animal_Sea_Solid_Small,69.05272475001402,72.13536029215902,1.0,Animal_Sea_Solid_Small,1.0,1.0,1.0,1.1543007500004023,,,,,,,,
encoding,attention,5,24125365,24128448,24127851,24128227,377,377,1905.1,685.3,1920.0,1460.0,Animal_Sea_Solid_Small,69.05272475001402,72.13536029215902,1.0,Animal_Sea_Solid_Small,1.0,1.0,1.0,1.1543007500004023,,,,,,,,
encoding,fixation,6,24128448,24129204,24128732,24129041,310,310,1930.8,991.0,1920.0,1460.0,Animal_Sea_Solid_Small,72.13552150013857,72.89132225001231,1.0,Animal_Sea_Solid_Large,3.0,,,,,,,,,,,
encoding,fixation,6,24128448,24129204,24129049,24129414,366,155,1932.6,1014.4000000000001,1920.0,1080.0,fixation,72.13552150013857,72.89132225001231,1.0,Animal_Sea_Solid_Large,3.0,,,,,,,,,,,
encoding,image,6,24129204,24130215,24129453,24130315,863,762,1604.6,887.5999999999999,1591.0,1269.0,Animal_Sea_Solid_Large,72.8914285840001,73.90254291705787,1.0,Animal_Sea_Solid_Large,3.0,,,,,,,,,,,
encoding,value,6,24130215,24136229,24130449,24130669,221,221,1607.9,735.0999999999999,1591.0,1269.0,Animal_Sea_Solid_Large,73.90266691707075,79.9159488750156,1.0,Animal_Sea_Solid_Large,3.0,,,,,,,,,,,
encoding,value,6,24130215,24136229,24130676,24130918,243,243,1602.9,765.5999999999999,1591.0,1269.0,Animal_Sea_Solid_Large,73.90266691707075,79.9159488750156,1.0,Animal_Sea_Solid_Large,3.0,,,,,,,,,,,
encoding,value,6,24130215,24136229,24130939,24131441,503,503,1620.9,879.2,1591.0,1269.0,Animal_Sea_Solid_Large,73.90266691707075,79.9159488750156,1.0,Animal_Sea_Solid_Large,3.0,,,,,,,,,,,
encoding,value,6,24130215,24136229,24131587,24131810,224,224,1614.0,990.7,1591.0,1269.0,Animal_Sea_Solid_Large,73.90266691707075,79.9159488750156,1.0,Animal_Sea_Solid_Large,3.0,,,,,,,,,,,
encoding,value,6,24130215,24136229,24131836,24132047,212,212,1799.2,837.5999999999999,1920.0,1460.0,Animal_Sea_Solid_Small,73.90266691707075,79.9159488750156,1.0,Animal_Sea_Solid_Large,3.0,,,,,,,,,,,
encoding,value,6,24130215,24136229,24132070,24132376,307,307,1602.9,787.2,1591.0,1269.0,Animal_Sea_Solid_Large,73.90266691707075,79.9159488750156,1.0,Animal_Sea_Solid_Large,3.0,,,,,,,,,,,
encoding,value,6,24130215,24136229,24132537,24133186,650,650,1616.0,753.7,1591.0,1269.0,Animal_Sea_Solid_Large,73.90266691707075,79.9159488750156,1.0,Animal_Sea_Solid_Large,3.0,,,,,,,,,,,
encoding,value,6,24130215,24136229,24133197,24134157,961,961,1631.1,782.5,1591.0,1269.0,Animal_Sea_Solid_Large,73.90266691707075,79.9159488750156,1.0,Animal_Sea_Solid_Large,3.0,,,,,,,,,,,
encoding,value,6,24130215,24136229,24134167,24134370,204,204,1640.4,847.5,1591.0,1269.0,Animal_Sea_Solid_Large,73.90266691707075,79.9159488750156,1.0,Animal_Sea_Solid_Large,3.0,,,,,,,,,,,
encoding,value,6,24130215,24136229,24134384,24135518,1135,1135,1632.9,778.0,1591.0,1269.0,Animal_Sea_Solid_Large,73.90266691707075,79.9159488750156,1.0,Animal_Sea_Solid_Large,3.0,,,,,,,,,,,
encoding,value,6,24130215,24136229,24135668,24136417,750,561,1638.7,780.0,1591.0,1269.0,Animal_Sea_Solid_Large,73.90266691707075,79.9159488750156,1.0,Animal_Sea_Solid_Large,3.0,,,,,,,,,,,
encoding,attention,6,24136229,24139247,24136426,24136786,361,361,1595.8,779.0999999999999,1591.0,1269.0,Animal_Sea_Solid_Large,79.91606033407152,82.93378741713241,1.0,Animal_Sea_Solid_Large,3.0,3.0,1.0,1.0823347091209143,,,,,,,,
encoding,attention,6,24136229,24139247,24136801,24137179,379,379,1678.0,775.0,1591.0,1269.0,Animal_Sea_Solid_Large,79.91606033407152,82.93378741713241,1.0,Animal_Sea_Solid_Large,3.0,3.0,1.0,1.0823347091209143,,,,,,,,
encoding,attention,6,24136229,24139247,24137191,24137686,496,496,1624.1,787.3,1591.0,1269.0,Animal_Sea_Solid_Large,79.91606033407152,82.93378741713241,1.0,Animal_Sea_Solid_Large,3.0,3.0,1.0,1.0823347091209143,,,,,,,,
encoding,attention,6,24136229,24139247,24137699,24137885,187,187,1696.1,770.7,1591.0,1269.0,Animal_Sea_Solid_Large,79.91606033407152,82.93378741713241,1.0,Animal_Sea_Solid_Large,3.0,3.0,1.0,1.0823347091209143,,,,,,,,
encoding,attention,6,24136229,24139247,24138056,24138277,222,222,1689.4,802.7,1591.0,1269.0,Animal_Sea_Solid_Large,79.91606033407152,82.93378741713241,1.0,Animal_Sea_Solid_Large,3.0,3.0,1.0,1.0823347091209143,,,,,,,,
encoding,attention,6,24136229,24139247,24138294,24139036,743,743,1640.3,891.8,1591.0,1269.0,Animal_Sea_Solid_Large,79.91606033407152,82.93378741713241,1.0,Animal_Sea_Solid_Large,3.0,3.0,1.0,1.0823347091209143,,,,,,,,
encoding,attention,6,24136229,24139247,24139058,24139189,132,132,1638.8,753.2,1591.0,1269.0,Animal_Sea_Solid_Large,79.91606033407152,82.93378741713241,1.0,Animal_Sea_Solid_Large,3.0,3.0,1.0,1.0823347091209143,,,,,,,,
encoding,fixation,7,24561080,24562585,24561324,24561565,242,242,1950.2,1057.9,1920.0,1080.0,fixation,15.522966624936087,17.02864725003019,2.0,Object_Land_Solid_Large,-5.0,,,,,,,,,,,
encoding,fixation,7,24561080,24562585,24561729,24562170,442,442,1961.5,1207.3,1920.0,700.0,Object_Land_Solid_Large,15.522966624936087,17.02864725003019,2.0,Object_Land_Solid_Large,-5.0,,,,,,,,,,,
encoding,fixation,7,24561080,24562585,24562192,24562775,584,393,1962.0,1072.4,1920.0,1080.0,fixation,15.522966624936087,17.02864725003019,2.0,Object_Land_Solid_Large,-5.0,,,,,,,,,,,
encoding,image,7,24562585,24563599,24562815,24563381,567,567,1929.6,1424.8,1920.0,700.0,Object_Land_Solid_Large,17.028773667057976,18.041792209027335,2.0,Object_Land_Solid_Large,-5.0,,,,,,,,,,,
encoding,image,7,24562585,24563599,24563410,24563612,203,189,1953.2,1251.5,1920.0,700.0,Object_Land_Solid_Large,17.028773667057976,18.041792209027335,2.0,Object_Land_Solid_Large,-5.0,,,,,,,,,,,
encoding,value,7,24563599,24569612,24563630,24563975,346,346,1942.2,1351.4,1920.0,700.0,Object_Land_Solid_Large,18.04191533406265,24.05439970898442,2.0,Object_Land_Solid_Large,-5.0,,,,,,,,,,,
encoding,value,7,24563599,24569612,24564125,24564461,337,337,1946.7,1302.4,1920.0,700.0,Object_Land_Solid_Large,18.04191533406265,24.05439970898442,2.0,Object_Land_Solid_Large,-5.0,,,,,,,,,,,
encoding,value,7,24563599,24569612,24564471,24565522,1052,1052,1953.3,1335.3,1920.0,700.0,Object_Land_Solid_Large,18.04191533406265,24.05439970898442,2.0,Object_Land_Solid_Large,-5.0,,,,,,,,,,,
encoding,value,7,24563599,24569612,24565536,24565992,457,457,1943.6,1425.4,1920.0,700.0,Object_Land_Solid_Large,18.04191533406265,24.05439970898442,2.0,Object_Land_Solid_Large,-5.0,,,,,,,,,,,
encoding,value,7,24563599,24569612,24566014,24566479,466,466,1942.8,1331.6,1920.0,700.0,Object_Land_Solid_Large,18.04191533406265,24.05439970898442,2.0,Object_Land_Solid_Large,-5.0,,,,,,,,,,,
encoding,value,7,24563599,24569612,24566617,24569186,2570,2570,1942.7,1346.5,1920.0,700.0,Object_Land_Solid_Large,18.04191533406265,24.05439970898442,2.0,Object_Land_Solid_Large,-5.0,,,,,,,,,,,
encoding,value,7,24563599,24569612,24569194,24569947,754,418,1962.1,1368.3,1920.0,700.0,Object_Land_Solid_Large,18.04191533406265,24.05439970898442,2.0,Object_Land_Solid_Large,-5.0,,,,,,,,,,,
encoding,attention,7,24569612,24572632,24569956,24570116,161,161,1994.0,1360.3,1920.0,700.0,Object_Land_Solid_Large,24.054520834004503,27.07437412510626,2.0,Object_Land_Solid_Large,-5.0,-5.0,1.0,1.3339954998809844,,,,,,,,
encoding,attention,7,24569612,24572632,24570130,24570344,215,215,1902.0,1366.3,1920.0,700.0,Object_Land_Solid_Large,24.054520834004503,27.07437412510626,2.0,Object_Land_Solid_Large,-5.0,-5.0,1.0,1.3339954998809844,,,,,,,,
encoding,attention,7,24569612,24572632,24570506,24570817,312,312,1903.3,1375.4,1920.0,700.0,Object_Land_Solid_Large,24.054520834004503,27.07437412510626,2.0,Object_Land_Solid_Large,-5.0,-5.0,1.0,1.3339954998809844,,,,,,,,
encoding,attention,7,24569612,24572632,24570828,24571141,314,314,1966.1,1364.7,1920.0,700.0,Object_Land_Solid_Large,24.054520834004503,27.07437412510626,2.0,Object_Land_Solid_Large,-5.0,-5.0,1.0,1.3339954998809844,,,,,,,,
encoding,attention,7,24569612,24572632,24571153,24571385,233,233,1899.7,1369.0,1920.0,700.0,Object_Land_Solid_Large,24.054520834004503,27.07437412510626,2.0,Object_Land_Solid_Large,-5.0,-5.0,1.0,1.3339954998809844,,,,,,,,
encoding,attention,7,24569612,24572632,24571400,24571692,293,293,1980.5,1383.3,1920.0,700.0,Object_Land_Solid_Large,24.054520834004503,27.07437412510626,2.0,Object_Land_Solid_Large,-5.0,-5.0,1.0,1.3339954998809844,,,,,,,,
encoding,attention,7,24569612,24572632,24571852,24572059,208,208,1945.7,1424.4,1920.0,700.0,Object_Land_Solid_Large,24.054520834004503,27.07437412510626,2.0,Object_Land_Solid_Large,-5.0,-5.0,1.0,1.3339954998809844,,,,,,,,
encoding,fixation,8,24572632,24573637,24572958,24573246,289,289,1939.9,1174.4,1920.0,700.0,Object_Land_Solid_Large,27.074558041989803,28.0796266249381,2.0,Object_Sea_Pattern_Small,8.0,,,,,,,,,,,
encoding,fixation,8,24572632,24573637,24573423,24573691,269,214,1981.9,1276.9,1920.0,700.0,Object_Land_Solid_Large,27.074558041989803,28.0796266249381,2.0,Object_Sea_Pattern_Small,8.0,,,,,,,,,,,
encoding,image,8,24573637,24574649,24573723,24573833,111,111,1991.9,1075.5,2249.0,1269.0,Object_Sea_Pattern_Small,28.079744667047635,29.09140225010924,2.0,Object_Sea_Pattern_Small,8.0,,,,,,,,,,,
encoding,image,8,24573637,24574649,24573861,24574003,143,143,2245.9,926.4000000000001,2249.0,1269.0,Object_Sea_Pattern_Small,28.079744667047635,29.09140225010924,2.0,Object_Sea_Pattern_Small,8.0,,,,,,,,,,,
encoding,image,8,24573637,24574649,24574015,24574440,426,426,2238.6,870.0,2249.0,1269.0,Object_Sea_Pattern_Small,28.079744667047635,29.09140225010924,2.0,Object_Sea_Pattern_Small,8.0,,,,,,,,,,,
encoding,image,8,24573637,24574649,24574456,24574680,225,193,2119.4,907.5999999999999,2249.0,1269.0,Object_Sea_Pattern_Small,28.079744667047635,29.09140225010924,2.0,Object_Sea_Pattern_Small,8.0,,,,,,,,,,,
encoding,value,8,24574649,24580661,24574699,24574923,225,225,2240.6,870.3,2249.0,1269.0,Object_Sea_Pattern_Small,29.09157666703686,35.103331584017724,2.0,Object_Sea_Pattern_Small,8.0,,,,,,,,,,,
encoding,value,8,24574649,24580661,24574942,24575249,308,308,2230.8,763.2,2249.0,1269.0,Object_Sea_Pattern_Small,29.09157666703686,35.103331584017724,2.0,Object_Sea_Pattern_Small,8.0,,,,,,,,,,,
encoding,value,8,24574649,24580661,24575400,24575633,234,234,2238.6,830.3,2249.0,1269.0,Object_Sea_Pattern_Small,29.09157666703686,35.103331584017724,2.0,Object_Sea_Pattern_Small,8.0,,,,,,,,,,,
encoding,value,8,24574649,24580661,24575646,24576000,355,355,2239.2,766.7,2249.0,1269.0,Object_Sea_Pattern_Small,29.09157666703686,35.103331584017724,2.0,Object_Sea_Pattern_Small,8.0,,,,,,,,,,,
encoding,value,8,24574649,24580661,24576119,24577283,1165,1165,2233.2,781.5,2249.0,1269.0,Object_Sea_Pattern_Small,29.09157666703686,35.103331584017724,2.0,Object_Sea_Pattern_Small,8.0,,,,,,,,,,,
encoding,value,8,24574649,24580661,24577300,24578342,1043,1043,2244.9,836.0,2249.0,1269.0,Object_Sea_Pattern_Small,29.09157666703686,35.103331584017724,2.0,Object_Sea_Pattern_Small,8.0,,,,,,,,,,,
encoding,value,8,24574649,24580661,24578355,24578754,400,400,2266.7,775.9000000000001,2249.0,1269.0,Object_Sea_Pattern_Small,29.09157666703686,35.103331584017724,2.0,Object_Sea_Pattern_Small,8.0,,,,,,,,,,,
encoding,value,8,24574649,24580661,24578762,24579188,427,427,2263.6,822.3,2249.0,1269.0,Object_Sea_Pattern_Small,29.09157666703686,35.103331584017724,2.0,Object_Sea_Pattern_Small,8.0,,,,,,,,,,,
encoding,value,8,24574649,24580661,24579200,24580937,1738,1461,2251.1,760.4000000000001,2249.0,1269.0,Object_Sea_Pattern_Small,29.09157666703686,35.103331584017724,2.0,Object_Sea_Pattern_Small,8.0,,,,,,,,,,,
encoding,attention,8,24580661,24583680,24580944,24581374,431,431,2292.7,758.0999999999999,2249.0,1269.0,Object_Sea_Pattern_Small,35.103511959081516,38.12221383396536,2.0,Object_Sea_Pattern_Small,8.0,8.0,1.0,0.9309501249808818,,,,,,,,
encoding,attention,8,24580661,24583680,24581529,24581866,338,338,2290.4,779.3,2249.0,1269.0,Object_Sea_Pattern_Small,35.103511959081516,38.12221383396536,2.0,Object_Sea_Pattern_Small,8.0,8.0,1.0,0.9309501249808818,,,,,,,,
encoding,attention,8,24580661,24583680,24581879,24582613,735,735,2267.0,840.8,2249.0,1269.0,Object_Sea_Pattern_Small,35.103511959081516,38.12221383396536,2.0,Object_Sea_Pattern_Small,8.0,8.0,1.0,0.9309501249808818,,,,,,,,
encoding,attention,8,24580661,24583680,24582630,24582908,279,279,2316.8,771.2,2249.0,1269.0,Object_Sea_Pattern_Small,35.103511959081516,38.12221383396536,2.0,Object_Sea_Pattern_Small,8.0,8.0,1.0,0.9309501249808818,,,,,,,,
encoding,attention,8,24580661,24583680,24583032,24583060,29,29,2133.6,924.4000000000001,2249.0,1269.0,Object_Sea_Pattern_Small,35.103511959081516,38.12221383396536,2.0,Object_Sea_Pattern_Small,8.0,8.0,1.0,0.9309501249808818,,,,,,,,
encoding,attention,8,24580661,24583680,24583079,24583285,207,207,2285.1,918.0,2249.0,1269.0,Object_Sea_Pattern_Small,35.103511959081516,38.12221383396536,2.0,Object_Sea_Pattern_Small,8.0,8.0,1.0,0.9309501249808818,,,,,,,,
encoding,fixation,9,24583680,24584936,24583892,24584358,467,467,1981.9,1075.9,1920.0,1080.0,fixation,38.122385249938816,39.37776970909909,2.0,Animal_Sea_Solid_Large,9.0,,,,,,,,,,,
encoding,fixation,9,24583680,24584936,24584535,24584740,206,206,2021.4,1093.6,2249.0,891.0,Animal_Sea_Pattern_Small,38.122385249938816,39.37776970909909,2.0,Animal_Sea_Solid_Large,9.0,,,,,,,,,,,
encoding,fixation,9,24583680,24584936,24584773,24585091,319,163,2218.4,876.2,2249.0,1269.0,Object_Sea_Pattern_Small,38.122385249938816,39.37776970909909,2.0,Animal_Sea_Solid_Large,9.0,,,,,,,,,,,
encoding,image,9,24584936,24585947,24585137,24585273,137,137,1690.2,907.8,1591.0,1269.0,Animal_Sea_Solid_Large,39.37789712497033,40.38914320897311,2.0,Animal_Sea_Solid_Large,9.0,,,,,,,,,,,
encoding,image,9,24584936,24585947,24585286,24585714,429,429,1627.6,872.0999999999999,1591.0,1269.0,Animal_Sea_Solid_Large,39.37789712497033,40.38914320897311,2.0,Animal_Sea_Solid_Large,9.0,,,,,,,,,,,
encoding,image,9,24584936,24585947,24585898,24586126,229,49,1619.0,830.3,1591.0,1269.0,Animal_Sea_Solid_Large,39.37789712497033,40.38914320897311,2.0,Animal_Sea_Solid_Large,9.0,,,,,,,,,,,
encoding,value,9,24585947,24591959,24586140,24586615,476,476,1625.5,773.0999999999999,1591.0,1269.0,Animal_Sea_Solid_Large,40.38927024998702,46.40132625005208,2.0,Animal_Sea_Solid_Large,9.0,,,,,,,,,,,
encoding,value,9,24585947,24591959,24586637,24587555,919,919,1637.9,901.7,1591.0,1269.0,Animal_Sea_Solid_Large,40.38927024998702,46.40132625005208,2.0,Animal_Sea_Solid_Large,9.0,,,,,,,,,,,
encoding,value,9,24585947,24591959,24587724,24588144,421,421,1616.4,747.9000000000001,1591.0,1269.0,Animal_Sea_Solid_Large,40.38927024998702,46.40132625005208,2.0,Animal_Sea_Solid_Large,9.0,,,,,,,,,,,
encoding,value,9,24585947,24591959,24588164,24589313,1150,1150,1635.5,892.7,1591.0,1269.0,Animal_Sea_Solid_Large,40.38927024998702,46.40132625005208,2.0,Animal_Sea_Solid_Large,9.0,,,,,,,,,,,
encoding,value,9,24585947,24591959,24589343,24589991,649,649,1632.8,766.8,1591.0,1269.0,Animal_Sea_Solid_Large,40.38927024998702,46.40132625005208,2.0,Animal_Sea_Solid_Large,9.0,,,,,,,,,,,
encoding,value,9,24585947,24591959,24590153,24591565,1413,1413,1634.1,759.9000000000001,1591.0,1269.0,Animal_Sea_Solid_Large,40.38927024998702,46.40132625005208,2.0,Animal_Sea_Solid_Large,9.0,,,,,,,,,,,
encoding,value,9,24585947,24591959,24591574,24591808,235,235,1635.8,807.5999999999999,1591.0,1269.0,Animal_Sea_Solid_Large,40.38927024998702,46.40132625005208,2.0,Animal_Sea_Solid_Large,9.0,,,,,,,,,,,
encoding,value,9,24585947,24591959,24591818,24592340,523,141,1644.6,770.2,1591.0,1269.0,Animal_Sea_Solid_Large,40.38927024998702,46.40132625005208,2.0,Animal_Sea_Solid_Large,9.0,,,,,,,,,,,
encoding,attention,9,24591959,24594979,24592351,24592564,214,214,1585.5,770.0999999999999,1591.0,1269.0,Animal_Sea_Solid_Large,46.401435625040904,49.42056087497622,2.0,Animal_Sea_Solid_Large,9.0,9.0,1.0,1.234300458105281,,,,,,,,
encoding,attention,9,24591959,24594979,24592579,24592858,280,280,1678.6,757.5999999999999,1591.0,1269.0,Animal_Sea_Solid_Large,46.401435625040904,49.42056087497622,2.0,Animal_Sea_Solid_Large,9.0,9.0,1.0,1.234300458105281,,,,,,,,
encoding,attention,9,24591959,24594979,24592873,24593430,558,558,1588.0,764.5,1591.0,1269.0,Animal_Sea_Solid_Large,46.401435625040904,49.42056087497622,2.0,Animal_Sea_Solid_Large,9.0,9.0,1.0,1.234300458105281,,,,,,,,
encoding,attention,9,24591959,24594979,24593583,24593998,416,416,1645.4,886.7,1591.0,1269.0,Animal_Sea_Solid_Large,46.401435625040904,49.42056087497622,2.0,Animal_Sea_Solid_Large,9.0,9.0,1.0,1.234300458105281,,,,,,,,
encoding,attention,9,24591959,24594979,24594030,24594408,379,379,2059.9,910.5999999999999,2249.0,1269.0,Object_Sea_Pattern_Small,46.401435625040904,49.42056087497622,2.0,Animal_Sea_Solid_Large,9.0,9.0,1.0,1.234300458105281,,,,,,,,
encoding,attention,9,24591959,24594979,24594443,24594602,160,160,1661.0,875.0999999999999,1591.0,1269.0,Animal_Sea_Solid_Large,46.401435625040904,49.42056087497622,2.0,Animal_Sea_Solid_Large,9.0,9.0,1.0,1.234300458105281,,,,,,,,
encoding,attention,9,24591959,24594979,24594611,24594806,196,196,1631.1,895.0999999999999,1591.0,1269.0,Animal_Sea_Solid_Large,46.401435625040904,49.42056087497622,2.0,Animal_Sea_Solid_Large,9.0,9.0,1.0,1.234300458105281,,,,,,,,
encoding,fixation,10,24594979,24596234,24595199,24595424,226,226,1939.2,1082.6,1920.0,1080.0,fixation,49.42080204212107,50.67604754213244,2.0,Animal_Land_Solid_Large,-2.0,,,,,,,,,,,
encoding,fixation,10,24594979,24596234,24595595,24595846,252,252,1942.4,1294.1,1920.0,700.0,Object_Land_Solid_Large,49.42080204212107,50.67604754213244,2.0,Animal_Land_Solid_Large,-2.0,,,,,,,,,,,
encoding,fixation,10,24594979,24596234,24595877,24596131,255,255,2063.4,1167.8,2249.0,891.0,Animal_Sea_Pattern_Small,49.42080204212107,50.67604754213244,2.0,Animal_Land_Solid_Large,-2.0,,,,,,,,,,,
encoding,fixation,10,24594979,24596234,24596152,24596411,260,82,1937.3,1080.2,1920.0,1080.0,fixation,49.42080204212107,50.67604754213244,2.0,Animal_Land_Solid_Large,-2.0,,,,,,,,,,,
encoding,image,10,24596234,24597246,24596455,24596584,130,130,1910.0,654.5,1920.0,1460.0,Animal_Land_Solid_Large,50.67615750012919,51.68820874998346,2.0,Animal_Land_Solid_Large,-2.0,,,,,,,,,,,
encoding,image,10,24596234,24597246,24596598,24596935,338,338,1940.9,724.3,1920.0,1460.0,Animal_Land_Solid_Large,50.67615750012919,51.68820874998346,2.0,Animal_Land_Solid_Large,-2.0,,,,,,,,,,,
encoding,image,10,24596234,24597246,24597087,24597609,523,159,1955.9,719.5999999999999,1920.0,1460.0,Animal_Land_Solid_Large,50.67615750012919,51.68820874998346,2.0,Animal_Land_Solid_Large,-2.0,,,,,,,,,,,
encoding,value,10,24597247,24603259,24597629,24597906,278,278,1912.5,613.4000000000001,1920.0,1460.0,Animal_Land_Solid_Large,51.68832650012337,57.700696459040046,2.0,Animal_Land_Solid_Large,-2.0,,,,,,,,,,,
encoding,value,10,24597247,24603259,24598100,24598314,215,215,1926.3,641.0,1920.0,1460.0,Animal_Land_Solid_Large,51.68832650012337,57.700696459040046,2.0,Animal_Land_Solid_Large,-2.0,,,,,,,,,,,
encoding,value,10,24597247,24603259,24598327,24599408,1082,1082,1951.5,712.3,1920.0,1460.0,Animal_Land_Solid_Large,51.68832650012337,57.700696459040046,2.0,Animal_Land_Solid_Large,-2.0,,,,,,,,,,,
encoding,value,10,24597247,24603259,24599428,24600901,1474,1474,1916.8,619.2,1920.0,1460.0,Animal_Land_Solid_Large,51.68832650012337,57.700696459040046,2.0,Animal_Land_Solid_Large,-2.0,,,,,,,,,,,
encoding,value,10,24597247,24603259,24600918,24601470,553,553,1964.5,717.5,1920.0,1460.0,Animal_Land_Solid_Large,51.68832650012337,57.700696459040046,2.0,Animal_Land_Solid_Large,-2.0,,,,,,,,,,,
encoding,value,10,24597247,24603259,24601486,24602301,816,816,1927.6,628.5999999999999,1920.0,1460.0,Animal_Land_Solid_Large,51.68832650012337,57.700696459040046,2.0,Animal_Land_Solid_Large,-2.0,,,,,,,,,,,
encoding,value,10,24597247,24603259,24602453,24603614,1162,806,1906.8,627.2,1920.0,1460.0,Animal_Land_Solid_Large,51.68832650012337,57.700696459040046,2.0,Animal_Land_Solid_Large,-2.0,,,,,,,,,,,
encoding,attention,10,24603259,24606279,24603621,24604095,475,475,1873.9,643.0999999999999,1920.0,1460.0,Animal_Land_Solid_Large,57.70081449998543,60.71992583409883,2.0,Animal_Land_Solid_Large,-2.0,-2.0,1.0,0.9656124161556364,,,,,,,,
encoding,attention,10,24603259,24606279,24604110,24604434,325,325,1960.2,650.8,1920.0,1460.0,Animal_Land_Solid_Large,57.70081449998543,60.71992583409883,2.0,Animal_Land_Solid_Large,-2.0,-2.0,1.0,0.9656124161556364,,,,,,,,
encoding,attention,10,24603259,24606279,24604447,24604532,86,86,1884.7,655.3,1920.0,1460.0,Animal_Land_Solid_Large,57.70081449998543,60.71992583409883,2.0,Animal_Land_Solid_Large,-2.0,-2.0,1.0,0.9656124161556364,,,,,,,,
encoding,attention,10,24603259,24606279,24604708,24604940,233,233,2249.1,938.0,2249.0,1269.0,Object_Sea_Pattern_Small,57.70081449998543,60.71992583409883,2.0,Animal_Land_Solid_Large,-2.0,-2.0,1.0,0.9656124161556364,,,,,,,,
encoding,attention,10,24603259,24606279,24604978,24605193,216,216,1923.6,686.5999999999999,1920.0,1460.0,Animal_Land_Solid_Large,57.70081449998543,60.71992583409883,2.0,Animal_Land_Solid_Large,-2.0,-2.0,1.0,0.9656124161556364,,,,,,,,
encoding,fixation,11,24606279,24607034,24606540,24606688,149,149,1964.6,1072.2,1920.0,1080.0,fixation,60.72011695895344,61.475727166980505,2.0,Object_Land_Pattern_Small,6.0,,,,,,,,,,,
encoding,fixation,11,24606279,24607034,24606886,24607089,204,148,1960.6,1021.0,2249.0,1269.0,Object_Sea_Pattern_Small,60.72011695895344,61.475727166980505,2.0,Object_Land_Pattern_Small,6.0,,,,,,,,,,,
encoding,image,11,24607034,24608047,24607103,24607209,107,107,2049.1,1044.2,2249.0,1269.0,Object_Sea_Pattern_Small,61.47583245905116,62.48855770891532,2.0,Object_Land_Pattern_Small,6.0,,,,,,,,,,,
encoding,image,11,24607034,24608047,24607252,24607732,481,481,1638.1,1238.0,1591.0,891.0,Object_Land_Pattern_Small,61.47583245905116,62.48855770891532,2.0,Object_Land_Pattern_Small,6.0,,,,,,,,,,,
encoding,image,11,24607034,24608047,24607754,24608004,251,251,1658.3,1089.7,1591.0,891.0,Object_Land_Pattern_Small,61.47583245905116,62.48855770891532,2.0,Object_Land_Pattern_Small,6.0,,,,,,,,,,,
encoding,image,11,24607034,24608047,24608017,24608425,409,30,1619.1,1149.9,1591.0,891.0,Object_Land_Pattern_Small,61.47583245905116,62.48855770891532,2.0,Object_Land_Pattern_Small,6.0,,,,,,,,,,,
encoding,value,11,24608047,24614060,24608618,24608786,169,169,1644.9,1184.9,1591.0,891.0,Object_Land_Pattern_Small,62.48868550010957,68.50111337495036,2.0,Object_Land_Pattern_Small,6.0,,,,,,,,,,,
encoding,value,11,24608047,24614060,24608801,24609183,383,383,1626.6,1249.0,1591.0,891.0,Object_Land_Pattern_Small,62.48868550010957,68.50111337495036,2.0,Object_Land_Pattern_Small,6.0,,,,,,,,,,,
encoding,value,11,24608047,24614060,24609381,24609570,190,190,1655.2,960.3,1591.0,1269.0,Animal_Sea_Solid_Large,62.48868550010957,68.50111337495036,2.0,Object_Land_Pattern_Small,6.0,,,,,,,,,,,
encoding,value,11,24608047,24614060,24609597,24609824,228,228,1624.8,1199.9,1591.0,891.0,Object_Land_Pattern_Small,62.48868550010957,68.50111337495036,2.0,Object_Land_Pattern_Small,6.0,,,,,,,,,,,
encoding,value,11,24608047,24614060,24609840,24609955,116,116,1686.6,1289.0,1591.0,891.0,Object_Land_Pattern_Small,62.48868550010957,68.50111337495036,2.0,Object_Land_Pattern_Small,6.0,,,,,,,,,,,
encoding,value,11,24608047,24614060,24610002,24610226,225,225,2228.6,1151.8,2249.0,891.0,Animal_Sea_Pattern_Small,62.48868550010957,68.50111337495036,2.0,Object_Land_Pattern_Small,6.0,,,,,,,,,,,
encoding,value,11,24608047,24614060,24610265,24610518,254,254,2225.7,763.2,2249.0,1269.0,Object_Sea_Pattern_Small,62.48868550010957,68.50111337495036,2.0,Object_Land_Pattern_Small,6.0,,,,,,,,,,,
encoding,value,11,24608047,24614060,24610566,24610602,37,37,1668.4,964.5999999999999,1591.0,1269.0,Animal_Sea_Solid_Large,62.48868550010957,68.50111337495036,2.0,Object_Land_Pattern_Small,6.0,,,,,,,,,,,
encoding,value,11,24608047,24614060,24610612,24610709,98,98,1682.2,1057.1,1591.0,1269.0,Animal_Sea_Solid_Large,62.48868550010957,68.50111337495036,2.0,Object_Land_Pattern_Small,6.0,,,,,,,,,,,
encoding,value,11,24608047,24614060,24610729,24610940,212,212,1617.7,1170.0,1591.0,891.0,Object_Land_Pattern_Small,62.48868550010957,68.50111337495036,2.0,Object_Land_Pattern_Small,6.0,,,,,,,,,,,
encoding,value,11,24608047,24614060,24611142,24611657,516,516,1639.3,1156.1,1591.0,891.0,Object_Land_Pattern_Small,62.48868550010957,68.50111337495036,2.0,Object_Land_Pattern_Small,6.0,,,,,,,,,,,
encoding,value,11,24608047,24614060,24611665,24613631,1967,1967,1632.8,1181.4,1591.0,891.0,Object_Land_Pattern_Small,62.48868550010957,68.50111337495036,2.0,Object_Land_Pattern_Small,6.0,,,,,,,,,,,
encoding,value,11,24608047,24614060,24613638,24614244,607,422,1641.0,1186.7,1591.0,891.0,Object_Land_Pattern_Small,62.48868550010957,68.50111337495036,2.0,Object_Land_Pattern_Small,6.0,,,,,,,,,,,
encoding,attention,11,24614060,24617078,24614253,24614609,357,357,1601.1,1173.2,1591.0,891.0,Object_Land_Pattern_Small,68.50124899996445,71.51873904210515,2.0,Object_Land_Pattern_Small,6.0,6.0,1.0,0.7274019171018153,,,,,,,,
encoding,attention,11,24614060,24617078,24614786,24614988,203,203,1638.5,1228.9,1591.0,891.0,Object_Land_Pattern_Small,68.50124899996445,71.51873904210515,2.0,Object_Land_Pattern_Small,6.0,6.0,1.0,0.7274019171018153,,,,,,,,
encoding,attention,11,24614060,24617078,24614998,24615271,274,274,1610.9,1179.0,1591.0,891.0,Object_Land_Pattern_Small,68.50124899996445,71.51873904210515,2.0,Object_Land_Pattern_Small,6.0,6.0,1.0,0.7274019171018153,,,,,,,,
encoding,attention,11,24614060,24617078,24615286,24615640,355,355,1678.1,1240.0,1591.0,891.0,Object_Land_Pattern_Small,68.50124899996445,71.51873904210515,2.0,Object_Land_Pattern_Small,6.0,6.0,1.0,0.7274019171018153,,,,,,,,
encoding,attention,11,24614060,24617078,24615828,24616327,500,500,1825.0,1211.4,1591.0,891.0,Object_Land_Pattern_Small,68.50124899996445,71.51873904210515,2.0,Object_Land_Pattern_Small,6.0,6.0,1.0,0.7274019171018153,,,,,,,,
encoding,attention,11,24614060,24617078,24616349,24616529,181,181,1952.9,1133.5,1920.0,1080.0,fixation,68.50124899996445,71.51873904210515,2.0,Object_Land_Pattern_Small,6.0,6.0,1.0,0.7274019171018153,,,,,,,,
encoding,fixation,12,24617078,24618084,24617173,24617259,87,87,1683.3,1174.3,1591.0,891.0,Object_Land_Pattern_Small,71.51889170892537,72.52439158409834,2.0,Animal_Sea_Pattern_Small,-8.0,,,,,,,,,,,
encoding,fixation,12,24617078,24618084,24617292,24617440,149,149,1963.2,1100.4,1920.0,1080.0,fixation,71.51889170892537,72.52439158409834,2.0,Animal_Sea_Pattern_Small,-8.0,,,,,,,,,,,
encoding,fixation,12,24617078,24618084,24617609,24617822,214,214,1950.3,1140.2,1920.0,1080.0,fixation,71.51889170892537,72.52439158409834,2.0,Animal_Sea_Pattern_Small,-8.0,,,,,,,,,,,
encoding,fixation,12,24617078,24618084,24617840,24618230,391,244,2044.7,1068.4,2249.0,1269.0,Object_Sea_Pattern_Small,71.51889170892537,72.52439158409834,2.0,Animal_Sea_Pattern_Small,-8.0,,,,,,,,,,,
encoding,image,12,24618084,24619096,24618255,24618408,154,154,2240.6,1188.5,2249.0,891.0,Animal_Sea_Pattern_Small,72.52450112509541,73.53718174993992,2.0,Animal_Sea_Pattern_Small,-8.0,,,,,,,,,,,
encoding,image,12,24618084,24619096,24618421,24618891,471,471,2271.8,1225.8,2249.0,891.0,Animal_Sea_Pattern_Small,72.52450112509541,73.53718174993992,2.0,Animal_Sea_Pattern_Small,-8.0,,,,,,,,,,,
encoding,image,12,24618084,24619096,24619055,24619264,210,41,2183.4,1079.3,2249.0,1269.0,Object_Sea_Pattern_Small,72.52450112509541,73.53718174993992,2.0,Animal_Sea_Pattern_Small,-8.0,,,,,,,,,,,
encoding,value,12,24619097,24625108,24619278,24619718,441,441,2263.4,1127.7,2249.0,891.0,Animal_Sea_Pattern_Small,73.537299167132,79.54891870892607,2.0,Animal_Sea_Pattern_Small,-8.0,,,,,,,,,,,
encoding,value,12,24619097,24625108,24619835,24620013,179,179,2255.2,1268.4,2249.0,891.0,Animal_Sea_Pattern_Small,73.537299167132,79.54891870892607,2.0,Animal_Sea_Pattern_Small,-8.0,,,,,,,,,,,
encoding,value,12,24619097,24625108,24620021,24620263,243,243,2295.8,1254.4,2249.0,891.0,Animal_Sea_Pattern_Small,73.537299167132,79.54891870892607,2.0,Animal_Sea_Pattern_Small,-8.0,,,,,,,,,,,
encoding,value,12,24619097,24625108,24620285,24620382,98,98,2079.4,1140.2,2249.0,891.0,Animal_Sea_Pattern_Small,73.537299167132,79.54891870892607,2.0,Animal_Sea_Pattern_Small,-8.0,,,,,,,,,,,
encoding,value,12,24619097,24625108,24620408,24620533,126,126,1869.6,1004.5999999999999,1591.0,1269.0,Animal_Sea_Solid_Large,73.537299167132,79.54891870892607,2.0,Animal_Sea_Pattern_Small,-8.0,,,,,,,,,,,
encoding,value,12,24619097,24625108,24620708,24620808,101,101,2074.7,1055.1,2249.0,1269.0,Object_Sea_Pattern_Small,73.537299167132,79.54891870892607,2.0,Animal_Sea_Pattern_Small,-8.0,,,,,,,,,,,
encoding,value,12,24619097,24625108,24620834,24621130,297,297,2268.1,1185.5,2249.0,891.0,Animal_Sea_Pattern_Small,73.537299167132,79.54891870892607,2.0,Animal_Sea_Pattern_Small,-8.0,,,,,,,,,,,
encoding,value,12,24619097,24625108,24621144,24621302,159,159,2203.1,1128.0,2249.0,891.0,Animal_Sea_Pattern_Small,73.537299167132,79.54891870892607,2.0,Animal_Sea_Pattern_Small,-8.0,,,,,,,,,,,
encoding,value,12,24619097,24625108,24621315,24621581,267,267,2268.3,1162.5,2249.0,891.0,Animal_Sea_Pattern_Small,73.537299167132,79.54891870892607,2.0,Animal_Sea_Pattern_Small,-8.0,,,,,,,,,,,
encoding,value,12,24619097,24625108,24621751,24621967,217,217,2204.8,1196.1,2249.0,891.0,Animal_Sea_Pattern_Small,73.537299167132,79.54891870892607,2.0,Animal_Sea_Pattern_Small,-8.0,,,,,,,,,,,
encoding,value,12,24619097,24625108,24621981,24622449,469,469,2252.7,1145.2,2249.0,891.0,Animal_Sea_Pattern_Small,73.537299167132,79.54891870892607,2.0,Animal_Sea_Pattern_Small,-8.0,,,,,,,,,,,
encoding,value,12,24619097,24625108,24622468,24622685,218,218,2125.2,1101.1,2249.0,891.0,Animal_Sea_Pattern_Small,73.537299167132,79.54891870892607,2.0,Animal_Sea_Pattern_Small,-8.0,,,,,,,,,,,
encoding,value,12,24619097,24625108,24622705,24622932,228,228,2253.3,1155.5,2249.0,891.0,Animal_Sea_Pattern_Small,73.537299167132,79.54891870892607,2.0,Animal_Sea_Pattern_Small,-8.0,,,,,,,,,,,
encoding,value,12,24619097,24625108,24622952,24623199,248,248,2249.6,1261.4,2249.0,891.0,Animal_Sea_Pattern_Small,73.537299167132,79.54891870892607,2.0,Animal_Sea_Pattern_Small,-8.0,,,,,,,,,,,
encoding,value,12,24619097,24625108,24623361,24625362,2002,1747,2261.1,1156.4,2249.0,891.0,Animal_Sea_Pattern_Small,73.537299167132,79.54891870892607,2.0,Animal_Sea_Pattern_Small,-8.0,,,,,,,,,,,
encoding,attention,12,24625108,24628127,24625369,24625751,383,383,2317.6,1164.9,2249.0,891.0,Animal_Sea_Pattern_Small,79.54905545897782,82.5673213750124,2.0,Animal_Sea_Pattern_Small,-8.0,-8.0,1.0,0.767016040859744,,,,,,,,
encoding,attention,12,24625108,24628127,24625762,24625973,212,212,2270.3,1173.6,2249.0,891.0,Animal_Sea_Pattern_Small,79.54905545897782,82.5673213750124,2.0,Animal_Sea_Pattern_Small,-8.0,-8.0,1.0,0.767016040859744,,,,,,,,
encoding,attention,12,24625108,24628127,24625982,24626136,155,155,2324.2,1174.8,2249.0,891.0,Animal_Sea_Pattern_Small,79.54905545897782,82.5673213750124,2.0,Animal_Sea_Pattern_Small,-8.0,-8.0,1.0,0.767016040859744,,,,,,,,
encoding,attention,12,24625108,24628127,24626339,24626891,553,553,2239.7,1251.4,2249.0,891.0,Animal_Sea_Pattern_Small,79.54905545897782,82.5673213750124,2.0,Animal_Sea_Pattern_Small,-8.0,-8.0,1.0,0.767016040859744,,,,,,,,
encoding,attention,12,24625108,24628127,24626917,24627083,167,167,2044.1,1100.0,2249.0,891.0,Animal_Sea_Pattern_Small,79.54905545897782,82.5673213750124,2.0,Animal_Sea_Pattern_Small,-8.0,-8.0,1.0,0.767016040859744,,,,,,,,
encoding,attention,12,24625108,24628127,24627096,24627295,200,200,1963.9,1063.7,1920.0,1080.0,fixation,79.54905545897782,82.5673213750124,2.0,Animal_Sea_Pattern_Small,-8.0,-8.0,1.0,0.767016040859744,,,,,,,,
encoding,attention,12,24625108,24628127,24627324,24627616,293,293,2281.7,1158.7,2249.0,891.0,Animal_Sea_Pattern_Small,79.54905545897782,82.5673213750124,2.0,Animal_Sea_Pattern_Small,-8.0,-8.0,1.0,0.767016040859744,,,,,,,,
encoding,attention,12,24625108,24628127,24627808,24627957,150,150,2236.6,1174.7,2249.0,891.0,Animal_Sea_Pattern_Small,79.54905545897782,82.5673213750124,2.0,Animal_Sea_Pattern_Small,-8.0,-8.0,1.0,0.767016040859744,,,,,,,,
encoding,fixation,13,24960359,24961115,24960377,24960696,320,320,1933.9,1124.9,1920.0,1080.0,fixation,11.100668790983036,11.857219791039824,3.0,Object_Land_Solid_Small,1.0,,,,,,,,,,,
encoding,fixation,13,24960359,24961115,24960857,24961101,245,245,1903.7,1051.5,1920.0,1080.0,fixation,11.100668790983036,11.857219791039824,3.0,Object_Land_Solid_Small,1.0,,,,,,,,,,,
encoding,fixation,13,24960359,24961115,24961112,24961323,212,3,1962.4,1045.2,1920.0,1080.0,fixation,11.100668790983036,11.857219791039824,3.0,Object_Land_Solid_Small,1.0,,,,,,,,,,,
encoding,image,13,24961115,24962126,24961361,24962385,1025,765,1903.2,686.2,1920.0,1460.0,Object_Land_Solid_Small,11.857358082896098,12.868574999971315,3.0,Object_Land_Solid_Small,1.0,,,,,,,,,,,
encoding,value,13,24962127,24968142,24962395,24962640,246,246,1885.3,607.8,1920.0,1460.0,Object_Land_Solid_Small,12.868748124921694,18.883751458022743,3.0,Object_Land_Solid_Small,1.0,,,,,,,,,,,
encoding,value,13,24962127,24968142,24962774,24962983,210,210,1868.9,637.0999999999999,1920.0,1460.0,Object_Land_Solid_Small,12.868748124921694,18.883751458022743,3.0,Object_Land_Solid_Small,1.0,,,,,,,,,,,
encoding,value,13,24962127,24968142,24962991,24964147,1157,1157,1901.0,679.9000000000001,1920.0,1460.0,Object_Land_Solid_Small,12.868748124921694,18.883751458022743,3.0,Object_Land_Solid_Small,1.0,,,,,,,,,,,
encoding,value,13,24962127,24968142,24964290,24964643,354,354,1893.5,652.0,1920.0,1460.0,Object_Land_Solid_Small,12.868748124921694,18.883751458022743,3.0,Object_Land_Solid_Small,1.0,,,,,,,,,,,
encoding,value,13,24962127,24968142,24964655,24966105,1451,1451,1871.2,618.0999999999999,1920.0,1460.0,Object_Land_Solid_Small,12.868748124921694,18.883751458022743,3.0,Object_Land_Solid_Small,1.0,,,,,,,,,,,
encoding,value,13,24962127,24968142,24966263,24967845,1583,1583,1884.4,609.9000000000001,1920.0,1460.0,Object_Land_Solid_Small,12.868748124921694,18.883751458022743,3.0,Object_Land_Solid_Small,1.0,,,,,,,,,,,
encoding,value,13,24962127,24968142,24967996,24968260,265,146,1865.2,595.9000000000001,1920.0,1460.0,Object_Land_Solid_Small,12.868748124921694,18.883751458022743,3.0,Object_Land_Solid_Small,1.0,,,,,,,,,,,
encoding,attention,13,24968142,24971161,24968275,24968421,147,147,1917.7,684.9000000000001,1920.0,1460.0,Object_Land_Solid_Small,18.883937458042055,21.902705332962796,3.0,Object_Land_Solid_Small,1.0,1.0,1.0,1.2831131669227034,,,,,,,,
encoding,attention,13,24968142,24971161,24968439,24969019,581,581,1901.9,599.0999999999999,1920.0,1460.0,Object_Land_Solid_Small,18.883937458042055,21.902705332962796,3.0,Object_Land_Solid_Small,1.0,1.0,1.0,1.2831131669227034,,,,,,,,
encoding,attention,13,24968142,24971161,24969031,24969325,295,295,1908.7,654.7,1920.0,1460.0,Object_Land_Solid_Small,18.883937458042055,21.902705332962796,3.0,Object_Land_Solid_Small,1.0,1.0,1.0,1.2831131669227034,,,,,,,,
encoding,attention,13,24968142,24971161,24969334,24970076,743,743,1903.5,679.5999999999999,1920.0,1460.0,Object_Land_Solid_Small,18.883937458042055,21.902705332962796,3.0,Object_Land_Solid_Small,1.0,1.0,1.0,1.2831131669227034,,,,,,,,
encoding,attention,13,24968142,24971161,24970245,24970546,302,302,1896.0,656.2,1920.0,1460.0,Object_Land_Solid_Small,18.883937458042055,21.902705332962796,3.0,Object_Land_Solid_Small,1.0,1.0,1.0,1.2831131669227034,,,,,,,,
encoding,attention,13,24968142,24971161,24970566,24970701,136,136,1867.0,590.5,1920.0,1460.0,Object_Land_Solid_Small,18.883937458042055,21.902705332962796,3.0,Object_Land_Solid_Small,1.0,1.0,1.0,1.2831131669227034,,,,,,,,
encoding,attention,13,24968142,24971161,24970711,24970994,284,284,1930.0,592.9000000000001,1920.0,1460.0,Object_Land_Solid_Small,18.883937458042055,21.902705332962796,3.0,Object_Land_Solid_Small,1.0,1.0,1.0,1.2831131669227034,,,,,,,,
encoding,fixation,14,24971161,24972667,24971419,24971810,392,392,1911.0,972.5,1920.0,1460.0,Object_Land_Solid_Small,21.902930333046243,23.40865358291194,3.0,Animal_Sea_Pattern_Small,-9.0,,,,,,,,,,,
encoding,fixation,14,24971161,24972667,24972013,24972182,170,170,1989.4,1025.9,2249.0,1269.0,Animal_Sea_Pattern_Large,21.902930333046243,23.40865358291194,3.0,Animal_Sea_Pattern_Small,-9.0,,,,,,,,,,,
encoding,fixation,14,24971161,24972667,24972195,24972458,264,264,1906.7,1021.3,1920.0,1080.0,fixation,21.902930333046243,23.40865358291194,3.0,Animal_Sea_Pattern_Small,-9.0,,,,,,,,,,,
encoding,fixation,14,24971161,24972667,24972485,24972710,226,182,1999.6,912.2,1920.0,1460.0,Object_Land_Solid_Small,21.902930333046243,23.40865358291194,3.0,Animal_Sea_Pattern_Small,-9.0,,,,,,,,,,,
encoding,image,14,24972667,24973679,24972738,24972883,146,146,2300.4,904.8,2249.0,1269.0,Animal_Sea_Pattern_Large,23.40880808304064,24.42027295799926,3.0,Animal_Sea_Pattern_Small,-9.0,,,,,,,,,,,
encoding,image,14,24972667,24973679,24972919,24973073,155,155,2182.4,1196.4,2249.0,891.0,Animal_Sea_Pattern_Small,23.40880808304064,24.42027295799926,3.0,Animal_Sea_Pattern_Small,-9.0,,,,,,,,,,,
encoding,image,14,24972667,24973679,24973084,24973497,414,414,2247.8,1210.3,2249.0,891.0,Animal_Sea_Pattern_Small,23.40880808304064,24.42027295799926,3.0,Animal_Sea_Pattern_Small,-9.0,,,,,,,,,,,
encoding,image,14,24972667,24973679,24973662,24973844,183,17,2186.0,1138.5,2249.0,891.0,Animal_Sea_Pattern_Small,23.40880808304064,24.42027295799926,3.0,Animal_Sea_Pattern_Small,-9.0,,,,,,,,,,,
encoding,value,14,24973679,24979692,24973856,24974314,459,459,2237.6,1108.0,2249.0,891.0,Animal_Sea_Pattern_Small,24.42041904106736,30.433385750046,3.0,Animal_Sea_Pattern_Small,-9.0,,,,,,,,,,,
encoding,value,14,24973679,24979692,24974335,24974888,554,554,2256.9,1219.7,2249.0,891.0,Animal_Sea_Pattern_Small,24.42041904106736,30.433385750046,3.0,Animal_Sea_Pattern_Small,-9.0,,,,,,,,,,,
encoding,value,14,24973679,24979692,24974899,24975191,293,293,2211.3,1222.7,2249.0,891.0,Animal_Sea_Pattern_Small,24.42041904106736,30.433385750046,3.0,Animal_Sea_Pattern_Small,-9.0,,,,,,,,,,,
encoding,value,14,24973679,24979692,24975360,24976256,897,897,2261.3,1232.2,2249.0,891.0,Animal_Sea_Pattern_Small,24.42041904106736,30.433385750046,3.0,Animal_Sea_Pattern_Small,-9.0,,,,,,,,,,,
encoding,value,14,24973679,24979692,24976437,24976552,116,116,2256.9,1201.9,2249.0,891.0,Animal_Sea_Pattern_Small,24.42041904106736,30.433385750046,3.0,Animal_Sea_Pattern_Small,-9.0,,,,,,,,,,,
encoding,value,14,24973679,24979692,24976564,24976994,431,431,2238.9,1147.3,2249.0,891.0,Animal_Sea_Pattern_Small,24.42041904106736,30.433385750046,3.0,Animal_Sea_Pattern_Small,-9.0,,,,,,,,,,,
encoding,value,14,24973679,24979692,24977010,24977276,267,267,2224.5,1221.5,2249.0,891.0,Animal_Sea_Pattern_Small,24.42041904106736,30.433385750046,3.0,Animal_Sea_Pattern_Small,-9.0,,,,,,,,,,,
encoding,value,14,24973679,24979692,24977297,24977462,166,166,2229.9,1137.9,2249.0,891.0,Animal_Sea_Pattern_Small,24.42041904106736,30.433385750046,3.0,Animal_Sea_Pattern_Small,-9.0,,,,,,,,,,,
encoding,value,14,24973679,24979692,24977629,24977771,143,143,2228.8,1176.0,2249.0,891.0,Animal_Sea_Pattern_Small,24.42041904106736,30.433385750046,3.0,Animal_Sea_Pattern_Small,-9.0,,,,,,,,,,,
encoding,value,14,24973679,24979692,24977785,24979012,1228,1228,2241.1,1120.3,2249.0,891.0,Animal_Sea_Pattern_Small,24.42041904106736,30.433385750046,3.0,Animal_Sea_Pattern_Small,-9.0,,,,,,,,,,,
encoding,value,14,24973679,24979692,24979030,24979232,203,203,2232.1,1202.2,2249.0,891.0,Animal_Sea_Pattern_Small,24.42041904106736,30.433385750046,3.0,Animal_Sea_Pattern_Small,-9.0,,,,,,,,,,,
encoding,value,14,24973679,24979692,24979251,24980514,1264,441,2259.2,1128.2,2249.0,891.0,Animal_Sea_Pattern_Small,24.42041904106736,30.433385750046,3.0,Animal_Sea_Pattern_Small,-9.0,,,,,,,,,,,
encoding,attention,14,24979692,24982711,24980677,24981271,595,595,2240.0,1128.4,2249.0,891.0,Animal_Sea_Pattern_Small,30.43350933305919,33.45229837484658,3.0,Animal_Sea_Pattern_Small,-9.0,-9.0,1.0,1.3831113749183714,,,,,,,,
encoding,attention,14,24979692,24982711,24981282,24981556,275,275,2283.3,1128.3,2249.0,891.0,Animal_Sea_Pattern_Small,30.43350933305919,33.45229837484658,3.0,Animal_Sea_Pattern_Small,-9.0,-9.0,1.0,1.3831113749183714,,,,,,,,
encoding,attention,14,24979692,24982711,24981576,24982102,527,527,2235.3,1221.4,2249.0,891.0,Animal_Sea_Pattern_Small,30.43350933305919,33.45229837484658,3.0,Animal_Sea_Pattern_Small,-9.0,-9.0,1.0,1.3831113749183714,,,,,,,,
encoding,fixation,15,24982711,24983467,24983258,24983340,83,83,1915.0,955.0,1920.0,1460.0,Object_Land_Solid_Small,33.45250437501818,34.20780108286999,3.0,Animal_Sea_Solid_Large,9.0,,,,,,,,,,,
encoding,fixation,15,24982711,24983467,24983380,24983596,217,87,1509.6,594.7,,,none,33.45250437501818,34.20780108286999,3.0,Animal_Sea_Solid_Large,9.0,,,,,,,,,,,
encoding,image,15,24983467,24984478,24983621,24983670,50,50,1384.0,724.3,,,none,34.20793520798907,35.21894033299759,3.0,Animal_Sea_Solid_Large,9.0,,,,,,,,,,,
encoding,image,15,24983467,24984478,24983700,24983856,157,157,1639.6,877.0,1591.0,1269.0,Animal_Sea_Solid_Large,34.20793520798907,35.21894033299759,3.0,Animal_Sea_Solid_Large,9.0,,,,,,,,,,,
encoding,image,15,24983467,24984478,24983864,24984372,509,509,1596.3,870.5,1591.0,1269.0,Animal_Sea_Solid_Large,34.20793520798907,35.21894033299759,3.0,Animal_Sea_Solid_Large,9.0,,,,,,,,,,,
encoding,value,15,24984478,24990490,24984573,24984769,197,197,1616.0,932.0999999999999,1591.0,1269.0,Animal_Sea_Solid_Large,35.219135500025004,41.23113516601734,3.0,Animal_Sea_Solid_Large,9.0,,,,,,,,,,,
encoding,value,15,24984478,24990490,24984793,24985223,431,431,1587.4,771.5999999999999,1591.0,1269.0,Animal_Sea_Solid_Large,35.219135500025004,41.23113516601734,3.0,Animal_Sea_Solid_Large,9.0,,,,,,,,,,,
encoding,value,15,24984478,24990490,24985246,24986242,997,997,1595.2,898.5999999999999,1591.0,1269.0,Animal_Sea_Solid_Large,35.219135500025004,41.23113516601734,3.0,Animal_Sea_Solid_Large,9.0,,,,,,,,,,,
encoding,value,15,24984478,24990490,24986446,24986580,135,135,1617.0,878.0,1591.0,1269.0,Animal_Sea_Solid_Large,35.219135500025004,41.23113516601734,3.0,Animal_Sea_Solid_Large,9.0,,,,,,,,,,,
encoding,value,15,24984478,24990490,24986602,24986968,367,367,1591.4,737.0999999999999,1591.0,1269.0,Animal_Sea_Solid_Large,35.219135500025004,41.23113516601734,3.0,Animal_Sea_Solid_Large,9.0,,,,,,,,,,,
encoding,value,15,24984478,24990490,24986989,24987169,181,181,1585.1,827.0999999999999,1591.0,1269.0,Animal_Sea_Solid_Large,35.219135500025004,41.23113516601734,3.0,Animal_Sea_Solid_Large,9.0,,,,,,,,,,,
encoding,value,15,24984478,24990490,24987179,24987485,307,307,1596.7,870.0,1591.0,1269.0,Animal_Sea_Solid_Large,35.219135500025004,41.23113516601734,3.0,Animal_Sea_Solid_Large,9.0,,,,,,,,,,,
encoding,value,15,24984478,24990490,24987509,24987700,192,192,1605.5,684.3,1591.0,1269.0,Animal_Sea_Solid_Large,35.219135500025004,41.23113516601734,3.0,Animal_Sea_Solid_Large,9.0,,,,,,,,,,,
encoding,value,15,24984478,24990490,24987710,24988295,586,586,1603.7,724.8,1591.0,1269.0,Animal_Sea_Solid_Large,35.219135500025004,41.23113516601734,3.0,Animal_Sea_Solid_Large,9.0,,,,,,,,,,,
encoding,value,15,24984478,24990490,24988460,24988915,456,456,1610.3,728.5,1591.0,1269.0,Animal_Sea_Solid_Large,35.219135500025004,41.23113516601734,3.0,Animal_Sea_Solid_Large,9.0,,,,,,,,,,,
encoding,value,15,24984478,24990490,24988922,24989608,687,687,1609.0,748.2,1591.0,1269.0,Animal_Sea_Solid_Large,35.219135500025004,41.23113516601734,3.0,Animal_Sea_Solid_Large,9.0,,,,,,,,,,,
encoding,value,15,24984478,24990490,24989617,24989973,357,357,1605.7,825.8,1591.0,1269.0,Animal_Sea_Solid_Large,35.219135500025004,41.23113516601734,3.0,Animal_Sea_Solid_Large,9.0,,,,,,,,,,,
encoding,value,15,24984478,24990490,24989986,24990365,380,380,1609.0,754.3,1591.0,1269.0,Animal_Sea_Solid_Large,35.219135500025004,41.23113516601734,3.0,Animal_Sea_Solid_Large,9.0,,,,,,,,,,,
encoding,value,15,24984478,24990490,24990380,24990570,191,110,1610.8,837.9000000000001,1591.0,1269.0,Animal_Sea_Solid_Large,35.219135500025004,41.23113516601734,3.0,Animal_Sea_Solid_Large,9.0,,,,,,,,,,,
encoding,attention,15,24990490,24993510,24990578,24990722,145,145,1603.5,869.4000000000001,1591.0,1269.0,Animal_Sea_Solid_Large,41.23130345786922,44.25086174998432,3.0,Animal_Sea_Solid_Large,9.0,9.0,1.0,1.5037100419867784,,,,,,,,
encoding,attention,15,24990490,24993510,24990743,24991058,316,316,1643.1,753.7,1591.0,1269.0,Animal_Sea_Solid_Large,41.23130345786922,44.25086174998432,3.0,Animal_Sea_Solid_Large,9.0,9.0,1.0,1.5037100419867784,,,,,,,,
encoding,attention,15,24990490,24993510,24991232,24992318,1087,1087,1652.6,782.9000000000001,1591.0,1269.0,Animal_Sea_Solid_Large,41.23130345786922,44.25086174998432,3.0,Animal_Sea_Solid_Large,9.0,9.0,1.0,1.5037100419867784,,,,,,,,
encoding,attention,15,24990490,24993510,24992504,24992730,227,227,1809.7,931.0,1591.0,1269.0,Animal_Sea_Solid_Large,41.23130345786922,44.25086174998432,3.0,Animal_Sea_Solid_Large,9.0,9.0,1.0,1.5037100419867784,,,,,,,,
encoding,attention,15,24990490,24993510,24992753,24993130,378,378,1609.7,903.0,1591.0,1269.0,Animal_Sea_Solid_Large,41.23130345786922,44.25086174998432,3.0,Animal_Sea_Solid_Large,9.0,9.0,1.0,1.5037100419867784,,,,,,,,
encoding,attention,15,24990490,24993510,24993153,24993404,252,252,1959.9,1034.1,1920.0,1080.0,fixation,41.23130345786922,44.25086174998432,3.0,Animal_Sea_Solid_Large,9.0,9.0,1.0,1.5037100419867784,,,,,,,,
encoding,fixation,16,24993510,24994266,24993607,24993779,173,173,1665.4,799.2,1591.0,1269.0,Animal_Sea_Solid_Large,44.25105054094456,45.00682937493548,3.0,Object_Land_Solid_Large,-9.0,,,,,,,,,,,
encoding,fixation,16,24993510,24994266,24993810,24994295,486,456,1930.0,1042.6,1920.0,1080.0,fixation,44.25105054094456,45.00682937493548,3.0,Object_Land_Solid_Large,-9.0,,,,,,,,,,,
encoding,image,16,24994266,24995276,24994318,24994505,188,188,2044.2,906.3,2249.0,1269.0,Animal_Sea_Pattern_Large,45.00696974992752,46.016941874986514,3.0,Object_Land_Solid_Large,-9.0,,,,,,,,,,,
encoding,image,16,24994266,24995276,24994554,24994722,169,169,1958.3,1404.2,1920.0,700.0,Object_Land_Solid_Large,45.00696974992752,46.016941874986514,3.0,Object_Land_Solid_Large,-9.0,,,,,,,,,,,
encoding,image,16,24994266,24995276,24994735,24995184,450,450,1898.6,1431.4,1920.0,700.0,Object_Land_Solid_Large,45.00696974992752,46.016941874986514,3.0,Object_Land_Solid_Large,-9.0,,,,,,,,,,,
encoding,value,16,24995276,25001288,24995366,24995530,165,165,1912.3,1265.8,1920.0,700.0,Object_Land_Solid_Large,46.01707324991003,52.02804824989289,3.0,Object_Land_Solid_Large,-9.0,,,,,,,,,,,
encoding,value,16,24995276,25001288,24995543,24996123,581,581,1925.3,1337.8,1920.0,700.0,Object_Land_Solid_Large,46.01707324991003,52.02804824989289,3.0,Object_Land_Solid_Large,-9.0,,,,,,,,,,,
encoding,value,16,24995276,25001288,24996296,24996712,417,417,1905.4,1449.0,1920.0,700.0,Object_Land_Solid_Large,46.01707324991003,52.02804824989289,3.0,Object_Land_Solid_Large,-9.0,,,,,,,,,,,
encoding,value,16,24995276,25001288,24996735,24997005,271,271,1941.2,1359.3,1920.0,700.0,Object_Land_Solid_Large,46.01707324991003,52.02804824989289,3.0,Object_Land_Solid_Large,-9.0,,,,,,,,,,,
encoding,value,16,24995276,25001288,24997022,24997316,295,295,1898.1,1433.0,1920.0,700.0,Object_Land_Solid_Large,46.01707324991003,52.02804824989289,3.0,Object_Land_Solid_Large,-9.0,,,,,,,,,,,
encoding,value,16,24995276,25001288,24997347,24997588,242,242,1867.9,1238.7,1920.0,700.0,Object_Land_Solid_Large,46.01707324991003,52.02804824989289,3.0,Object_Land_Solid_Large,-9.0,,,,,,,,,,,
encoding,value,16,24995276,25001288,24997599,24997840,242,242,1808.3,1161.4,1591.0,891.0,Object_Land_Pattern_Small,46.01707324991003,52.02804824989289,3.0,Object_Land_Solid_Large,-9.0,,,,,,,,,,,
encoding,value,16,24995276,25001288,24997866,24998199,334,334,1906.8,1364.0,1920.0,700.0,Object_Land_Solid_Large,46.01707324991003,52.02804824989289,3.0,Object_Land_Solid_Large,-9.0,,,,,,,,,,,
encoding,value,16,24995276,25001288,24998388,24999930,1543,1543,1915.6,1328.9,1920.0,700.0,Object_Land_Solid_Large,46.01707324991003,52.02804824989289,3.0,Object_Land_Solid_Large,-9.0,,,,,,,,,,,
encoding,value,16,24995276,25001288,24999940,25000360,421,421,1917.7,1335.7,1920.0,700.0,Object_Land_Solid_Large,46.01707324991003,52.02804824989289,3.0,Object_Land_Solid_Large,-9.0,,,,,,,,,,,
encoding,value,16,24995276,25001288,25000548,25001112,565,565,1910.1,1336.4,1920.0,700.0,Object_Land_Solid_Large,46.01707324991003,52.02804824989289,3.0,Object_Land_Solid_Large,-9.0,,,,,,,,,,,
encoding,value,16,24995276,25001288,25001121,25001608,488,167,1913.0,1303.4,1920.0,700.0,Object_Land_Solid_Large,46.01707324991003,52.02804824989289,3.0,Object_Land_Solid_Large,-9.0,,,,,,,,,,,
encoding,attention,16,25001288,25004306,25001615,25002083,469,469,1974.2,1333.2,1920.0,700.0,Object_Land_Solid_Large,52.02823008294217,55.04609991586767,3.0,Object_Land_Solid_Large,-9.0,-9.0,1.0,0.924105958081782,,,,,,,,
encoding,attention,16,25001288,25004306,25002090,25002665,576,576,1954.6,1352.8,1920.0,700.0,Object_Land_Solid_Large,52.02823008294217,55.04609991586767,3.0,Object_Land_Solid_Large,-9.0,-9.0,1.0,0.924105958081782,,,,,,,,
encoding,attention,16,25001288,25004306,25002680,25002895,216,216,1910.3,1399.5,1920.0,700.0,Object_Land_Solid_Large,52.02823008294217,55.04609991586767,3.0,Object_Land_Solid_Large,-9.0,-9.0,1.0,0.924105958081782,,,,,,,,
encoding,attention,16,25001288,25004306,25002911,25003083,173,173,1927.4,1333.4,1920.0,700.0,Object_Land_Solid_Large,52.02823008294217,55.04609991586767,3.0,Object_Land_Solid_Large,-9.0,-9.0,1.0,0.924105958081782,,,,,,,,
encoding,attention,16,25001288,25004306,25003272,25003465,194,194,1939.1,1350.9,1920.0,700.0,Object_Land_Solid_Large,52.02823008294217,55.04609991586767,3.0,Object_Land_Solid_Large,-9.0,-9.0,1.0,0.924105958081782,,,,,,,,
encoding,attention,16,25001288,25004306,25003485,25003888,404,404,1904.8,1432.2,1920.0,700.0,Object_Land_Solid_Large,52.02823008294217,55.04609991586767,3.0,Object_Land_Solid_Large,-9.0,-9.0,1.0,0.924105958081782,,,,,,,,
encoding,fixation,17,25004306,25005311,25004517,25004736,220,220,1973.8,1245.1,1920.0,700.0,Object_Land_Solid_Large,55.046307208016515,56.05146079091355,3.0,Animal_Sea_Pattern_Large,-8.0,,,,,,,,,,,
encoding,fixation,17,25004306,25005311,25004762,25005110,349,349,1877.0,1035.0,1920.0,1080.0,fixation,55.046307208016515,56.05146079091355,3.0,Animal_Sea_Pattern_Large,-8.0,,,,,,,,,,,
encoding,fixation,17,25004306,25005311,25005124,25005480,357,187,1949.0,1060.4,1920.0,1080.0,fixation,55.046307208016515,56.05146079091355,3.0,Animal_Sea_Pattern_Large,-8.0,,,,,,,,,,,
encoding,image,17,25005311,25006322,25005510,25005981,472,472,2199.4,860.3,2249.0,1269.0,Animal_Sea_Pattern_Large,56.05158787500113,57.06209958298132,3.0,Animal_Sea_Pattern_Large,-8.0,,,,,,,,,,,
encoding,image,17,25005311,25006322,25006151,25006469,319,171,2176.9,800.0,2249.0,1269.0,Animal_Sea_Pattern_Large,56.05158787500113,57.06209958298132,3.0,Animal_Sea_Pattern_Large,-8.0,,,,,,,,,,,
encoding,value,17,25006322,25012334,25006482,25007114,633,633,2208.9,745.4000000000001,2249.0,1269.0,Animal_Sea_Pattern_Large,57.06226687505841,63.07436216599308,3.0,Animal_Sea_Pattern_Large,-8.0,,,,,,,,,,,
encoding,value,17,25006322,25012334,25007133,25007569,437,437,2183.3,849.3,2249.0,1269.0,Animal_Sea_Pattern_Large,57.06226687505841,63.07436216599308,3.0,Animal_Sea_Pattern_Large,-8.0,,,,,,,,,,,
encoding,value,17,25006322,25012334,25007756,25008048,293,293,2193.7,855.5,2249.0,1269.0,Animal_Sea_Pattern_Large,57.06226687505841,63.07436216599308,3.0,Animal_Sea_Pattern_Large,-8.0,,,,,,,,,,,
encoding,value,17,25006322,25012334,25008065,25008307,243,243,2233.0,783.0999999999999,2249.0,1269.0,Animal_Sea_Pattern_Large,57.06226687505841,63.07436216599308,3.0,Animal_Sea_Pattern_Large,-8.0,,,,,,,,,,,
encoding,value,17,25006322,25012334,25008322,25008482,161,161,2188.1,829.5999999999999,2249.0,1269.0,Animal_Sea_Pattern_Large,57.06226687505841,63.07436216599308,3.0,Animal_Sea_Pattern_Large,-8.0,,,,,,,,,,,
encoding,value,17,25006322,25012334,25008525,25008778,254,254,2096.8,1192.1,2249.0,891.0,Animal_Sea_Pattern_Small,57.06226687505841,63.07436216599308,3.0,Animal_Sea_Pattern_Large,-8.0,,,,,,,,,,,
encoding,value,17,25006322,25012334,25008822,25009291,470,470,2224.9,759.3,2249.0,1269.0,Animal_Sea_Pattern_Large,57.06226687505841,63.07436216599308,3.0,Animal_Sea_Pattern_Large,-8.0,,,,,,,,,,,
encoding,value,17,25006322,25012334,25009452,25009999,548,548,2201.6,774.2,2249.0,1269.0,Animal_Sea_Pattern_Large,57.06226687505841,63.07436216599308,3.0,Animal_Sea_Pattern_Large,-8.0,,,,,,,,,,,
encoding,value,17,25006322,25012334,25010015,25010209,195,195,2055.7,743.4000000000001,1920.0,1460.0,Object_Land_Solid_Small,57.06226687505841,63.07436216599308,3.0,Animal_Sea_Pattern_Large,-8.0,,,,,,,,,,,
encoding,value,17,25006322,25012334,25010228,25010654,427,427,2208.0,777.5999999999999,2249.0,1269.0,Animal_Sea_Pattern_Large,57.06226687505841,63.07436216599308,3.0,Animal_Sea_Pattern_Large,-8.0,,,,,,,,,,,
encoding,value,17,25006322,25012334,25010827,25011275,449,449,2212.3,758.2,2249.0,1269.0,Animal_Sea_Pattern_Large,57.06226687505841,63.07436216599308,3.0,Animal_Sea_Pattern_Large,-8.0,,,,,,,,,,,
encoding,value,17,25006322,25012334,25011294,25011667,374,374,2211.6,855.0999999999999,2249.0,1269.0,Animal_Sea_Pattern_Large,57.06226687505841,63.07436216599308,3.0,Animal_Sea_Pattern_Large,-8.0,,,,,,,,,,,
encoding,value,17,25006322,25012334,25011688,25012699,1012,646,2219.1,762.0,2249.0,1269.0,Animal_Sea_Pattern_Large,57.06226687505841,63.07436216599308,3.0,Animal_Sea_Pattern_Large,-8.0,,,,,,,,,,,
encoding,attention,17,25012335,25015352,25012712,25013026,315,315,2272.8,777.5,2249.0,1269.0,Animal_Sea_Pattern_Large,63.074484874960035,66.09155979100615,3.0,Animal_Sea_Pattern_Large,-8.0,-8.0,1.0,2.370225459104404,,,,,,,,
encoding,attention,17,25012335,25015352,25013179,25013765,587,587,2258.1,764.7,2249.0,1269.0,Animal_Sea_Pattern_Large,63.074484874960035,66.09155979100615,3.0,Animal_Sea_Pattern_Large,-8.0,-8.0,1.0,2.370225459104404,,,,,,,,
encoding,attention,17,25012335,25015352,25013796,25013968,173,173,1956.4,532.7,1920.0,1460.0,Object_Land_Solid_Small,63.074484874960035,66.09155979100615,3.0,Animal_Sea_Pattern_Large,-8.0,-8.0,1.0,2.370225459104404,,,,,,,,
encoding,attention,17,25012335,25015352,25014006,25014174,169,169,2244.9,814.0999999999999,2249.0,1269.0,Animal_Sea_Pattern_Large,63.074484874960035,66.09155979100615,3.0,Animal_Sea_Pattern_Large,-8.0,-8.0,1.0,2.370225459104404,,,,,,,,
encoding,attention,17,25012335,25015352,25014184,25014473,290,290,2277.9,774.8,2249.0,1269.0,Animal_Sea_Pattern_Large,63.074484874960035,66.09155979100615,3.0,Animal_Sea_Pattern_Large,-8.0,-8.0,1.0,2.370225459104404,,,,,,,,
encoding,attention,17,25012335,25015352,25014484,25014680,197,197,2220.1,772.9000000000001,2249.0,1269.0,Animal_Sea_Pattern_Large,63.074484874960035,66.09155979100615,3.0,Animal_Sea_Pattern_Large,-8.0,-8.0,1.0,2.370225459104404,,,,,,,,
encoding,attention,17,25012335,25015352,25014690,25015036,347,347,2281.4,762.7,2249.0,1269.0,Animal_Sea_Pattern_Large,63.074484874960035,66.09155979100615,3.0,Animal_Sea_Pattern_Large,-8.0,-8.0,1.0,2.370225459104404,,,,,,,,
encoding,fixation,18,25015352,25016107,25015475,25015615,141,141,2273.2,773.7,2249.0,1269.0,Animal_Sea_Pattern_Large,66.0917930828873,66.84690025006421,3.0,Object_Land_Pattern_Small,5.0,,,,,,,,,,,
encoding,fixation,18,25015352,25016107,25015793,25016008,216,216,2098.4,880.2,2249.0,1269.0,Animal_Sea_Pattern_Large,66.0917930828873,66.84690025006421,3.0,Object_Land_Pattern_Small,5.0,,,,,,,,,,,
encoding,fixation,18,25015352,25016107,25016030,25016278,249,77,1893.7,949.0999999999999,1920.0,1460.0,Object_Land_Solid_Small,66.0917930828873,66.84690025006421,3.0,Object_Land_Pattern_Small,5.0,,,,,,,,,,,
encoding,image,18,25016107,25017119,25016317,25016645,329,329,1601.6,1212.3,1591.0,891.0,Object_Land_Pattern_Small,66.84701474988833,67.85840908298269,3.0,Object_Land_Pattern_Small,5.0,,,,,,,,,,,
encoding,image,18,25016107,25017119,25016663,25016976,314,314,1553.3,1095.3,1591.0,891.0,Object_Land_Pattern_Small,66.84701474988833,67.85840908298269,3.0,Object_Land_Pattern_Small,5.0,,,,,,,,,,,
encoding,value,18,25017119,25023131,25017146,25017298,153,153,1621.2,1145.9,1591.0,891.0,Object_Land_Pattern_Small,67.8585989580024,73.87034779088572,3.0,Object_Land_Pattern_Small,5.0,,,,,,,,,,,
encoding,value,18,25017119,25023131,25017306,25017726,421,421,1582.8,1137.7,1591.0,891.0,Object_Land_Pattern_Small,67.8585989580024,73.87034779088572,3.0,Object_Land_Pattern_Small,5.0,,,,,,,,,,,
encoding,value,18,25017119,25023131,25017747,25018109,363,363,1591.2,1248.5,1591.0,891.0,Object_Land_Pattern_Small,67.8585989580024,73.87034779088572,3.0,Object_Land_Pattern_Small,5.0,,,,,,,,,,,
encoding,value,18,25017119,25023131,25018293,25018559,267,267,1664.6,1184.0,1591.0,891.0,Object_Land_Pattern_Small,67.8585989580024,73.87034779088572,3.0,Object_Land_Pattern_Small,5.0,,,,,,,,,,,
encoding,value,18,25017119,25023131,25018584,25018711,128,128,1773.9,1013.5,1591.0,1269.0,Animal_Sea_Solid_Large,67.8585989580024,73.87034779088572,3.0,Object_Land_Pattern_Small,5.0,,,,,,,,,,,
encoding,value,18,25017119,25023131,25018747,25018991,245,245,2260.1,826.4000000000001,2249.0,1269.0,Animal_Sea_Pattern_Large,67.8585989580024,73.87034779088572,3.0,Object_Land_Pattern_Small,5.0,,,,,,,,,,,
encoding,value,18,25017119,25023131,25019028,25019209,182,182,1986.8,1064.5,1920.0,1080.0,fixation,67.8585989580024,73.87034779088572,3.0,Object_Land_Pattern_Small,5.0,,,,,,,,,,,
encoding,value,18,25017119,25023131,25019240,25019529,290,290,1575.0,1129.5,1591.0,891.0,Object_Land_Pattern_Small,67.8585989580024,73.87034779088572,3.0,Object_Land_Pattern_Small,5.0,,,,,,,,,,,
encoding,value,18,25017119,25023131,25019541,25019854,314,314,1600.8,1168.9,1591.0,891.0,Object_Land_Pattern_Small,67.8585989580024,73.87034779088572,3.0,Object_Land_Pattern_Small,5.0,,,,,,,,,,,
encoding,value,18,25017119,25023131,25020019,25020158,140,140,1659.7,1136.4,1591.0,891.0,Object_Land_Pattern_Small,67.8585989580024,73.87034779088572,3.0,Object_Land_Pattern_Small,5.0,,,,,,,,,,,
encoding,value,18,25017119,25023131,25020170,25021171,1002,1002,1601.9,1140.2,1591.0,891.0,Object_Land_Pattern_Small,67.8585989580024,73.87034779088572,3.0,Object_Land_Pattern_Small,5.0,,,,,,,,,,,
encoding,value,18,25017119,25023131,25021180,25022961,1782,1782,1613.9,1158.4,1591.0,891.0,Object_Land_Pattern_Small,67.8585989580024,73.87034779088572,3.0,Object_Land_Pattern_Small,5.0,,,,,,,,,,,
encoding,value,18,25017119,25023131,25023113,25023595,483,18,1625.5,1176.6,1591.0,891.0,Object_Land_Pattern_Small,67.8585989580024,73.87034779088572,3.0,Object_Land_Pattern_Small,5.0,,,,,,,,,,,
encoding,attention,18,25023131,25026149,25023608,25024163,556,556,1553.3,1152.1,1591.0,891.0,Object_Land_Pattern_Small,73.87046866607852,76.88844258291647,3.0,Object_Land_Pattern_Small,5.0,5.0,1.0,1.0977052499074489,,,,,,,,
encoding,attention,18,25023131,25026149,25024178,25024439,262,262,1643.1,1151.3,1591.0,891.0,Object_Land_Pattern_Small,73.87046866607852,76.88844258291647,3.0,Object_Land_Pattern_Small,5.0,5.0,1.0,1.0977052499074489,,,,,,,,
encoding,attention,18,25023131,25026149,25024457,25024682,226,226,1598.7,1246.0,1591.0,891.0,Object_Land_Pattern_Small,73.87046866607852,76.88844258291647,3.0,Object_Land_Pattern_Small,5.0,5.0,1.0,1.0977052499074489,,,,,,,,
encoding,attention,18,25023131,25026149,25024889,25025146,258,258,1616.0,1247.2,1591.0,891.0,Object_Land_Pattern_Small,73.87046866607852,76.88844258291647,3.0,Object_Land_Pattern_Small,5.0,5.0,1.0,1.0977052499074489,,,,,,,,
encoding,attention,18,25023131,25026149,25025173,25025333,161,161,1896.3,1163.3,1920.0,700.0,Object_Land_Solid_Large,73.87046866607852,76.88844258291647,3.0,Object_Land_Pattern_Small,5.0,5.0,1.0,1.0977052499074489,,,,,,,,
encoding,attention,18,25023131,25026149,25025360,25025598,239,239,2200.9,1121.5,2249.0,891.0,Animal_Sea_Pattern_Small,73.87046866607852,76.88844258291647,3.0,Object_Land_Pattern_Small,5.0,5.0,1.0,1.0977052499074489,,,,,,,,
encoding,attention,18,25023131,25026149,25025758,25025969,212,212,1842.8,1136.2,1591.0,891.0,Object_Land_Pattern_Small,73.87046866607852,76.88844258291647,3.0,Object_Land_Pattern_Small,5.0,5.0,1.0,1.0977052499074489,,,,,,,,
encoding,fixation,19,25379225,25380481,25379499,25379820,322,322,1973.7,1070.3,1920.0,1080.0,fixation,8.521447417093441,9.777416958939284,4.0,Object_Sea_Solid_Large,7.0,,,,,,,,,,,
encoding,fixation,19,25379225,25380481,25379847,25380227,381,381,2058.3,1242.9,2249.0,891.0,Object_Land_Pattern_Large,8.521447417093441,9.777416958939284,4.0,Object_Sea_Solid_Large,7.0,,,,,,,,,,,
encoding,fixation,19,25379225,25380481,25380242,25380531,290,239,1988.0,1200.2,1920.0,700.0,Object_Sea_Solid_Large,8.521447417093441,9.777416958939284,4.0,Object_Sea_Solid_Large,7.0,,,,,,,,,,,
encoding,image,19,25380481,25381493,25380548,25380663,116,116,2064.0,1176.2,2249.0,891.0,Object_Land_Pattern_Large,9.777546792058274,10.789484333945438,4.0,Object_Sea_Solid_Large,7.0,,,,,,,,,,,
encoding,image,19,25380481,25381493,25380699,25381430,732,732,1914.5,1441.4,1920.0,700.0,Object_Sea_Solid_Large,9.777546792058274,10.789484333945438,4.0,Object_Sea_Solid_Large,7.0,,,,,,,,,,,
encoding,value,19,25381493,25387507,25381588,25382064,477,477,1906.9,1440.8,1920.0,700.0,Object_Sea_Solid_Large,10.78960541705601,16.803042042069137,4.0,Object_Sea_Solid_Large,7.0,,,,,,,,,,,
encoding,value,19,25381493,25387507,25382083,25382558,476,476,1942.7,1356.4,1920.0,700.0,Object_Sea_Solid_Large,10.78960541705601,16.803042042069137,4.0,Object_Sea_Solid_Large,7.0,,,,,,,,,,,
encoding,value,19,25381493,25387507,25382722,25382889,168,168,1951.3,1413.7,1920.0,700.0,Object_Sea_Solid_Large,10.78960541705601,16.803042042069137,4.0,Object_Sea_Solid_Large,7.0,,,,,,,,,,,
encoding,value,19,25381493,25387507,25382899,25383716,818,818,1930.2,1442.2,1920.0,700.0,Object_Sea_Solid_Large,10.78960541705601,16.803042042069137,4.0,Object_Sea_Solid_Large,7.0,,,,,,,,,,,
encoding,value,19,25381493,25387507,25383894,25384163,270,270,1905.1,1418.3,1920.0,700.0,Object_Sea_Solid_Large,10.78960541705601,16.803042042069137,4.0,Object_Sea_Solid_Large,7.0,,,,,,,,,,,
encoding,value,19,25381493,25387507,25384176,25384958,783,783,1931.5,1339.6,1920.0,700.0,Object_Sea_Solid_Large,10.78960541705601,16.803042042069137,4.0,Object_Sea_Solid_Large,7.0,,,,,,,,,,,
encoding,value,19,25381493,25387507,25385157,25385328,172,172,1919.1,1395.3,1920.0,700.0,Object_Sea_Solid_Large,10.78960541705601,16.803042042069137,4.0,Object_Sea_Solid_Large,7.0,,,,,,,,,,,
encoding,value,19,25381493,25387507,25385337,25386464,1128,1128,1921.7,1452.5,1920.0,700.0,Object_Sea_Solid_Large,10.78960541705601,16.803042042069137,4.0,Object_Sea_Solid_Large,7.0,,,,,,,,,,,
encoding,value,19,25381493,25387507,25386634,25386861,228,228,1931.4,1362.8,1920.0,700.0,Object_Sea_Solid_Large,10.78960541705601,16.803042042069137,4.0,Object_Sea_Solid_Large,7.0,,,,,,,,,,,
encoding,value,19,25381493,25387507,25386879,25387826,948,628,1931.7,1451.1,1920.0,700.0,Object_Sea_Solid_Large,10.78960541705601,16.803042042069137,4.0,Object_Sea_Solid_Large,7.0,,,,,,,,,,,
encoding,attention,19,25387507,25390526,25387833,25387919,87,87,1922.4,1454.8,1920.0,700.0,Object_Sea_Solid_Large,16.803223042050377,19.821651834063232,4.0,Object_Sea_Solid_Large,7.0,7.0,1.0,1.2893544170074165,,,,,,,,
encoding,attention,19,25387507,25390526,25387940,25388122,183,183,1972.4,1356.9,1920.0,700.0,Object_Sea_Solid_Large,16.803223042050377,19.821651834063232,4.0,Object_Sea_Solid_Large,7.0,7.0,1.0,1.2893544170074165,,,,,,,,
encoding,attention,19,25387507,25390526,25388137,25388665,529,529,1881.8,1355.5,1920.0,700.0,Object_Sea_Solid_Large,16.803223042050377,19.821651834063232,4.0,Object_Sea_Solid_Large,7.0,7.0,1.0,1.2893544170074165,,,,,,,,
encoding,attention,19,25387507,25390526,25388673,25388859,187,187,1929.7,1373.4,1920.0,700.0,Object_Sea_Solid_Large,16.803223042050377,19.821651834063232,4.0,Object_Sea_Solid_Large,7.0,7.0,1.0,1.2893544170074165,,,,,,,,
encoding,attention,19,25387507,25390526,25388867,25389052,186,186,1889.6,1377.7,1920.0,700.0,Object_Sea_Solid_Large,16.803223042050377,19.821651834063232,4.0,Object_Sea_Solid_Large,7.0,7.0,1.0,1.2893544170074165,,,,,,,,
encoding,attention,19,25387507,25390526,25389228,25389447,220,220,1972.2,1382.0,1920.0,700.0,Object_Sea_Solid_Large,16.803223042050377,19.821651834063232,4.0,Object_Sea_Solid_Large,7.0,7.0,1.0,1.2893544170074165,,,,,,,,
encoding,attention,19,25387507,25390526,25389463,25390422,960,960,1917.6,1442.9,1920.0,700.0,Object_Sea_Solid_Large,16.803223042050377,19.821651834063232,4.0,Object_Sea_Solid_Large,7.0,7.0,1.0,1.2893544170074165,,,,,,,,
encoding,fixation,20,25390526,25391032,25390941,25391195,255,91,1931.9,1175.0,1920.0,700.0,Object_Sea_Solid_Large,19.82182720908895,20.32761720893905,4.0,Animal_Land_Pattern_Small,5.0,,,,,,,,,,,
encoding,image,20,25391032,25392043,25391231,25391765,535,535,2242.0,887.5,2249.0,1269.0,Animal_Land_Pattern_Small,20.32774075004272,21.33853195910342,4.0,Animal_Land_Pattern_Small,5.0,,,,,,,,,,,
encoding,image,20,25391032,25392043,25391884,25392018,135,135,2184.1,883.0,2249.0,1269.0,Animal_Land_Pattern_Small,20.32774075004272,21.33853195910342,4.0,Animal_Land_Pattern_Small,5.0,,,,,,,,,,,
encoding,image,20,25391032,25392043,25392027,25392541,515,16,2241.2,877.3,2249.0,1269.0,Animal_Land_Pattern_Small,20.32774075004272,21.33853195910342,4.0,Animal_Land_Pattern_Small,5.0,,,,,,,,,,,
encoding,value,20,25392043,25398055,25392738,25393375,638,638,2240.2,866.0,2249.0,1269.0,Animal_Land_Pattern_Small,21.338640625122935,27.350496999919415,4.0,Animal_Land_Pattern_Small,5.0,,,,,,,,,,,
encoding,value,20,25392043,25398055,25393393,25393752,360,360,2256.4,775.5,2249.0,1269.0,Animal_Land_Pattern_Small,21.338640625122935,27.350496999919415,4.0,Animal_Land_Pattern_Small,5.0,,,,,,,,,,,
encoding,value,20,25392043,25398055,25393943,25394240,298,298,2249.1,860.8,2249.0,1269.0,Animal_Land_Pattern_Small,21.338640625122935,27.350496999919415,4.0,Animal_Land_Pattern_Small,5.0,,,,,,,,,,,
encoding,value,20,25392043,25398055,25394250,25395127,878,878,2279.8,891.5,2249.0,1269.0,Animal_Land_Pattern_Small,21.338640625122935,27.350496999919415,4.0,Animal_Land_Pattern_Small,5.0,,,,,,,,,,,
encoding,value,20,25392043,25398055,25395325,25395925,601,601,2221.3,902.2,2249.0,1269.0,Animal_Land_Pattern_Small,21.338640625122935,27.350496999919415,4.0,Animal_Land_Pattern_Small,5.0,,,,,,,,,,,
encoding,value,20,25392043,25398055,25395938,25396361,424,424,2284.7,883.7,2249.0,1269.0,Animal_Land_Pattern_Small,21.338640625122935,27.350496999919415,4.0,Animal_Land_Pattern_Small,5.0,,,,,,,,,,,
encoding,value,20,25392043,25398055,25396380,25396570,191,191,2209.0,842.5999999999999,2249.0,1269.0,Animal_Land_Pattern_Small,21.338640625122935,27.350496999919415,4.0,Animal_Land_Pattern_Small,5.0,,,,,,,,,,,
encoding,value,20,25392043,25398055,25396582,25396781,200,200,2237.8,798.4000000000001,2249.0,1269.0,Animal_Land_Pattern_Small,21.338640625122935,27.350496999919415,4.0,Animal_Land_Pattern_Small,5.0,,,,,,,,,,,
encoding,value,20,25392043,25398055,25396961,25397182,222,222,2195.5,841.4000000000001,2249.0,1269.0,Animal_Land_Pattern_Small,21.338640625122935,27.350496999919415,4.0,Animal_Land_Pattern_Small,5.0,,,,,,,,,,,
encoding,value,20,25392043,25398055,25397192,25398700,1509,863,2252.6,817.7,2249.0,1269.0,Animal_Land_Pattern_Small,21.338640625122935,27.350496999919415,4.0,Animal_Land_Pattern_Small,5.0,,,,,,,,,,,
encoding,attention,20,25398055,25401072,25398712,25399262,551,551,2203.7,815.0999999999999,2249.0,1269.0,Animal_Land_Pattern_Small,27.35060708411038,30.36793079203926,4.0,Animal_Land_Pattern_Small,5.0,5.0,1.0,0.9660808751359582,,,,,,,,
encoding,attention,20,25398055,25401072,25399274,25399816,543,543,2284.2,818.2,2249.0,1269.0,Animal_Land_Pattern_Small,27.35060708411038,30.36793079203926,4.0,Animal_Land_Pattern_Small,5.0,5.0,1.0,0.9660808751359582,,,,,,,,
encoding,attention,20,25398055,25401072,25399831,25400117,287,287,2197.1,802.5999999999999,2249.0,1269.0,Animal_Land_Pattern_Small,27.35060708411038,30.36793079203926,4.0,Animal_Land_Pattern_Small,5.0,5.0,1.0,0.9660808751359582,,,,,,,,
encoding,attention,20,25398055,25401072,25400132,25400801,670,670,2277.4,817.9000000000001,2249.0,1269.0,Animal_Land_Pattern_Small,27.35060708411038,30.36793079203926,4.0,Animal_Land_Pattern_Small,5.0,5.0,1.0,0.9660808751359582,,,,,,,,
encoding,fixation,21,25401072,25402579,25401162,25401319,158,158,2278.3,793.2,2249.0,1269.0,Animal_Land_Pattern_Small,30.368083250010383,31.874075709143657,4.0,Animal_Sea_Solid_Small,-2.0,,,,,,,,,,,
encoding,fixation,21,25401072,25402579,25401347,25401636,290,290,2056.8,945.4000000000001,2249.0,1269.0,Animal_Land_Pattern_Small,30.368083250010383,31.874075709143657,4.0,Animal_Sea_Solid_Small,-2.0,,,,,,,,,,,
encoding,fixation,21,25401072,25402579,25401798,25402416,619,619,1931.6,969.4000000000001,1920.0,1460.0,Animal_Sea_Solid_Small,30.368083250010383,31.874075709143657,4.0,Animal_Sea_Solid_Small,-2.0,,,,,,,,,,,
encoding,fixation,21,25401072,25402579,25402437,25402674,238,142,1990.2,1071.4,2249.0,1269.0,Animal_Land_Pattern_Small,30.368083250010383,31.874075709143657,4.0,Animal_Sea_Solid_Small,-2.0,,,,,,,,,,,
encoding,image,21,25402579,25403590,25402685,25402789,105,105,1939.0,1093.4,1920.0,1080.0,fixation,31.87418362498283,32.885111833922565,4.0,Animal_Sea_Solid_Small,-2.0,,,,,,,,,,,
encoding,image,21,25402579,25403590,25402830,25403510,681,681,1909.4,672.0,1920.0,1460.0,Animal_Sea_Solid_Small,31.87418362498283,32.885111833922565,4.0,Animal_Sea_Solid_Small,-2.0,,,,,,,,,,,
encoding,value,21,25403590,25409602,25403677,25403879,203,203,1927.2,685.2,1920.0,1460.0,Animal_Sea_Solid_Small,32.88529045903124,38.89711037511006,4.0,Animal_Sea_Solid_Small,-2.0,,,,,,,,,,,
encoding,value,21,25403590,25409602,25403895,25404323,429,429,1890.5,597.9000000000001,1920.0,1460.0,Animal_Sea_Solid_Small,32.88529045903124,38.89711037511006,4.0,Animal_Sea_Solid_Small,-2.0,,,,,,,,,,,
encoding,value,21,25403590,25409602,25404500,25404723,224,224,1903.1,675.0999999999999,1920.0,1460.0,Animal_Sea_Solid_Small,32.88529045903124,38.89711037511006,4.0,Animal_Sea_Solid_Small,-2.0,,,,,,,,,,,
encoding,value,21,25403590,25409602,25404750,25404994,245,245,2152.7,823.0,2249.0,1269.0,Animal_Land_Pattern_Small,32.88529045903124,38.89711037511006,4.0,Animal_Sea_Solid_Small,-2.0,,,,,,,,,,,
encoding,value,21,25403590,25409602,25405019,25405235,217,217,2332.0,884.2,2249.0,1269.0,Animal_Land_Pattern_Small,32.88529045903124,38.89711037511006,4.0,Animal_Sea_Solid_Small,-2.0,,,,,,,,,,,
encoding,value,21,25403590,25409602,25405294,25405463,170,170,1855.3,741.3,1920.0,1460.0,Animal_Sea_Solid_Small,32.88529045903124,38.89711037511006,4.0,Animal_Sea_Solid_Small,-2.0,,,,,,,,,,,
encoding,value,21,25403590,25409602,25405483,25405830,348,348,1870.6,619.5,1920.0,1460.0,Animal_Sea_Solid_Small,32.88529045903124,38.89711037511006,4.0,Animal_Sea_Solid_Small,-2.0,,,,,,,,,,,
encoding,value,21,25403590,25409602,25405986,25406192,207,207,1857.8,596.0,1920.0,1460.0,Animal_Sea_Solid_Small,32.88529045903124,38.89711037511006,4.0,Animal_Sea_Solid_Small,-2.0,,,,,,,,,,,
encoding,value,21,25403590,25409602,25406207,25406788,582,582,1895.4,709.3,1920.0,1460.0,Animal_Sea_Solid_Small,32.88529045903124,38.89711037511006,4.0,Animal_Sea_Solid_Small,-2.0,,,,,,,,,,,
encoding,value,21,25403590,25409602,25406799,25407918,1120,1120,1881.7,617.0,1920.0,1460.0,Animal_Sea_Solid_Small,32.88529045903124,38.89711037511006,4.0,Animal_Sea_Solid_Small,-2.0,,,,,,,,,,,
encoding,value,21,25403590,25409602,25408056,25409862,1807,1546,1895.1,622.3,1920.0,1460.0,Animal_Sea_Solid_Small,32.88529045903124,38.89711037511006,4.0,Animal_Sea_Solid_Small,-2.0,,,,,,,,,,,
encoding,attention,21,25409602,25412619,25409872,25410185,314,314,1968.6,626.3,1920.0,1460.0,Animal_Sea_Solid_Small,38.89722962514497,41.91399829206057,4.0,Animal_Sea_Solid_Small,-2.0,-2.0,1.0,0.8051221249625087,,,,,,,,
encoding,attention,21,25409602,25412619,25410194,25410649,456,456,1966.1,632.9000000000001,1920.0,1460.0,Animal_Sea_Solid_Small,38.89722962514497,41.91399829206057,4.0,Animal_Sea_Solid_Small,-2.0,-2.0,1.0,0.8051221249625087,,,,,,,,
encoding,attention,21,25409602,25412619,25410814,25411198,385,385,2048.8,775.8,1920.0,1460.0,Animal_Sea_Solid_Small,38.89722962514497,41.91399829206057,4.0,Animal_Sea_Solid_Small,-2.0,-2.0,1.0,0.8051221249625087,,,,,,,,
encoding,attention,21,25409602,25412619,25411222,25411448,227,227,1863.9,704.8,1920.0,1460.0,Animal_Sea_Solid_Small,38.89722962514497,41.91399829206057,4.0,Animal_Sea_Solid_Small,-2.0,-2.0,1.0,0.8051221249625087,,,,,,,,
encoding,attention,21,25409602,25412619,25411463,25412329,867,867,1935.9,680.2,1920.0,1460.0,Animal_Sea_Solid_Small,38.89722962514497,41.91399829206057,4.0,Animal_Sea_Solid_Small,-2.0,-2.0,1.0,0.8051221249625087,,,,,,,,
encoding,attention,21,25409602,25412619,25412346,25412573,228,228,1957.1,613.3,1920.0,1460.0,Animal_Sea_Solid_Small,38.89722962514497,41.91399829206057,4.0,Animal_Sea_Solid_Small,-2.0,-2.0,1.0,0.8051221249625087,,,,,,,,
encoding,fixation,22,25412619,25413874,25412870,25413198,329,329,1940.3,969.5999999999999,1920.0,1460.0,Animal_Sea_Solid_Small,41.914158541942015,43.16935016703792,4.0,Object_Land_Pattern_Large,-4.0,,,,,,,,,,,
encoding,fixation,22,25412619,25413874,25413211,25414035,825,663,1944.8,1018.8,1920.0,1080.0,fixation,41.914158541942015,43.16935016703792,4.0,Object_Land_Pattern_Large,-4.0,,,,,,,,,,,
encoding,image,22,25413874,25414886,25414067,25414995,929,819,2259.3,1209.8,2249.0,891.0,Object_Land_Pattern_Large,43.1694587089587,44.18058354198001,4.0,Object_Land_Pattern_Large,-4.0,,,,,,,,,,,
encoding,value,22,25414886,25420902,25415130,25415544,415,415,2261.3,1138.7,2249.0,891.0,Object_Land_Pattern_Large,44.180699709104374,50.19674724992365,4.0,Object_Land_Pattern_Large,-4.0,,,,,,,,,,,
encoding,value,22,25414886,25420902,25415734,25416350,617,617,2241.9,1211.8,2249.0,891.0,Object_Land_Pattern_Large,44.180699709104374,50.19674724992365,4.0,Object_Land_Pattern_Large,-4.0,,,,,,,,,,,
encoding,value,22,25414886,25420902,25416377,25416589,213,213,2025.0,1308.1,1920.0,700.0,Object_Sea_Solid_Large,44.180699709104374,50.19674724992365,4.0,Object_Land_Pattern_Large,-4.0,,,,,,,,,,,
encoding,value,22,25414886,25420902,25416609,25416747,139,139,1835.3,1318.0,1920.0,700.0,Object_Sea_Solid_Large,44.180699709104374,50.19674724992365,4.0,Object_Land_Pattern_Large,-4.0,,,,,,,,,,,
encoding,value,22,25414886,25420902,25416784,25417090,307,307,2261.3,1179.3,2249.0,891.0,Object_Land_Pattern_Large,44.180699709104374,50.19674724992365,4.0,Object_Land_Pattern_Large,-4.0,,,,,,,,,,,
encoding,value,22,25414886,25420902,25417287,25417820,534,534,2233.1,1168.4,2249.0,891.0,Object_Land_Pattern_Large,44.180699709104374,50.19674724992365,4.0,Object_Land_Pattern_Large,-4.0,,,,,,,,,,,
encoding,value,22,25414886,25420902,25417841,25418005,165,165,2114.5,1141.1,2249.0,891.0,Object_Land_Pattern_Large,44.180699709104374,50.19674724992365,4.0,Object_Land_Pattern_Large,-4.0,,,,,,,,,,,
encoding,value,22,25414886,25420902,25418024,25419887,1864,1864,2242.0,1150.5,2249.0,891.0,Object_Land_Pattern_Large,44.180699709104374,50.19674724992365,4.0,Object_Land_Pattern_Large,-4.0,,,,,,,,,,,
encoding,value,22,25414886,25420902,25420048,25421170,1123,854,2244.2,1140.4,2249.0,891.0,Object_Land_Pattern_Large,44.180699709104374,50.19674724992365,4.0,Object_Land_Pattern_Large,-4.0,,,,,,,,,,,
encoding,attention,22,25420902,25423921,25421181,25421461,281,281,2300.9,1135.7,2249.0,891.0,Object_Land_Pattern_Large,50.196886209072545,53.21530837495811,4.0,Object_Land_Pattern_Large,-4.0,-4.0,1.0,1.0019809170626104,,,,,,,,
encoding,attention,22,25420902,25423921,25421479,25422162,684,684,2264.6,1214.3,2249.0,891.0,Object_Land_Pattern_Large,50.196886209072545,53.21530837495811,4.0,Object_Land_Pattern_Large,-4.0,-4.0,1.0,1.0019809170626104,,,,,,,,
encoding,attention,22,25420902,25423921,25422297,25422503,207,207,2284.2,1224.3,2249.0,891.0,Object_Land_Pattern_Large,50.196886209072545,53.21530837495811,4.0,Object_Land_Pattern_Large,-4.0,-4.0,1.0,1.0019809170626104,,,,,,,,
encoding,attention,22,25420902,25423921,25422512,25422956,445,445,2242.1,1227.2,2249.0,891.0,Object_Land_Pattern_Large,50.196886209072545,53.21530837495811,4.0,Object_Land_Pattern_Large,-4.0,-4.0,1.0,1.0019809170626104,,,,,,,,
encoding,attention,22,25420902,25423921,25423118,25423619,502,502,2294.2,1164.2,2249.0,891.0,Object_Land_Pattern_Large,50.196886209072545,53.21530837495811,4.0,Object_Land_Pattern_Large,-4.0,-4.0,1.0,1.0019809170626104,,,,,,,,
encoding,attention,22,25420902,25423921,25423636,25423840,205,205,2152.6,1120.3,2249.0,891.0,Object_Land_Pattern_Large,50.196886209072545,53.21530837495811,4.0,Object_Land_Pattern_Large,-4.0,-4.0,1.0,1.0019809170626104,,,,,,,,
encoding,fixation,23,25423921,25424677,25424160,25424304,145,145,1933.1,1069.7,1920.0,1080.0,fixation,53.215571084059775,53.97170854196884,4.0,Animal_Sea_Solid_Large,-1.0,,,,,,,,,,,
encoding,fixation,23,25423921,25424677,25424476,25424691,216,201,1770.2,1164.5,1591.0,891.0,Object_Land_Pattern_Small,53.215571084059775,53.97170854196884,4.0,Animal_Sea_Solid_Large,-1.0,,,,,,,,,,,
encoding,image,23,25424677,25425688,25424712,25424867,156,156,1927.3,1093.8,1920.0,1080.0,fixation,53.97182908398099,54.98303491692059,4.0,Animal_Sea_Solid_Large,-1.0,,,,,,,,,,,
encoding,image,23,25424677,25425688,25424902,25425757,856,786,1620.2,885.5999999999999,1591.0,1269.0,Animal_Sea_Solid_Large,53.97182908398099,54.98303491692059,4.0,Animal_Sea_Solid_Large,-1.0,,,,,,,,,,,
encoding,value,23,25425688,25431703,25425773,25425898,126,126,1622.1,788.3,1591.0,1269.0,Animal_Sea_Solid_Large,54.98316454212181,60.997459792066365,4.0,Animal_Sea_Solid_Large,-1.0,,,,,,,,,,,
encoding,value,23,25425688,25431703,25425911,25426091,181,181,1600.3,727.9000000000001,1591.0,1269.0,Animal_Sea_Solid_Large,54.98316454212181,60.997459792066365,4.0,Animal_Sea_Solid_Large,-1.0,,,,,,,,,,,
encoding,value,23,25425688,25431703,25426099,25426227,129,129,1585.3,762.8,1591.0,1269.0,Animal_Sea_Solid_Large,54.98316454212181,60.997459792066365,4.0,Animal_Sea_Solid_Large,-1.0,,,,,,,,,,,
encoding,value,23,25425688,25431703,25426413,25426556,144,144,1589.0,864.7,1591.0,1269.0,Animal_Sea_Solid_Large,54.98316454212181,60.997459792066365,4.0,Animal_Sea_Solid_Large,-1.0,,,,,,,,,,,
encoding,value,23,25425688,25431703,25426599,25426906,308,308,2120.4,1143.3,2249.0,891.0,Object_Land_Pattern_Large,54.98316454212181,60.997459792066365,4.0,Animal_Sea_Solid_Large,-1.0,,,,,,,,,,,
encoding,value,23,25425688,25431703,25426961,25427171,211,211,1653.3,901.8,1591.0,1269.0,Animal_Sea_Solid_Large,54.98316454212181,60.997459792066365,4.0,Animal_Sea_Solid_Large,-1.0,,,,,,,,,,,
encoding,value,23,25425688,25431703,25427193,25427460,268,268,1588.1,787.9000000000001,1591.0,1269.0,Animal_Sea_Solid_Large,54.98316454212181,60.997459792066365,4.0,Animal_Sea_Solid_Large,-1.0,,,,,,,,,,,
encoding,value,23,25425688,25431703,25427616,25427795,180,180,1568.6,767.4000000000001,1591.0,1269.0,Animal_Sea_Solid_Large,54.98316454212181,60.997459792066365,4.0,Animal_Sea_Solid_Large,-1.0,,,,,,,,,,,
encoding,value,23,25425688,25431703,25427815,25428096,282,282,1589.6,904.0999999999999,1591.0,1269.0,Animal_Sea_Solid_Large,54.98316454212181,60.997459792066365,4.0,Animal_Sea_Solid_Large,-1.0,,,,,,,,,,,
encoding,value,23,25425688,25431703,25428116,25428348,233,233,1613.8,770.5,1591.0,1269.0,Animal_Sea_Solid_Large,54.98316454212181,60.997459792066365,4.0,Animal_Sea_Solid_Large,-1.0,,,,,,,,,,,
encoding,value,23,25425688,25431703,25428369,25428710,342,342,1607.0,874.7,1591.0,1269.0,Animal_Sea_Solid_Large,54.98316454212181,60.997459792066365,4.0,Animal_Sea_Solid_Large,-1.0,,,,,,,,,,,
encoding,value,23,25425688,25431703,25428736,25428804,69,69,1854.7,869.8,1920.0,1460.0,Animal_Sea_Solid_Small,54.98316454212181,60.997459792066365,4.0,Animal_Sea_Solid_Large,-1.0,,,,,,,,,,,
encoding,value,23,25425688,25431703,25428831,25429123,293,293,2215.0,885.4000000000001,2249.0,1269.0,Animal_Land_Pattern_Small,54.98316454212181,60.997459792066365,4.0,Animal_Sea_Solid_Large,-1.0,,,,,,,,,,,
encoding,value,23,25425688,25431703,25429167,25429311,145,145,1669.6,759.7,1591.0,1269.0,Animal_Sea_Solid_Large,54.98316454212181,60.997459792066365,4.0,Animal_Sea_Solid_Large,-1.0,,,,,,,,,,,
encoding,value,23,25425688,25431703,25429327,25430004,678,678,1592.3,767.9000000000001,1591.0,1269.0,Animal_Sea_Solid_Large,54.98316454212181,60.997459792066365,4.0,Animal_Sea_Solid_Large,-1.0,,,,,,,,,,,
encoding,value,23,25425688,25431703,25430170,25430464,295,295,1598.9,785.0,1591.0,1269.0,Animal_Sea_Solid_Large,54.98316454212181,60.997459792066365,4.0,Animal_Sea_Solid_Large,-1.0,,,,,,,,,,,
encoding,value,23,25425688,25431703,25430480,25430758,279,279,1614.8,892.3,1591.0,1269.0,Animal_Sea_Solid_Large,54.98316454212181,60.997459792066365,4.0,Animal_Sea_Solid_Large,-1.0,,,,,,,,,,,
encoding,value,23,25425688,25431703,25430783,25430965,183,183,1597.9,743.0,1591.0,1269.0,Animal_Sea_Solid_Large,54.98316454212181,60.997459792066365,4.0,Animal_Sea_Solid_Large,-1.0,,,,,,,,,,,
encoding,value,23,25425688,25431703,25430973,25431163,191,191,1609.1,788.7,1591.0,1269.0,Animal_Sea_Solid_Large,54.98316454212181,60.997459792066365,4.0,Animal_Sea_Solid_Large,-1.0,,,,,,,,,,,
