phase,event,onset,offset,trial_number,game,image,outcome,choice,correct,rt,letter,match,response,option,true_value,true_position,recalled_position,
encoding,fixation,12.172832875046879,13.43416937510483,1,1,Object_Sea_Solid_Large,1,,,,,,,,,,,
encoding,image,13.43427337508183,14.450629124999978,1,1,Object_Sea_Solid_Large,1,,,,,,,,,,,
encoding,value,14.450741083011962,20.465888083097525,1,1,Object_Sea_Solid_Large,1,,,,,,,,,,,
encoding,attention,20.466009750030935,23.484283958096057,1,1,Object_Sea_Solid_Large,1,+1,1,1.2280340410070494,,,,,,,,
encoding,fixation,23.48445533309132,24.48955012508668,2,1,Animal_Sea_Solid_Large,-9,,,,,,,,,,,
encoding,image,24.489658333011903,25.500757916015573,2,1,Animal_Sea_Solid_Large,-9,,,,,,,,,,,
encoding,value,25.500886583002284,31.51342787500471,2,1,Animal_Sea_Solid_Large,-9,,,,,,,,,,,
encoding,attention,31.513535083038732,34.5313177080825,2,1,Animal_Sea_Solid_Large,-9,-9,1,0.9583444170420989,,,,,,,,
encoding,fixation,34.531470375019126,36.03648541599978,3,1,Object_Sea_Pattern_Large,2,,,,,,,,,,,
encoding,image,36.036608750000596,37.049888125038706,3,1,Object_Sea_Pattern_Large,2,,,,,,,,,,,
encoding,value,37.0500155830523,43.06180716608651,3,1,Object_Sea_Pattern_Large,2,,,,,,,,,,,
encoding,attention,43.06191262509674,46.07906666607596,3,1,Object_Sea_Pattern_Large,2,+2,1,0.8599926250753924,,,,,,,,
encoding,fixation,46.079246832989156,46.834312083083205,4,1,Object_Land_Pattern_Small,-2,,,,,,,,,,,
encoding,image,46.83443862502463,47.84593529102858,4,1,Object_Land_Pattern_Small,-2,,,,,,,,,,,
encoding,value,47.846066041034646,53.85742516606115,4,1,Object_Land_Pattern_Small,-2,,,,,,,,,,,
encoding,attention,53.857549208099954,56.874352500075474,4,1,Object_Land_Pattern_Small,-2,-2,1,1.478427957976237,,,,,,,,
encoding,fixation,56.8744897081051,58.380275166011415,5,1,Animal_Land_Pattern_Small,-2,,,,,,,,,,,
encoding,image,58.3803747080965,59.39150966599118,5,1,Animal_Land_Pattern_Small,-2,,,,,,,,,,,
encoding,value,59.39162183308508,65.40314295806456,5,1,Animal_Land_Pattern_Small,-2,,,,,,,,,,,
encoding,attention,65.40325437509455,68.455835333094,5,1,Animal_Land_Pattern_Small,-2,-2,1,1.4887412920361385,,,,,,,,
encoding,fixation,68.45597887504846,69.7112182910787,6,1,Animal_Land_Solid_Small,9,,,,,,,,,,,
encoding,image,69.71133225003723,70.72196687501855,6,1,Animal_Land_Solid_Small,9,,,,,,,,,,,
encoding,value,70.72208608302753,76.73313183302525,6,1,Animal_Land_Solid_Small,9,,,,,,,,,,,
encoding,attention,76.73326095798984,79.7510559160728,6,1,Animal_Land_Solid_Small,9,+9,1,0.8412261250196025,,,,,,,,
n-back,,,,1,1,,,,1,None,V,False,None,,,,,
n-back,,,,2,1,,,,0,None,C,True,None,,,,,
n-back,,,,3,1,,,,1,None,X,False,None,,,,,
n-back,,,,4,1,,,,1,None,N,False,None,,,,,
n-back,,,,5,1,,,,1,None,V,False,None,,,,,
n-back,,,,6,1,,,,1,None,B,False,None,,,,,
n-back,,,,7,1,,,,1,None,C,False,None,,,,,
n-back,,,,8,1,,,,1,None,Z,False,None,,,,,
n-back,,,,9,1,,,,1,None,B,False,None,,,,,
n-back,,,,10,1,,,,1,None,B,False,None,,,,,
n-back,,,,11,1,,,,1,None,Z,False,None,,,,,
n-back,,,,12,1,,,,1,None,V,False,None,,,,,
n-back,,,,13,1,,,,0,None,Z,True,None,,,,,
n-back,,,,14,1,,,,1,None,N,False,None,,,,,
n-back,,,,15,1,,,,0,None,Z,True,None,,,,,
n-back,,,,16,1,,,,1,None,V,False,None,,,,,
n-back,,,,17,1,,,,0,None,Z,True,None,,,,,
n-back,,,,18,1,,,,0,None,V,True,None,,,,,
n-back,,,,19,1,,,,1,None,B,False,None,,,,,
n-back,,,,20,1,,,,0,None,V,True,None,,,,,
n-back,,,,21,1,,,,1,None,V,False,None,,,,,
n-back,,,,22,1,,,,1,None,X,False,None,,,,,
n-back,,,,23,1,,,,0,None,V,True,None,,,,,
n-back,,,,24,1,,,,0,None,X,True,None,,,,,
n-back,,,,25,1,,,,1,None,C,False,None,,,,,
n-back,,,,26,1,,,,0,None,X,True,None,,,,,
n-back,,,,27,1,,,,1,None,Z,False,None,,,,,
n-back,,,,28,1,,,,1,None,V,False,None,,,,,
n-back,,,,29,1,,,,1,None,X,False,None,,,,,
n-back,,,,30,1,,,,0,None,V,True,None,,,,,
choice,fixation,206.6838948330842,207.93913845799398,1,1,,,,,,,,,Animal,,,,
choice,option,207.94907925010193,209.06243629101664,1,1,,,,,,,,,Animal,,,,
choice,choice,209.06255508307368,212.90563074999955,1,1,,,1,0,2.8335240409942344,,,,Animal,,,,
choice,fixation,212.90578212507535,214.41067270806525,2,1,,,,,,,,,Solid,,,,
choice,option,214.42008233303204,215.44968050008174,2,1,,,,,,,,,Solid,,,,
choice,choice,215.44980987499002,217.08763591607567,2,1,,,1,1,0.6281142910011113,,,,Solid,,,,
choice,fixation,217.08775750000495,217.8428853750229,3,1,,,,,,,,,Object,,,,
choice,option,217.85239633300807,218.87898254103493,3,1,,,,,,,,,Object,,,,
choice,choice,218.87911050010007,227.3463763750624,3,1,,,1,1,7.456064291996881,,,,Object,,,,
choice,fixation,227.34657779103145,228.60178679099772,4,1,,,,,,,,,Small,,,,
choice,option,228.61034637503326,229.63718908303417,4,1,,,,,,,,,Small,,,,
choice,choice,229.63729587499984,230.87207495805342,4,1,,,1,1,0.2255763750290498,,,,Small,,,,
choice,fixation,230.87220325006638,231.87762650009245,5,1,,,,,,,,,Sea,,,,
choice,option,231.88616433308925,232.91363650001585,5,1,,,,,,,,,Sea,,,,
choice,choice,232.9137706659967,234.3522023750702,5,1,,,2,1,0.4287027909886092,,,,Sea,,,,
choice,fixation,234.3523543330375,235.60742229106836,6,1,,,,,,,,,Large,,,,
choice,option,235.6164455000544,236.6434673750773,6,1,,,,,,,,,Large,,,,
choice,choice,236.64358262508176,237.94426079106051,6,1,,,2,1,0.2897909169550985,,,,Large,,,,
choice,fixation,237.94441154110245,238.69940804108046,7,1,,,,,,,,,Pattern,,,,
choice,option,238.70856608299073,239.73579450009856,7,1,,,,,,,,,Pattern,,,,
choice,choice,239.73595904104877,240.8791688750498,7,1,,,2,1,0.1340597920352593,,,,Pattern,,,,
choice,fixation,240.87929337506648,241.38329804106615,8,1,,,,,,,,,Land,,,,
choice,option,241.39221975009423,242.41253420803696,8,1,,,,,,,,,Land,,,,
choice,choice,242.41264779109042,245.44058916601352,8,1,,,1,1,2.01708808389958,,,,Land,,,,
memory,free_recall,305.7531015831046,327.8746700830525,0,1,,,,,,,,,,,,,
memory,value_recall,371.6172221660381,374.80224066600204,1,1,Animal_Land_Solid_Small,,,,3.181201416067779,,,,,9,,,
memory,value_recall,376.59939233306795,379.05735658307094,2,1,Animal_Land_Pattern_Small,,,,2.453705499996431,,,,,-2,,,
memory,value_recall,380.8541296250187,385.195313375094,3,1,Object_Sea_Solid_Large,,,,4.3370157920289785,,,,,1,,,
memory,value_recall,386.741985083092,389.1337944160914,4,1,Animal_Sea_Solid_Large,,,,2.385183500009589,,,,,-9,,,
memory,value_recall,390.4291533330688,393.6104827080853,5,1,Object_Land_Pattern_Small,,,,3.1772571250330657,,,,,-2,,,
memory,value_recall,395.65862112503964,399.5147971659899,6,1,Object_Sea_Pattern_Large,,,,3.849227875005454,,,,,2,,,
memory,spatial_recall,421.36742845806293,426.46957916603424,6,1,Object_Sea_Solid_Large,,,1,5.0983360829995945,,,,,,"[0, 380]","[0, 380]",
memory,spatial_recall,428.2764361660229,430.8696770410752,6,1,Animal_Sea_Solid_Large,,,1,2.586639582994394,,,,,,"[329, 189]","[329, 189]",
memory,spatial_recall,432.42612633307,434.5340247080894,6,1,Object_Land_Pattern_Small,,,1,2.102215416962281,,,,,,"[-329, -190]","[-329, -190]",
memory,spatial_recall,435.58827649999876,438.3584300830262,6,1,Animal_Land_Solid_Small,,,1,2.7676616249373183,,,,,,"[0, -380]","[0, -380]",
memory,spatial_recall,439.4176531659905,441.48603366606403,6,1,Object_Sea_Pattern_Large,,,1,2.0656340839341283,,,,,,"[-329, 190]","[-329, 190]",
memory,spatial_recall,443.04140366602223,445.2229493330233,6,1,Animal_Land_Pattern_Small,,,1,2.177585583063774,,,,,,"[329, -190]","[329, -190]",
encoding,fixation,6.468720958917402,7.974213166977279,7,2,Object_Land_Pattern_Large,-1,,,,,,,,,,,
encoding,image,7.974321333924308,8.986511041992344,7,2,Object_Land_Pattern_Large,-1,,,,,,,,,,,
encoding,value,8.986717666964978,15.000465999939479,7,2,Object_Land_Pattern_Large,-1,,,,,,,,,,,
encoding,attention,15.000593666918576,18.01871370896697,7,2,Object_Land_Pattern_Large,-1,-1,1,0.702524209045805,,,,,,,,
encoding,fixation,18.018863749923185,19.02533004200086,8,2,Object_Sea_Pattern_Large,8,,,,,,,,,,,
encoding,image,19.02543270890601,20.036576416925527,8,2,Object_Sea_Pattern_Large,8,,,,,,,,,,,
encoding,value,20.036698833922856,26.049126833910123,8,2,Object_Sea_Pattern_Large,8,,,,,,,,,,,
encoding,attention,26.04926729190629,29.066405333927833,8,2,Object_Sea_Pattern_Large,8,+8,1,0.7275607920018956,,,,,,,,
encoding,fixation,29.06656595901586,30.071551458910108,9,2,Object_Land_Solid_Small,5,,,,,,,,,,,
encoding,image,30.0716692089336,31.08248995896429,9,2,Object_Land_Solid_Small,5,,,,,,,,,,,
encoding,value,31.082612708909437,37.09737366694026,9,2,Object_Land_Solid_Small,5,,,,,,,,,,,
encoding,attention,37.09751274995506,40.118534624925815,9,2,Object_Land_Solid_Small,5,+5,1,0.95631462498568,,,,,,,,
encoding,fixation,40.118723209016025,40.62436583393719,10,2,Animal_Sea_Solid_Small,-3,,,,,,,,,,,
encoding,image,40.62447237491142,41.63543899997603,10,2,Animal_Sea_Solid_Small,-3,,,,,,,,,,,
encoding,value,41.635580500005744,47.64749054191634,10,2,Animal_Sea_Solid_Small,-3,,,,,,,,,,,
encoding,attention,47.64761412492953,50.66526520892512,10,2,Animal_Sea_Solid_Small,-3,-3,1,1.5763375000096858,,,,,,,,
encoding,fixation,50.665412041940726,52.17043800000101,11,2,Animal_Sea_Pattern_Small,-3,,,,,,,,,,,
encoding,image,52.170556791941635,53.18165904202033,11,2,Animal_Sea_Pattern_Small,-3,,,,,,,,,,,
encoding,value,53.18181641690899,59.19325883395504,11,2,Animal_Sea_Pattern_Small,-3,,,,,,,,,,,
encoding,attention,59.19345679192338,62.210577166988514,11,2,Animal_Sea_Pattern_Small,-3,-3,1,0.8217511249240488,,,,,,,,
encoding,fixation,62.210744875017554,63.465825084014796,12,2,Animal_Land_Solid_Large,4,,,,,,,,,,,
encoding,image,63.465926666976884,64.48081008391455,12,2,Animal_Land_Solid_Large,4,,,,,,,,,,,
encoding,value,64.48091383394785,70.4935587500222,12,2,Animal_Land_Solid_Large,4,,,,,,,,,,,
encoding,attention,70.49369066697545,73.51112216699403,12,2,Animal_Land_Solid_Large,4,+4,1,0.8182144580641761,,,,,,,,
n-back,,,,31,2,,,,1,None,X,False,None,,,,,
n-back,,,,32,2,,,,0,None,N,True,None,,,,,
n-back,,,,33,2,,,,1,None,N,False,None,,,,,
n-back,,,,34,2,,,,1,None,V,False,None,,,,,
n-back,,,,35,2,,,,1,None,V,False,None,,,,,
n-back,,,,36,2,,,,1,None,B,False,None,,,,,
n-back,,,,37,2,,,,1,0.7813471249537542,V,True,1,,,,,
n-back,,,,38,2,,,,1,1.4523995410418138,B,True,1,,,,,
n-back,,,,39,2,,,,1,None,N,False,None,,,,,
n-back,,,,40,2,,,,1,0.47838541597593576,B,True,1,,,,,
n-back,,,,41,2,,,,1,0.9480931250145659,N,True,1,,,,,
n-back,,,,42,2,,,,1,None,Z,False,None,,,,,
n-back,,,,43,2,,,,1,0.4936369589995593,N,True,1,,,,,
n-back,,,,44,2,,,,1,None,V,False,None,,,,,
n-back,,,,45,2,,,,1,None,C,False,None,,,,,
n-back,,,,46,2,,,,1,None,Z,False,None,,,,,
n-back,,,,47,2,,,,1,None,V,False,None,,,,,
n-back,,,,48,2,,,,1,None,X,False,None,,,,,
n-back,,,,49,2,,,,1,0.5513615000527352,V,True,1,,,,,
n-back,,,,50,2,,,,1,0.8046855831053108,X,True,1,,,,,
n-back,,,,51,2,,,,1,None,X,False,None,,,,,
n-back,,,,52,2,,,,1,0.5513552500633523,X,True,1,,,,,
n-back,,,,53,2,,,,1,None,C,False,None,,,,,
n-back,,,,54,2,,,,1,None,B,False,None,,,,,
n-back,,,,55,2,,,,1,None,N,False,None,,,,,
n-back,,,,56,2,,,,1,None,C,False,None,,,,,
n-back,,,,57,2,,,,1,None,X,False,None,,,,,
n-back,,,,58,2,,,,1,0.4304725839756429,C,True,1,,,,,
n-back,,,,59,2,,,,1,None,N,False,None,,,,,
n-back,,,,60,2,,,,1,None,V,False,None,,,,,
choice,fixation,149.81774491700344,151.07111000001896,9,2,,,,,,,,,Solid,,,,
choice,option,151.08022362494376,152.1073180839885,9,2,,,,,,,,,Solid,,,,
choice,choice,152.10749204200692,156.82577179197688,9,2,,,1,1,3.706560832913965,,,,Solid,,,,
choice,fixation,156.8258937089704,157.58100499992725,10,2,,,,,,,,,Object,,,,
choice,option,157.59038262499962,158.61722670891322,10,2,,,,,,,,,Object,,,,
choice,choice,158.6173352089245,161.6505823750049,10,2,,,1,1,2.0237249169731513,,,,Object,,,,
choice,fixation,161.6507258749334,163.1557938749902,11,2,,,,,,,,,Small,,,,
choice,option,163.16488033393398,164.1902712089941,11,2,,,,,,,,,Small,,,,
choice,choice,164.19037641701289,165.72107054200023,11,2,,,2,1,0.5183191660325974,,,,Small,,,,
choice,fixation,165.72121962497476,167.22642245900352,12,2,,,,,,,,,Large,,,,
choice,option,167.23510108399205,168.26131808396894,12,2,,,,,,,,,Large,,,,
choice,choice,168.2614236669615,169.72308391693514,12,2,,,1,1,0.45176874997559935,,,,Large,,,,
choice,fixation,169.72321774996817,170.9802387499949,13,2,,,,,,,,,Pattern,,,,
choice,option,170.98975049995352,172.01602891692892,13,2,,,,,,,,,Pattern,,,,
choice,choice,172.01615329191554,175.16308199998457,13,2,,,1,1,2.135697999969125,,,,Pattern,,,,
choice,fixation,175.163228083984,176.4180618749233,14,2,,,,,,,,,Sea,,,,
choice,option,176.42628854198847,177.45236379199196,14,2,,,,,,,,,Sea,,,,
choice,choice,177.45248962496407,181.2341996670002,14,2,,,2,0,2.771725958096795,,,,Sea,,,,
choice,fixation,181.2343275420135,182.7393814169336,15,2,,,,,,,,,Land,,,,
choice,option,182.74814254196826,183.7738520419225,15,2,,,,,,,,,Land,,,,
choice,choice,183.7739942499902,187.019291042001,15,2,,,1,1,2.234942250070162,,,,Land,,,,
choice,fixation,187.0194114589831,188.2748141249176,16,2,,,,,,,,,Animal,,,,
choice,option,188.28431395895313,189.3134132499108,16,2,,,,,,,,,Animal,,,,
choice,choice,189.31353729194961,192.37749254191294,16,2,,,1,0,2.05441516591236,,,,Animal,,,,
memory,free_recall,210.76408266695216,228.94061670894735,6,2,,,,,,,,,,,,,
memory,value_recall,241.99675183393992,246.4776655419264,7,2,Object_Land_Pattern_Large,,,,4.476627791998908,,,,,-1,,,
memory,value_recall,248.52398249995895,251.51571850001346,8,2,Animal_Land_Solid_Large,,,,2.9869033750146627,,,,,4,,,
memory,value_recall,252.8133561249124,254.93307695898693,9,2,Object_Sea_Pattern_Large,,,,2.115682875039056,,,,,8,,,
memory,value_recall,255.98079695901833,257.54710049997084,10,2,Object_Land_Solid_Small,,,,1.5631622079527006,,,,,5,,,
memory,value_recall,258.84208670898806,260.47814566700254,11,2,Animal_Sea_Solid_Small,,,,1.6319836659822613,,,,,-3,,,
memory,value_recall,262.27409154199995,265.2446441670181,12,2,Animal_Sea_Pattern_Small,,,,2.96622654190287,,,,,-3,,,
memory,spatial_recall,269.53238458395936,271.8364354999503,12,2,Animal_Sea_Solid_Small,,,1,2.299848457914777,,,,,,"[0, -380]","[0, -380]",
memory,spatial_recall,273.9043553340016,275.4173689169111,12,2,Animal_Sea_Pattern_Small,,,1,1.5093212499050424,,,,,,"[329, 189]","[329, 189]",
memory,spatial_recall,276.9760659589665,278.4867229589727,12,2,Object_Land_Pattern_Large,,,1,1.5066375840688124,,,,,,"[-329, -190]","[-329, -190]",
memory,spatial_recall,280.049166208948,281.6057406249456,12,2,Object_Sea_Pattern_Large,,,1,1.5526653750566766,,,,,,"[-329, 190]","[-329, 190]",
memory,spatial_recall,282.66305337497033,284.03741925000213,12,2,Object_Land_Solid_Small,,,1,1.371876290999353,,,,,,"[329, -190]","[329, -190]",
memory,spatial_recall,285.85116162500344,287.7881695419783,12,2,Animal_Land_Solid_Large,,,1,1.9327592079062015,,,,,,"[0, 380]","[0, 380]",
encoding,fixation,3.731467584031634,4.23686575004831,13,3,Object_Sea_Pattern_Small,8,,,,,,,,,,,
encoding,image,4.236986875068396,5.248049666988663,13,3,Object_Sea_Pattern_Small,8,,,,,,,,,,,
encoding,value,5.2481583340559155,11.262589334044605,13,3,Object_Sea_Pattern_Small,8,,,,,,,,,,,
encoding,attention,11.262708374997601,14.279660459025763,13,3,Object_Sea_Pattern_Small,8,+8,1,0.5436871249694377,,,,,,,,
encoding,fixation,14.27981754206121,15.785135084064677,14,3,Animal_Land_Solid_Large,9,,,,,,,,,,,
encoding,image,15.785255959024653,16.79645124997478,14,3,Animal_Land_Solid_Large,9,,,,,,,,,,,
encoding,value,16.796582209062763,22.808870084001683,14,3,Animal_Land_Solid_Large,9,,,,,,,,,,,
encoding,attention,22.80899087502621,25.82728029205464,14,3,Animal_Land_Solid_Large,9,+9,1,0.5747843750286847,,,,,,,,
encoding,fixation,25.827447541989386,26.33275429205969,15,3,Object_Land_Pattern_Large,-5,,,,,,,,,,,
encoding,image,26.33291370898951,27.346727667027153,15,3,Object_Land_Pattern_Large,-5,,,,,,,,,,,
encoding,value,27.34684220899362,33.359798458986916,15,3,Object_Land_Pattern_Large,-5,,,,,,,,,,,
encoding,attention,33.35991829202976,36.377615125034936,15,3,Object_Land_Pattern_Large,-5,-5,1,0.7732619160087779,,,,,,,,
encoding,fixation,36.37777258397546,37.88315512507688,16,3,Animal_Land_Pattern_Small,-2,,,,,,,,,,,
encoding,image,37.88326912501361,38.89589333406184,16,3,Animal_Land_Pattern_Small,-2,,,,,,,,,,,
encoding,value,38.89602866698988,44.90774391696323,16,3,Animal_Land_Pattern_Small,-2,,,,,,,,,,,
encoding,attention,44.907890583970584,47.92500308400486,16,3,Animal_Land_Pattern_Small,-2,-2,1,0.7087871249532327,,,,,,,,
encoding,fixation,47.92518412496429,48.43043241696432,17,3,Animal_Sea_Solid_Large,-9,,,,,,,,,,,
encoding,image,48.43057862506248,49.4419762090547,17,3,Animal_Sea_Solid_Large,-9,,,,,,,,,,,
encoding,value,49.44208525004797,55.453175834030844,17,3,Animal_Sea_Solid_Large,-9,,,,,,,,,,,
encoding,attention,55.45331833406817,58.470014209044166,17,3,Animal_Sea_Solid_Large,-9,-9,1,0.9224359579384327,,,,,,,,
encoding,fixation,58.470176959061064,59.225696166977286,18,3,Object_Sea_Solid_Small,-8,,,,,,,,,,,
encoding,image,59.22580845898483,60.235835875035264,18,3,Object_Sea_Solid_Small,-8,,,,,,,,,,,
encoding,value,60.23594612500165,66.24640791700222,18,3,Object_Sea_Solid_Small,-8,,,,,,,,,,,
encoding,attention,66.2465273339767,69.26294804201461,18,3,Object_Sea_Solid_Small,-8,-8,1,2.0333489580079913,,,,,,,,
n-back,,,,61,3,,,,1,None,V,False,None,,,,,
n-back,,,,62,3,,,,0,None,B,True,None,,,,,
n-back,,,,63,3,,,,1,None,B,False,None,,,,,
n-back,,,,64,3,,,,1,None,C,False,None,,,,,
n-back,,,,65,3,,,,1,None,V,False,None,,,,,
n-back,,,,66,3,,,,1,0.391529209096916,C,True,1,,,,,
n-back,,,,67,3,,,,1,None,C,False,None,,,,,
n-back,,,,68,3,,,,0,1.0282114580040798,V,False,1,,,,,
n-back,,,,69,3,,,,1,None,N,False,None,,,,,
n-back,,,,70,3,,,,1,None,X,False,None,,,,,
n-back,,,,71,3,,,,1,None,V,False,None,,,,,
n-back,,,,72,3,,,,1,None,N,False,None,,,,,
n-back,,,,73,3,,,,1,0.3170085829915479,V,True,1,,,,,
n-back,,,,74,3,,,,1,None,Z,False,None,,,,,
n-back,,,,75,3,,,,1,None,Z,False,None,,,,,
n-back,,,,76,3,,,,1,0.4343151249922812,Z,True,1,,,,,
n-back,,,,77,3,,,,1,0.9604437079979107,Z,True,1,,,,,
n-back,,,,78,3,,,,1,None,B,False,None,,,,,
n-back,,,,79,3,,,,1,0.681167709059082,Z,True,1,,,,,
n-back,,,,80,3,,,,0,None,B,True,None,,,,,
n-back,,,,81,3,,,,1,None,V,False,None,,,,,
n-back,,,,82,3,,,,1,0.7059687080327421,B,True,1,,,,,
n-back,,,,83,3,,,,0,None,V,True,None,,,,,
n-back,,,,84,3,,,,1,None,V,False,None,,,,,
n-back,,,,85,3,,,,1,None,C,False,None,,,,,
n-back,,,,86,3,,,,1,0.5429000409785658,V,True,1,,,,,
n-back,,,,87,3,,,,1,None,N,False,None,,,,,
n-back,,,,88,3,,,,1,None,N,False,None,,,,,
n-back,,,,89,3,,,,1,None,V,False,None,,,,,
n-back,,,,90,3,,,,1,None,V,False,None,,,,,
choice,fixation,146.59557083400432,147.34869670902845,17,3,,,,,,,,,Large,,,,
choice,option,147.35694049997255,148.3831171670463,17,3,,,,,,,,,Large,,,,
choice,choice,148.38322850002442,164.31372724997345,17,3,,,2,1,14.918108790996484,,,,Large,,,,
choice,fixation,164.31386362505145,165.31867870897986,18,3,,,,,,,,,Small,,,,
choice,option,165.327766124974,166.35518075001892,18,3,,,,,,,,,Small,,,,
choice,choice,166.35528474999592,171.82501579204109,18,3,,,1,0,4.4598969999933615,,,,Small,,,,
choice,fixation,171.8251643750118,172.83006779197603,19,3,,,,,,,,,Land,,,,
choice,option,172.8383014589781,173.86490716703702,19,3,,,,,,,,,Land,,,,
choice,choice,173.86501770897303,176.47995254199486,19,3,,,1,1,1.6050881249830127,,,,Land,,,,
choice,fixation,176.48007508402225,177.98515087505803,20,3,,,,,,,,,Solid,,,,
choice,option,177.9946433340665,179.0210473750485,20,3,,,,,,,,,Solid,,,,
choice,choice,179.0212512089638,185.88780583406333,20,3,,,2,1,5.856614290969446,,,,Solid,,,,
choice,fixation,185.8879417499993,187.1428884170018,21,3,,,,,,,,,Sea,,,,
choice,option,187.151219625026,188.17936700000428,21,3,,,,,,,,,Sea,,,,
choice,choice,188.17946795898024,196.19239025004208,21,3,,,2,1,7.002851124969311,,,,Sea,,,,
choice,fixation,196.1925148749724,197.69746912503615,22,3,,,,,,,,,Object,,,,
choice,option,197.70677012496162,198.73319270904176,22,3,,,,,,,,,Object,,,,
choice,choice,198.73332941706758,204.78524895897135,22,3,,,1,0,5.042139875004068,,,,Object,,,,
choice,fixation,204.78536874998827,206.29034191707615,23,3,,,,,,,,,Pattern,,,,
choice,option,206.2993954590056,207.326273667044,23,3,,,,,,,,,Pattern,,,,
choice,choice,207.32641383400187,208.62413291702978,23,3,,,1,1,0.28824262495618314,,,,Pattern,,,,
choice,fixation,208.62426025001332,209.8792356250342,24,3,,,,,,,,,Animal,,,,
choice,option,209.88836437498685,210.91497250006068,24,3,,,,,,,,,Animal,,,,
choice,choice,210.91510754206683,223.44031408405863,24,3,,,1,0,11.514413958997466,,,,Animal,,,,
memory,free_recall,237.46199962496758,255.29917812498752,12,3,,,,,,,,,,,,,
memory,value_recall,263.79821949999314,267.83379316702485,13,3,Animal_Land_Pattern_Small,,,,4.031681666034274,,,,,-2,,,
memory,value_recall,269.1299974999856,272.0460936250165,14,3,Object_Sea_Solid_Small,,,,2.9116667080670595,,,,,-8,,,
memory,value_recall,273.5910515000578,275.490524959052,15,3,Animal_Land_Solid_Large,,,,1.8941209999611601,,,,,9,,,
memory,value_recall,276.5371396250557,278.0735453340458,16,3,Object_Sea_Pattern_Small,,,,1.5329042919911444,,,,,8,,,
memory,value_recall,279.6202842500061,282.8125997920288,17,3,Animal_Sea_Solid_Large,,,,3.187728957971558,,,,,-9,,,
memory,value_recall,283.8571011250606,287.39721199998166,18,3,Object_Land_Pattern_Large,,,,3.53641829197295,,,,,-5,,,
memory,spatial_recall,295.2060863340739,297.57998150005005,18,3,Object_Sea_Solid_Small,,,1,2.3672947080340236,,,,,,"[-329, 190]","[-329, 190]",
memory,spatial_recall,299.1418526250636,301.69928283407353,18,3,Object_Land_Pattern_Large,,,1,2.552917042048648,,,,,,"[-329, -190]","[-329, -190]",
memory,spatial_recall,303.25639154203236,305.1206122919684,18,3,Animal_Sea_Solid_Large,,,1,1.8577367919497192,,,,,,"[329, 189]","[329, 189]",
memory,spatial_recall,306.1844360419782,307.6030162089737,18,3,Animal_Land_Solid_Large,,,1,1.4161244169808924,,,,,,"[0, 380]","[0, 380]",
memory,spatial_recall,308.9040015420178,309.9374384590192,18,3,Animal_Land_Pattern_Small,,,1,1.0292276249965653,,,,,,"[329, -190]","[329, -190]",
memory,spatial_recall,311.2405092919944,312.35231279197615,18,3,Object_Sea_Pattern_Small,,,1,1.1074046670692042,,,,,,"[0, -380]","[0, -380]",
encoding,fixation,4.688250334002078,5.69368983397726,19,4,Animal_Sea_Solid_Large,1,,,,,,,,,,,
encoding,image,5.693819542066194,6.707515625050291,19,4,Animal_Sea_Solid_Large,1,,,,,,,,,,,
encoding,value,6.707624334027059,12.722084834007546,19,4,Animal_Sea_Solid_Large,1,,,,,,,,,,,
encoding,attention,12.722187916981056,15.739402167033404,19,4,Animal_Sea_Solid_Large,1,+1,1,0.8086727909976617,,,,,,,,
encoding,fixation,15.739588500000536,17.244948167004623,20,4,Object_Land_Pattern_Small,-7,,,,,,,,,,,
encoding,image,17.245068334043026,18.258225584053434,20,4,Object_Land_Pattern_Small,-7,,,,,,,,,,,
encoding,value,18.25832787505351,24.27016958396416,20,4,Object_Land_Pattern_Small,-7,,,,,,,,,,,
encoding,attention,24.270300333970226,27.28819975000806,20,4,Object_Land_Pattern_Small,-7,-7,1,0.6522939170245081,,,,,,,,
encoding,fixation,27.28840395901352,28.543665334000252,21,4,Object_Sea_Solid_Large,1,,,,,,,,,,,
encoding,image,28.54378083406482,29.558094084030017,21,4,Object_Sea_Solid_Large,1,,,,,,,,,,,
encoding,value,29.558301292010583,35.5699484590441,21,4,Object_Sea_Solid_Large,1,,,,,,,,,,,
encoding,attention,35.570072834030725,38.58735620905645,21,4,Object_Sea_Solid_Large,1,+1,1,0.7778640419710428,,,,,,,,
encoding,fixation,38.58754062501248,39.59261883399449,22,4,Animal_Land_Solid_Small,-9,,,,,,,,,,,
encoding,image,39.59272029204294,40.604051709058695,22,4,Animal_Land_Solid_Small,-9,,,,,,,,,,,
encoding,value,40.60417133406736,46.61549383401871,22,4,Animal_Land_Solid_Small,-9,,,,,,,,,,,
encoding,attention,46.615606375038624,49.633007999975234,22,4,Animal_Land_Solid_Small,-9,-9,1,0.9467442909954116,,,,,,,,
encoding,fixation,49.63323979196139,50.13838058395777,23,4,Animal_Land_Pattern_Small,9,,,,,,,,,,,
encoding,image,50.13850150001235,51.14829341706354,23,4,Animal_Land_Pattern_Small,9,,,,,,,,,,,
encoding,value,51.14841337502003,57.159659459022805,23,4,Animal_Land_Pattern_Small,9,,,,,,,,,,,
encoding,attention,57.159781584050506,60.17922200006433,23,4,Animal_Land_Pattern_Small,9,+9,1,2.0355893339728937,,,,,,,,
encoding,fixation,60.17936137504876,60.684428917011246,24,4,Object_Sea_Pattern_Large,-7,,,,,,,,,,,
encoding,image,60.68455229199026,61.69566450000275,24,4,Object_Sea_Pattern_Large,-7,,,,,,,,,,,
encoding,value,61.695791583973914,67.70724945899565,24,4,Object_Sea_Pattern_Large,-7,,,,,,,,,,,
encoding,attention,67.70736308395863,70.72476720903069,24,4,Object_Sea_Pattern_Large,-7,-7,1,0.5927415420301259,,,,,,,,
n-back,,,,91,4,,,,0,None,X,True,None,,,,,
n-back,,,,92,4,,,,0,None,V,True,None,,,,,
n-back,,,,93,4,,,,1,None,Z,False,None,,,,,
n-back,,,,94,4,,,,1,None,B,False,None,,,,,
n-back,,,,95,4,,,,1,None,N,False,None,,,,,
n-back,,,,96,4,,,,1,None,X,False,None,,,,,
n-back,,,,97,4,,,,1,0.45757066598162055,N,True,1,,,,,
n-back,,,,98,4,,,,1,None,N,False,None,,,,,
n-back,,,,99,4,,,,1,None,V,False,None,,,,,
n-back,,,,100,4,,,,1,None,Z,False,None,,,,,
n-back,,,,101,4,,,,1,None,Z,False,None,,,,,
n-back,,,,102,4,,,,1,None,C,False,None,,,,,
n-back,,,,103,4,,,,1,0.5330020829569548,Z,True,1,,,,,
n-back,,,,104,4,,,,1,None,X,False,None,,,,,
n-back,,,,105,4,,,,1,0.343806124990806,Z,True,1,,,,,
n-back,,,,106,4,,,,1,None,N,False,None,,,,,
n-back,,,,107,4,,,,1,0.3593057499965653,Z,True,1,,,,,
n-back,,,,108,4,,,,0,None,N,True,None,,,,,
n-back,,,,109,4,,,,1,None,B,False,None,,,,,
n-back,,,,110,4,,,,1,None,V,False,None,,,,,
n-back,,,,111,4,,,,1,0.7241115840151906,B,True,1,,,,,
n-back,,,,112,4,,,,1,None,X,False,None,,,,,
n-back,,,,113,4,,,,1,None,V,False,None,,,,,
n-back,,,,114,4,,,,1,0.45283970900345594,X,True,1,,,,,
n-back,,,,115,4,,,,1,None,X,False,None,,,,,
n-back,,,,116,4,,,,1,0.47333583305589855,X,True,1,,,,,
n-back,,,,117,4,,,,1,None,Z,False,None,,,,,
n-back,,,,118,4,,,,1,None,N,False,None,,,,,
n-back,,,,119,4,,,,1,None,V,False,None,,,,,
n-back,,,,120,4,,,,1,None,C,False,None,,,,,
choice,fixation,146.33883395895828,147.09214674995746,25,4,,,,,,,,,Object,,,,
choice,option,147.10122812504414,148.12705612496939,25,4,,,,,,,,,Object,,,,
choice,choice,148.1271889170166,157.18078987498302,25,4,,,2,1,8.043628499959596,,,,Object,,,,
choice,fixation,157.1809164590668,158.43607037502807,26,4,,,,,,,,,Animal,,,,
choice,option,158.44571062503383,159.4744391250424,26,4,,,,,,,,,Animal,,,,
choice,choice,159.4745449590264,168.56548241700511,26,4,,,2,0,8.080775292008184,,,,Animal,,,,
choice,fixation,168.5656122500077,170.07111424999312,27,4,,,,,,,,,Pattern,,,,
choice,option,170.0802410839824,171.10880216700025,27,4,,,,,,,,,Pattern,,,,
choice,choice,171.10894141695462,172.9750040420331,27,4,,,1,0,0.854230625089258,,,,Pattern,,,,
choice,fixation,172.97512291697785,173.47995704202913,28,4,,,,,,,,,Large,,,,
choice,option,173.48839254199993,174.5145758340368,28,4,,,,,,,,,Large,,,,
choice,choice,174.5146805839613,178.06826441700105,28,4,,,2,1,2.543876833980903,,,,Large,,,,
choice,fixation,178.06839166698046,178.8255423749797,29,4,,,,,,,,,Land,,,,
choice,option,178.83448587497696,179.86059354199097,29,4,,,,,,,,,Land,,,,
choice,choice,179.8607120839879,182.49383162497543,29,4,,,1,0,1.6237369159935042,,,,Land,,,,
choice,fixation,182.49395183403976,183.74885612505022,30,4,,,,,,,,,Solid,,,,
choice,option,183.75836470897775,184.78461700002663,30,4,,,,,,,,,Solid,,,,
choice,choice,184.7847404590575,190.37452129204758,30,4,,,2,1,4.577835625037551,,,,Solid,,,,
choice,fixation,190.37464720895514,191.12971454206854,31,4,,,,,,,,,Sea,,,,
choice,option,191.13785670895595,192.16415079205763,31,4,,,,,,,,,Sea,,,,
choice,choice,192.1642605420202,196.22049154201522,31,4,,,1,0,3.046500957920216,,,,Sea,,,,
choice,fixation,196.22062375000678,196.72552454203833,32,4,,,,,,,,,Small,,,,
choice,option,196.73427812498994,197.76067624997813,32,4,,,,,,,,,Small,,,,
choice,choice,197.76082741701975,202.46986995905172,32,4,,,1,0,3.699104957981035,,,,Small,,,,
memory,free_recall,214.8799352090573,231.3917609170312,18,4,,,,,,,,,,,,,
memory,value_recall,235.1804922920419,240.48771937505808,19,4,Object_Sea_Solid_Large,,,,5.30305525008589,,,,,1,,,
memory,value_recall,241.53351662505884,243.79020366701297,20,4,Object_Sea_Pattern_Large,,,,2.249965541996062,,,,,-7,,,
memory,value_recall,244.8360368340509,252.8162828340428,21,4,Animal_Sea_Solid_Large,,,,7.975597916985862,,,,,1,,,
memory,value_recall,254.36189529206604,258.6952051250264,22,4,Animal_Land_Pattern_Small,,,,4.329315415932797,,,,,9,,,
memory,value_recall,259.9912307499908,262.6881797090173,23,4,Animal_Land_Solid_Small,,,,2.6928961660014465,,,,,-9,,,
memory,value_recall,264.4845423339866,267.6097974170698,24,4,Object_Land_Pattern_Small,,,,3.118745499989018,,,,,-7,,,
memory,spatial_recall,271.28453558404,274.4658345420612,24,4,Object_Land_Pattern_Small,,,1,3.176299166982062,,,,,,"[-329, -190]","[-329, -190]",
memory,spatial_recall,275.5313242090633,277.79819020896684,24,4,Object_Sea_Solid_Large,,,1,2.262966457987204,,,,,,"[0, 380]","[0, 380]",
memory,spatial_recall,279.36055437498726,281.7779676669743,24,4,Object_Sea_Pattern_Large,,,1,2.413477208930999,,,,,,"[-329, 190]","[-329, 190]",
memory,spatial_recall,282.8345992920222,285.3160033749882,24,4,Animal_Land_Pattern_Small,,,1,2.476666499977,,,,,,"[329, -190]","[329, -190]",
memory,spatial_recall,287.12671858398244,288.86515758396126,24,4,Animal_Land_Solid_Small,,,1,1.7343200829345733,,,,,,"[0, -380]","[0, -380]",
memory,spatial_recall,290.67741837503854,292.9975208750693,24,4,Animal_Sea_Solid_Large,,,1,2.315936833037995,,,,,,"[329, 189]","[329, 189]",
encoding,fixation,3.6895229999208823,4.444608915946446,25,5,Object_Land_Pattern_Small,3,,,,,,,,,,,
encoding,image,4.444735124940053,5.455184332909994,25,5,Object_Land_Pattern_Small,3,,,,,,,,,,,
encoding,value,5.455339207896031,11.468421165947802,25,5,Object_Land_Pattern_Small,3,,,,,,,,,,,
encoding,attention,11.4685611249879,14.487818041001447,25,5,Object_Land_Pattern_Small,3,+3,1,0.5770588329760358,,,,,,,,
encoding,fixation,14.488039582967758,15.743167790933512,26,5,Animal_Sea_Pattern_Large,3,,,,,,,,,,,
encoding,image,15.74328437494114,16.753550458000973,26,5,Animal_Sea_Pattern_Large,3,,,,,,,,,,,
encoding,value,16.753655415959656,22.764364624978043,26,5,Animal_Sea_Pattern_Large,3,,,,,,,,,,,
encoding,attention,22.764517040923238,25.78378445794806,26,5,Animal_Sea_Pattern_Large,3,+3,1,0.46425750001799315,,,,,,,,
encoding,fixation,25.78395341592841,26.5389600408962,27,5,Animal_Sea_Solid_Small,4,,,,,,,,,,,
encoding,image,26.53908729099203,27.549998249975033,27,5,Animal_Sea_Solid_Small,4,,,,,,,,,,,
encoding,value,27.55010637489613,33.56237733294256,27,5,Animal_Sea_Solid_Small,4,,,,,,,,,,,
encoding,attention,33.56251379090827,36.57921004097443,27,5,Animal_Sea_Solid_Small,4,+4,1,0.5584358329651877,,,,,,,,
encoding,fixation,36.57937199994922,37.33444041595794,28,5,Object_Land_Solid_Large,3,,,,,,,,,,,
encoding,image,37.334540665964596,38.34501037490554,28,5,Object_Land_Solid_Large,3,,,,,,,,,,,
encoding,value,38.34514154097997,44.35561120789498,28,5,Object_Land_Solid_Large,3,,,,,,,,,,,
encoding,attention,44.35572341596708,47.37229095795192,28,5,Object_Land_Solid_Large,3,+3,1,0.9943487080745399,,,,,,,,
encoding,fixation,47.372452582931146,48.37835620797705,29,5,Object_Sea_Solid_Small,-8,,,,,,,,,,,
encoding,image,48.378520375001244,49.38862183294259,29,5,Object_Sea_Solid_Small,-8,,,,,,,,,,,
encoding,value,49.38873883290216,55.39937287499197,29,5,Object_Sea_Solid_Small,-8,,,,,,,,,,,
encoding,attention,55.399480832973495,58.416578290984035,29,5,Object_Sea_Solid_Small,-8,-8,1,0.6885218330426142,,,,,,,,
encoding,fixation,58.41673258296214,59.921784749953076,30,5,Animal_Land_Pattern_Large,-4,,,,,,,,,,,
encoding,image,59.92188641591929,60.93273799994495,30,5,Animal_Land_Pattern_Large,-4,,,,,,,,,,,
encoding,value,60.93285804090556,66.94406737491954,30,5,Animal_Land_Pattern_Large,-4,,,,,,,,,,,
encoding,attention,66.94417379098013,69.96136208297685,30,5,Animal_Land_Pattern_Large,-4,-4,1,1.1262306669959798,,,,,,,,
n-back,,,,121,5,,,,1,None,B,False,None,,,,,
n-back,,,,122,5,,,,1,None,X,False,None,,,,,
n-back,,,,123,5,,,,1,None,C,False,None,,,,,
n-back,,,,124,5,,,,1,0.6141145000001416,X,True,1,,,,,
n-back,,,,125,5,,,,1,None,Z,False,None,,,,,
n-back,,,,126,5,,,,1,0.5861289169406518,X,True,1,,,,,
n-back,,,,127,5,,,,1,None,C,False,None,,,,,
n-back,,,,128,5,,,,1,0.46926533291116357,X,True,1,,,,,
n-back,,,,129,5,,,,1,None,V,False,None,,,,,
n-back,,,,130,5,,,,1,None,B,False,None,,,,,
n-back,,,,131,5,,,,1,None,B,False,None,,,,,
n-back,,,,132,5,,,,1,None,Z,False,None,,,,,
n-back,,,,133,5,,,,1,0.5882612080313265,B,True,1,,,,,
n-back,,,,134,5,,,,1,0.9744934169575572,Z,True,1,,,,,
n-back,,,,135,5,,,,1,None,C,False,None,,,,,
n-back,,,,136,5,,,,1,0.320271541015245,Z,True,1,,,,,
n-back,,,,137,5,,,,1,0.7950422499561682,C,True,1,,,,,
n-back,,,,138,5,,,,1,1.0286411250708625,Z,True,1,,,,,
n-back,,,,139,5,,,,1,None,N,False,None,,,,,
n-back,,,,140,5,,,,1,None,V,False,None,,,,,
n-back,,,,141,5,,,,1,None,Z,False,None,,,,,
n-back,,,,142,5,,,,1,None,C,False,None,,,,,
n-back,,,,143,5,,,,1,None,B,False,None,,,,,
n-back,,,,144,5,,,,1,None,V,False,None,,,,,
n-back,,,,145,5,,,,1,0.4951806250028312,B,True,1,,,,,
n-back,,,,146,5,,,,1,None,B,False,None,,,,,
n-back,,,,147,5,,,,1,None,X,False,None,,,,,
n-back,,,,148,5,,,,1,0.4737451249966398,B,True,1,,,,,
n-back,,,,149,5,,,,1,None,N,False,None,,,,,
n-back,,,,150,5,,,,1,None,C,False,None,,,,,
choice,fixation,144.49945816595573,145.75299541593995,33,5,,,,,,,,,Land,,,,
choice,option,145.76134329091292,146.78841283300426,33,5,,,,,,,,,Land,,,,
choice,choice,146.78852720791474,173.27089537493885,33,5,,,1,1,25.471419292036444,,,,Land,,,,
choice,fixation,173.2710316249868,174.27616999996826,34,5,,,,,,,,,Small,,,,
choice,option,174.28529420797713,175.3122593750013,34,5,,,,,,,,,Small,,,,
choice,choice,175.31240312498994,181.44707137497608,34,5,,,2,1,5.125018166960217,,,,Small,,,,
choice,fixation,181.44719733297825,182.20221895794384,35,5,,,,,,,,,Pattern,,,,
choice,option,182.21094349992927,183.23743633297272,35,5,,,,,,,,,Pattern,,,,
choice,choice,183.2375828329241,186.80738899996504,35,5,,,1,1,2.560310333967209,,,,Pattern,,,,
choice,fixation,186.80752020794898,188.06444145797286,36,5,,,,,,,,,Animal,,,,
choice,option,188.07426458294503,189.1018259159755,36,5,,,,,,,,,Animal,,,,
choice,choice,189.1019732079003,192.40220833290368,36,5,,,1,1,2.290591500001028,,,,Animal,,,,
choice,fixation,192.40232529095374,193.9074275830062,37,5,,,,,,,,,Large,,,,
choice,option,193.9162088748999,194.943027124973,37,5,,,,,,,,,Large,,,,
choice,choice,194.9432007909054,198.39934074995108,37,5,,,1,1,2.4461863751057535,,,,Large,,,,
choice,fixation,198.3994644159684,199.40438216598704,38,5,,,,,,,,,Object,,,,
choice,option,199.41385033295956,200.440538332914,38,5,,,,,,,,,Object,,,,
choice,choice,200.44073649996426,205.20605049992446,38,5,,,2,1,3.755572957918048,,,,Object,,,,
choice,fixation,205.20618429093156,206.46104741597082,39,5,,,,,,,,,Solid,,,,
choice,option,206.47043916594703,207.49799358297605,39,5,,,,,,,,,Solid,,,,
choice,choice,207.49809766595718,212.76773741596844,39,5,,,2,1,4.2599175840150565,,,,Solid,,,,
choice,fixation,212.76786587492097,213.77199841593392,40,5,,,,,,,,,Sea,,,,
choice,option,213.78036962496117,214.8072987908963,40,5,,,,,,,,,Sea,,,,
choice,choice,214.80740941595286,216.82127274991944,40,5,,,2,1,1.0041726670460775,,,,Sea,,,,
memory,free_recall,233.12113599991426,249.74544720794074,24,5,,,,,,,,,,,,,
memory,value_recall,254.68452691589482,257.321796040982,25,5,Object_Land_Pattern_Small,,,,2.6330760000273585,,,,,3,,,
memory,value_recall,258.86848566599656,260.3522034159396,26,5,Object_Land_Solid_Large,,,,1.4797705420060083,,,,,3,,,
memory,value_recall,261.8983614159515,263.6980075829197,27,5,Animal_Sea_Pattern_Large,,,,1.7952324589714408,,,,,3,,,
memory,value_recall,264.99382783297915,266.93285120790824,28,5,Animal_Sea_Solid_Small,,,,1.934951166040264,,,,,4,,,
memory,value_recall,268.47926379099954,270.55355491593946,29,5,Object_Sea_Solid_Small,,,,2.0702184160472825,,,,,-8,,,
memory,value_recall,272.3494984579738,274.24798537499737,30,5,Animal_Land_Pattern_Large,,,,1.894392666989006,,,,,-4,,,
memory,spatial_recall,278.54947495798115,280.85154554096516,30,5,Animal_Land_Pattern_Large,,,1,2.2980944579467177,,,,,,"[0, 380]","[0, 380]",
memory,spatial_recall,282.15647141600493,284.2022227079142,30,5,Animal_Sea_Pattern_Large,,,1,2.0418063340475783,,,,,,"[329, -190]","[329, -190]",
memory,spatial_recall,285.503776166006,288.68271670793183,30,5,Object_Sea_Solid_Small,,,1,3.1745714580174536,,,,,,"[-329, 190]","[-329, 190]",
memory,spatial_recall,290.2383939999854,292.2045591250062,30,5,Animal_Sea_Solid_Small,,,1,1.9617152919527143,,,,,,"[0, -380]","[0, -380]",
memory,spatial_recall,293.51394341595005,294.93952849996276,30,5,Object_Land_Solid_Large,,,1,1.421443667029962,,,,,,"[329, 189]","[329, 189]",
memory,spatial_recall,296.75185416592285,298.92196008295286,30,5,Object_Land_Pattern_Small,,,1,2.1651755410712212,,,,,,"[-329, -190]","[-329, -190]",
encoding,fixation,3.2796051249606535,4.036958749988116,31,6,Object_Land_Pattern_Large,-1,,,,,,,,,,,
encoding,image,4.037119916989468,5.049377957941033,31,6,Object_Land_Pattern_Large,-1,,,,,,,,,,,
encoding,value,5.049486416974105,11.06338424992282,31,6,Object_Land_Pattern_Large,-1,,,,,,,,,,,
encoding,attention,11.063502291915938,14.08224916702602,31,6,Object_Land_Pattern_Large,-1,-1,1,1.0654865829274058,,,,,,,,
encoding,fixation,14.082415999961086,14.58748933300376,32,6,Object_Sea_Pattern_Small,9,,,,,,,,,,,
encoding,image,14.587606332963333,15.597935666912235,32,6,Object_Sea_Pattern_Small,9,,,,,,,,,,,
encoding,value,15.598058374947868,21.60985212493688,32,6,Object_Sea_Pattern_Small,9,,,,,,,,,,,
encoding,attention,21.609965624986216,24.62868779199198,32,6,Object_Sea_Pattern_Small,9,+9,1,1.0235832500038669,,,,,,,,
encoding,fixation,24.628865082981065,25.63671233295463,33,6,Object_Sea_Solid_Small,-7,,,,,,,,,,,
encoding,image,25.636833583004773,26.64687833294738,33,6,Object_Sea_Solid_Small,-7,,,,,,,,,,,
encoding,value,26.647055791923776,32.65834270801861,33,6,Object_Sea_Solid_Small,-7,,,,,,,,,,,
encoding,attention,32.658464499982074,35.67520333302673,33,6,Object_Sea_Solid_Small,-7,-7,1,0.856086750049144,,,,,,,,
encoding,fixation,35.67535529192537,37.18039970798418,34,6,Animal_Sea_Solid_Large,-1,,,,,,,,,,,
encoding,image,37.180507124983706,38.19150070799515,34,6,Animal_Sea_Solid_Large,-1,,,,,,,,,,,
encoding,value,38.19160837493837,44.20339849998709,34,6,Animal_Sea_Solid_Large,-1,,,,,,,,,,,
encoding,attention,44.20352283294778,47.22381487500388,34,6,Animal_Sea_Solid_Large,-1,-1,1,0.6827800000319257,,,,,,,,
encoding,fixation,47.22396191698499,47.72890370793175,35,6,Animal_Land_Solid_Large,9,,,,,,,,,,,
encoding,image,47.72901499993168,48.74033595796209,35,6,Animal_Land_Solid_Large,9,,,,,,,,,,,
encoding,value,48.74044770793989,54.751966541982256,35,6,Animal_Land_Solid_Large,9,,,,,,,,,,,
encoding,attention,54.75207791698631,57.769225999945775,35,6,Animal_Land_Solid_Large,9,+9,1,0.5548694169847295,,,,,,,,
encoding,fixation,57.76938574993983,59.27459491696209,36,6,Animal_Land_Pattern_Small,-3,,,,,,,,,,,
encoding,image,59.27470083301887,60.28588091698475,36,6,Animal_Land_Pattern_Small,-3,,,,,,,,,,,
encoding,value,60.28606337495148,66.29759945801925,36,6,Animal_Land_Pattern_Small,-3,,,,,,,,,,,
encoding,attention,66.2977124999743,69.31531874998473,36,6,Animal_Land_Pattern_Small,-3,-3,1,0.6967442919267341,,,,,,,,
n-back,,,,151,6,,,,1,None,Z,False,None,,,,,
n-back,,,,152,6,,,,1,None,V,False,None,,,,,
n-back,,,,153,6,,,,1,None,C,False,None,,,,,
n-back,,,,154,6,,,,1,0.5934589999960735,V,True,1,,,,,
n-back,,,,155,6,,,,1,None,N,False,None,,,,,
n-back,,,,156,6,,,,1,0.35612450004555285,V,True,1,,,,,
n-back,,,,157,6,,,,1,0.8954042500117794,N,True,1,,,,,
n-back,,,,158,6,,,,1,0.9301897909026593,V,True,1,,,,,
n-back,,,,159,6,,,,1,None,V,False,None,,,,,
n-back,,,,160,6,,,,1,None,C,False,None,,,,,
n-back,,,,161,6,,,,1,None,B,False,None,,,,,
n-back,,,,162,6,,,,1,None,B,False,None,,,,,
n-back,,,,163,6,,,,1,None,C,False,None,,,,,
n-back,,,,164,6,,,,1,None,C,False,None,,,,,
n-back,,,,165,6,,,,1,0.46299175010062754,C,True,1,,,,,
n-back,,,,166,6,,,,1,None,X,False,None,,,,,
n-back,,,,167,6,,,,1,0.3429626249708235,C,True,1,,,,,
n-back,,,,168,6,,,,1,0.5187792910728604,X,True,1,,,,,
n-back,,,,169,6,,,,1,None,N,False,None,,,,,
n-back,,,,170,6,,,,1,None,C,False,None,,,,,
n-back,,,,171,6,,,,1,None,Z,False,None,,,,,
n-back,,,,172,6,,,,1,None,N,False,None,,,,,
n-back,,,,173,6,,,,1,None,V,False,None,,,,,
n-back,,,,174,6,,,,1,None,C,False,None,,,,,
n-back,,,,175,6,,,,1,0.4263624169398099,V,True,1,,,,,
n-back,,,,176,6,,,,1,0.6462944590020925,C,True,1,,,,,
n-back,,,,177,6,,,,1,None,N,False,None,,,,,
n-back,,,,178,6,,,,1,0.3435423750197515,C,True,1,,,,,
n-back,,,,179,6,,,,1,None,B,False,None,,,,,
n-back,,,,180,6,,,,1,None,B,False,None,,,,,
choice,fixation,141.97397708299104,143.47724504198413,41,6,,,,,,,,,Land,,,,
choice,option,143.4854382079793,144.51365041697863,41,6,,,,,,,,,Land,,,,
choice,choice,144.51383179193363,156.98866274999455,41,6,,,1,1,11.463948999997228,,,,Land,,,,
choice,fixation,156.98879920796026,157.99372695793863,42,6,,,,,,,,,Animal,,,,
choice,option,158.00312129198574,159.02997104194947,42,6,,,,,,,,,Animal,,,,
choice,choice,159.0300893749809,163.0987730419729,42,6,,,1,1,3.057079792022705,,,,Animal,,,,
choice,fixation,163.098897207994,163.60374387493357,43,6,,,,,,,,,Object,,,,
choice,option,163.61303595802747,164.63953325001057,43,6,,,,,,,,,Object,,,,
choice,choice,164.6396370419534,173.4928453329485,43,6,,,2,0,7.843068792019039,,,,Object,,,,
choice,fixation,173.49297675001435,174.99815570795909,44,6,,,,,,,,,Sea,,,,
choice,option,175.0076192499837,176.03582645801362,44,6,,,,,,,,,Sea,,,,
choice,choice,176.03594645799603,187.20426512497943,44,6,,,2,0,10.158157333964482,,,,Sea,,,,
choice,fixation,187.20440395793412,188.20928587496746,45,6,,,,,,,,,Large,,,,
choice,option,188.21796545793768,189.2438939169515,45,6,,,,,,,,,Large,,,,
choice,choice,189.24402079195715,191.5084403329529,45,6,,,1,1,1.2549979999894276,,,,Large,,,,
choice,fixation,191.5085631669499,192.51365212502424,46,6,,,,,,,,,Small,,,,
choice,option,192.52293708291836,193.54911708296277,46,6,,,,,,,,,Small,,,,
choice,choice,193.549222374917,199.40664991701487,46,6,,,2,1,4.847874375060201,,,,Small,,,,
choice,fixation,199.40676887496375,200.41192595800385,47,6,,,,,,,,,Pattern,,,,
choice,option,200.42117279197555,201.44751754193567,47,6,,,,,,,,,Pattern,,,,
choice,choice,201.44762516696937,202.9453944999259,47,6,,,1,1,0.4887577920453623,,,,Pattern,,,,
choice,fixation,202.94551733299159,203.70044858299661,48,6,,,,,,,,,Solid,,,,
choice,option,203.70982254191767,204.73613312491216,48,6,,,,,,,,,Solid,,,,
choice,choice,204.73628591699526,207.25110091699753,48,6,,,2,0,1.505555666051805,,,,Solid,,,,
memory,free_recall,217.43840116693173,237.71796208294109,30,6,,,,,,,,,,,,,
memory,value_recall,241.98331249994226,243.63813904195558,31,6,Object_Sea_Pattern_Small,,,,1.6508174169575796,,,,,9,,,
memory,value_recall,245.43431483302265,248.1028439999791,32,6,Animal_Land_Pattern_Small,,,,2.6644436250207946,,,,,-3,,,
memory,value_recall,249.64805412502028,250.98921083298046,33,6,Object_Land_Pattern_Large,,,,1.3370564579963684,,,,,-1,,,
memory,value_recall,253.03676883294247,254.4784730829997,34,6,Animal_Land_Solid_Large,,,,1.4377657501026988,,,,,9,,,
memory,value_recall,256.0275243750075,257.48713045800105,35,6,Animal_Sea_Solid_Large,,,,1.4554773750714958,,,,,-1,,,
memory,value_recall,259.28229629201815,262.06078820792027,36,6,Object_Sea_Solid_Small,,,,2.774330416927114,,,,,-7,,,
memory,spatial_recall,266.5826857079519,268.55634762498084,36,6,Object_Land_Pattern_Large,,,1,1.9697537920437753,,,,,,"[-329, -190]","[-329, -190]",
memory,spatial_recall,270.1166194579564,271.59216949995607,36,6,Object_Sea_Pattern_Small,,,1,1.4717145829927176,,,,,,"[0, -380]","[0, -380]",
memory,spatial_recall,273.4059830419719,274.5939589579357,36,6,Animal_Land_Pattern_Small,,,1,1.1840383750386536,,,,,,"[329, -190]","[329, -190]",
memory,spatial_recall,275.6437571250135,276.9280733750202,36,6,Object_Sea_Solid_Small,,,1,1.2803454579552636,,,,,,"[-329, 190]","[-329, 190]",
memory,spatial_recall,278.2367005419219,279.22248899994884,36,6,Animal_Sea_Solid_Large,,,1,0.9818245000205934,,,,,,"[329, 189]","[329, 189]",
memory,spatial_recall,280.27387749997433,281.32567670801654,36,6,Animal_Land_Solid_Large,,,1,1.0489620410371572,,,,,,"[0, 380]","[0, 380]",
encoding,fixation,2.7362412499496713,3.991756791016087,37,7,Animal_Sea_Pattern_Small,1,,,,,,,,,,,
encoding,image,3.9918627500301227,5.00322212500032,37,7,Animal_Sea_Pattern_Small,1,,,,,,,,,,,
encoding,value,5.003333457978442,11.01646237494424,37,7,Animal_Sea_Pattern_Small,1,,,,,,,,,,,
encoding,attention,11.016570874955505,14.034298875019886,37,7,Animal_Sea_Pattern_Small,1,+1,1,0.5797429999802262,,,,,,,,
encoding,fixation,14.03445329098031,15.03970770793967,38,7,Animal_Sea_Solid_Small,-5,,,,,,,,,,,
encoding,image,15.039829749963246,16.050933999940753,38,7,Animal_Sea_Solid_Small,-5,,,,,,,,,,,
encoding,value,16.051048832945526,22.062604665989056,38,7,Animal_Sea_Solid_Small,-5,,,,,,,,,,,
encoding,attention,22.06273279094603,25.079814375028946,38,7,Animal_Sea_Solid_Small,-5,-5,1,0.5175004169577733,,,,,,,,
encoding,fixation,25.07997883297503,25.835234500002116,39,7,Object_Land_Solid_Small,5,,,,,,,,,,,
encoding,image,25.835397416027263,26.84640241600573,39,7,Object_Land_Solid_Small,5,,,,,,,,,,,
encoding,value,26.846511165960692,32.85813591594342,39,7,Object_Land_Solid_Small,5,,,,,,,,,,,
encoding,attention,32.85825741593726,35.87598087498918,39,7,Object_Land_Solid_Small,5,+5,1,0.562190750031732,,,,,,,,
encoding,fixation,35.87614245794248,37.38378000003286,40,7,Object_Land_Pattern_Large,-9,,,,,,,,,,,
encoding,image,37.38389516598545,38.39547954092268,40,7,Object_Land_Pattern_Large,-9,,,,,,,,,,,
encoding,value,38.395602124975994,44.40751241601538,40,7,Object_Land_Pattern_Large,-9,,,,,,,,,,,
encoding,attention,44.4076251660008,47.425713415956125,40,7,Object_Land_Pattern_Large,-9,-9,1,0.7812635001027957,,,,,,,,
encoding,fixation,47.42586929094978,48.681169208022766,41,7,Object_Sea_Pattern_Large,5,,,,,,,,,,,
encoding,image,48.68132670794148,49.69210904103238,41,7,Object_Sea_Pattern_Large,5,,,,,,,,,,,
encoding,value,49.69221970799845,55.70342604094185,41,7,Object_Sea_Pattern_Large,5,,,,,,,,,,,
encoding,attention,55.70354395802133,58.721323582925834,41,7,Object_Sea_Pattern_Large,5,+5,1,0.5231009999988601,,,,,,,,
encoding,fixation,58.72146220796276,59.47678691602778,42,7,Animal_Land_Solid_Large,3,,,,,,,,,,,
encoding,image,59.476969457929954,60.48886958300136,42,7,Animal_Land_Solid_Large,3,,,,,,,,,,,
encoding,value,60.4889780000085,66.50070766592398,42,7,Animal_Land_Solid_Large,3,,,,,,,,,,,
encoding,attention,66.50083708297461,69.51845129102003,42,7,Animal_Land_Solid_Large,3,+3,1,1.7269649170339108,,,,,,,,
n-back,,,,181,7,,,,1,None,Z,False,None,,,,,
n-back,,,,182,7,,,,0,None,C,True,None,,,,,
n-back,,,,183,7,,,,1,None,X,False,None,,,,,
n-back,,,,184,7,,,,0,None,C,True,None,,,,,
n-back,,,,185,7,,,,1,None,V,False,None,,,,,
n-back,,,,186,7,,,,1,None,Z,False,None,,,,,
n-back,,,,187,7,,,,1,None,X,False,None,,,,,
n-back,,,,188,7,,,,1,0.32628116593696177,Z,True,1,,,,,
n-back,,,,189,7,,,,1,None,B,False,None,,,,,
n-back,,,,190,7,,,,1,None,X,False,None,,,,,
n-back,,,,191,7,,,,1,None,C,False,None,,,,,
n-back,,,,192,7,,,,1,0.33097612496931106,X,True,1,,,,,
n-back,,,,193,7,,,,1,None,Z,False,None,,,,,
n-back,,,,194,7,,,,1,None,Z,False,None,,,,,
n-back,,,,195,7,,,,1,0.3071303750621155,Z,True,1,,,,,
n-back,,,,196,7,,,,1,0.47174229205120355,Z,True,1,,,,,
n-back,,,,197,7,,,,1,None,V,False,None,,,,,
n-back,,,,198,7,,,,1,None,C,False,None,,,,,
n-back,,,,199,7,,,,1,0.3244194579310715,V,True,1,,,,,
n-back,,,,200,7,,,,1,0.5820748748956248,C,True,1,,,,,
n-back,,,,201,7,,,,1,None,Z,False,None,,,,,
n-back,,,,202,7,,,,1,None,X,False,None,,,,,
n-back,,,,203,7,,,,1,None,X,False,None,,,,,
n-back,,,,204,7,,,,1,0.3799157500034198,X,True,1,,,,,
n-back,,,,205,7,,,,1,0.48729679198004305,X,True,1,,,,,
n-back,,,,206,7,,,,1,None,C,False,None,,,,,
n-back,,,,207,7,,,,1,None,B,False,None,,,,,
n-back,,,,208,7,,,,1,None,X,False,None,,,,,
n-back,,,,209,7,,,,1,None,Z,False,None,,,,,
n-back,,,,210,7,,,,0,0.396067125024274,Z,False,1,,,,,
choice,fixation,142.4008286249591,143.9040698329918,49,7,,,,,,,,,Solid,,,,
choice,option,143.91340362501796,144.9404812909197,49,7,,,,,,,,,Solid,,,,
choice,choice,144.94059304101393,154.20731850003358,49,7,,,1,1,8.256629499956034,,,,Solid,,,,
choice,fixation,154.20744245802052,155.21258812502492,50,7,,,,,,,,,Large,,,,
choice,option,155.22121762495954,156.24875362496823,50,7,,,,,,,,,Large,,,,
choice,choice,156.24887362495065,157.9579362910008,50,7,,,2,1,0.6997970830416307,,,,Large,,,,
choice,fixation,157.95805870799813,158.46331787493546,51,7,,,,,,,,,Animal,,,,
choice,option,158.47261087503284,159.50046691601165,51,7,,,,,,,,,Animal,,,,
choice,choice,159.5005877079675,166.36681425001007,51,7,,,1,0,5.8546184580773115,,,,Animal,,,,
choice,fixation,166.36693637492135,167.62200220802333,52,7,,,,,,,,,Land,,,,
choice,option,167.63108754099812,168.65738279093057,52,7,,,,,,,,,Land,,,,
choice,choice,168.6575120409252,172.29303758300375,52,7,,,2,1,2.625955957919359,,,,Land,,,,
choice,fixation,172.2931661249604,173.30107520800084,53,7,,,,,,,,,Object,,,,
choice,option,173.31050733302254,174.33642850001343,53,7,,,,,,,,,Object,,,,
choice,choice,174.33653550001327,176.3812298750272,53,7,,,2,0,1.035131916985847,,,,Object,,,,
choice,fixation,176.38136324996594,177.13633770798333,54,7,,,,,,,,,Pattern,,,,
choice,option,177.1457424160326,178.17220737494063,54,7,,,,,,,,,Pattern,,,,
choice,choice,178.17232045799028,180.72442629095167,54,7,,,2,1,1.5426541669294238,,,,Pattern,,,,
choice,fixation,180.7245961659355,181.9799388749525,55,7,,,,,,,,,Sea,,,,
choice,option,181.9883956660051,183.01443491596729,55,7,,,,,,,,,Sea,,,,
choice,choice,183.01457462494727,184.79581170796882,55,7,,,1,1,0.7719101670663804,,,,Sea,,,,
choice,fixation,184.7959371659672,185.30164808302652,56,7,,,,,,,,,Small,,,,
choice,option,185.31041637493763,186.33672829100396,56,7,,,,,,,,,Small,,,,
choice,choice,186.33683829102665,189.71132604102604,56,7,,,1,1,2.3637077909661457,,,,Small,,,,
memory,free_recall,201.2558642909862,212.8006298749242,36,7,,,,,,,,,,,,,
memory,value_recall,217.1144154999638,219.9279949159827,37,7,Animal_Land_Solid_Large,,,,2.8095094159943983,,,,,3,,,
memory,value_recall,220.97514250001404,222.83692249993328,38,7,Object_Land_Pattern_Large,,,,1.85844374995213,,,,,-9,,,
memory,value_recall,224.69055095792282,227.95978366595227,39,7,Object_Land_Solid_Small,,,,3.2640165829798207,,,,,5,,,
memory,value_recall,229.008634250029,230.59162866591942,40,7,Animal_Sea_Solid_Small,,,,1.5802547079510987,,,,,-5,,,
memory,value_recall,232.6371298750164,235.07290475000627,41,7,Object_Sea_Pattern_Large,,,,2.43160916690249,,,,,5,,,
memory,value_recall,236.6196177910315,238.22454279102385,42,7,Animal_Sea_Pattern_Small,,,,1.6009087499696761,,,,,1,,,
memory,spatial_recall,242.19537887501065,244.79263004101813,42,7,Animal_Land_Solid_Large,,,1,2.592923584044911,,,,,,"[0, 380]","[0, 380]",
memory,spatial_recall,245.85570075002033,247.10892137500923,42,7,Object_Land_Solid_Small,,,1,1.250803167000413,,,,,,"[329, -190]","[329, -190]",
memory,spatial_recall,249.16902916599065,251.10360945796128,42,7,Object_Sea_Pattern_Large,,,1,1.9304038749542087,,,,,,"[-329, 190]","[-329, 190]",
memory,spatial_recall,252.41261741600465,254.4007768749725,42,7,Object_Land_Pattern_Large,,,1,1.984214249998331,,,,,,"[-329, -190]","[-329, -190]",
memory,spatial_recall,255.70656612492166,256.8184832499828,42,7,Animal_Sea_Pattern_Small,,,1,1.1076920409686863,,,,,,"[329, 189]","[329, 189]",
memory,spatial_recall,258.87590024992824,261.72368641593494,42,7,Animal_Sea_Solid_Small,,,1,2.8435188750736415,,,,,,"[0, -380]","[0, -380]",
