phase,event,trial_number,eyetracker_onset,eyetracker_offset,fix_start,fix_end,fix_duration_full,fix_duration_bounded,fix_x,fix_y,roi_x,roi_y,roi_content,onset,offset,game,image,outcome,choice,correct,rt,letter,match,response,option,true_value,true_position,recalled_position,Unnamed: 18
encoding,fixation,1,2309749,2311011,2310053.0,2310126.0,74.0,74.0,1911.2,1105.0,1920.0,1080.0,fixation,12.17283287504688,13.43416937510483,1.0,Object_Sea_Solid_Large,1.0,,,,,,,,,,,
encoding,fixation,1,2309749,2311011,2310299.0,2310800.0,502.0,502.0,1939.8,1307.7,1920.0,700.0,Object_Sea_Solid_Large,12.17283287504688,13.43416937510483,1.0,Object_Sea_Solid_Large,1.0,,,,,,,,,,,
encoding,fixation,1,2309749,2311011,2310822.0,2311092.0,271.0,189.0,1938.8,1196.7,1920.0,700.0,Object_Sea_Solid_Large,12.17283287504688,13.43416937510483,1.0,Object_Sea_Solid_Large,1.0,,,,,,,,,,,
encoding,image,1,2311011,2312027,2311285.0,2312218.0,934.0,742.0,1897.6,1411.5,1920.0,700.0,Object_Sea_Solid_Large,13.43427337508183,14.450629124999978,1.0,Object_Sea_Solid_Large,1.0,,,,,,,,,,,
encoding,value,1,2312027,2318043,2312232.0,2312354.0,123.0,123.0,1921.5,1365.2,1920.0,700.0,Object_Sea_Solid_Large,14.450741083011962,20.465888083097525,1.0,Object_Sea_Solid_Large,1.0,,,,,,,,,,,
encoding,value,1,2312027,2318043,2312550.0,2313497.0,948.0,948.0,1907.1,1422.0,1920.0,700.0,Object_Sea_Solid_Large,14.450741083011962,20.465888083097525,1.0,Object_Sea_Solid_Large,1.0,,,,,,,,,,,
encoding,value,1,2312027,2318043,2313519.0,2313736.0,218.0,218.0,1916.6,1289.8,1920.0,700.0,Object_Sea_Solid_Large,14.450741083011962,20.465888083097525,1.0,Object_Sea_Solid_Large,1.0,,,,,,,,,,,
encoding,value,1,2312027,2318043,2313743.0,2314408.0,666.0,666.0,1914.5,1330.3,1920.0,700.0,Object_Sea_Solid_Large,14.450741083011962,20.465888083097525,1.0,Object_Sea_Solid_Large,1.0,,,,,,,,,,,
encoding,value,1,2312027,2318043,2314582.0,2314946.0,365.0,365.0,1885.1,1363.1,1920.0,700.0,Object_Sea_Solid_Large,14.450741083011962,20.465888083097525,1.0,Object_Sea_Solid_Large,1.0,,,,,,,,,,,
encoding,value,1,2312027,2318043,2314961.0,2315220.0,260.0,260.0,1922.7,1332.2,1920.0,700.0,Object_Sea_Solid_Large,14.450741083011962,20.465888083097525,1.0,Object_Sea_Solid_Large,1.0,,,,,,,,,,,
encoding,value,1,2312027,2318043,2315395.0,2316511.0,1117.0,1117.0,1887.9,1343.2,1920.0,700.0,Object_Sea_Solid_Large,14.450741083011962,20.465888083097525,1.0,Object_Sea_Solid_Large,1.0,,,,,,,,,,,
encoding,value,1,2312027,2318043,2316564.0,2316689.0,126.0,126.0,1390.9,907.4000000000001,1591.0,1269.0,Object_Land_Pattern_Small,14.450741083011962,20.465888083097525,1.0,Object_Sea_Solid_Large,1.0,,,,,,,,,,,
encoding,value,1,2312027,2318043,2316738.0,2316934.0,197.0,197.0,1919.8,1249.3,1920.0,700.0,Object_Sea_Solid_Large,14.450741083011962,20.465888083097525,1.0,Object_Sea_Solid_Large,1.0,,,,,,,,,,,
encoding,value,1,2312027,2318043,2316948.0,2317710.0,763.0,763.0,1908.2,1302.9,1920.0,700.0,Object_Sea_Solid_Large,14.450741083011962,20.465888083097525,1.0,Object_Sea_Solid_Large,1.0,,,,,,,,,,,
encoding,value,1,2312027,2318043,2317882.0,2318931.0,1050.0,161.0,1928.2,1342.6,1920.0,700.0,Object_Sea_Solid_Large,14.450741083011962,20.465888083097525,1.0,Object_Sea_Solid_Large,1.0,,,,,,,,,,,
encoding,attention,1,2318043,2321061,2318946.0,2319500.0,555.0,555.0,1860.5,1333.8,1920.0,700.0,Object_Sea_Solid_Large,20.466009750030935,23.484283958096057,1.0,Object_Sea_Solid_Large,1.0,1.0,1.0,1.2280340410070494,,,,,,,,
encoding,attention,1,2318043,2321061,2319692.0,2320542.0,851.0,851.0,1890.9,1363.0,1920.0,700.0,Object_Sea_Solid_Large,20.466009750030935,23.484283958096057,1.0,Object_Sea_Solid_Large,1.0,1.0,1.0,1.2280340410070494,,,,,,,,
encoding,fixation,2,2321062,2322067,2321352.0,2321401.0,50.0,50.0,1899.3,1097.8,1920.0,1080.0,fixation,23.48445533309132,24.48955012508668,1.0,Animal_Sea_Solid_Large,-9.0,,,,,,,,,,,
encoding,fixation,2,2321062,2322067,2321622.0,2322245.0,624.0,445.0,1893.0,1223.7,1920.0,700.0,Object_Sea_Solid_Large,23.48445533309132,24.48955012508668,1.0,Animal_Sea_Solid_Large,-9.0,,,,,,,,,,,
encoding,image,2,2322067,2323078,2322279.0,2322864.0,586.0,586.0,2224.2,1266.6,2249.0,891.0,Animal_Sea_Solid_Large,24.489658333011903,25.500757916015573,1.0,Animal_Sea_Solid_Large,-9.0,,,,,,,,,,,
encoding,image,2,2322067,2323078,2323055.0,2323271.0,217.0,23.0,2160.2,1226.3,2249.0,891.0,Animal_Sea_Solid_Large,24.489658333011903,25.500757916015573,1.0,Animal_Sea_Solid_Large,-9.0,,,,,,,,,,,
encoding,value,2,2323078,2329091,2323289.0,2323469.0,181.0,181.0,2230.5,1206.0,2249.0,891.0,Animal_Sea_Solid_Large,25.500886583002284,31.51342787500471,1.0,Animal_Sea_Solid_Large,-9.0,,,,,,,,,,,
encoding,value,2,2323078,2329091,2323734.0,2324226.0,493.0,493.0,2181.3,1209.8,2249.0,891.0,Animal_Sea_Solid_Large,25.500886583002284,31.51342787500471,1.0,Animal_Sea_Solid_Large,-9.0,,,,,,,,,,,
encoding,value,2,2323078,2329091,2324239.0,2326807.0,2569.0,2569.0,2230.2,1178.3,2249.0,891.0,Animal_Sea_Solid_Large,25.500886583002284,31.51342787500471,1.0,Animal_Sea_Solid_Large,-9.0,,,,,,,,,,,
encoding,value,2,2323078,2329091,2326977.0,2327876.0,900.0,900.0,2238.3,1157.6,2249.0,891.0,Animal_Sea_Solid_Large,25.500886583002284,31.51342787500471,1.0,Animal_Sea_Solid_Large,-9.0,,,,,,,,,,,
encoding,value,2,2323078,2329091,2327885.0,2328398.0,514.0,514.0,2201.2,1160.0,2249.0,891.0,Animal_Sea_Solid_Large,25.500886583002284,31.51342787500471,1.0,Animal_Sea_Solid_Large,-9.0,,,,,,,,,,,
encoding,value,2,2323078,2329091,2328653.0,2328748.0,96.0,96.0,2230.2,1164.9,2249.0,891.0,Animal_Sea_Solid_Large,25.500886583002284,31.51342787500471,1.0,Animal_Sea_Solid_Large,-9.0,,,,,,,,,,,
encoding,value,2,2323078,2329091,2329024.0,2329183.0,160.0,67.0,2204.2,1163.6,2249.0,891.0,Animal_Sea_Solid_Large,25.500886583002284,31.51342787500471,1.0,Animal_Sea_Solid_Large,-9.0,,,,,,,,,,,
encoding,attention,2,2329091,2332109,2329194.0,2329491.0,298.0,298.0,2252.0,1190.8,2249.0,891.0,Animal_Sea_Solid_Large,31.513535083038732,34.5313177080825,1.0,Animal_Sea_Solid_Large,-9.0,-9.0,1.0,0.9583444170420988,,,,,,,,
encoding,attention,2,2329091,2332109,2329498.0,2330299.0,802.0,802.0,2276.4,1181.6,2249.0,891.0,Animal_Sea_Solid_Large,31.513535083038732,34.5313177080825,1.0,Animal_Sea_Solid_Large,-9.0,-9.0,1.0,0.9583444170420988,,,,,,,,
encoding,attention,2,2329091,2332109,2330547.0,2330613.0,67.0,67.0,2284.1,1146.8,2249.0,891.0,Animal_Sea_Solid_Large,31.513535083038732,34.5313177080825,1.0,Animal_Sea_Solid_Large,-9.0,-9.0,1.0,0.9583444170420988,,,,,,,,
encoding,attention,2,2329091,2332109,2331038.0,2331101.0,64.0,64.0,2287.0,996.0,2249.0,1269.0,Animal_Land_Pattern_Small,31.513535083038732,34.5313177080825,1.0,Animal_Sea_Solid_Large,-9.0,-9.0,1.0,0.9583444170420988,,,,,,,,
encoding,attention,2,2329091,2332109,2331124.0,2331406.0,283.0,283.0,2253.2,1181.2,2249.0,891.0,Animal_Sea_Solid_Large,31.513535083038732,34.5313177080825,1.0,Animal_Sea_Solid_Large,-9.0,-9.0,1.0,0.9583444170420988,,,,,,,,
encoding,attention,2,2329091,2332109,2331847.0,2332082.0,236.0,236.0,2179.3,1112.1,2249.0,891.0,Animal_Sea_Solid_Large,31.513535083038732,34.5313177080825,1.0,Animal_Sea_Solid_Large,-9.0,-9.0,1.0,0.9583444170420988,,,,,,,,
encoding,fixation,3,2332109,2333614,2332494.0,2332575.0,82.0,82.0,1808.0,803.0999999999999,1920.0,1460.0,Animal_Land_Solid_Small,34.531470375019126,36.03648541599978,1.0,Object_Sea_Pattern_Large,2.0,,,,,,,,,,,
encoding,fixation,3,2332109,2333614,2332844.0,2332967.0,124.0,124.0,1966.7,988.0999999999999,1920.0,1460.0,Animal_Land_Solid_Small,34.531470375019126,36.03648541599978,1.0,Object_Sea_Pattern_Large,2.0,,,,,,,,,,,
encoding,fixation,3,2332109,2333614,2332987.0,2333586.0,600.0,600.0,1905.4,1086.9,1920.0,1080.0,fixation,34.531470375019126,36.03648541599978,1.0,Object_Sea_Pattern_Large,2.0,,,,,,,,,,,
encoding,fixation,3,2332109,2333614,2333604.0,2333778.0,175.0,10.0,2078.2,1085.0,2249.0,891.0,Animal_Sea_Solid_Large,34.531470375019126,36.03648541599978,1.0,Object_Sea_Pattern_Large,2.0,,,,,,,,,,,
encoding,image,3,2333614,2334627,2333810.0,2333950.0,141.0,141.0,1647.5,1175.3,1591.0,891.0,Object_Sea_Pattern_Large,36.03660875000059,37.049888125038706,1.0,Object_Sea_Pattern_Large,2.0,,,,,,,,,,,
encoding,image,3,2333614,2334627,2333966.0,2334170.0,205.0,205.0,1560.8,1229.1,1591.0,891.0,Object_Sea_Pattern_Large,36.03660875000059,37.049888125038706,1.0,Object_Sea_Pattern_Large,2.0,,,,,,,,,,,
encoding,image,3,2333614,2334627,2334412.0,2334540.0,129.0,129.0,1637.2,1124.3,1591.0,891.0,Object_Sea_Pattern_Large,36.03660875000059,37.049888125038706,1.0,Object_Sea_Pattern_Large,2.0,,,,,,,,,,,
encoding,image,3,2333614,2334627,2334554.0,2334893.0,340.0,73.0,1591.6,1238.2,1591.0,891.0,Object_Sea_Pattern_Large,36.03660875000059,37.049888125038706,1.0,Object_Sea_Pattern_Large,2.0,,,,,,,,,,,
encoding,value,3,2334628,2340640,2335142.0,2335302.0,161.0,161.0,1637.2,1068.1,1591.0,1269.0,Object_Land_Pattern_Small,37.0500155830523,43.06180716608651,1.0,Object_Sea_Pattern_Large,2.0,,,,,,,,,,,
encoding,value,3,2334628,2340640,2335310.0,2336158.0,849.0,849.0,1611.7,1167.6,1591.0,891.0,Object_Sea_Pattern_Large,37.0500155830523,43.06180716608651,1.0,Object_Sea_Pattern_Large,2.0,,,,,,,,,,,
encoding,value,3,2334628,2340640,2336166.0,2336475.0,310.0,310.0,1579.3,1150.4,1591.0,891.0,Object_Sea_Pattern_Large,37.0500155830523,43.06180716608651,1.0,Object_Sea_Pattern_Large,2.0,,,,,,,,,,,
encoding,value,3,2334628,2340640,2336670.0,2337560.0,891.0,891.0,1609.5,1157.2,1591.0,891.0,Object_Sea_Pattern_Large,37.0500155830523,43.06180716608651,1.0,Object_Sea_Pattern_Large,2.0,,,,,,,,,,,
encoding,value,3,2334628,2340640,2337572.0,2339350.0,1779.0,1779.0,1619.2,1153.0,1591.0,891.0,Object_Sea_Pattern_Large,37.0500155830523,43.06180716608651,1.0,Object_Sea_Pattern_Large,2.0,,,,,,,,,,,
encoding,value,3,2334628,2340640,2339546.0,2340964.0,1419.0,1094.0,1609.0,1128.4,1591.0,891.0,Object_Sea_Pattern_Large,37.0500155830523,43.06180716608651,1.0,Object_Sea_Pattern_Large,2.0,,,,,,,,,,,
encoding,attention,3,2340640,2343657,2340973.0,2341229.0,257.0,257.0,1557.0,1127.5,1591.0,891.0,Object_Sea_Pattern_Large,43.06191262509674,46.07906666607596,1.0,Object_Sea_Pattern_Large,2.0,2.0,1.0,0.8599926250753924,,,,,,,,
encoding,attention,3,2340640,2343657,2341422.0,2341741.0,320.0,320.0,1595.8,1137.8,1591.0,891.0,Object_Sea_Pattern_Large,43.06191262509674,46.07906666607596,1.0,Object_Sea_Pattern_Large,2.0,2.0,1.0,0.8599926250753924,,,,,,,,
encoding,attention,3,2340640,2343657,2342020.0,2342329.0,310.0,310.0,1562.3,1151.5,1591.0,891.0,Object_Sea_Pattern_Large,43.06191262509674,46.07906666607596,1.0,Object_Sea_Pattern_Large,2.0,2.0,1.0,0.8599926250753924,,,,,,,,
encoding,attention,3,2340640,2343657,2342624.0,2343475.0,852.0,852.0,1590.5,1177.6,1591.0,891.0,Object_Sea_Pattern_Large,43.06191262509674,46.07906666607596,1.0,Object_Sea_Pattern_Large,2.0,2.0,1.0,0.8599926250753924,,,,,,,,
encoding,fixation,4,2343657,2344412,2343736.0,2343912.0,177.0,177.0,1527.7,1016.2,1591.0,1269.0,Object_Land_Pattern_Small,46.07924683298915,46.834312083083205,1.0,Object_Land_Pattern_Small,-2.0,,,,,,,,,,,
encoding,fixation,4,2343657,2344412,2344387.0,2344531.0,145.0,25.0,1790.4,816.9000000000001,1920.0,1460.0,Animal_Land_Solid_Small,46.07924683298915,46.834312083083205,1.0,Object_Land_Pattern_Small,-2.0,,,,,,,,,,,
encoding,image,4,2344412,2345424,2344538.0,2344646.0,109.0,109.0,1878.0,1024.1,1920.0,1080.0,fixation,46.83443862502463,47.84593529102858,1.0,Object_Land_Pattern_Small,-2.0,,,,,,,,,,,
encoding,image,4,2344412,2345424,2344684.0,2344883.0,200.0,200.0,1554.0,890.0,1591.0,1269.0,Object_Land_Pattern_Small,46.83443862502463,47.84593529102858,1.0,Object_Land_Pattern_Small,-2.0,,,,,,,,,,,
encoding,image,4,2344412,2345424,2344899.0,2344968.0,70.0,70.0,1642.6,872.7,1591.0,1269.0,Object_Land_Pattern_Small,46.83443862502463,47.84593529102858,1.0,Object_Land_Pattern_Small,-2.0,,,,,,,,,,,
encoding,image,4,2344412,2345424,2345162.0,2345300.0,139.0,139.0,1587.8,733.3,1591.0,1269.0,Object_Land_Pattern_Small,46.83443862502463,47.84593529102858,1.0,Object_Land_Pattern_Small,-2.0,,,,,,,,,,,
encoding,image,4,2344412,2345424,2345307.0,2345519.0,213.0,117.0,1566.4,899.2,1591.0,1269.0,Object_Land_Pattern_Small,46.83443862502463,47.84593529102858,1.0,Object_Land_Pattern_Small,-2.0,,,,,,,,,,,
encoding,value,4,2345424,2351436,2345530.0,2345714.0,185.0,185.0,1621.6,889.3,1591.0,1269.0,Object_Land_Pattern_Small,47.846066041034646,53.85742516606115,1.0,Object_Land_Pattern_Small,-2.0,,,,,,,,,,,
encoding,value,4,2345424,2351436,2345734.0,2345846.0,113.0,113.0,1609.0,770.5,1591.0,1269.0,Object_Land_Pattern_Small,47.846066041034646,53.85742516606115,1.0,Object_Land_Pattern_Small,-2.0,,,,,,,,,,,
encoding,value,4,2345424,2351436,2346058.0,2346256.0,199.0,199.0,1596.4,642.3,1591.0,1269.0,Object_Land_Pattern_Small,47.846066041034646,53.85742516606115,1.0,Object_Land_Pattern_Small,-2.0,,,,,,,,,,,
encoding,value,4,2345424,2351436,2346268.0,2346695.0,428.0,428.0,1595.2,746.5,1591.0,1269.0,Object_Land_Pattern_Small,47.846066041034646,53.85742516606115,1.0,Object_Land_Pattern_Small,-2.0,,,,,,,,,,,
encoding,value,4,2345424,2351436,2346901.0,2347479.0,579.0,579.0,1602.2,711.0,1591.0,1269.0,Object_Land_Pattern_Small,47.846066041034646,53.85742516606115,1.0,Object_Land_Pattern_Small,-2.0,,,,,,,,,,,
encoding,value,4,2345424,2351436,2347494.0,2349345.0,1852.0,1852.0,1613.2,757.5,1591.0,1269.0,Object_Land_Pattern_Small,47.846066041034646,53.85742516606115,1.0,Object_Land_Pattern_Small,-2.0,,,,,,,,,,,
encoding,value,4,2345424,2351436,2349526.0,2349939.0,414.0,414.0,1613.7,697.3,1591.0,1269.0,Object_Land_Pattern_Small,47.846066041034646,53.85742516606115,1.0,Object_Land_Pattern_Small,-2.0,,,,,,,,,,,
encoding,value,4,2345424,2351436,2349946.0,2351224.0,1279.0,1279.0,1595.5,771.5,1591.0,1269.0,Object_Land_Pattern_Small,47.846066041034646,53.85742516606115,1.0,Object_Land_Pattern_Small,-2.0,,,,,,,,,,,
encoding,value,4,2345424,2351436,2351397.0,2351727.0,331.0,39.0,1574.3,674.5999999999999,1591.0,1269.0,Object_Land_Pattern_Small,47.846066041034646,53.85742516606115,1.0,Object_Land_Pattern_Small,-2.0,,,,,,,,,,,
encoding,attention,4,2351436,2354453,2351736.0,2352017.0,282.0,282.0,1533.0,754.3,1591.0,1269.0,Object_Land_Pattern_Small,53.857549208099954,56.874352500075474,1.0,Object_Land_Pattern_Small,-2.0,-2.0,1.0,1.478427957976237,,,,,,,,
encoding,attention,4,2351436,2354453,2352032.0,2353164.0,1133.0,1133.0,1630.1,762.5999999999999,1591.0,1269.0,Object_Land_Pattern_Small,53.857549208099954,56.874352500075474,1.0,Object_Land_Pattern_Small,-2.0,-2.0,1.0,1.478427957976237,,,,,,,,
encoding,attention,4,2351436,2354453,2353351.0,2353719.0,369.0,369.0,1567.4,848.5,1591.0,1269.0,Object_Land_Pattern_Small,53.857549208099954,56.874352500075474,1.0,Object_Land_Pattern_Small,-2.0,-2.0,1.0,1.478427957976237,,,,,,,,
encoding,attention,4,2351436,2354453,2353952.0,2354138.0,187.0,187.0,1646.1,796.0999999999999,1591.0,1269.0,Object_Land_Pattern_Small,53.857549208099954,56.874352500075474,1.0,Object_Land_Pattern_Small,-2.0,-2.0,1.0,1.478427957976237,,,,,,,,
encoding,attention,4,2351436,2354453,2354149.0,2354408.0,260.0,260.0,1589.5,890.4000000000001,1591.0,1269.0,Object_Land_Pattern_Small,53.857549208099954,56.874352500075474,1.0,Object_Land_Pattern_Small,-2.0,-2.0,1.0,1.478427957976237,,,,,,,,
encoding,fixation,5,2354453,2355959,2354893.0,2355055.0,163.0,163.0,1899.5,1067.1,1920.0,1080.0,fixation,56.8744897081051,58.380275166011415,1.0,Animal_Land_Pattern_Small,-2.0,,,,,,,,,,,
encoding,fixation,5,2354453,2355959,2355074.0,2355349.0,276.0,276.0,1830.3,1120.8,1591.0,891.0,Object_Sea_Pattern_Large,56.8744897081051,58.380275166011415,1.0,Animal_Land_Pattern_Small,-2.0,,,,,,,,,,,
encoding,fixation,5,2354453,2355959,2355366.0,2355617.0,252.0,252.0,1731.9,1138.0,1591.0,891.0,Object_Sea_Pattern_Large,56.8744897081051,58.380275166011415,1.0,Animal_Land_Pattern_Small,-2.0,,,,,,,,,,,
encoding,fixation,5,2354453,2355959,2355642.0,2356033.0,392.0,317.0,1931.8,1074.9,1920.0,1080.0,fixation,56.8744897081051,58.380275166011415,1.0,Animal_Land_Pattern_Small,-2.0,,,,,,,,,,,
encoding,image,5,2355959,2356970,2356205.0,2356366.0,162.0,162.0,2164.9,856.0999999999999,2249.0,1269.0,Animal_Land_Pattern_Small,58.3803747080965,59.39150966599118,1.0,Animal_Land_Pattern_Small,-2.0,,,,,,,,,,,
encoding,image,5,2355959,2356970,2356388.0,2356659.0,272.0,272.0,2217.0,920.3,2249.0,1269.0,Animal_Land_Pattern_Small,58.3803747080965,59.39150966599118,1.0,Animal_Land_Pattern_Small,-2.0,,,,,,,,,,,
encoding,image,5,2355959,2356970,2356914.0,2357164.0,251.0,56.0,2211.1,779.5,2249.0,1269.0,Animal_Land_Pattern_Small,58.3803747080965,59.39150966599118,1.0,Animal_Land_Pattern_Small,-2.0,,,,,,,,,,,
encoding,value,5,2356970,2362982,2357190.0,2357597.0,408.0,408.0,2221.3,773.5,2249.0,1269.0,Animal_Land_Pattern_Small,59.39162183308508,65.40314295806456,1.0,Animal_Land_Pattern_Small,-2.0,,,,,,,,,,,
encoding,value,5,2356970,2362982,2357866.0,2358004.0,139.0,139.0,2222.9,805.2,2249.0,1269.0,Animal_Land_Pattern_Small,59.39162183308508,65.40314295806456,1.0,Animal_Land_Pattern_Small,-2.0,,,,,,,,,,,
encoding,value,5,2356970,2362982,2358013.0,2358575.0,563.0,563.0,2224.9,861.9000000000001,2249.0,1269.0,Animal_Land_Pattern_Small,59.39162183308508,65.40314295806456,1.0,Animal_Land_Pattern_Small,-2.0,,,,,,,,,,,
encoding,value,5,2356970,2362982,2358585.0,2359165.0,581.0,581.0,2276.8,876.4000000000001,2249.0,1269.0,Animal_Land_Pattern_Small,59.39162183308508,65.40314295806456,1.0,Animal_Land_Pattern_Small,-2.0,,,,,,,,,,,
encoding,value,5,2356970,2362982,2359384.0,2360007.0,624.0,624.0,2232.0,871.3,2249.0,1269.0,Animal_Land_Pattern_Small,59.39162183308508,65.40314295806456,1.0,Animal_Land_Pattern_Small,-2.0,,,,,,,,,,,
encoding,value,5,2356970,2362982,2360027.0,2360591.0,565.0,565.0,2091.7,844.0999999999999,2249.0,1269.0,Animal_Land_Pattern_Small,59.39162183308508,65.40314295806456,1.0,Animal_Land_Pattern_Small,-2.0,,,,,,,,,,,
encoding,value,5,2356970,2362982,2360608.0,2360995.0,388.0,388.0,2211.7,812.2,2249.0,1269.0,Animal_Land_Pattern_Small,59.39162183308508,65.40314295806456,1.0,Animal_Land_Pattern_Small,-2.0,,,,,,,,,,,
encoding,value,5,2356970,2362982,2361011.0,2361805.0,795.0,795.0,2269.1,769.2,2249.0,1269.0,Animal_Land_Pattern_Small,59.39162183308508,65.40314295806456,1.0,Animal_Land_Pattern_Small,-2.0,,,,,,,,,,,
encoding,value,5,2356970,2362982,2361823.0,2362063.0,241.0,241.0,2237.5,773.0999999999999,2249.0,1269.0,Animal_Land_Pattern_Small,59.39162183308508,65.40314295806456,1.0,Animal_Land_Pattern_Small,-2.0,,,,,,,,,,,
encoding,value,5,2356970,2362982,2362314.0,2363532.0,1219.0,668.0,2230.7,762.3,2249.0,1269.0,Animal_Land_Pattern_Small,59.39162183308508,65.40314295806456,1.0,Animal_Land_Pattern_Small,-2.0,,,,,,,,,,,
encoding,attention,5,2362982,2366035,2363758.0,2364830.0,1073.0,1073.0,2201.4,800.9000000000001,2249.0,1269.0,Animal_Land_Pattern_Small,65.40325437509455,68.455835333094,1.0,Animal_Land_Pattern_Small,-2.0,-2.0,1.0,1.4887412920361385,,,,,,,,
encoding,attention,5,2362982,2366035,2364845.0,2365116.0,272.0,272.0,2295.9,856.8,2249.0,1269.0,Animal_Land_Pattern_Small,65.40325437509455,68.455835333094,1.0,Animal_Land_Pattern_Small,-2.0,-2.0,1.0,1.4887412920361385,,,,,,,,
encoding,attention,5,2362982,2366035,2365133.0,2365537.0,405.0,405.0,2251.3,876.3,2249.0,1269.0,Animal_Land_Pattern_Small,65.40325437509455,68.455835333094,1.0,Animal_Land_Pattern_Small,-2.0,-2.0,1.0,1.4887412920361385,,,,,,,,
encoding,fixation,6,2366035,2367290,2366321.0,2366697.0,377.0,377.0,1914.3,887.5,1920.0,1460.0,Animal_Land_Solid_Small,68.45597887504846,69.7112182910787,1.0,Animal_Land_Solid_Small,9.0,,,,,,,,,,,
encoding,fixation,6,2366035,2367290,2366722.0,2367014.0,293.0,293.0,1881.6,771.5999999999999,1920.0,1460.0,Animal_Land_Solid_Small,68.45597887504846,69.7112182910787,1.0,Animal_Land_Solid_Small,9.0,,,,,,,,,,,
encoding,fixation,6,2366035,2367290,2367031.0,2367611.0,581.0,259.0,1884.1,699.9000000000001,1920.0,1460.0,Animal_Land_Solid_Small,68.45597887504846,69.7112182910787,1.0,Animal_Land_Solid_Small,9.0,,,,,,,,,,,
encoding,image,6,2367290,2368301,2367627.0,2368379.0,753.0,674.0,1905.8,670.5,1920.0,1460.0,Animal_Land_Solid_Small,69.71133225003723,70.72196687501855,1.0,Animal_Land_Solid_Small,9.0,,,,,,,,,,,
encoding,value,6,2368301,2374313,2368392.0,2368538.0,147.0,147.0,1878.0,721.5,1920.0,1460.0,Animal_Land_Solid_Small,70.72208608302753,76.73313183302525,1.0,Animal_Land_Solid_Small,9.0,,,,,,,,,,,
encoding,value,6,2368301,2374313,2368560.0,2368757.0,198.0,198.0,1908.0,598.5,1920.0,1460.0,Animal_Land_Solid_Small,70.72208608302753,76.73313183302525,1.0,Animal_Land_Solid_Small,9.0,,,,,,,,,,,
encoding,value,6,2368301,2374313,2368964.0,2369991.0,1028.0,1028.0,1924.5,694.3,1920.0,1460.0,Animal_Land_Solid_Small,70.72208608302753,76.73313183302525,1.0,Animal_Land_Solid_Small,9.0,,,,,,,,,,,
encoding,value,6,2368301,2374313,2370012.0,2371170.0,1159.0,1159.0,1889.0,616.0,1920.0,1460.0,Animal_Land_Solid_Small,70.72208608302753,76.73313183302525,1.0,Animal_Land_Solid_Small,9.0,,,,,,,,,,,
encoding,value,6,2368301,2374313,2371402.0,2371814.0,413.0,413.0,1880.9,595.7,1920.0,1460.0,Animal_Land_Solid_Small,70.72208608302753,76.73313183302525,1.0,Animal_Land_Solid_Small,9.0,,,,,,,,,,,
encoding,value,6,2368301,2374313,2371821.0,2372711.0,891.0,891.0,1888.4,636.8,1920.0,1460.0,Animal_Land_Solid_Small,70.72208608302753,76.73313183302525,1.0,Animal_Land_Solid_Small,9.0,,,,,,,,,,,
encoding,value,6,2368301,2374313,2372926.0,2373248.0,323.0,323.0,1865.8,573.9000000000001,1920.0,1460.0,Animal_Land_Solid_Small,70.72208608302753,76.73313183302525,1.0,Animal_Land_Solid_Small,9.0,,,,,,,,,,,
encoding,value,6,2368301,2374313,2373506.0,2374431.0,926.0,807.0,1867.1,610.0999999999999,1920.0,1460.0,Animal_Land_Solid_Small,70.72208608302753,76.73313183302525,1.0,Animal_Land_Solid_Small,9.0,,,,,,,,,,,
encoding,attention,6,2374313,2377330,2374443.0,2374703.0,261.0,261.0,1873.5,607.7,1920.0,1460.0,Animal_Land_Solid_Small,76.73326095798984,79.7510559160728,1.0,Animal_Land_Solid_Small,9.0,9.0,1.0,0.8412261250196025,,,,,,,,
encoding,attention,6,2374313,2377330,2374710.0,2375382.0,673.0,673.0,1831.9,570.5999999999999,1920.0,1460.0,Animal_Land_Solid_Small,76.73326095798984,79.7510559160728,1.0,Animal_Land_Solid_Small,9.0,9.0,1.0,0.8412261250196025,,,,,,,,
encoding,attention,6,2374313,2377330,2375600.0,2375760.0,161.0,161.0,1888.7,607.4000000000001,1920.0,1460.0,Animal_Land_Solid_Small,76.73326095798984,79.7510559160728,1.0,Animal_Land_Solid_Small,9.0,9.0,1.0,0.8412261250196025,,,,,,,,
encoding,attention,6,2374313,2377330,2375769.0,2375855.0,87.0,87.0,1950.7,780.8,1920.0,1460.0,Animal_Land_Solid_Small,76.73326095798984,79.7510559160728,1.0,Animal_Land_Solid_Small,9.0,9.0,1.0,0.8412261250196025,,,,,,,,
encoding,attention,6,2374313,2377330,2376189.0,2377026.0,838.0,838.0,1865.7,551.3,1920.0,1460.0,Animal_Land_Solid_Small,76.73326095798984,79.7510559160728,1.0,Animal_Land_Solid_Small,9.0,9.0,1.0,0.8412261250196025,,,,,,,,
encoding,attention,6,2374313,2377330,2377038.0,2377198.0,161.0,161.0,1939.7,663.2,1920.0,1460.0,Animal_Land_Solid_Small,76.73326095798984,79.7510559160728,1.0,Animal_Land_Solid_Small,9.0,9.0,1.0,0.8412261250196025,,,,,,,,
encoding,fixation,7,2776951,2778457,2777215.0,2777249.0,35.0,35.0,1896.0,1126.2,1920.0,1080.0,fixation,6.468720958917402,7.974213166977279,2.0,Object_Land_Pattern_Large,-1.0,,,,,,,,,,,
encoding,fixation,7,2776951,2778457,2777420.0,2777572.0,153.0,153.0,1904.8,1335.8,1920.0,700.0,Animal_Land_Solid_Large,6.468720958917402,7.974213166977279,2.0,Object_Land_Pattern_Large,-1.0,,,,,,,,,,,
encoding,fixation,7,2776951,2778457,2777586.0,2778433.0,848.0,848.0,1850.6,1382.5,1920.0,700.0,Animal_Land_Solid_Large,6.468720958917402,7.974213166977279,2.0,Object_Land_Pattern_Large,-1.0,,,,,,,,,,,
encoding,fixation,7,2776951,2778457,2778451.0,2778637.0,187.0,6.0,1936.5,1384.8,1920.0,700.0,Animal_Land_Solid_Large,6.468720958917402,7.974213166977279,2.0,Object_Land_Pattern_Large,-1.0,,,,,,,,,,,
encoding,image,7,2778457,2779469,2778688.0,2779096.0,409.0,409.0,1646.9,836.9000000000001,1591.0,1269.0,Object_Land_Pattern_Large,7.974321333924308,8.986511041992344,2.0,Object_Land_Pattern_Large,-1.0,,,,,,,,,,,
encoding,image,7,2778457,2779469,2779115.0,2779195.0,81.0,81.0,1619.9,775.9000000000001,1591.0,1269.0,Object_Land_Pattern_Large,7.974321333924308,8.986511041992344,2.0,Object_Land_Pattern_Large,-1.0,,,,,,,,,,,
encoding,image,7,2778457,2779469,2779375.0,2779690.0,316.0,94.0,1626.7,768.5,1591.0,1269.0,Object_Land_Pattern_Large,7.974321333924308,8.986511041992344,2.0,Object_Land_Pattern_Large,-1.0,,,,,,,,,,,
encoding,value,7,2779470,2785484,2779697.0,2779897.0,201.0,201.0,1600.3,740.3,1591.0,1269.0,Object_Land_Pattern_Large,8.986717666964978,15.00046599993948,2.0,Object_Land_Pattern_Large,-1.0,,,,,,,,,,,
encoding,value,7,2779470,2785484,2780069.0,2780846.0,778.0,778.0,1598.1,762.0999999999999,1591.0,1269.0,Object_Land_Pattern_Large,8.986717666964978,15.00046599993948,2.0,Object_Land_Pattern_Large,-1.0,,,,,,,,,,,
encoding,value,7,2779470,2785484,2780999.0,2781959.0,961.0,961.0,1622.0,800.7,1591.0,1269.0,Object_Land_Pattern_Large,8.986717666964978,15.00046599993948,2.0,Object_Land_Pattern_Large,-1.0,,,,,,,,,,,
encoding,value,7,2779470,2785484,2781976.0,2783483.0,1508.0,1508.0,1604.6,733.9000000000001,1591.0,1269.0,Object_Land_Pattern_Large,8.986717666964978,15.00046599993948,2.0,Object_Land_Pattern_Large,-1.0,,,,,,,,,,,
encoding,value,7,2779470,2785484,2783493.0,2784529.0,1037.0,1037.0,1617.5,747.3,1591.0,1269.0,Object_Land_Pattern_Large,8.986717666964978,15.00046599993948,2.0,Object_Land_Pattern_Large,-1.0,,,,,,,,,,,
encoding,value,7,2779470,2785484,2784702.0,2784940.0,239.0,239.0,1583.5,664.0999999999999,1591.0,1269.0,Object_Land_Pattern_Large,8.986717666964978,15.00046599993948,2.0,Object_Land_Pattern_Large,-1.0,,,,,,,,,,,
encoding,value,7,2779470,2785484,2785156.0,2785952.0,797.0,328.0,1585.4,726.8,1591.0,1269.0,Object_Land_Pattern_Large,8.986717666964978,15.00046599993948,2.0,Object_Land_Pattern_Large,-1.0,,,,,,,,,,,
encoding,attention,7,2785484,2788502,2785964.0,2786406.0,443.0,443.0,1649.1,746.3,1591.0,1269.0,Object_Land_Pattern_Large,15.000593666918576,18.01871370896697,2.0,Object_Land_Pattern_Large,-1.0,-1.0,1.0,0.702524209045805,,,,,,,,
encoding,attention,7,2785484,2788502,2786616.0,2787199.0,584.0,584.0,1636.8,750.8,1591.0,1269.0,Object_Land_Pattern_Large,15.000593666918576,18.01871370896697,2.0,Object_Land_Pattern_Large,-1.0,-1.0,1.0,0.702524209045805,,,,,,,,
encoding,attention,7,2785484,2788502,2787403.0,2787838.0,436.0,436.0,1614.4,740.2,1591.0,1269.0,Object_Land_Pattern_Large,15.000593666918576,18.01871370896697,2.0,Object_Land_Pattern_Large,-1.0,-1.0,1.0,0.702524209045805,,,,,,,,
encoding,fixation,8,2788502,2789509,2788900.0,2789088.0,189.0,189.0,1940.9,998.0999999999999,1920.0,1460.0,Animal_Sea_Solid_Small,18.018863749923185,19.02533004200086,2.0,Object_Sea_Pattern_Large,8.0,,,,,,,,,,,
encoding,fixation,8,2788502,2789509,2789101.0,2789671.0,571.0,408.0,1898.1,1035.6,1920.0,1080.0,fixation,18.018863749923185,19.02533004200086,2.0,Object_Sea_Pattern_Large,8.0,,,,,,,,,,,
encoding,image,8,2789509,2790520,2789698.0,2790024.0,327.0,327.0,1612.6,1131.8,1591.0,891.0,Object_Sea_Pattern_Large,19.02543270890601,20.036576416925527,2.0,Object_Sea_Pattern_Large,8.0,,,,,,,,,,,
encoding,image,8,2789509,2790520,2790195.0,2790593.0,399.0,325.0,1578.8,1201.0,1591.0,891.0,Object_Sea_Pattern_Large,19.02543270890601,20.036576416925527,2.0,Object_Sea_Pattern_Large,8.0,,,,,,,,,,,
encoding,value,8,2790520,2796533,2790608.0,2790796.0,189.0,189.0,1605.0,1161.1,1591.0,891.0,Object_Sea_Pattern_Large,20.036698833922856,26.049126833910123,2.0,Object_Sea_Pattern_Large,8.0,,,,,,,,,,,
encoding,value,8,2790520,2796533,2790812.0,2791202.0,391.0,391.0,1612.4,1092.8,1591.0,891.0,Object_Sea_Pattern_Large,20.036698833922856,26.049126833910123,2.0,Object_Sea_Pattern_Large,8.0,,,,,,,,,,,
encoding,value,8,2790520,2796533,2791396.0,2791976.0,581.0,581.0,1618.8,1155.1,1591.0,891.0,Object_Sea_Pattern_Large,20.036698833922856,26.049126833910123,2.0,Object_Sea_Pattern_Large,8.0,,,,,,,,,,,
encoding,value,8,2790520,2796533,2791986.0,2792385.0,400.0,400.0,1569.7,1145.6,1591.0,891.0,Object_Sea_Pattern_Large,20.036698833922856,26.049126833910123,2.0,Object_Sea_Pattern_Large,8.0,,,,,,,,,,,
encoding,value,8,2790520,2796533,2792404.0,2792718.0,315.0,315.0,1615.0,1140.9,1591.0,891.0,Object_Sea_Pattern_Large,20.036698833922856,26.049126833910123,2.0,Object_Sea_Pattern_Large,8.0,,,,,,,,,,,
encoding,value,8,2790520,2796533,2792734.0,2793431.0,698.0,698.0,1601.0,1091.4,1591.0,891.0,Object_Sea_Pattern_Large,20.036698833922856,26.049126833910123,2.0,Object_Sea_Pattern_Large,8.0,,,,,,,,,,,
encoding,value,8,2790520,2796533,2793442.0,2793590.0,149.0,149.0,1649.8,1089.1,1591.0,891.0,Object_Sea_Pattern_Large,20.036698833922856,26.049126833910123,2.0,Object_Sea_Pattern_Large,8.0,,,,,,,,,,,
encoding,value,8,2790520,2796533,2793597.0,2794086.0,490.0,490.0,1616.2,1079.2,1591.0,1269.0,Object_Land_Pattern_Large,20.036698833922856,26.049126833910123,2.0,Object_Sea_Pattern_Large,8.0,,,,,,,,,,,
encoding,value,8,2790520,2796533,2794277.0,2796592.0,2316.0,2256.0,1611.2,1093.9,1591.0,891.0,Object_Sea_Pattern_Large,20.036698833922856,26.049126833910123,2.0,Object_Sea_Pattern_Large,8.0,,,,,,,,,,,
encoding,attention,8,2796533,2799550,2796609.0,2796807.0,199.0,199.0,1637.1,1091.6,1591.0,891.0,Object_Sea_Pattern_Large,26.04926729190629,29.066405333927833,2.0,Object_Sea_Pattern_Large,8.0,8.0,1.0,0.7275607920018956,,,,,,,,
encoding,attention,8,2796533,2799550,2796952.0,2797753.0,802.0,802.0,1571.1,1049.7,1591.0,1269.0,Object_Land_Pattern_Large,26.04926729190629,29.066405333927833,2.0,Object_Sea_Pattern_Large,8.0,8.0,1.0,0.7275607920018956,,,,,,,,
encoding,attention,8,2796533,2799550,2797773.0,2797997.0,225.0,225.0,1607.2,1184.7,1591.0,891.0,Object_Sea_Pattern_Large,26.04926729190629,29.066405333927833,2.0,Object_Sea_Pattern_Large,8.0,8.0,1.0,0.7275607920018956,,,,,,,,
encoding,attention,8,2796533,2799550,2798209.0,2798546.0,338.0,338.0,1540.2,1199.6,1591.0,891.0,Object_Sea_Pattern_Large,26.04926729190629,29.066405333927833,2.0,Object_Sea_Pattern_Large,8.0,8.0,1.0,0.7275607920018956,,,,,,,,
encoding,attention,8,2796533,2799550,2798562.0,2799207.0,646.0,646.0,1617.1,1182.8,1591.0,891.0,Object_Sea_Pattern_Large,26.04926729190629,29.066405333927833,2.0,Object_Sea_Pattern_Large,8.0,8.0,1.0,0.7275607920018956,,,,,,,,
encoding,attention,8,2796533,2799550,2799216.0,2799341.0,126.0,126.0,1577.7,1176.7,1591.0,891.0,Object_Sea_Pattern_Large,26.04926729190629,29.066405333927833,2.0,Object_Sea_Pattern_Large,8.0,8.0,1.0,0.7275607920018956,,,,,,,,
encoding,fixation,9,2799550,2800555,2799579.0,2799811.0,233.0,233.0,1600.2,1127.7,1591.0,891.0,Object_Sea_Pattern_Large,29.06656595901586,30.071551458910108,2.0,Object_Land_Solid_Small,5.0,,,,,,,,,,,
encoding,fixation,9,2799550,2800555,2800054.0,2800340.0,287.0,287.0,1748.9,1132.3,1591.0,891.0,Object_Sea_Pattern_Large,29.06656595901586,30.071551458910108,2.0,Object_Land_Solid_Small,5.0,,,,,,,,,,,
encoding,fixation,9,2799550,2800555,2800355.0,2800937.0,583.0,200.0,1623.5,1172.1,1591.0,891.0,Object_Sea_Pattern_Large,29.06656595901586,30.071551458910108,2.0,Object_Land_Solid_Small,5.0,,,,,,,,,,,
encoding,image,9,2800556,2801566,2800996.0,2801288.0,293.0,293.0,2141.1,1008.0,2249.0,1269.0,Object_Land_Solid_Small,30.0716692089336,31.08248995896429,2.0,Object_Land_Solid_Small,5.0,,,,,,,,,,,
encoding,image,9,2800556,2801566,2801311.0,2801743.0,433.0,255.0,1957.1,999.0,1920.0,1460.0,Animal_Sea_Solid_Small,30.0716692089336,31.08248995896429,2.0,Object_Land_Solid_Small,5.0,,,,,,,,,,,
encoding,value,9,2801567,2807582,2801782.0,2802171.0,390.0,390.0,2248.3,821.0,2249.0,1269.0,Object_Land_Solid_Small,31.082612708909437,37.09737366694026,2.0,Object_Land_Solid_Small,5.0,,,,,,,,,,,
encoding,value,9,2801567,2807582,2802339.0,2802504.0,166.0,166.0,2241.3,672.0999999999999,2249.0,1269.0,Object_Land_Solid_Small,31.082612708909437,37.09737366694026,2.0,Object_Land_Solid_Small,5.0,,,,,,,,,,,
encoding,value,9,2801567,2807582,2802718.0,2803143.0,426.0,426.0,2209.3,698.2,2249.0,1269.0,Object_Land_Solid_Small,31.082612708909437,37.09737366694026,2.0,Object_Land_Solid_Small,5.0,,,,,,,,,,,
encoding,value,9,2801567,2807582,2803329.0,2803920.0,592.0,592.0,2179.7,857.7,2249.0,1269.0,Object_Land_Solid_Small,31.082612708909437,37.09737366694026,2.0,Object_Land_Solid_Small,5.0,,,,,,,,,,,
encoding,value,9,2801567,2807582,2803938.0,2804292.0,355.0,355.0,2242.8,843.0,2249.0,1269.0,Object_Land_Solid_Small,31.082612708909437,37.09737366694026,2.0,Object_Land_Solid_Small,5.0,,,,,,,,,,,
encoding,value,9,2801567,2807582,2804312.0,2804678.0,367.0,367.0,2255.9,745.4000000000001,2249.0,1269.0,Object_Land_Solid_Small,31.082612708909437,37.09737366694026,2.0,Object_Land_Solid_Small,5.0,,,,,,,,,,,
encoding,value,9,2801567,2807582,2804855.0,2805392.0,538.0,538.0,2236.9,777.3,2249.0,1269.0,Object_Land_Solid_Small,31.082612708909437,37.09737366694026,2.0,Object_Land_Solid_Small,5.0,,,,,,,,,,,
encoding,value,9,2801567,2807582,2805620.0,2805943.0,324.0,324.0,2203.7,729.2,2249.0,1269.0,Object_Land_Solid_Small,31.082612708909437,37.09737366694026,2.0,Object_Land_Solid_Small,5.0,,,,,,,,,,,
encoding,value,9,2801567,2807582,2805958.0,2806493.0,536.0,536.0,2247.7,789.5999999999999,2249.0,1269.0,Object_Land_Solid_Small,31.082612708909437,37.09737366694026,2.0,Object_Land_Solid_Small,5.0,,,,,,,,,,,
encoding,value,9,2801567,2807582,2806510.0,2806829.0,320.0,320.0,2208.4,770.0,2249.0,1269.0,Object_Land_Solid_Small,31.082612708909437,37.09737366694026,2.0,Object_Land_Solid_Small,5.0,,,,,,,,,,,
encoding,value,9,2801567,2807582,2806843.0,2807480.0,638.0,638.0,2251.5,764.3,2249.0,1269.0,Object_Land_Solid_Small,31.082612708909437,37.09737366694026,2.0,Object_Land_Solid_Small,5.0,,,,,,,,,,,
encoding,attention,9,2807582,2810603,2807708.0,2808226.0,519.0,519.0,2214.2,708.0999999999999,2249.0,1269.0,Object_Land_Solid_Small,37.09751274995506,40.118534624925815,2.0,Object_Land_Solid_Small,5.0,5.0,1.0,0.95631462498568,,,,,,,,
encoding,attention,9,2807582,2810603,2808241.0,2808805.0,565.0,565.0,2277.6,772.4000000000001,2249.0,1269.0,Object_Land_Solid_Small,37.09751274995506,40.118534624925815,2.0,Object_Land_Solid_Small,5.0,5.0,1.0,0.95631462498568,,,,,,,,
encoding,attention,9,2807582,2810603,2809019.0,2809498.0,480.0,480.0,2180.6,802.0999999999999,2249.0,1269.0,Object_Land_Solid_Small,37.09751274995506,40.118534624925815,2.0,Object_Land_Solid_Small,5.0,5.0,1.0,0.95631462498568,,,,,,,,
encoding,attention,9,2807582,2810603,2809525.0,2809952.0,428.0,428.0,1678.4,968.2,1591.0,1269.0,Object_Land_Pattern_Large,37.09751274995506,40.118534624925815,2.0,Object_Land_Solid_Small,5.0,5.0,1.0,0.95631462498568,,,,,,,,
encoding,attention,9,2807582,2810603,2810085.0,2810391.0,307.0,307.0,1654.7,811.0,1591.0,1269.0,Object_Land_Pattern_Large,37.09751274995506,40.118534624925815,2.0,Object_Land_Solid_Small,5.0,5.0,1.0,0.95631462498568,,,,,,,,
encoding,fixation,10,2810603,2811109,2810736.0,2810887.0,152.0,152.0,2268.7,797.5999999999999,2249.0,1269.0,Object_Land_Solid_Small,40.118723209016025,40.62436583393719,2.0,Animal_Sea_Solid_Small,-3.0,,,,,,,,,,,
encoding,fixation,10,2810603,2811109,2811051.0,2811476.0,426.0,58.0,1897.3,956.3,1920.0,1460.0,Animal_Sea_Solid_Small,40.118723209016025,40.62436583393719,2.0,Animal_Sea_Solid_Small,-3.0,,,,,,,,,,,
encoding,image,10,2811109,2812120,2811513.0,2811824.0,312.0,312.0,1892.0,783.3,1920.0,1460.0,Animal_Sea_Solid_Small,40.62447237491142,41.63543899997603,2.0,Animal_Sea_Solid_Small,-3.0,,,,,,,,,,,
encoding,image,10,2811109,2812120,2811843.0,2812060.0,218.0,218.0,1959.5,723.3,1920.0,1460.0,Animal_Sea_Solid_Small,40.62447237491142,41.63543899997603,2.0,Animal_Sea_Solid_Small,-3.0,,,,,,,,,,,
encoding,image,10,2811109,2812120,2812077.0,2812403.0,327.0,43.0,1898.9,664.4000000000001,1920.0,1460.0,Animal_Sea_Solid_Small,40.62447237491142,41.63543899997603,2.0,Animal_Sea_Solid_Small,-3.0,,,,,,,,,,,
encoding,value,10,2812120,2818132,2812416.0,2812518.0,103.0,103.0,1888.5,595.8,1920.0,1460.0,Animal_Sea_Solid_Small,41.635580500005744,47.64749054191634,2.0,Animal_Sea_Solid_Small,-3.0,,,,,,,,,,,
encoding,value,10,2812120,2818132,2812776.0,2812966.0,191.0,191.0,1868.3,454.0999999999999,,,none,41.635580500005744,47.64749054191634,2.0,Animal_Sea_Solid_Small,-3.0,,,,,,,,,,,
encoding,value,10,2812120,2818132,2813180.0,2813212.0,33.0,33.0,1551.8,377.0,,,none,41.635580500005744,47.64749054191634,2.0,Animal_Sea_Solid_Small,-3.0,,,,,,,,,,,
encoding,value,10,2812120,2818132,2813235.0,2813491.0,257.0,257.0,1929.7,501.0,1920.0,1460.0,Animal_Sea_Solid_Small,41.635580500005744,47.64749054191634,2.0,Animal_Sea_Solid_Small,-3.0,,,,,,,,,,,
encoding,value,10,2812120,2818132,2813501.0,2814006.0,506.0,506.0,1862.1,626.5,1920.0,1460.0,Animal_Sea_Solid_Small,41.635580500005744,47.64749054191634,2.0,Animal_Sea_Solid_Small,-3.0,,,,,,,,,,,
encoding,value,10,2812120,2818132,2814224.0,2814577.0,354.0,354.0,1863.6,448.5,,,none,41.635580500005744,47.64749054191634,2.0,Animal_Sea_Solid_Small,-3.0,,,,,,,,,,,
encoding,value,10,2812120,2818132,2814828.0,2814839.0,12.0,12.0,1618.1,346.20000000000005,,,none,41.635580500005744,47.64749054191634,2.0,Animal_Sea_Solid_Small,-3.0,,,,,,,,,,,
encoding,value,10,2812120,2818132,2814859.0,2815190.0,332.0,332.0,1906.3,507.0999999999999,1920.0,1460.0,Animal_Sea_Solid_Small,41.635580500005744,47.64749054191634,2.0,Animal_Sea_Solid_Small,-3.0,,,,,,,,,,,
encoding,value,10,2812120,2818132,2815205.0,2815481.0,277.0,277.0,1799.7,617.0,1920.0,1460.0,Animal_Sea_Solid_Small,41.635580500005744,47.64749054191634,2.0,Animal_Sea_Solid_Small,-3.0,,,,,,,,,,,
encoding,value,10,2812120,2818132,2815495.0,2815892.0,398.0,398.0,1877.2,633.3,1920.0,1460.0,Animal_Sea_Solid_Small,41.635580500005744,47.64749054191634,2.0,Animal_Sea_Solid_Small,-3.0,,,,,,,,,,,
encoding,value,10,2812120,2818132,2815906.0,2818403.0,2498.0,2226.0,1880.0,566.5999999999999,1920.0,1460.0,Animal_Sea_Solid_Small,41.635580500005744,47.64749054191634,2.0,Animal_Sea_Solid_Small,-3.0,,,,,,,,,,,
encoding,attention,10,2818132,2821150,2818410.0,2818587.0,178.0,178.0,1914.2,544.5,1920.0,1460.0,Animal_Sea_Solid_Small,47.64761412492953,50.66526520892512,2.0,Animal_Sea_Solid_Small,-3.0,-3.0,1.0,1.5763375000096858,,,,,,,,
encoding,attention,10,2818132,2821150,2818786.0,2819260.0,475.0,475.0,1850.5,498.70000000000005,,,none,47.64761412492953,50.66526520892512,2.0,Animal_Sea_Solid_Small,-3.0,-3.0,1.0,1.5763375000096858,,,,,,,,
encoding,attention,10,2818132,2821150,2819267.0,2820126.0,860.0,860.0,1825.3,524.9000000000001,1920.0,1460.0,Animal_Sea_Solid_Small,47.64761412492953,50.66526520892512,2.0,Animal_Sea_Solid_Small,-3.0,-3.0,1.0,1.5763375000096858,,,,,,,,
encoding,attention,10,2818132,2821150,2820140.0,2820439.0,300.0,300.0,1897.2,530.4000000000001,1920.0,1460.0,Animal_Sea_Solid_Small,47.64761412492953,50.66526520892512,2.0,Animal_Sea_Solid_Small,-3.0,-3.0,1.0,1.5763375000096858,,,,,,,,
encoding,attention,10,2818132,2821150,2820677.0,2820704.0,28.0,28.0,1571.6,361.20000000000005,,,none,47.64761412492953,50.66526520892512,2.0,Animal_Sea_Solid_Small,-3.0,-3.0,1.0,1.5763375000096858,,,,,,,,
encoding,attention,10,2818132,2821150,2820736.0,2821017.0,282.0,282.0,1876.4,396.70000000000005,,,none,47.64761412492953,50.66526520892512,2.0,Animal_Sea_Solid_Small,-3.0,-3.0,1.0,1.5763375000096858,,,,,,,,
encoding,fixation,11,2821150,2822655,2821381.0,2821482.0,102.0,102.0,1876.3,932.5,1920.0,1460.0,Animal_Sea_Solid_Small,50.665412041940726,52.17043800000101,2.0,Animal_Sea_Pattern_Small,-3.0,,,,,,,,,,,
encoding,fixation,11,2821150,2822655,2821653.0,2822501.0,849.0,849.0,1855.4,1078.8,1920.0,1080.0,fixation,50.665412041940726,52.17043800000101,2.0,Animal_Sea_Pattern_Small,-3.0,,,,,,,,,,,
encoding,fixation,11,2821150,2822655,2822522.0,2822726.0,205.0,133.0,1894.4,1200.2,1920.0,700.0,Animal_Land_Solid_Large,50.665412041940726,52.17043800000101,2.0,Animal_Sea_Pattern_Small,-3.0,,,,,,,,,,,
encoding,image,11,2822655,2823667,2822733.0,2822854.0,122.0,122.0,1884.7,1248.8,1920.0,700.0,Animal_Land_Solid_Large,52.170556791941635,53.18165904202033,2.0,Animal_Sea_Pattern_Small,-3.0,,,,,,,,,,,
encoding,image,11,2822655,2823667,2822889.0,2823099.0,211.0,211.0,2219.9,1238.7,2249.0,891.0,Animal_Sea_Pattern_Small,52.170556791941635,53.18165904202033,2.0,Animal_Sea_Pattern_Small,-3.0,,,,,,,,,,,
encoding,image,11,2822655,2823667,2823113.0,2823390.0,278.0,278.0,2275.9,1242.9,2249.0,891.0,Animal_Sea_Pattern_Small,52.170556791941635,53.18165904202033,2.0,Animal_Sea_Pattern_Small,-3.0,,,,,,,,,,,
encoding,image,11,2822655,2823667,2823593.0,2823934.0,342.0,74.0,2077.0,1161.0,2249.0,891.0,Animal_Sea_Pattern_Small,52.170556791941635,53.18165904202033,2.0,Animal_Sea_Pattern_Small,-3.0,,,,,,,,,,,
encoding,value,11,2823667,2829678,2823958.0,2824388.0,431.0,431.0,2241.9,1165.4,2249.0,891.0,Animal_Sea_Pattern_Small,53.18181641690899,59.19325883395504,2.0,Animal_Sea_Pattern_Small,-3.0,,,,,,,,,,,
encoding,value,11,2823667,2829678,2824589.0,2825001.0,413.0,413.0,2174.0,1099.0,2249.0,891.0,Animal_Sea_Pattern_Small,53.18181641690899,59.19325883395504,2.0,Animal_Sea_Pattern_Small,-3.0,,,,,,,,,,,
encoding,value,11,2823667,2829678,2825220.0,2825532.0,313.0,313.0,2049.2,1082.3,2249.0,891.0,Animal_Sea_Pattern_Small,53.18181641690899,59.19325883395504,2.0,Animal_Sea_Pattern_Small,-3.0,,,,,,,,,,,
encoding,value,11,2823667,2829678,2825555.0,2826259.0,705.0,705.0,2245.7,1146.4,2249.0,891.0,Animal_Sea_Pattern_Small,53.18181641690899,59.19325883395504,2.0,Animal_Sea_Pattern_Small,-3.0,,,,,,,,,,,
encoding,value,11,2823667,2829678,2826280.0,2826476.0,197.0,197.0,2202.1,1155.6,2249.0,891.0,Animal_Sea_Pattern_Small,53.18181641690899,59.19325883395504,2.0,Animal_Sea_Pattern_Small,-3.0,,,,,,,,,,,
encoding,value,11,2823667,2829678,2826490.0,2826783.0,294.0,294.0,2250.0,1149.7,2249.0,891.0,Animal_Sea_Pattern_Small,53.18181641690899,59.19325883395504,2.0,Animal_Sea_Pattern_Small,-3.0,,,,,,,,,,,
encoding,value,11,2823667,2829678,2826974.0,2827717.0,744.0,744.0,2244.6,1128.2,2249.0,891.0,Animal_Sea_Pattern_Small,53.18181641690899,59.19325883395504,2.0,Animal_Sea_Pattern_Small,-3.0,,,,,,,,,,,
encoding,value,11,2823667,2829678,2827727.0,2827889.0,163.0,163.0,2188.8,1157.0,2249.0,891.0,Animal_Sea_Pattern_Small,53.18181641690899,59.19325883395504,2.0,Animal_Sea_Pattern_Small,-3.0,,,,,,,,,,,
encoding,value,11,2823667,2829678,2827903.0,2828069.0,167.0,167.0,2247.4,1167.8,2249.0,891.0,Animal_Sea_Pattern_Small,53.18181641690899,59.19325883395504,2.0,Animal_Sea_Pattern_Small,-3.0,,,,,,,,,,,
encoding,value,11,2823667,2829678,2828265.0,2828764.0,500.0,500.0,2215.3,1129.6,2249.0,891.0,Animal_Sea_Pattern_Small,53.18181641690899,59.19325883395504,2.0,Animal_Sea_Pattern_Small,-3.0,,,,,,,,,,,
encoding,value,11,2823667,2829678,2828772.0,2828975.0,204.0,204.0,2249.1,1160.8,2249.0,891.0,Animal_Sea_Pattern_Small,53.18181641690899,59.19325883395504,2.0,Animal_Sea_Pattern_Small,-3.0,,,,,,,,,,,
encoding,value,11,2823667,2829678,2828983.0,2829330.0,348.0,348.0,2217.4,1160.4,2249.0,891.0,Animal_Sea_Pattern_Small,53.18181641690899,59.19325883395504,2.0,Animal_Sea_Pattern_Small,-3.0,,,,,,,,,,,
encoding,value,11,2823667,2829678,2829347.0,2829587.0,241.0,241.0,2256.9,1155.3,2249.0,891.0,Animal_Sea_Pattern_Small,53.18181641690899,59.19325883395504,2.0,Animal_Sea_Pattern_Small,-3.0,,,,,,,,,,,
encoding,value,11,2823667,2829678,2829596.0,2830080.0,485.0,82.0,2214.9,1152.1,2249.0,891.0,Animal_Sea_Pattern_Small,53.18181641690899,59.19325883395504,2.0,Animal_Sea_Pattern_Small,-3.0,,,,,,,,,,,
encoding,attention,11,2829679,2832696,2830096.0,2830729.0,634.0,634.0,2281.8,1156.0,2249.0,891.0,Animal_Sea_Pattern_Small,59.19345679192338,62.210577166988514,2.0,Animal_Sea_Pattern_Small,-3.0,-3.0,1.0,0.8217511249240488,,,,,,,,
encoding,attention,11,2829679,2832696,2830905.0,2831126.0,222.0,222.0,2220.7,1255.2,2249.0,891.0,Animal_Sea_Pattern_Small,59.19345679192338,62.210577166988514,2.0,Animal_Sea_Pattern_Small,-3.0,-3.0,1.0,0.8217511249240488,,,,,,,,
encoding,attention,11,2829679,2832696,2831143.0,2831391.0,249.0,249.0,2192.9,1206.4,2249.0,891.0,Animal_Sea_Pattern_Small,59.19345679192338,62.210577166988514,2.0,Animal_Sea_Pattern_Small,-3.0,-3.0,1.0,0.8217511249240488,,,,,,,,
encoding,attention,11,2829679,2832696,2831401.0,2831841.0,441.0,441.0,2239.2,1244.8,2249.0,891.0,Animal_Sea_Pattern_Small,59.19345679192338,62.210577166988514,2.0,Animal_Sea_Pattern_Small,-3.0,-3.0,1.0,0.8217511249240488,,,,,,,,
encoding,attention,11,2829679,2832696,2831850.0,2832542.0,693.0,693.0,2286.6,1251.4,2249.0,891.0,Animal_Sea_Pattern_Small,59.19345679192338,62.210577166988514,2.0,Animal_Sea_Pattern_Small,-3.0,-3.0,1.0,0.8217511249240488,,,,,,,,
encoding,fixation,12,2832696,2833951,2832768.0,2832962.0,195.0,195.0,2300.2,1172.4,2249.0,891.0,Animal_Sea_Pattern_Small,62.210744875017554,63.4658250840148,2.0,Animal_Land_Solid_Large,4.0,,,,,,,,,,,
encoding,fixation,12,2832696,2833951,2833003.0,2833186.0,184.0,184.0,1883.2,1108.4,1920.0,1080.0,fixation,62.210744875017554,63.4658250840148,2.0,Animal_Land_Solid_Large,4.0,,,,,,,,,,,
encoding,fixation,12,2832696,2833951,2833409.0,2833883.0,475.0,475.0,1775.3,1281.2,1591.0,891.0,Object_Sea_Pattern_Large,62.210744875017554,63.4658250840148,2.0,Animal_Land_Solid_Large,4.0,,,,,,,,,,,
encoding,fixation,12,2832696,2833951,2833900.0,2834167.0,268.0,51.0,1909.4,1334.6,1920.0,700.0,Animal_Land_Solid_Large,62.210744875017554,63.4658250840148,2.0,Animal_Land_Solid_Large,4.0,,,,,,,,,,,
encoding,image,12,2833951,2834966,2834186.0,2834645.0,460.0,460.0,1913.0,1436.7,1920.0,700.0,Animal_Land_Solid_Large,63.46592666697688,64.48081008391455,2.0,Animal_Land_Solid_Large,4.0,,,,,,,,,,,
encoding,image,12,2833951,2834966,2834670.0,2835434.0,765.0,296.0,1917.5,1329.8,1920.0,700.0,Animal_Land_Solid_Large,63.46592666697688,64.48081008391455,2.0,Animal_Land_Solid_Large,4.0,,,,,,,,,,,
encoding,value,12,2834966,2840979,2835593.0,2837058.0,1466.0,1466.0,1933.0,1450.6,1920.0,700.0,Animal_Land_Solid_Large,64.48091383394785,70.4935587500222,2.0,Animal_Land_Solid_Large,4.0,,,,,,,,,,,
encoding,value,12,2834966,2840979,2837079.0,2837271.0,193.0,193.0,1913.5,1351.9,1920.0,700.0,Animal_Land_Solid_Large,64.48091383394785,70.4935587500222,2.0,Animal_Land_Solid_Large,4.0,,,,,,,,,,,
encoding,value,12,2834966,2840979,2837283.0,2838391.0,1109.0,1109.0,1918.4,1319.0,1920.0,700.0,Animal_Land_Solid_Large,64.48091383394785,70.4935587500222,2.0,Animal_Land_Solid_Large,4.0,,,,,,,,,,,
encoding,value,12,2834966,2840979,2838568.0,2839042.0,475.0,475.0,1898.3,1324.6,1920.0,700.0,Animal_Land_Solid_Large,64.48091383394785,70.4935587500222,2.0,Animal_Land_Solid_Large,4.0,,,,,,,,,,,
encoding,value,12,2834966,2840979,2839051.0,2839257.0,207.0,207.0,1933.2,1328.3,1920.0,700.0,Animal_Land_Solid_Large,64.48091383394785,70.4935587500222,2.0,Animal_Land_Solid_Large,4.0,,,,,,,,,,,
encoding,value,12,2834966,2840979,2839266.0,2840211.0,946.0,946.0,1912.8,1317.6,1920.0,700.0,Animal_Land_Solid_Large,64.48091383394785,70.4935587500222,2.0,Animal_Land_Solid_Large,4.0,,,,,,,,,,,
encoding,value,12,2834966,2840979,2840412.0,2840881.0,470.0,470.0,1900.2,1300.7,1920.0,700.0,Animal_Land_Solid_Large,64.48091383394785,70.4935587500222,2.0,Animal_Land_Solid_Large,4.0,,,,,,,,,,,
encoding,attention,12,2840979,2843997,2841085.0,2841429.0,345.0,345.0,1895.8,1324.5,1920.0,700.0,Animal_Land_Solid_Large,70.49369066697545,73.51112216699403,2.0,Animal_Land_Solid_Large,4.0,4.0,1.0,0.8182144580641761,,,,,,,,
encoding,attention,12,2840979,2843997,2841447.0,2842033.0,587.0,587.0,1962.9,1327.8,1920.0,700.0,Animal_Land_Solid_Large,70.49369066697545,73.51112216699403,2.0,Animal_Land_Solid_Large,4.0,4.0,1.0,0.8182144580641761,,,,,,,,
encoding,attention,12,2840979,2843997,2842248.0,2842566.0,319.0,319.0,1933.4,1317.6,1920.0,700.0,Animal_Land_Solid_Large,70.49369066697545,73.51112216699403,2.0,Animal_Land_Solid_Large,4.0,4.0,1.0,0.8182144580641761,,,,,,,,
encoding,attention,12,2840979,2843997,2842792.0,2843413.0,622.0,622.0,1915.9,1318.1,1920.0,700.0,Animal_Land_Solid_Large,70.49369066697545,73.51112216699403,2.0,Animal_Land_Solid_Large,4.0,4.0,1.0,0.8182144580641761,,,,,,,,
encoding,attention,12,2840979,2843997,2843591.0,2843786.0,196.0,196.0,1900.2,1396.2,1920.0,700.0,Animal_Land_Solid_Large,70.49369066697545,73.51112216699403,2.0,Animal_Land_Solid_Large,4.0,4.0,1.0,0.8182144580641761,,,,,,,,
encoding,fixation,13,3100662,3101167,3100923.0,3101003.0,81.0,81.0,1912.6,1093.1,1920.0,1080.0,fixation,3.731467584031634,4.23686575004831,3.0,Object_Sea_Pattern_Small,8.0,,,,,,,,,,,
encoding,image,13,3101168,3102179,3101194.0,3101399.0,206.0,206.0,1890.4,1140.8,1920.0,1080.0,fixation,4.236986875068396,5.248049666988663,3.0,Object_Sea_Pattern_Small,8.0,,,,,,,,,,,
encoding,image,13,3101168,3102179,3101442.0,3101994.0,553.0,553.0,1905.1,684.8,1920.0,1460.0,Object_Sea_Pattern_Small,4.236986875068396,5.248049666988663,3.0,Object_Sea_Pattern_Small,8.0,,,,,,,,,,,
encoding,image,13,3101168,3102179,3102007.0,3102420.0,414.0,172.0,1917.0,622.3,1920.0,1460.0,Object_Sea_Pattern_Small,4.236986875068396,5.248049666988663,3.0,Object_Sea_Pattern_Small,8.0,,,,,,,,,,,
encoding,value,13,3102179,3108194,3102429.0,3102541.0,113.0,113.0,1917.8,584.7,1920.0,1460.0,Object_Sea_Pattern_Small,5.2481583340559155,11.262589334044604,3.0,Object_Sea_Pattern_Small,8.0,,,,,,,,,,,
encoding,value,13,3102179,3108194,3102729.0,3104177.0,1449.0,1449.0,1910.6,633.0999999999999,1920.0,1460.0,Object_Sea_Pattern_Small,5.2481583340559155,11.262589334044604,3.0,Object_Sea_Pattern_Small,8.0,,,,,,,,,,,
encoding,value,13,3102179,3108194,3104192.0,3104651.0,460.0,460.0,1920.0,594.5,1920.0,1460.0,Object_Sea_Pattern_Small,5.2481583340559155,11.262589334044604,3.0,Object_Sea_Pattern_Small,8.0,,,,,,,,,,,
encoding,value,13,3102179,3108194,3104659.0,3105032.0,374.0,374.0,1895.4,647.3,1920.0,1460.0,Object_Sea_Pattern_Small,5.2481583340559155,11.262589334044604,3.0,Object_Sea_Pattern_Small,8.0,,,,,,,,,,,
encoding,value,13,3102179,3108194,3105044.0,3105277.0,234.0,234.0,1917.4,599.4000000000001,1920.0,1460.0,Object_Sea_Pattern_Small,5.2481583340559155,11.262589334044604,3.0,Object_Sea_Pattern_Small,8.0,,,,,,,,,,,
encoding,value,13,3102179,3108194,3105477.0,3105781.0,305.0,305.0,1923.8,561.8,1920.0,1460.0,Object_Sea_Pattern_Small,5.2481583340559155,11.262589334044604,3.0,Object_Sea_Pattern_Small,8.0,,,,,,,,,,,
encoding,value,13,3102179,3108194,3105791.0,3106400.0,610.0,610.0,1891.3,624.2,1920.0,1460.0,Object_Sea_Pattern_Small,5.2481583340559155,11.262589334044604,3.0,Object_Sea_Pattern_Small,8.0,,,,,,,,,,,
encoding,value,13,3102179,3108194,3106418.0,3106742.0,325.0,325.0,1934.9,610.4000000000001,1920.0,1460.0,Object_Sea_Pattern_Small,5.2481583340559155,11.262589334044604,3.0,Object_Sea_Pattern_Small,8.0,,,,,,,,,,,
encoding,value,13,3102179,3108194,3106750.0,3107978.0,1229.0,1229.0,1913.8,579.5,1920.0,1460.0,Object_Sea_Pattern_Small,5.2481583340559155,11.262589334044604,3.0,Object_Sea_Pattern_Small,8.0,,,,,,,,,,,
encoding,attention,13,3108194,3111211,3108203.0,3108960.0,758.0,758.0,1887.3,541.5,1920.0,1460.0,Object_Sea_Pattern_Small,11.2627083749976,14.279660459025765,3.0,Object_Sea_Pattern_Small,8.0,8.0,1.0,0.5436871249694377,,,,,,,,
encoding,attention,13,3108194,3111211,3109240.0,3109750.0,511.0,511.0,1915.3,605.0,1920.0,1460.0,Object_Sea_Pattern_Small,11.2627083749976,14.279660459025765,3.0,Object_Sea_Pattern_Small,8.0,8.0,1.0,0.5436871249694377,,,,,,,,
encoding,attention,13,3108194,3111211,3110036.0,3110252.0,217.0,217.0,1903.4,519.0,1920.0,1460.0,Object_Sea_Pattern_Small,11.2627083749976,14.279660459025765,3.0,Object_Sea_Pattern_Small,8.0,8.0,1.0,0.5436871249694377,,,,,,,,
encoding,fixation,14,3111211,3112716,3111521.0,3112881.0,1361.0,1195.0,1898.9,987.4000000000001,1920.0,1460.0,Object_Sea_Pattern_Small,14.27981754206121,15.785135084064676,3.0,Animal_Land_Solid_Large,9.0,,,,,,,,,,,
encoding,image,14,3112716,3113728,3112926.0,3113088.0,163.0,163.0,1909.9,1410.4,1920.0,700.0,Animal_Land_Solid_Large,15.785255959024653,16.79645124997478,3.0,Animal_Land_Solid_Large,9.0,,,,,,,,,,,
encoding,image,14,3112716,3113728,3113097.0,3113519.0,423.0,423.0,1937.9,1460.3,1920.0,700.0,Animal_Land_Solid_Large,15.785255959024653,16.79645124997478,3.0,Animal_Land_Solid_Large,9.0,,,,,,,,,,,
encoding,image,14,3112716,3113728,3113690.0,3113907.0,218.0,38.0,1916.2,1408.5,1920.0,700.0,Animal_Land_Solid_Large,15.785255959024653,16.79645124997478,3.0,Animal_Land_Solid_Large,9.0,,,,,,,,,,,
encoding,value,14,3113728,3119740,3113922.0,3115229.0,1308.0,1308.0,1914.7,1352.4,1920.0,700.0,Animal_Land_Solid_Large,16.796582209062763,22.808870084001683,3.0,Animal_Land_Solid_Large,9.0,,,,,,,,,,,
encoding,value,14,3113728,3119740,3115246.0,3115924.0,679.0,679.0,1913.8,1305.4,1920.0,700.0,Animal_Land_Solid_Large,16.796582209062763,22.808870084001683,3.0,Animal_Land_Solid_Large,9.0,,,,,,,,,,,
encoding,value,14,3113728,3119740,3116029.0,3116901.0,873.0,873.0,1907.3,1340.5,1920.0,700.0,Animal_Land_Solid_Large,16.796582209062763,22.808870084001683,3.0,Animal_Land_Solid_Large,9.0,,,,,,,,,,,
encoding,value,14,3113728,3119740,3117099.0,3117879.0,781.0,781.0,1923.0,1321.7,1920.0,700.0,Animal_Land_Solid_Large,16.796582209062763,22.808870084001683,3.0,Animal_Land_Solid_Large,9.0,,,,,,,,,,,
encoding,value,14,3113728,3119740,3117890.0,3118094.0,205.0,205.0,1876.7,1323.6,1920.0,700.0,Animal_Land_Solid_Large,16.796582209062763,22.808870084001683,3.0,Animal_Land_Solid_Large,9.0,,,,,,,,,,,
encoding,value,14,3113728,3119740,3118106.0,3118607.0,502.0,502.0,1922.7,1326.3,1920.0,700.0,Animal_Land_Solid_Large,16.796582209062763,22.808870084001683,3.0,Animal_Land_Solid_Large,9.0,,,,,,,,,,,
encoding,value,14,3113728,3119740,3118797.0,3119135.0,339.0,339.0,1915.7,1329.7,1920.0,700.0,Animal_Land_Solid_Large,16.796582209062763,22.808870084001683,3.0,Animal_Land_Solid_Large,9.0,,,,,,,,,,,
encoding,value,14,3113728,3119740,3119366.0,3119960.0,595.0,374.0,1911.6,1325.4,1920.0,700.0,Animal_Land_Solid_Large,16.796582209062763,22.808870084001683,3.0,Animal_Land_Solid_Large,9.0,,,,,,,,,,,
encoding,attention,14,3119740,3122759,3119970.0,3120561.0,592.0,592.0,1863.2,1327.9,1920.0,700.0,Animal_Land_Solid_Large,22.80899087502621,25.82728029205464,3.0,Animal_Land_Solid_Large,9.0,9.0,1.0,0.5747843750286847,,,,,,,,
encoding,attention,14,3119740,3122759,3120718.0,3121232.0,515.0,515.0,1878.0,1372.7,1920.0,700.0,Animal_Land_Solid_Large,22.80899087502621,25.82728029205464,3.0,Animal_Land_Solid_Large,9.0,9.0,1.0,0.5747843750286847,,,,,,,,
encoding,attention,14,3119740,3122759,3121429.0,3121711.0,283.0,283.0,1894.8,1349.8,1920.0,700.0,Animal_Land_Solid_Large,22.80899087502621,25.82728029205464,3.0,Animal_Land_Solid_Large,9.0,9.0,1.0,0.5747843750286847,,,,,,,,
encoding,attention,14,3119740,3122759,3121721.0,3122289.0,569.0,569.0,1837.4,1335.9,1920.0,700.0,Animal_Land_Solid_Large,22.80899087502621,25.82728029205464,3.0,Animal_Land_Solid_Large,9.0,9.0,1.0,0.5747843750286847,,,,,,,,
encoding,attention,14,3119740,3122759,3122303.0,3122522.0,220.0,220.0,1907.8,1330.0,1920.0,700.0,Animal_Land_Solid_Large,22.80899087502621,25.82728029205464,3.0,Animal_Land_Solid_Large,9.0,9.0,1.0,0.5747843750286847,,,,,,,,
encoding,fixation,15,3122759,3123264,3123063.0,3123213.0,151.0,151.0,1885.0,1037.3,1920.0,1080.0,fixation,25.827447541989383,26.33275429205969,3.0,Object_Land_Pattern_Large,-5.0,,,,,,,,,,,
encoding,image,15,3123264,3124278,3123436.0,3123583.0,148.0,148.0,1872.4,973.0,1920.0,1460.0,Object_Sea_Pattern_Small,26.33291370898951,27.346727667027153,3.0,Object_Land_Pattern_Large,-5.0,,,,,,,,,,,
encoding,image,15,3123264,3124278,3123613.0,3123773.0,161.0,161.0,1588.7,893.9000000000001,1591.0,1269.0,Object_Land_Pattern_Large,26.33291370898951,27.346727667027153,3.0,Object_Land_Pattern_Large,-5.0,,,,,,,,,,,
encoding,image,15,3123264,3124278,3123788.0,3124402.0,615.0,490.0,1574.3,821.5999999999999,1591.0,1269.0,Object_Land_Pattern_Large,26.33291370898951,27.346727667027153,3.0,Object_Land_Pattern_Large,-5.0,,,,,,,,,,,
encoding,value,15,3124279,3130292,3124419.0,3124551.0,133.0,133.0,1658.4,805.8,1591.0,1269.0,Object_Land_Pattern_Large,27.34684220899362,33.359798458986916,3.0,Object_Land_Pattern_Large,-5.0,,,,,,,,,,,
encoding,value,15,3124279,3130292,3124572.0,3126780.0,2209.0,2209.0,1595.4,785.3,1591.0,1269.0,Object_Land_Pattern_Large,27.34684220899362,33.359798458986916,3.0,Object_Land_Pattern_Large,-5.0,,,,,,,,,,,
encoding,value,15,3124279,3130292,3126925.0,3128957.0,2033.0,2033.0,1583.1,783.4000000000001,1591.0,1269.0,Object_Land_Pattern_Large,27.34684220899362,33.359798458986916,3.0,Object_Land_Pattern_Large,-5.0,,,,,,,,,,,
encoding,value,15,3124279,3130292,3129142.0,3129465.0,324.0,324.0,1607.9,723.9000000000001,1591.0,1269.0,Object_Land_Pattern_Large,27.34684220899362,33.359798458986916,3.0,Object_Land_Pattern_Large,-5.0,,,,,,,,,,,
encoding,value,15,3124279,3130292,3129482.0,3129793.0,312.0,312.0,1576.5,783.3,1591.0,1269.0,Object_Land_Pattern_Large,27.34684220899362,33.359798458986916,3.0,Object_Land_Pattern_Large,-5.0,,,,,,,,,,,
encoding,value,15,3124279,3130292,3129800.0,3130236.0,437.0,437.0,1610.0,775.4000000000001,1591.0,1269.0,Object_Land_Pattern_Large,27.34684220899362,33.359798458986916,3.0,Object_Land_Pattern_Large,-5.0,,,,,,,,,,,
encoding,attention,15,3130292,3133310,3130429.0,3130999.0,571.0,571.0,1601.9,750.8,1591.0,1269.0,Object_Land_Pattern_Large,33.35991829202976,36.377615125034936,3.0,Object_Land_Pattern_Large,-5.0,-5.0,1.0,0.7732619160087779,,,,,,,,
encoding,attention,15,3130292,3133310,3131012.0,3131342.0,331.0,331.0,1670.7,777.5999999999999,1591.0,1269.0,Object_Land_Pattern_Large,33.35991829202976,36.377615125034936,3.0,Object_Land_Pattern_Large,-5.0,-5.0,1.0,0.7732619160087779,,,,,,,,
encoding,attention,15,3130292,3133310,3131533.0,3131713.0,181.0,181.0,1717.4,632.7,1920.0,1460.0,Object_Sea_Pattern_Small,33.35991829202976,36.377615125034936,3.0,Object_Land_Pattern_Large,-5.0,-5.0,1.0,0.7732619160087779,,,,,,,,
encoding,attention,15,3130292,3133310,3131726.0,3131980.0,255.0,255.0,1636.1,777.4000000000001,1591.0,1269.0,Object_Land_Pattern_Large,33.35991829202976,36.377615125034936,3.0,Object_Land_Pattern_Large,-5.0,-5.0,1.0,0.7732619160087779,,,,,,,,
encoding,attention,15,3130292,3133310,3132006.0,3132147.0,142.0,142.0,1883.3,723.8,1920.0,1460.0,Object_Sea_Pattern_Small,33.35991829202976,36.377615125034936,3.0,Object_Land_Pattern_Large,-5.0,-5.0,1.0,0.7732619160087779,,,,,,,,
encoding,attention,15,3130292,3133310,3132174.0,3132466.0,293.0,293.0,1601.2,772.4000000000001,1591.0,1269.0,Object_Land_Pattern_Large,33.35991829202976,36.377615125034936,3.0,Object_Land_Pattern_Large,-5.0,-5.0,1.0,0.7732619160087779,,,,,,,,
encoding,attention,15,3130292,3133310,3132486.0,3132864.0,379.0,379.0,1664.5,745.3,1591.0,1269.0,Object_Land_Pattern_Large,33.35991829202976,36.377615125034936,3.0,Object_Land_Pattern_Large,-5.0,-5.0,1.0,0.7732619160087779,,,,,,,,
encoding,attention,15,3130292,3133310,3132881.0,3133125.0,245.0,245.0,1616.2,745.0,1591.0,1269.0,Object_Land_Pattern_Large,33.35991829202976,36.377615125034936,3.0,Object_Land_Pattern_Large,-5.0,-5.0,1.0,0.7732619160087779,,,,,,,,
encoding,fixation,16,3133310,3134815,3133349.0,3133580.0,232.0,232.0,1597.4,606.0999999999999,1591.0,1269.0,Object_Land_Pattern_Large,36.37777258397546,37.88315512507688,3.0,Animal_Land_Pattern_Small,-2.0,,,,,,,,,,,
encoding,fixation,16,3133310,3134815,3133802.0,3133956.0,155.0,155.0,1760.5,726.0,1920.0,1460.0,Object_Sea_Pattern_Small,36.37777258397546,37.88315512507688,3.0,Animal_Land_Pattern_Small,-2.0,,,,,,,,,,,
encoding,fixation,16,3133310,3134815,3133975.0,3134311.0,337.0,337.0,1928.2,1049.5,1920.0,1080.0,fixation,36.37777258397546,37.88315512507688,3.0,Animal_Land_Pattern_Small,-2.0,,,,,,,,,,,
encoding,fixation,16,3133310,3134815,3134323.0,3134787.0,465.0,465.0,1861.3,1072.0,1920.0,1080.0,fixation,36.37777258397546,37.88315512507688,3.0,Animal_Land_Pattern_Small,-2.0,,,,,,,,,,,
encoding,fixation,16,3133310,3134815,3134800.0,3135040.0,241.0,15.0,1950.5,1081.0,1920.0,1080.0,fixation,36.37777258397546,37.88315512507688,3.0,Animal_Land_Pattern_Small,-2.0,,,,,,,,,,,
encoding,image,16,3134816,3135828,3135077.0,3135330.0,254.0,254.0,2220.5,869.3,2249.0,1269.0,Animal_Land_Pattern_Small,37.88326912501361,38.89589333406184,3.0,Animal_Land_Pattern_Small,-2.0,,,,,,,,,,,
encoding,image,16,3134816,3135828,3135528.0,3135793.0,266.0,266.0,1998.6,812.0,1920.0,1460.0,Object_Sea_Pattern_Small,37.88326912501361,38.89589333406184,3.0,Animal_Land_Pattern_Small,-2.0,,,,,,,,,,,
encoding,image,16,3134816,3135828,3135817.0,3136244.0,428.0,11.0,2252.2,806.4000000000001,2249.0,1269.0,Animal_Land_Pattern_Small,37.88326912501361,38.89589333406184,3.0,Animal_Land_Pattern_Small,-2.0,,,,,,,,,,,
encoding,value,16,3135828,3141840,3136257.0,3136606.0,350.0,350.0,2224.6,856.5,2249.0,1269.0,Animal_Land_Pattern_Small,38.89602866698988,44.90774391696323,3.0,Animal_Land_Pattern_Small,-2.0,,,,,,,,,,,
encoding,value,16,3135828,3141840,3136621.0,3137514.0,894.0,894.0,2242.8,889.8,2249.0,1269.0,Animal_Land_Pattern_Small,38.89602866698988,44.90774391696323,3.0,Animal_Land_Pattern_Small,-2.0,,,,,,,,,,,
encoding,value,16,3135828,3141840,3137533.0,3137814.0,282.0,282.0,2259.2,806.0999999999999,2249.0,1269.0,Animal_Land_Pattern_Small,38.89602866698988,44.90774391696323,3.0,Animal_Land_Pattern_Small,-2.0,,,,,,,,,,,
encoding,value,16,3135828,3141840,3137983.0,3138282.0,300.0,300.0,2183.5,742.2,2249.0,1269.0,Animal_Land_Pattern_Small,38.89602866698988,44.90774391696323,3.0,Animal_Land_Pattern_Small,-2.0,,,,,,,,,,,
encoding,value,16,3135828,3141840,3138293.0,3139331.0,1039.0,1039.0,2239.6,758.2,2249.0,1269.0,Animal_Land_Pattern_Small,38.89602866698988,44.90774391696323,3.0,Animal_Land_Pattern_Small,-2.0,,,,,,,,,,,
encoding,value,16,3135828,3141840,3139520.0,3140218.0,699.0,699.0,2197.9,780.0999999999999,2249.0,1269.0,Animal_Land_Pattern_Small,38.89602866698988,44.90774391696323,3.0,Animal_Land_Pattern_Small,-2.0,,,,,,,,,,,
encoding,value,16,3135828,3141840,3140226.0,3140552.0,327.0,327.0,2227.7,855.7,2249.0,1269.0,Animal_Land_Pattern_Small,38.89602866698988,44.90774391696323,3.0,Animal_Land_Pattern_Small,-2.0,,,,,,,,,,,
encoding,value,16,3135828,3141840,3140751.0,3141042.0,292.0,292.0,2225.4,812.0,2249.0,1269.0,Animal_Land_Pattern_Small,38.89602866698988,44.90774391696323,3.0,Animal_Land_Pattern_Small,-2.0,,,,,,,,,,,
encoding,value,16,3135828,3141840,3141060.0,3141620.0,561.0,561.0,2191.7,804.8,2249.0,1269.0,Animal_Land_Pattern_Small,38.89602866698988,44.90774391696323,3.0,Animal_Land_Pattern_Small,-2.0,,,,,,,,,,,
encoding,value,16,3135828,3141840,3141630.0,3142036.0,407.0,210.0,2223.8,849.0999999999999,2249.0,1269.0,Animal_Land_Pattern_Small,38.89602866698988,44.90774391696323,3.0,Animal_Land_Pattern_Small,-2.0,,,,,,,,,,,
encoding,attention,16,3141840,3144858,3142052.0,3142322.0,271.0,271.0,2217.3,775.4000000000001,2249.0,1269.0,Animal_Land_Pattern_Small,44.907890583970584,47.92500308400486,3.0,Animal_Land_Pattern_Small,-2.0,-2.0,1.0,0.7087871249532327,,,,,,,,
encoding,attention,16,3141840,3144858,3142336.0,3142754.0,419.0,419.0,2284.7,752.3,2249.0,1269.0,Animal_Land_Pattern_Small,44.907890583970584,47.92500308400486,3.0,Animal_Land_Pattern_Small,-2.0,-2.0,1.0,0.7087871249532327,,,,,,,,
encoding,attention,16,3141840,3144858,3142991.0,3143263.0,273.0,273.0,2151.3,817.4000000000001,2249.0,1269.0,Animal_Land_Pattern_Small,44.907890583970584,47.92500308400486,3.0,Animal_Land_Pattern_Small,-2.0,-2.0,1.0,0.7087871249532327,,,,,,,,
encoding,attention,16,3141840,3144858,3143282.0,3143661.0,380.0,380.0,2206.2,807.5,2249.0,1269.0,Animal_Land_Pattern_Small,44.907890583970584,47.92500308400486,3.0,Animal_Land_Pattern_Small,-2.0,-2.0,1.0,0.7087871249532327,,,,,,,,
encoding,attention,16,3141840,3144858,3143872.0,3144264.0,393.0,393.0,1986.0,809.3,1920.0,1460.0,Object_Sea_Pattern_Small,44.907890583970584,47.92500308400486,3.0,Animal_Land_Pattern_Small,-2.0,-2.0,1.0,0.7087871249532327,,,,,,,,
encoding,attention,16,3141840,3144858,3144298.0,3144410.0,113.0,113.0,2256.8,817.8,2249.0,1269.0,Animal_Land_Pattern_Small,44.907890583970584,47.92500308400486,3.0,Animal_Land_Pattern_Small,-2.0,-2.0,1.0,0.7087871249532327,,,,,,,,
encoding,fixation,17,3144858,3145363,3145144.0,3145220.0,77.0,77.0,1888.6,921.8,1920.0,1460.0,Object_Sea_Pattern_Small,47.92518412496429,48.43043241696432,3.0,Animal_Sea_Solid_Large,-9.0,,,,,,,,,,,
encoding,image,17,3145363,3146375,3145442.0,3145681.0,240.0,240.0,1938.5,917.7,1920.0,1460.0,Object_Sea_Pattern_Small,48.43057862506248,49.4419762090547,3.0,Animal_Sea_Solid_Large,-9.0,,,,,,,,,,,
encoding,image,17,3145363,3146375,3145707.0,3145870.0,164.0,164.0,2201.1,1163.3,2249.0,891.0,Animal_Sea_Solid_Large,48.43057862506248,49.4419762090547,3.0,Animal_Sea_Solid_Large,-9.0,,,,,,,,,,,
encoding,image,17,3145363,3146375,3145885.0,3146243.0,359.0,359.0,2233.4,1244.6,2249.0,891.0,Animal_Sea_Solid_Large,48.43057862506248,49.4419762090547,3.0,Animal_Sea_Solid_Large,-9.0,,,,,,,,,,,
encoding,image,17,3145363,3146375,3146268.0,3146598.0,331.0,107.0,1985.3,1136.1,2249.0,891.0,Animal_Sea_Solid_Large,48.43057862506248,49.4419762090547,3.0,Animal_Sea_Solid_Large,-9.0,,,,,,,,,,,
encoding,value,17,3146375,3152386,3146627.0,3147076.0,450.0,450.0,2244.5,1149.5,2249.0,891.0,Animal_Sea_Solid_Large,49.44208525004797,55.45317583403085,3.0,Animal_Sea_Solid_Large,-9.0,,,,,,,,,,,
encoding,value,17,3146375,3152386,3147229.0,3147534.0,306.0,306.0,2195.5,1284.6,2249.0,891.0,Animal_Sea_Solid_Large,49.44208525004797,55.45317583403085,3.0,Animal_Sea_Solid_Large,-9.0,,,,,,,,,,,
encoding,value,17,3146375,3152386,3147554.0,3147713.0,160.0,160.0,2247.7,1207.1,2249.0,891.0,Animal_Sea_Solid_Large,49.44208525004797,55.45317583403085,3.0,Animal_Sea_Solid_Large,-9.0,,,,,,,,,,,
encoding,value,17,3146375,3152386,3147897.0,3148104.0,208.0,208.0,2204.5,1136.3,2249.0,891.0,Animal_Sea_Solid_Large,49.44208525004797,55.45317583403085,3.0,Animal_Sea_Solid_Large,-9.0,,,,,,,,,,,
encoding,value,17,3146375,3152386,3148163.0,3148387.0,225.0,225.0,1569.4,977.4000000000001,1591.0,1269.0,Object_Land_Pattern_Large,49.44208525004797,55.45317583403085,3.0,Animal_Sea_Solid_Large,-9.0,,,,,,,,,,,
encoding,value,17,3146375,3152386,3148569.0,3148715.0,147.0,147.0,2259.8,1153.4,2249.0,891.0,Animal_Sea_Solid_Large,49.44208525004797,55.45317583403085,3.0,Animal_Sea_Solid_Large,-9.0,,,,,,,,,,,
encoding,value,17,3146375,3152386,3148732.0,3149377.0,646.0,646.0,2211.5,1188.5,2249.0,891.0,Animal_Sea_Solid_Large,49.44208525004797,55.45317583403085,3.0,Animal_Sea_Solid_Large,-9.0,,,,,,,,,,,
encoding,value,17,3146375,3152386,3149582.0,3150168.0,587.0,587.0,2229.8,1282.9,2249.0,891.0,Animal_Sea_Solid_Large,49.44208525004797,55.45317583403085,3.0,Animal_Sea_Solid_Large,-9.0,,,,,,,,,,,
encoding,value,17,3146375,3152386,3150188.0,3150406.0,219.0,219.0,2242.2,1193.6,2249.0,891.0,Animal_Sea_Solid_Large,49.44208525004797,55.45317583403085,3.0,Animal_Sea_Solid_Large,-9.0,,,,,,,,,,,
encoding,value,17,3146375,3152386,3150417.0,3150726.0,310.0,310.0,2237.2,1162.5,2249.0,891.0,Animal_Sea_Solid_Large,49.44208525004797,55.45317583403085,3.0,Animal_Sea_Solid_Large,-9.0,,,,,,,,,,,
encoding,value,17,3146375,3152386,3150920.0,3151872.0,953.0,953.0,2195.7,1138.2,2249.0,891.0,Animal_Sea_Solid_Large,49.44208525004797,55.45317583403085,3.0,Animal_Sea_Solid_Large,-9.0,,,,,,,,,,,
encoding,value,17,3146375,3152386,3152066.0,3153541.0,1476.0,320.0,2201.7,1165.2,2249.0,891.0,Animal_Sea_Solid_Large,49.44208525004797,55.45317583403085,3.0,Animal_Sea_Solid_Large,-9.0,,,,,,,,,,,
encoding,attention,17,3152386,3155403,3153762.0,3153930.0,169.0,169.0,2235.3,1297.7,2249.0,891.0,Animal_Sea_Solid_Large,55.45331833406817,58.470014209044166,3.0,Animal_Sea_Solid_Large,-9.0,-9.0,1.0,0.9224359579384328,,,,,,,,
encoding,attention,17,3152386,3155403,3153938.0,3154125.0,188.0,188.0,2212.6,1304.8,2249.0,891.0,Animal_Sea_Solid_Large,55.45331833406817,58.470014209044166,3.0,Animal_Sea_Solid_Large,-9.0,-9.0,1.0,0.9224359579384328,,,,,,,,
encoding,attention,17,3152386,3155403,3154399.0,3154657.0,259.0,259.0,2201.1,1189.6,2249.0,891.0,Animal_Sea_Solid_Large,55.45331833406817,58.470014209044166,3.0,Animal_Sea_Solid_Large,-9.0,-9.0,1.0,0.9224359579384328,,,,,,,,
encoding,attention,17,3152386,3155403,3154682.0,3154936.0,255.0,255.0,1836.0,1152.2,1591.0,891.0,Object_Sea_Solid_Small,55.45331833406817,58.470014209044166,3.0,Animal_Sea_Solid_Large,-9.0,-9.0,1.0,0.9224359579384328,,,,,,,,
encoding,attention,17,3152386,3155403,3154958.0,3155003.0,46.0,46.0,1718.9,1046.6,1591.0,1269.0,Object_Land_Pattern_Large,55.45331833406817,58.470014209044166,3.0,Animal_Sea_Solid_Large,-9.0,-9.0,1.0,0.9224359579384328,,,,,,,,
encoding,attention,17,3152386,3155403,3155229.0,3155388.0,160.0,160.0,2152.3,1066.5,2249.0,1269.0,Animal_Land_Pattern_Small,55.45331833406817,58.470014209044166,3.0,Animal_Sea_Solid_Large,-9.0,-9.0,1.0,0.9224359579384328,,,,,,,,
encoding,fixation,18,3155403,3156159,3155946.0,3156100.0,155.0,155.0,1997.4,1080.0,2249.0,1269.0,Animal_Land_Pattern_Small,58.470176959061064,59.225696166977286,3.0,Object_Sea_Solid_Small,-8.0,,,,,,,,,,,
encoding,fixation,18,3155403,3156159,3156115.0,3156320.0,206.0,44.0,1850.8,1196.1,1591.0,891.0,Object_Sea_Solid_Small,58.470176959061064,59.225696166977286,3.0,Object_Sea_Solid_Small,-8.0,,,,,,,,,,,
encoding,image,18,3156159,3157169,3156343.0,3156391.0,49.0,49.0,1628.5,1174.5,1591.0,891.0,Object_Sea_Solid_Small,59.22580845898483,60.235835875035264,3.0,Object_Sea_Solid_Small,-8.0,,,,,,,,,,,
encoding,image,18,3156159,3157169,3156412.0,3156550.0,139.0,139.0,1551.0,1175.1,1591.0,891.0,Object_Sea_Solid_Small,59.22580845898483,60.235835875035264,3.0,Object_Sea_Solid_Small,-8.0,,,,,,,,,,,
encoding,image,18,3156159,3157169,3156566.0,3156986.0,421.0,421.0,1597.9,1257.9,1591.0,891.0,Object_Sea_Solid_Small,59.22580845898483,60.235835875035264,3.0,Object_Sea_Solid_Small,-8.0,,,,,,,,,,,
encoding,image,18,3156159,3157169,3157008.0,3157771.0,764.0,161.0,1610.2,1120.1,1591.0,891.0,Object_Sea_Solid_Small,59.22580845898483,60.235835875035264,3.0,Object_Sea_Solid_Small,-8.0,,,,,,,,,,,
encoding,value,18,3157169,3163180,3157943.0,3158603.0,661.0,661.0,1591.3,1158.6,1591.0,891.0,Object_Sea_Solid_Small,60.23594612500165,66.24640791700222,3.0,Object_Sea_Solid_Small,-8.0,,,,,,,,,,,
encoding,value,18,3157169,3163180,3158617.0,3159289.0,673.0,673.0,1599.8,1115.5,1591.0,891.0,Object_Sea_Solid_Small,60.23594612500165,66.24640791700222,3.0,Object_Sea_Solid_Small,-8.0,,,,,,,,,,,
encoding,value,18,3157169,3163180,3159453.0,3159777.0,325.0,325.0,1598.8,1119.5,1591.0,891.0,Object_Sea_Solid_Small,60.23594612500165,66.24640791700222,3.0,Object_Sea_Solid_Small,-8.0,,,,,,,,,,,
encoding,value,18,3157169,3163180,3159797.0,3160124.0,328.0,328.0,1589.0,1248.3,1591.0,891.0,Object_Sea_Solid_Small,60.23594612500165,66.24640791700222,3.0,Object_Sea_Solid_Small,-8.0,,,,,,,,,,,
encoding,value,18,3157169,3163180,3160146.0,3160490.0,345.0,345.0,1589.5,1107.9,1591.0,891.0,Object_Sea_Solid_Small,60.23594612500165,66.24640791700222,3.0,Object_Sea_Solid_Small,-8.0,,,,,,,,,,,
encoding,value,18,3157169,3163180,3160640.0,3161227.0,588.0,588.0,1596.6,1118.4,1591.0,891.0,Object_Sea_Solid_Small,60.23594612500165,66.24640791700222,3.0,Object_Sea_Solid_Small,-8.0,,,,,,,,,,,
encoding,value,18,3157169,3163180,3161393.0,3161563.0,171.0,171.0,1599.7,985.2,1591.0,1269.0,Object_Land_Pattern_Large,60.23594612500165,66.24640791700222,3.0,Object_Sea_Solid_Small,-8.0,,,,,,,,,,,
encoding,value,18,3157169,3163180,3161790.0,3161948.0,159.0,159.0,1643.3,1045.4,1591.0,1269.0,Object_Land_Pattern_Large,60.23594612500165,66.24640791700222,3.0,Object_Sea_Solid_Small,-8.0,,,,,,,,,,,
encoding,value,18,3157169,3163180,3161960.0,3162143.0,184.0,184.0,1600.6,1150.2,1591.0,891.0,Object_Sea_Solid_Small,60.23594612500165,66.24640791700222,3.0,Object_Sea_Solid_Small,-8.0,,,,,,,,,,,
encoding,value,18,3157169,3163180,3162354.0,3163100.0,747.0,747.0,1608.7,1101.2,1591.0,891.0,Object_Sea_Solid_Small,60.23594612500165,66.24640791700222,3.0,Object_Sea_Solid_Small,-8.0,,,,,,,,,,,
encoding,attention,18,3163180,3166196,3163257.0,3163702.0,446.0,446.0,1635.6,1031.7,1591.0,1269.0,Object_Land_Pattern_Large,66.2465273339767,69.26294804201461,3.0,Object_Sea_Solid_Small,-8.0,-8.0,1.0,2.0333489580079913,,,,,,,,
encoding,attention,18,3163180,3166196,3163715.0,3164418.0,704.0,704.0,1569.6,1114.3,1591.0,891.0,Object_Sea_Solid_Small,66.2465273339767,69.26294804201461,3.0,Object_Sea_Solid_Small,-8.0,-8.0,1.0,2.0333489580079913,,,,,,,,
encoding,attention,18,3163180,3166196,3164584.0,3164823.0,240.0,240.0,1605.3,1108.0,1591.0,891.0,Object_Sea_Solid_Small,66.2465273339767,69.26294804201461,3.0,Object_Sea_Solid_Small,-8.0,-8.0,1.0,2.0333489580079913,,,,,,,,
encoding,attention,18,3163180,3166196,3164836.0,3165036.0,201.0,201.0,1534.6,1112.4,1591.0,891.0,Object_Sea_Solid_Small,66.2465273339767,69.26294804201461,3.0,Object_Sea_Solid_Small,-8.0,-8.0,1.0,2.0333489580079913,,,,,,,,
encoding,attention,18,3163180,3166196,3165049.0,3165414.0,366.0,366.0,1592.6,1163.2,1591.0,891.0,Object_Sea_Solid_Small,66.2465273339767,69.26294804201461,3.0,Object_Sea_Solid_Small,-8.0,-8.0,1.0,2.0333489580079913,,,,,,,,
encoding,attention,18,3163180,3166196,3165673.0,3165902.0,230.0,230.0,1868.8,924.2,1920.0,1460.0,Object_Sea_Pattern_Small,66.2465273339767,69.26294804201461,3.0,Object_Sea_Solid_Small,-8.0,-8.0,1.0,2.0333489580079913,,,,,,,,
encoding,attention,18,3163180,3166196,3165941.0,3166190.0,250.0,250.0,1584.6,1084.1,1591.0,891.0,Object_Sea_Solid_Small,66.2465273339767,69.26294804201461,3.0,Object_Sea_Solid_Small,-8.0,-8.0,1.0,2.0333489580079913,,,,,,,,
encoding,fixation,19,3431388,3432394,3431421.0,3431608.0,188.0,188.0,2022.7,882.7,1920.0,1460.0,Animal_Land_Solid_Small,4.688250334002078,5.69368983397726,4.0,Animal_Sea_Solid_Large,1.0,,,,,,,,,,,
encoding,fixation,19,3431388,3432394,3431624.0,3431723.0,100.0,100.0,1907.9,1027.5,1920.0,1080.0,fixation,4.688250334002078,5.69368983397726,4.0,Animal_Sea_Solid_Large,1.0,,,,,,,,,,,
encoding,fixation,19,3431388,3432394,3431936.0,3432401.0,466.0,458.0,1887.8,1260.7,1920.0,700.0,Object_Sea_Solid_Large,4.688250334002078,5.69368983397726,4.0,Animal_Sea_Solid_Large,1.0,,,,,,,,,,,
encoding,image,19,3432394,3433408,3432606.0,3432711.0,106.0,106.0,1889.3,1237.9,1920.0,700.0,Object_Sea_Solid_Large,5.693819542066194,6.707515625050291,4.0,Animal_Sea_Solid_Large,1.0,,,,,,,,,,,
encoding,image,19,3432394,3433408,3432746.0,3432970.0,225.0,225.0,2229.6,1227.2,2249.0,891.0,Animal_Sea_Solid_Large,5.693819542066194,6.707515625050291,4.0,Animal_Sea_Solid_Large,1.0,,,,,,,,,,,
encoding,image,19,3432394,3433408,3433212.0,3433419.0,208.0,196.0,2223.3,1258.4,2249.0,891.0,Animal_Sea_Solid_Large,5.693819542066194,6.707515625050291,4.0,Animal_Sea_Solid_Large,1.0,,,,,,,,,,,
encoding,value,19,3433408,3439423,3433634.0,3433776.0,143.0,143.0,2164.8,1092.7,2249.0,891.0,Animal_Sea_Solid_Large,6.707624334027059,12.722084834007546,4.0,Animal_Sea_Solid_Large,1.0,,,,,,,,,,,
encoding,value,19,3433408,3439423,3433788.0,3434199.0,412.0,412.0,2224.3,1136.2,2249.0,891.0,Animal_Sea_Solid_Large,6.707624334027059,12.722084834007546,4.0,Animal_Sea_Solid_Large,1.0,,,,,,,,,,,
encoding,value,19,3433408,3439423,3434413.0,3435013.0,601.0,601.0,2209.7,1199.0,2249.0,891.0,Animal_Sea_Solid_Large,6.707624334027059,12.722084834007546,4.0,Animal_Sea_Solid_Large,1.0,,,,,,,,,,,
encoding,value,19,3433408,3439423,3435031.0,3435825.0,795.0,795.0,2240.5,1160.5,2249.0,891.0,Animal_Sea_Solid_Large,6.707624334027059,12.722084834007546,4.0,Animal_Sea_Solid_Large,1.0,,,,,,,,,,,
encoding,value,19,3433408,3439423,3435835.0,3436147.0,313.0,313.0,2227.7,1239.6,2249.0,891.0,Animal_Sea_Solid_Large,6.707624334027059,12.722084834007546,4.0,Animal_Sea_Solid_Large,1.0,,,,,,,,,,,
encoding,value,19,3433408,3439423,3436373.0,3436572.0,200.0,200.0,2229.5,1180.6,2249.0,891.0,Animal_Sea_Solid_Large,6.707624334027059,12.722084834007546,4.0,Animal_Sea_Solid_Large,1.0,,,,,,,,,,,
encoding,value,19,3433408,3439423,3436586.0,3437093.0,508.0,508.0,2233.1,1167.8,2249.0,891.0,Animal_Sea_Solid_Large,6.707624334027059,12.722084834007546,4.0,Animal_Sea_Solid_Large,1.0,,,,,,,,,,,
encoding,value,19,3433408,3439423,3437110.0,3437743.0,634.0,634.0,2232.8,1248.7,2249.0,891.0,Animal_Sea_Solid_Large,6.707624334027059,12.722084834007546,4.0,Animal_Sea_Solid_Large,1.0,,,,,,,,,,,
encoding,value,19,3433408,3439423,3437750.0,3438135.0,386.0,386.0,2244.4,1277.1,2249.0,891.0,Animal_Sea_Solid_Large,6.707624334027059,12.722084834007546,4.0,Animal_Sea_Solid_Large,1.0,,,,,,,,,,,
encoding,value,19,3433408,3439423,3438153.0,3438383.0,231.0,231.0,2243.6,1198.1,2249.0,891.0,Animal_Sea_Solid_Large,6.707624334027059,12.722084834007546,4.0,Animal_Sea_Solid_Large,1.0,,,,,,,,,,,
encoding,value,19,3433408,3439423,3438584.0,3439829.0,1246.0,839.0,2220.6,1154.6,2249.0,891.0,Animal_Sea_Solid_Large,6.707624334027059,12.722084834007546,4.0,Animal_Sea_Solid_Large,1.0,,,,,,,,,,,
encoding,attention,19,3439423,3442440,3439846.0,3440456.0,611.0,611.0,2291.7,1154.3,2249.0,891.0,Animal_Sea_Solid_Large,12.722187916981056,15.739402167033404,4.0,Animal_Sea_Solid_Large,1.0,1.0,1.0,0.8086727909976617,,,,,,,,
encoding,attention,19,3439423,3442440,3440663.0,3441047.0,385.0,385.0,2227.4,1295.8,2249.0,891.0,Animal_Sea_Solid_Large,12.722187916981056,15.739402167033404,4.0,Animal_Sea_Solid_Large,1.0,1.0,1.0,0.8086727909976617,,,,,,,,
encoding,attention,19,3439423,3442440,3441323.0,3441689.0,367.0,367.0,2241.4,1226.8,2249.0,891.0,Animal_Sea_Solid_Large,12.722187916981056,15.739402167033404,4.0,Animal_Sea_Solid_Large,1.0,1.0,1.0,0.8086727909976617,,,,,,,,
encoding,fixation,20,3442440,3443946,3442465.0,3442663.0,199.0,199.0,2262.7,1144.5,2249.0,891.0,Animal_Sea_Solid_Large,15.739588500000536,17.244948167004623,4.0,Object_Land_Pattern_Small,-7.0,,,,,,,,,,,
encoding,fixation,20,3442440,3443946,3442698.0,3442792.0,95.0,95.0,1910.9,1041.9,1920.0,1080.0,fixation,15.739588500000536,17.244948167004623,4.0,Object_Land_Pattern_Small,-7.0,,,,,,,,,,,
encoding,fixation,20,3442440,3443946,3442993.0,3444093.0,1101.0,953.0,1954.2,1054.6,1920.0,1080.0,fixation,15.739588500000536,17.244948167004623,4.0,Object_Land_Pattern_Small,-7.0,,,,,,,,,,,
encoding,image,20,3443946,3444959,3444126.0,3444257.0,132.0,132.0,1647.3,906.0,1591.0,1269.0,Object_Land_Pattern_Small,17.245068334043026,18.25822558405343,4.0,Object_Land_Pattern_Small,-7.0,,,,,,,,,,,
encoding,image,20,3443946,3444959,3444268.0,3444575.0,308.0,308.0,1592.4,877.0999999999999,1591.0,1269.0,Object_Land_Pattern_Small,17.245068334043026,18.25822558405343,4.0,Object_Land_Pattern_Small,-7.0,,,,,,,,,,,
encoding,image,20,3443946,3444959,3444762.0,3445057.0,296.0,197.0,1602.4,787.0,1591.0,1269.0,Object_Land_Pattern_Small,17.245068334043026,18.25822558405343,4.0,Object_Land_Pattern_Small,-7.0,,,,,,,,,,,
encoding,value,20,3444959,3450971,3445076.0,3445474.0,399.0,399.0,1620.5,791.7,1591.0,1269.0,Object_Land_Pattern_Small,18.25832787505351,24.27016958396416,4.0,Object_Land_Pattern_Small,-7.0,,,,,,,,,,,
encoding,value,20,3444959,3450971,3445663.0,3445901.0,239.0,239.0,1580.9,714.9000000000001,1591.0,1269.0,Object_Land_Pattern_Small,18.25832787505351,24.27016958396416,4.0,Object_Land_Pattern_Small,-7.0,,,,,,,,,,,
encoding,value,20,3444959,3450971,3445917.0,3446430.0,514.0,514.0,1606.0,819.9000000000001,1591.0,1269.0,Object_Land_Pattern_Small,18.25832787505351,24.27016958396416,4.0,Object_Land_Pattern_Small,-7.0,,,,,,,,,,,
encoding,value,20,3444959,3450971,3446441.0,3446876.0,436.0,436.0,1606.7,766.7,1591.0,1269.0,Object_Land_Pattern_Small,18.25832787505351,24.27016958396416,4.0,Object_Land_Pattern_Small,-7.0,,,,,,,,,,,
encoding,value,20,3444959,3450971,3447079.0,3447416.0,338.0,338.0,1922.0,975.0999999999999,1920.0,1460.0,Animal_Land_Solid_Small,18.25832787505351,24.27016958396416,4.0,Object_Land_Pattern_Small,-7.0,,,,,,,,,,,
encoding,value,20,3444959,3450971,3447458.0,3449397.0,1940.0,1940.0,1615.9,759.4000000000001,1591.0,1269.0,Object_Land_Pattern_Small,18.25832787505351,24.27016958396416,4.0,Object_Land_Pattern_Small,-7.0,,,,,,,,,,,
encoding,value,20,3444959,3450971,3449544.0,3449888.0,345.0,345.0,1603.4,699.7,1591.0,1269.0,Object_Land_Pattern_Small,18.25832787505351,24.27016958396416,4.0,Object_Land_Pattern_Small,-7.0,,,,,,,,,,,
encoding,value,20,3444959,3450971,3449897.0,3450265.0,369.0,369.0,1596.5,778.4000000000001,1591.0,1269.0,Object_Land_Pattern_Small,18.25832787505351,24.27016958396416,4.0,Object_Land_Pattern_Small,-7.0,,,,,,,,,,,
encoding,value,20,3444959,3450971,3450274.0,3450540.0,267.0,267.0,1642.1,766.2,1591.0,1269.0,Object_Land_Pattern_Small,18.25832787505351,24.27016958396416,4.0,Object_Land_Pattern_Small,-7.0,,,,,,,,,,,
encoding,value,20,3444959,3450971,3450553.0,3451210.0,658.0,418.0,1592.0,757.0999999999999,1591.0,1269.0,Object_Land_Pattern_Small,18.25832787505351,24.27016958396416,4.0,Object_Land_Pattern_Small,-7.0,,,,,,,,,,,
encoding,attention,20,3450971,3453990,3451416.0,3451852.0,437.0,437.0,1618.4,599.7,1591.0,1269.0,Object_Land_Pattern_Small,24.270300333970223,27.28819975000806,4.0,Object_Land_Pattern_Small,-7.0,-7.0,1.0,0.6522939170245081,,,,,,,,
encoding,attention,20,3450971,3453990,3452063.0,3452265.0,203.0,203.0,1609.6,664.8,1591.0,1269.0,Object_Land_Pattern_Small,24.270300333970223,27.28819975000806,4.0,Object_Land_Pattern_Small,-7.0,-7.0,1.0,0.6522939170245081,,,,,,,,
encoding,attention,20,3450971,3453990,3452274.0,3452490.0,217.0,217.0,1596.9,833.2,1591.0,1269.0,Object_Land_Pattern_Small,24.270300333970223,27.28819975000806,4.0,Object_Land_Pattern_Small,-7.0,-7.0,1.0,0.6522939170245081,,,,,,,,
encoding,attention,20,3450971,3453990,3452507.0,3452667.0,161.0,161.0,1697.3,824.3,1591.0,1269.0,Object_Land_Pattern_Small,24.270300333970223,27.28819975000806,4.0,Object_Land_Pattern_Small,-7.0,-7.0,1.0,0.6522939170245081,,,,,,,,
encoding,attention,20,3450971,3453990,3452688.0,3453085.0,398.0,398.0,1637.5,782.9000000000001,1591.0,1269.0,Object_Land_Pattern_Small,24.270300333970223,27.28819975000806,4.0,Object_Land_Pattern_Small,-7.0,-7.0,1.0,0.6522939170245081,,,,,,,,
encoding,attention,20,3450971,3453990,3453284.0,3453492.0,209.0,209.0,1806.0,886.5,1591.0,1269.0,Object_Land_Pattern_Small,24.270300333970223,27.28819975000806,4.0,Object_Land_Pattern_Small,-7.0,-7.0,1.0,0.6522939170245081,,,,,,,,
encoding,attention,20,3450971,3453990,3453514.0,3453909.0,396.0,396.0,1616.1,912.0999999999999,1591.0,1269.0,Object_Land_Pattern_Small,24.270300333970223,27.28819975000806,4.0,Object_Land_Pattern_Small,-7.0,-7.0,1.0,0.6522939170245081,,,,,,,,
encoding,fixation,21,3453990,3455245,3454112.0,3454571.0,460.0,460.0,1975.7,1156.7,2249.0,891.0,Animal_Sea_Solid_Large,27.28840395901352,28.543665334000252,4.0,Object_Sea_Solid_Large,1.0,,,,,,,,,,,
encoding,fixation,21,3453990,3455245,3454584.0,3454757.0,174.0,174.0,1936.7,1131.1,1920.0,1080.0,fixation,27.28840395901352,28.543665334000252,4.0,Object_Sea_Solid_Large,1.0,,,,,,,,,,,
encoding,fixation,21,3453990,3455245,3454776.0,3454985.0,210.0,210.0,1814.9,1067.1,1591.0,1269.0,Object_Land_Pattern_Small,27.28840395901352,28.543665334000252,4.0,Object_Sea_Solid_Large,1.0,,,,,,,,,,,
encoding,fixation,21,3453990,3455245,3455004.0,3455224.0,221.0,221.0,1957.9,1033.0,1920.0,1080.0,fixation,27.28840395901352,28.543665334000252,4.0,Object_Sea_Solid_Large,1.0,,,,,,,,,,,
encoding,fixation,21,3453990,3455245,3455235.0,3455452.0,218.0,10.0,1913.1,1028.1,1920.0,1080.0,fixation,27.28840395901352,28.543665334000252,4.0,Object_Sea_Solid_Large,1.0,,,,,,,,,,,
encoding,image,21,3455245,3456259,3455495.0,3456066.0,572.0,572.0,1904.5,1411.0,1920.0,700.0,Object_Sea_Solid_Large,28.54378083406482,29.558094084030017,4.0,Object_Sea_Solid_Large,1.0,,,,,,,,,,,
encoding,image,21,3455245,3456259,3456083.0,3456620.0,538.0,176.0,1920.2,1317.9,1920.0,700.0,Object_Sea_Solid_Large,28.54378083406482,29.558094084030017,4.0,Object_Sea_Solid_Large,1.0,,,,,,,,,,,
encoding,value,21,3456260,3462272,3456830.0,3457255.0,426.0,426.0,1922.4,1392.8,1920.0,700.0,Object_Sea_Solid_Large,29.558301292010583,35.5699484590441,4.0,Object_Sea_Solid_Large,1.0,,,,,,,,,,,
encoding,value,21,3456260,3462272,3457280.0,3457626.0,347.0,347.0,2143.5,1368.8,2249.0,891.0,Animal_Sea_Solid_Large,29.558301292010583,35.5699484590441,4.0,Object_Sea_Solid_Large,1.0,,,,,,,,,,,
encoding,value,21,3456260,3462272,3457651.0,3457858.0,208.0,208.0,1887.7,1394.1,1920.0,700.0,Object_Sea_Solid_Large,29.558301292010583,35.5699484590441,4.0,Object_Sea_Solid_Large,1.0,,,,,,,,,,,
encoding,value,21,3456260,3462272,3458030.0,3458465.0,436.0,436.0,1892.4,1457.6,1920.0,700.0,Object_Sea_Solid_Large,29.558301292010583,35.5699484590441,4.0,Object_Sea_Solid_Large,1.0,,,,,,,,,,,
encoding,value,21,3456260,3462272,3458479.0,3458612.0,134.0,134.0,1990.1,1443.6,1920.0,700.0,Object_Sea_Solid_Large,29.558301292010583,35.5699484590441,4.0,Object_Sea_Solid_Large,1.0,,,,,,,,,,,
encoding,value,21,3456260,3462272,3458808.0,3459743.0,936.0,936.0,1920.4,1409.4,1920.0,700.0,Object_Sea_Solid_Large,29.558301292010583,35.5699484590441,4.0,Object_Sea_Solid_Large,1.0,,,,,,,,,,,
encoding,value,21,3456260,3462272,3459759.0,3461214.0,1456.0,1456.0,1930.9,1345.2,1920.0,700.0,Object_Sea_Solid_Large,29.558301292010583,35.5699484590441,4.0,Object_Sea_Solid_Large,1.0,,,,,,,,,,,
encoding,value,21,3456260,3462272,3461409.0,3461790.0,382.0,382.0,1915.0,1352.9,1920.0,700.0,Object_Sea_Solid_Large,29.558301292010583,35.5699484590441,4.0,Object_Sea_Solid_Large,1.0,,,,,,,,,,,
encoding,value,21,3456260,3462272,3461799.0,3462494.0,696.0,473.0,1922.8,1332.9,1920.0,700.0,Object_Sea_Solid_Large,29.558301292010583,35.5699484590441,4.0,Object_Sea_Solid_Large,1.0,,,,,,,,,,,
encoding,attention,21,3462272,3465289,3462501.0,3462626.0,126.0,126.0,1893.1,1332.6,1920.0,700.0,Object_Sea_Solid_Large,35.570072834030725,38.58735620905645,4.0,Object_Sea_Solid_Large,1.0,1.0,1.0,0.7778640419710428,,,,,,,,
encoding,attention,21,3462272,3465289,3462638.0,3463262.0,625.0,625.0,1968.3,1332.9,1920.0,700.0,Object_Sea_Solid_Large,35.570072834030725,38.58735620905645,4.0,Object_Sea_Solid_Large,1.0,1.0,1.0,0.7778640419710428,,,,,,,,
encoding,attention,21,3462272,3465289,3463465.0,3464232.0,768.0,768.0,1906.6,1426.7,1920.0,700.0,Object_Sea_Solid_Large,35.570072834030725,38.58735620905645,4.0,Object_Sea_Solid_Large,1.0,1.0,1.0,0.7778640419710428,,,,,,,,
encoding,attention,21,3462272,3465289,3464419.0,3464729.0,311.0,311.0,1986.3,1413.6,1920.0,700.0,Object_Sea_Solid_Large,35.570072834030725,38.58735620905645,4.0,Object_Sea_Solid_Large,1.0,1.0,1.0,0.7778640419710428,,,,,,,,
encoding,attention,21,3462272,3465289,3464745.0,3464884.0,140.0,140.0,1925.9,1377.7,1920.0,700.0,Object_Sea_Solid_Large,35.570072834030725,38.58735620905645,4.0,Object_Sea_Solid_Large,1.0,1.0,1.0,0.7778640419710428,,,,,,,,
encoding,attention,21,3462272,3465289,3464900.0,3465144.0,245.0,245.0,1984.4,1347.8,1920.0,700.0,Object_Sea_Solid_Large,35.570072834030725,38.58735620905645,4.0,Object_Sea_Solid_Large,1.0,1.0,1.0,0.7778640419710428,,,,,,,,
encoding,fixation,22,3465289,3466294,3465630.0,3466062.0,433.0,433.0,1746.2,860.7,1591.0,1269.0,Object_Land_Pattern_Small,38.58754062501248,39.59261883399449,4.0,Animal_Land_Solid_Small,-9.0,,,,,,,,,,,
encoding,fixation,22,3465289,3466294,3466086.0,3466331.0,246.0,208.0,1955.8,997.2,1920.0,1460.0,Animal_Land_Solid_Small,38.58754062501248,39.59261883399449,4.0,Animal_Land_Solid_Small,-9.0,,,,,,,,,,,
encoding,image,22,3466294,3467306,3466353.0,3466566.0,214.0,214.0,2018.5,1078.5,2249.0,1269.0,Animal_Land_Pattern_Small,39.59272029204294,40.604051709058695,4.0,Animal_Land_Solid_Small,-9.0,,,,,,,,,,,
encoding,image,22,3466294,3467306,3466609.0,3466759.0,151.0,151.0,1940.6,726.3,1920.0,1460.0,Animal_Land_Solid_Small,39.59272029204294,40.604051709058695,4.0,Animal_Land_Solid_Small,-9.0,,,,,,,,,,,
encoding,image,22,3466294,3467306,3466914.0,3467208.0,295.0,295.0,1965.1,810.2,1920.0,1460.0,Animal_Land_Solid_Small,39.59272029204294,40.604051709058695,4.0,Animal_Land_Solid_Small,-9.0,,,,,,,,,,,
encoding,image,22,3466294,3467306,3467232.0,3467428.0,197.0,74.0,1901.3,779.4000000000001,1920.0,1460.0,Animal_Land_Solid_Small,39.59272029204294,40.604051709058695,4.0,Animal_Land_Solid_Small,-9.0,,,,,,,,,,,
encoding,value,22,3467306,3473318,3467449.0,3467599.0,151.0,151.0,1945.8,692.4000000000001,1920.0,1460.0,Animal_Land_Solid_Small,40.60417133406736,46.61549383401871,4.0,Animal_Land_Solid_Small,-9.0,,,,,,,,,,,
encoding,value,22,3467306,3473318,3467616.0,3467928.0,313.0,313.0,1908.3,607.4000000000001,1920.0,1460.0,Animal_Land_Solid_Small,40.60417133406736,46.61549383401871,4.0,Animal_Land_Solid_Small,-9.0,,,,,,,,,,,
encoding,value,22,3467306,3473318,3467943.0,3468105.0,163.0,163.0,1933.5,677.5999999999999,1920.0,1460.0,Animal_Land_Solid_Small,40.60417133406736,46.61549383401871,4.0,Animal_Land_Solid_Small,-9.0,,,,,,,,,,,
encoding,value,22,3467306,3473318,3468279.0,3468562.0,284.0,284.0,1898.7,701.0999999999999,1920.0,1460.0,Animal_Land_Solid_Small,40.60417133406736,46.61549383401871,4.0,Animal_Land_Solid_Small,-9.0,,,,,,,,,,,
encoding,value,22,3467306,3473318,3468579.0,3468791.0,213.0,213.0,1929.7,753.2,1920.0,1460.0,Animal_Land_Solid_Small,40.60417133406736,46.61549383401871,4.0,Animal_Land_Solid_Small,-9.0,,,,,,,,,,,
encoding,value,22,3467306,3473318,3468802.0,3470199.0,1398.0,1398.0,1937.8,707.5999999999999,1920.0,1460.0,Animal_Land_Solid_Small,40.60417133406736,46.61549383401871,4.0,Animal_Land_Solid_Small,-9.0,,,,,,,,,,,
encoding,value,22,3467306,3473318,3470218.0,3470686.0,469.0,469.0,1908.7,608.8,1920.0,1460.0,Animal_Land_Solid_Small,40.60417133406736,46.61549383401871,4.0,Animal_Land_Solid_Small,-9.0,,,,,,,,,,,
encoding,value,22,3467306,3473318,3470828.0,3470985.0,158.0,158.0,1933.8,636.5,1920.0,1460.0,Animal_Land_Solid_Small,40.60417133406736,46.61549383401871,4.0,Animal_Land_Solid_Small,-9.0,,,,,,,,,,,
encoding,value,22,3467306,3473318,3471006.0,3471355.0,350.0,350.0,1907.4,666.3,1920.0,1460.0,Animal_Land_Solid_Small,40.60417133406736,46.61549383401871,4.0,Animal_Land_Solid_Small,-9.0,,,,,,,,,,,
encoding,value,22,3467306,3473318,3471370.0,3471635.0,266.0,266.0,1895.5,619.8,1920.0,1460.0,Animal_Land_Solid_Small,40.60417133406736,46.61549383401871,4.0,Animal_Land_Solid_Small,-9.0,,,,,,,,,,,
encoding,value,22,3467306,3473318,3471648.0,3472275.0,628.0,628.0,1891.4,595.9000000000001,1920.0,1460.0,Animal_Land_Solid_Small,40.60417133406736,46.61549383401871,4.0,Animal_Land_Solid_Small,-9.0,,,,,,,,,,,
encoding,value,22,3467306,3473318,3472488.0,3473401.0,914.0,830.0,1912.7,644.3,1920.0,1460.0,Animal_Land_Solid_Small,40.60417133406736,46.61549383401871,4.0,Animal_Land_Solid_Small,-9.0,,,,,,,,,,,
encoding,attention,22,3473318,3476335,3473418.0,3473754.0,337.0,337.0,1875.2,619.2,1920.0,1460.0,Animal_Land_Solid_Small,46.615606375038624,49.633007999975234,4.0,Animal_Land_Solid_Small,-9.0,-9.0,1.0,0.9467442909954116,,,,,,,,
encoding,attention,22,3473318,3476335,3473767.0,3474492.0,726.0,726.0,1919.8,622.2,1920.0,1460.0,Animal_Land_Solid_Small,46.615606375038624,49.633007999975234,4.0,Animal_Land_Solid_Small,-9.0,-9.0,1.0,0.9467442909954116,,,,,,,,
encoding,attention,22,3473318,3476335,3474697.0,3474835.0,139.0,139.0,1913.1,530.2,1920.0,1460.0,Animal_Land_Solid_Small,46.615606375038624,49.633007999975234,4.0,Animal_Land_Solid_Small,-9.0,-9.0,1.0,0.9467442909954116,,,,,,,,
encoding,attention,22,3473318,3476335,3474853.0,3475357.0,505.0,505.0,1930.7,599.0,1920.0,1460.0,Animal_Land_Solid_Small,46.615606375038624,49.633007999975234,4.0,Animal_Land_Solid_Small,-9.0,-9.0,1.0,0.9467442909954116,,,,,,,,
encoding,attention,22,3473318,3476335,3475592.0,3475794.0,203.0,203.0,1893.6,511.9000000000001,1920.0,1460.0,Animal_Land_Solid_Small,46.615606375038624,49.633007999975234,4.0,Animal_Land_Solid_Small,-9.0,-9.0,1.0,0.9467442909954116,,,,,,,,
encoding,fixation,23,3476336,3476841,3476611.0,3476834.0,224.0,224.0,1857.4,614.9000000000001,1920.0,1460.0,Animal_Land_Solid_Small,49.63323979196139,50.13838058395777,4.0,Animal_Land_Pattern_Small,9.0,,,,,,,,,,,
encoding,image,23,3476841,3477851,3476844.0,3477096.0,253.0,253.0,1864.3,851.2,1920.0,1460.0,Animal_Land_Solid_Small,50.13850150001235,51.14829341706354,4.0,Animal_Land_Pattern_Small,9.0,,,,,,,,,,,
encoding,image,23,3476841,3477851,3477133.0,3477945.0,813.0,718.0,2221.2,881.5999999999999,2249.0,1269.0,Animal_Land_Pattern_Small,50.13850150001235,51.14829341706354,4.0,Animal_Land_Pattern_Small,9.0,,,,,,,,,,,
encoding,value,23,3477851,3483862,3478181.0,3478452.0,272.0,272.0,2219.1,764.2,2249.0,1269.0,Animal_Land_Pattern_Small,51.14841337502003,57.159659459022805,4.0,Animal_Land_Pattern_Small,9.0,,,,,,,,,,,
encoding,value,23,3477851,3483862,3478463.0,3478624.0,162.0,162.0,2219.3,849.5999999999999,2249.0,1269.0,Animal_Land_Pattern_Small,51.14841337502003,57.159659459022805,4.0,Animal_Land_Pattern_Small,9.0,,,,,,,,,,,
encoding,value,23,3477851,3483862,3478868.0,3479491.0,624.0,624.0,2195.8,841.0,2249.0,1269.0,Animal_Land_Pattern_Small,51.14841337502003,57.159659459022805,4.0,Animal_Land_Pattern_Small,9.0,,,,,,,,,,,
encoding,value,23,3477851,3483862,3479503.0,3479708.0,206.0,206.0,2256.8,866.5,2249.0,1269.0,Animal_Land_Pattern_Small,51.14841337502003,57.159659459022805,4.0,Animal_Land_Pattern_Small,9.0,,,,,,,,,,,
encoding,value,23,3477851,3483862,3479951.0,3480416.0,466.0,466.0,2212.9,865.0999999999999,2249.0,1269.0,Animal_Land_Pattern_Small,51.14841337502003,57.159659459022805,4.0,Animal_Land_Pattern_Small,9.0,,,,,,,,,,,
encoding,value,23,3477851,3483862,3480433.0,3481022.0,590.0,590.0,2264.5,843.9000000000001,2249.0,1269.0,Animal_Land_Pattern_Small,51.14841337502003,57.159659459022805,4.0,Animal_Land_Pattern_Small,9.0,,,,,,,,,,,
encoding,value,23,3477851,3483862,3481230.0,3481793.0,564.0,564.0,2221.3,821.5999999999999,2249.0,1269.0,Animal_Land_Pattern_Small,51.14841337502003,57.159659459022805,4.0,Animal_Land_Pattern_Small,9.0,,,,,,,,,,,
encoding,value,23,3477851,3483862,3481804.0,3481965.0,162.0,162.0,2221.8,780.0999999999999,2249.0,1269.0,Animal_Land_Pattern_Small,51.14841337502003,57.159659459022805,4.0,Animal_Land_Pattern_Small,9.0,,,,,,,,,,,
encoding,value,23,3477851,3483862,3482166.0,3483315.0,1150.0,1150.0,2218.1,854.5999999999999,2249.0,1269.0,Animal_Land_Pattern_Small,51.14841337502003,57.159659459022805,4.0,Animal_Land_Pattern_Small,9.0,,,,,,,,,,,
encoding,value,23,3477851,3483862,3483545.0,3483809.0,265.0,265.0,2245.0,736.7,2249.0,1269.0,Animal_Land_Pattern_Small,51.14841337502003,57.159659459022805,4.0,Animal_Land_Pattern_Small,9.0,,,,,,,,,,,
encoding,attention,23,3483862,3486882,3484060.0,3484325.0,266.0,266.0,2135.0,777.7,2249.0,1269.0,Animal_Land_Pattern_Small,57.159781584050506,60.17922200006433,4.0,Animal_Land_Pattern_Small,9.0,9.0,1.0,2.0355893339728937,,,,,,,,
encoding,attention,23,3483862,3486882,3484348.0,3484509.0,162.0,162.0,2272.0,762.0999999999999,2249.0,1269.0,Animal_Land_Pattern_Small,57.159781584050506,60.17922200006433,4.0,Animal_Land_Pattern_Small,9.0,9.0,1.0,2.0355893339728937,,,,,,,,
encoding,attention,23,3483862,3486882,3484527.0,3484995.0,469.0,469.0,2194.1,755.8,2249.0,1269.0,Animal_Land_Pattern_Small,57.159781584050506,60.17922200006433,4.0,Animal_Land_Pattern_Small,9.0,9.0,1.0,2.0355893339728937,,,,,,,,
encoding,attention,23,3483862,3486882,3485237.0,3485591.0,355.0,355.0,2175.1,723.7,2249.0,1269.0,Animal_Land_Pattern_Small,57.159781584050506,60.17922200006433,4.0,Animal_Land_Pattern_Small,9.0,9.0,1.0,2.0355893339728937,,,,,,,,
encoding,attention,23,3483862,3486882,3485609.0,3486146.0,538.0,538.0,2233.4,742.0999999999999,2249.0,1269.0,Animal_Land_Pattern_Small,57.159781584050506,60.17922200006433,4.0,Animal_Land_Pattern_Small,9.0,9.0,1.0,2.0355893339728937,,,,,,,,
encoding,attention,23,3483862,3486882,3486159.0,3486253.0,95.0,95.0,2186.8,735.9000000000001,2249.0,1269.0,Animal_Land_Pattern_Small,57.159781584050506,60.17922200006433,4.0,Animal_Land_Pattern_Small,9.0,9.0,1.0,2.0355893339728937,,,,,,,,
encoding,fixation,24,3486882,3487387,3487316.0,3487629.0,314.0,71.0,1926.1,924.7,1920.0,1460.0,Animal_Land_Solid_Small,60.17936137504876,60.684428917011246,4.0,Object_Sea_Pattern_Large,-7.0,,,,,,,,,,,
encoding,image,24,3487387,3488398,3487659.0,3488036.0,378.0,378.0,1606.3,1197.4,1591.0,891.0,Object_Sea_Pattern_Large,60.68455229199026,61.69566450000275,4.0,Object_Sea_Pattern_Large,-7.0,,,,,,,,,,,
encoding,image,24,3487387,3488398,3488190.0,3488601.0,412.0,208.0,1586.0,1031.0,1591.0,1269.0,Object_Land_Pattern_Small,60.68455229199026,61.69566450000275,4.0,Object_Sea_Pattern_Large,-7.0,,,,,,,,,,,
encoding,value,24,3488398,3494410,3488614.0,3488869.0,256.0,256.0,1604.7,1131.8,1591.0,891.0,Object_Sea_Pattern_Large,61.695791583973914,67.70724945899565,4.0,Object_Sea_Pattern_Large,-7.0,,,,,,,,,,,
encoding,value,24,3488398,3494410,3489053.0,3489390.0,338.0,338.0,1557.4,1142.0,1591.0,891.0,Object_Sea_Pattern_Large,61.695791583973914,67.70724945899565,4.0,Object_Sea_Pattern_Large,-7.0,,,,,,,,,,,
encoding,value,24,3488398,3494410,3489403.0,3489755.0,353.0,353.0,1605.0,1135.8,1591.0,891.0,Object_Sea_Pattern_Large,61.695791583973914,67.70724945899565,4.0,Object_Sea_Pattern_Large,-7.0,,,,,,,,,,,
encoding,value,24,3488398,3494410,3489929.0,3490372.0,444.0,444.0,1598.0,1150.8,1591.0,891.0,Object_Sea_Pattern_Large,61.695791583973914,67.70724945899565,4.0,Object_Sea_Pattern_Large,-7.0,,,,,,,,,,,
encoding,value,24,3488398,3494410,3490565.0,3491436.0,872.0,872.0,1587.0,1140.2,1591.0,891.0,Object_Sea_Pattern_Large,61.695791583973914,67.70724945899565,4.0,Object_Sea_Pattern_Large,-7.0,,,,,,,,,,,
encoding,value,24,3488398,3494410,3491448.0,3491784.0,337.0,337.0,1598.4,1213.5,1591.0,891.0,Object_Sea_Pattern_Large,61.695791583973914,67.70724945899565,4.0,Object_Sea_Pattern_Large,-7.0,,,,,,,,,,,
encoding,value,24,3488398,3494410,3491963.0,3492647.0,685.0,685.0,1589.9,1148.8,1591.0,891.0,Object_Sea_Pattern_Large,61.695791583973914,67.70724945899565,4.0,Object_Sea_Pattern_Large,-7.0,,,,,,,,,,,
encoding,value,24,3488398,3494410,3492850.0,3493193.0,344.0,344.0,1599.2,1118.8,1591.0,891.0,Object_Sea_Pattern_Large,61.695791583973914,67.70724945899565,4.0,Object_Sea_Pattern_Large,-7.0,,,,,,,,,,,
encoding,value,24,3488398,3494410,3493203.0,3493443.0,241.0,241.0,1556.6,1157.5,1591.0,891.0,Object_Sea_Pattern_Large,61.695791583973914,67.70724945899565,4.0,Object_Sea_Pattern_Large,-7.0,,,,,,,,,,,
encoding,value,24,3488398,3494410,3493457.0,3494056.0,600.0,600.0,1604.9,1157.4,1591.0,891.0,Object_Sea_Pattern_Large,61.695791583973914,67.70724945899565,4.0,Object_Sea_Pattern_Large,-7.0,,,,,,,,,,,
encoding,value,24,3488398,3494410,3494070.0,3494745.0,676.0,340.0,1589.3,1134.4,1591.0,891.0,Object_Sea_Pattern_Large,61.695791583973914,67.70724945899565,4.0,Object_Sea_Pattern_Large,-7.0,,,,,,,,,,,
encoding,attention,24,3494410,3497428,3494760.0,3495218.0,459.0,459.0,1650.6,1135.3,1591.0,891.0,Object_Sea_Pattern_Large,67.70736308395863,70.72476720903069,4.0,Object_Sea_Pattern_Large,-7.0,-7.0,1.0,0.5927415420301259,,,,,,,,
encoding,attention,24,3494410,3497428,3495435.0,3495744.0,310.0,310.0,1813.7,1212.7,1591.0,891.0,Object_Sea_Pattern_Large,67.70736308395863,70.72476720903069,4.0,Object_Sea_Pattern_Large,-7.0,-7.0,1.0,0.5927415420301259,,,,,,,,
encoding,attention,24,3494410,3497428,3495773.0,3496040.0,268.0,268.0,2167.3,1234.8,2249.0,891.0,Animal_Sea_Solid_Large,67.70736308395863,70.72476720903069,4.0,Object_Sea_Pattern_Large,-7.0,-7.0,1.0,0.5927415420301259,,,,,,,,
encoding,attention,24,3494410,3497428,3496077.0,3496294.0,218.0,218.0,2227.2,1052.9,2249.0,1269.0,Animal_Land_Pattern_Small,67.70736308395863,70.72476720903069,4.0,Object_Sea_Pattern_Large,-7.0,-7.0,1.0,0.5927415420301259,,,,,,,,
encoding,attention,24,3494410,3497428,3496318.0,3496435.0,118.0,118.0,2009.8,969.5999999999999,2249.0,1269.0,Animal_Land_Pattern_Small,67.70736308395863,70.72476720903069,4.0,Object_Sea_Pattern_Large,-7.0,-7.0,1.0,0.5927415420301259,,,,,,,,
encoding,attention,24,3494410,3497428,3496600.0,3497090.0,491.0,491.0,1761.4,1034.4,1591.0,1269.0,Object_Land_Pattern_Small,67.70736308395863,70.72476720903069,4.0,Object_Sea_Pattern_Large,-7.0,-7.0,1.0,0.5927415420301259,,,,,,,,
