phase,event,onset,offset,trial_number,game,image,outcome,choice,correct,rt,letter,match,response,option,true_value,true_position,recalled_position,
encoding,fixation,15.777233832981437,17.2933433749713,1,1,Animal_Sea_Solid_Small,8,,,,,,,,,,,
encoding,image,17.293469083029777,18.31304687494412,1,1,Animal_Sea_Solid_Small,8,,,,,,,,,,,
encoding,value,18.313198624993674,24.329713333048858,1,1,Animal_Sea_Solid_Small,8,,,,,,,,,,,
encoding,attention,24.329899417003617,27.34851050004363,1,1,Animal_Sea_Solid_Small,8,+8,1,1.1601317910244688,,,,,,,,
encoding,fixation,27.348706958000548,28.353837957954966,2,1,Object_Land_Solid_Large,2,,,,,,,,,,,
encoding,image,28.35395758296363,29.368175207986496,2,1,Object_Land_Solid_Large,2,,,,,,,,,,,
encoding,value,29.368281292030588,35.37932491698302,2,1,Object_Land_Solid_Large,2,,,,,,,,,,,
encoding,attention,35.37954262504354,38.395427208044566,2,1,Object_Land_Solid_Large,2,+2,1,0.8282600829843432,,,,,,,,
encoding,fixation,38.395613458007574,39.65167658298742,3,1,Animal_Sea_Pattern_Small,-3,,,,,,,,,,,
encoding,image,39.65185695805121,40.6633198329946,3,1,Animal_Sea_Pattern_Small,-3,,,,,,,,,,,
encoding,value,40.66346037504263,46.674766583018936,3,1,Animal_Sea_Pattern_Small,-3,,,,,,,,,,,
encoding,attention,46.67488741700072,49.693111249944195,3,1,Animal_Sea_Pattern_Small,-3,-3,1,0.9995864580851048,,,,,,,,
encoding,fixation,49.69326733297203,50.95031466695946,4,1,Object_Land_Pattern_Large,4,,,,,,,,,,,
encoding,image,50.95044066698756,51.96287554199807,4,1,Object_Land_Pattern_Large,4,,,,,,,,,,,
encoding,value,51.96299174998421,57.975692832958885,4,1,Object_Land_Pattern_Large,4,,,,,,,,,,,
encoding,attention,57.97581387497485,60.995280332979746,4,1,Object_Land_Pattern_Large,4,+4,1,1.0336944590089843,,,,,,,,
encoding,fixation,60.99549362505786,61.501587542006746,5,1,Animal_Sea_Pattern_Large,-2,,,,,,,,,,,
encoding,image,61.50168762495741,62.51176620798651,5,1,Animal_Sea_Pattern_Large,-2,,,,,,,,,,,
encoding,value,62.51186720805708,68.522194167017,5,1,Animal_Sea_Pattern_Large,-2,,,,,,,,,,,
encoding,attention,68.52230258297641,71.57799895794597,5,1,Animal_Sea_Pattern_Large,-2,-2,1,1.0064992089755833,,,,,,,,
encoding,fixation,71.57814608304761,72.58411833294667,6,1,Object_Land_Solid_Small,-8,,,,,,,,,,,
encoding,image,72.58422437496483,73.59552574995905,6,1,Object_Land_Solid_Small,-8,,,,,,,,,,,
encoding,value,73.59565029200166,79.60744183300994,6,1,Object_Land_Solid_Small,-8,,,,,,,,,,,
encoding,attention,79.60762362496462,82.62562812503893,6,1,Object_Land_Solid_Small,-8,-8,1,0.8457066250266507,,,,,,,,
n-back,,,,1,1,,,,1,None,V,False,None,,,,,
n-back,,,,2,1,,,,1,None,B,False,None,,,,,
n-back,,,,3,1,,,,1,None,X,False,None,,,,,
n-back,,,,4,1,,,,1,0.6437386659672484,B,True,1,,,,,
n-back,,,,5,1,,,,1,None,C,False,None,,,,,
n-back,,,,6,1,,,,1,0.7064509169431403,B,True,1,,,,,
n-back,,,,7,1,,,,1,0.6447827089577913,C,True,1,,,,,
n-back,,,,8,1,,,,1,None,Z,False,None,,,,,
n-back,,,,9,1,,,,1,None,B,False,None,,,,,
n-back,,,,10,1,,,,1,None,B,False,None,,,,,
n-back,,,,11,1,,,,1,None,N,False,None,,,,,
n-back,,,,12,1,,,,1,None,C,False,None,,,,,
n-back,,,,13,1,,,,1,0.5636953749926761,N,True,1,,,,,
n-back,,,,14,1,,,,1,None,V,False,None,,,,,
n-back,,,,15,1,,,,1,None,Z,False,None,,,,,
n-back,,,,16,1,,,,1,0.34622283407952636,V,True,1,,,,,
n-back,,,,17,1,,,,1,1.1431470420211554,Z,True,1,,,,,
n-back,,,,18,1,,,,1,None,X,False,None,,,,,
n-back,,,,19,1,,,,1,None,V,False,None,,,,,
n-back,,,,20,1,,,,1,None,Z,False,None,,,,,
n-back,,,,21,1,,,,1,0.46840291598346084,V,True,1,,,,,
n-back,,,,22,1,,,,1,1.0184453750262037,Z,True,1,,,,,
n-back,,,,23,1,,,,1,None,N,False,None,,,,,
n-back,,,,24,1,,,,1,0.6126176250400022,Z,True,1,,,,,
n-back,,,,25,1,,,,1,None,V,False,None,,,,,
n-back,,,,26,1,,,,1,None,V,False,None,,,,,
n-back,,,,27,1,,,,1,0.5559711250243708,V,True,1,,,,,
n-back,,,,28,1,,,,1,None,B,False,None,,,,,
n-back,,,,29,1,,,,1,None,Z,False,None,,,,,
n-back,,,,30,1,,,,1,None,Z,False,None,,,,,
choice,fixation,171.7163842919981,172.47263362503145,1,1,,,,,,,,,Animal,,,,
choice,option,172.4824867079733,173.7138991249958,1,1,,,,,,,,,Animal,,,,
choice,choice,173.71400470798835,180.99683045805432,1,1,,,1,1,6.273124583996832,,,,Animal,,,,
choice,fixation,180.99701266700868,181.50258112500887,2,1,,,,,,,,,Pattern,,,,
choice,option,181.5122810000321,182.53995400003623,2,1,,,,,,,,,Pattern,,,,
choice,choice,182.54005470802076,189.1908971669618,2,1,,,1,0,5.641047999961302,,,,Pattern,,,,
choice,fixation,189.19101700000465,190.6960704580415,3,1,,,,,,,,,Small,,,,
choice,option,190.70521079201717,191.73394379206002,3,1,,,,,,,,,Small,,,,
choice,choice,191.73404533299617,195.32527054206003,3,1,,,2,1,2.580718250013888,,,,Small,,,,
choice,fixation,195.32548108301125,195.83045045798644,4,1,,,,,,,,,Object,,,,
choice,option,195.839994458016,196.86785016697831,4,1,,,,,,,,,Object,,,,
choice,choice,196.8679541250458,201.7374427500181,4,1,,,2,1,3.859912915970199,,,,Object,,,,
choice,fixation,201.7375629999442,202.2422184579773,5,1,,,,,,,,,Solid,,,,
choice,option,202.2517219169531,203.27872583304998,5,1,,,,,,,,,Solid,,,,
choice,choice,203.2788361669518,207.25611516705249,5,1,,,2,0,2.9663969579851255,,,,Solid,,,,
choice,fixation,207.25623725005426,208.26106399996206,6,1,,,,,,,,,Sea,,,,
choice,option,208.26946924999356,209.29643612494692,6,1,,,,,,,,,Sea,,,,
choice,choice,209.29661895800382,215.0239240420051,6,1,,,1,1,4.717379458015785,,,,Sea,,,,
choice,fixation,215.02404933294747,215.52941762504634,7,1,,,,,,,,,Large,,,,
choice,option,215.53916825004853,216.56726029200945,7,1,,,,,,,,,Large,,,,
choice,choice,216.56741500005592,223.37361887504812,7,1,,,1,1,5.796682041953318,,,,Large,,,,
choice,fixation,223.37376887502614,223.87874095805455,8,1,,,,,,,,,Land,,,,
choice,option,223.8873497080058,224.91362058301456,8,1,,,,,,,,,Land,,,,
choice,choice,224.91371529200114,231.35095633298624,8,1,,,1,0,5.42490058299154,,,,Land,,,,
memory,free_recall,284.4022692500148,300.3928192500025,0,1,,,,,,,,,,,,,
memory,value_recall,356.3556905420264,364.1367571250303,1,1,Object_Land_Solid_Large,,,,7.776810999959707,,,,,2,,,
memory,value_recall,365.9341664169915,377.1050890829647,2,1,Animal_Sea_Pattern_Small,,,,11.166705542011186,,,,,-3,,,
memory,value_recall,378.1521742499899,381.53590899996925,3,1,Object_Land_Pattern_Large,,,,3.380495541030541,,,,,4,,,
memory,value_recall,383.5839142079931,387.0329046669649,4,1,Object_Land_Solid_Small,,,,3.444862333009951,,,,,-8,,,
memory,value_recall,388.32809008297045,393.48291008302476,5,1,Animal_Sea_Pattern_Large,,,,5.15034754096996,,,,,-2,,,
memory,value_recall,395.2790537920082,398.3686090420233,6,1,Animal_Sea_Solid_Small,,,,3.0854955830145627,,,,,8,,,
memory,spatial_recall,418.660573125002,425.7107012500055,6,1,Animal_Sea_Solid_Small,,,1,7.0442187919979915,,,,,,"[329, -190]","[329, -190]",
memory,spatial_recall,427.52830441703554,432.8026709170081,6,1,Object_Land_Pattern_Large,,,1,5.2698517920216545,,,,,,"[329, 189]","[329, 189]",
memory,spatial_recall,434.60546624998096,443.8442774580326,6,1,Animal_Sea_Pattern_Large,,,0,9.234729417017661,,,,,,"[0, -380]","[-329, -190]",
memory,spatial_recall,445.9022472919896,448.05904225003906,6,1,Object_Land_Solid_Large,,,1,2.152871708967723,,,,,,"[-329, -190]","[-329, -190]",
memory,spatial_recall,450.1214957500342,453.1526999169728,6,1,Animal_Sea_Pattern_Small,,,1,3.0272574580740184,,,,,,"[-329, 190]","[-329, 190]",
memory,spatial_recall,455.20909962500446,457.5727739169961,6,1,Object_Land_Solid_Small,,,1,2.359777459059842,,,,,,"[0, 380]","[0, 380]",
encoding,fixation,11.836207333020866,13.092692292062566,7,2,Animal_Land_Solid_Large,-1,,,,,,,,,,,
encoding,image,13.092793249990791,14.105046499986202,7,2,Animal_Land_Solid_Large,-1,,,,,,,,,,,
encoding,value,14.105176832992584,20.118569958023727,7,2,Animal_Land_Solid_Large,-1,,,,,,,,,,,
encoding,attention,20.11867433297448,23.139095750055276,7,2,Animal_Land_Solid_Large,-1,-1,1,0.9224325419636443,,,,,,,,
encoding,fixation,23.139257333008572,24.644731167005375,8,2,Animal_Land_Pattern_Large,8,,,,,,,,,,,
encoding,image,24.644838917069137,25.6561268750811,8,2,Animal_Land_Pattern_Large,8,,,,,,,,,,,
encoding,value,25.65623654203955,31.669932916993275,8,2,Animal_Land_Pattern_Large,8,,,,,,,,,,,
encoding,attention,31.670051499968395,34.6871017080266,8,2,Animal_Land_Pattern_Large,8,+8,1,1.1109680419322103,,,,,,,,
encoding,fixation,34.68724308302626,36.1951840830734,9,2,Object_Sea_Solid_Large,5,,,,,,,,,,,
encoding,image,36.19528970797546,37.20716362504754,9,2,Object_Sea_Solid_Large,5,,,,,,,,,,,
encoding,value,37.20727816701401,43.219928583013825,9,2,Object_Sea_Solid_Large,5,,,,,,,,,,,
encoding,attention,43.22008275007829,46.237994124996476,9,2,Object_Sea_Solid_Large,5,+5,1,1.1009738340508193,,,,,,,,
encoding,fixation,46.23815679200925,46.99531129200477,10,2,Object_Sea_Pattern_Small,-8,,,,,,,,,,,
encoding,image,46.995428457972594,48.00673533300869,10,2,Object_Sea_Pattern_Small,-8,,,,,,,,,,,
encoding,value,48.00690483301878,54.01786024996545,10,2,Object_Sea_Pattern_Small,-8,,,,,,,,,,,
encoding,attention,54.01796766708139,57.03973129205406,10,2,Object_Sea_Pattern_Small,-8,-8,1,1.0058466659393162,,,,,,,,
encoding,fixation,57.0398886250332,57.54678762506228,11,2,Object_Sea_Solid_Small,8,,,,,,,,,,,
encoding,image,57.54688354197424,58.55682012496982,11,2,Object_Sea_Solid_Small,8,,,,,,,,,,,
encoding,value,58.55693941703066,64.56802112504374,11,2,Object_Sea_Solid_Small,8,,,,,,,,,,,
encoding,attention,64.56816408305895,67.58512958302163,11,2,Object_Sea_Solid_Small,8,+8,1,0.8258607919560745,,,,,,,,
encoding,fixation,67.58527391706593,69.0906011670595,12,2,Animal_Land_Pattern_Small,-1,,,,,,,,,,,
encoding,image,69.09072891704272,70.10222579201218,12,2,Animal_Land_Pattern_Small,-1,,,,,,,,,,,
encoding,value,70.10233079199679,76.11398954200558,12,2,Animal_Land_Pattern_Small,-1,,,,,,,,,,,
encoding,attention,76.11410862498451,79.1334294170374,12,2,Animal_Land_Pattern_Small,-1,-1,1,0.9732352909632027,,,,,,,,
n-back,,,,31,2,,,,0,None,V,True,None,,,,,
n-back,,,,32,2,,,,1,None,Z,False,None,,,,,
n-back,,,,33,2,,,,1,None,B,False,None,,,,,
n-back,,,,34,2,,,,1,0.40518529200926423,Z,True,1,,,,,
n-back,,,,35,2,,,,1,None,C,False,None,,,,,
n-back,,,,36,2,,,,0,0.9090383750153705,B,False,1,,,,,
n-back,,,,37,2,,,,1,0.7952680840389803,C,True,1,,,,,
n-back,,,,38,2,,,,1,0.7536261669592932,B,True,1,,,,,
n-back,,,,39,2,,,,1,None,N,False,None,,,,,
n-back,,,,40,2,,,,1,0.7469693329185247,B,True,1,,,,,
n-back,,,,41,2,,,,1,None,V,False,None,,,,,
n-back,,,,42,2,,,,0,0.6714630000060424,N,False,1,,,,,
n-back,,,,43,2,,,,1,0.9387372920755297,V,True,1,,,,,
n-back,,,,44,2,,,,1,None,C,False,None,,,,,
n-back,,,,45,2,,,,0,0.6984618339920416,N,False,1,,,,,
n-back,,,,46,2,,,,1,None,V,False,None,,,,,
n-back,,,,47,2,,,,1,1.0590327080572024,N,True,1,,,,,
n-back,,,,48,2,,,,1,None,C,False,None,,,,,
n-back,,,,49,2,,,,0,0.9005979999201372,B,False,1,,,,,
n-back,,,,50,2,,,,1,None,Z,False,None,,,,,
n-back,,,,51,2,,,,1,0.4409718749811873,B,True,1,,,,,
n-back,,,,52,2,,,,1,None,V,False,None,,,,,
n-back,,,,53,2,,,,1,None,C,False,None,,,,,
n-back,,,,54,2,,,,0,0.7794461658922955,Z,False,1,,,,,
n-back,,,,55,2,,,,1,None,X,False,None,,,,,
n-back,,,,56,2,,,,1,0.6463519169483334,Z,True,1,,,,,
n-back,,,,57,2,,,,1,None,V,False,None,,,,,
n-back,,,,58,2,,,,1,None,C,False,None,,,,,
n-back,,,,59,2,,,,1,None,B,False,None,,,,,
n-back,,,,60,2,,,,1,0.3910110410070047,C,True,1,,,,,
choice,fixation,155.38574512500782,156.88957329199184,9,2,,,,,,,,,Object,,,,
choice,option,156.90032833302394,157.92841516702902,9,2,,,,,,,,,Object,,,,
choice,choice,157.9285319170449,170.77469254203606,9,2,,,2,0,11.835215874947608,,,,Object,,,,
choice,fixation,170.774829333066,172.27987116703298,10,2,,,,,,,,,Pattern,,,,
choice,option,172.28929458302446,173.3165980000049,10,2,,,,,,,,,Pattern,,,,
choice,choice,173.31670625007246,180.75086904200725,10,2,,,2,1,6.424589875037782,,,,Pattern,,,,
choice,fixation,180.7509988329839,181.25629708298948,11,2,,,,,,,,,Land,,,,
choice,option,181.2650586250238,182.2909321669722,11,2,,,,,,,,,Land,,,,
choice,choice,182.29103995801415,186.44428404199425,11,2,,,1,1,3.142048457986675,,,,Land,,,,
choice,fixation,186.44441087497398,187.4493322080234,12,2,,,,,,,,,Animal,,,,
choice,option,187.45870087505318,188.48504383303225,12,2,,,,,,,,,Animal,,,,
choice,choice,188.48514516698197,192.21787366701756,12,2,,,1,1,2.7230037919944152,,,,Animal,,,,
choice,fixation,192.21800191700459,193.47301020799205,13,2,,,,,,,,,Small,,,,
choice,option,193.4820189580787,194.5082659580512,13,2,,,,,,,,,Small,,,,
choice,choice,194.50837587506976,199.70624591701198,13,2,,,2,1,4.187775915954262,,,,Small,,,,
choice,fixation,199.70636725006625,200.21133470803034,14,2,,,,,,,,,Solid,,,,
choice,option,200.2203487920342,201.24603608297184,14,2,,,,,,,,,Solid,,,,
choice,choice,201.24616754206363,206.39407845807727,14,2,,,1,1,4.137499958043918,,,,Solid,,,,
choice,fixation,206.39419204206206,206.8991407919675,15,2,,,,,,,,,Sea,,,,
choice,option,206.9073624999728,207.93343091697898,15,2,,,,,,,,,Sea,,,,
choice,choice,207.93354254204314,210.3812168330187,15,2,,,2,0,1.4383023750269786,,,,Sea,,,,
choice,fixation,210.3813314579893,211.63650750007946,16,2,,,,,,,,,Large,,,,
choice,option,211.6455817919923,212.67159808299039,16,2,,,,,,,,,Large,,,,
choice,choice,212.67180062504485,216.06723450007848,16,2,,,1,1,2.3837885410757735,,,,Large,,,,
memory,free_recall,247.75780020805541,260.6301110830391,6,2,,,,,,,,,,,,,
memory,value_recall,282.0275786250131,286.0050294579705,7,2,Animal_Land_Pattern_Small,,,,3.9733229579869658,,,,,-1,,,
memory,value_recall,287.30107516702265,290.20561370800715,8,2,Object_Sea_Pattern_Small,,,,2.900431292015128,,,,,-8,,,
memory,value_recall,291.2522599999793,295.44457595807035,9,2,Object_Sea_Solid_Small,,,,4.189101540949196,,,,,8,,,
memory,value_recall,296.4896800420247,301.8383102080552,10,2,Animal_Land_Solid_Large,,,,5.345319583080709,,,,,-1,,,
memory,value_recall,303.63512708304916,309.9973170000594,11,2,Object_Sea_Solid_Large,,,,6.358176792040467,,,,,5,,,
memory,value_recall,311.2949978329707,314.50221183302347,12,2,Animal_Land_Pattern_Large,,,,3.203114415984601,,,,,8,,,
memory,spatial_recall,326.1101793330163,332.1130883330479,12,2,Object_Sea_Solid_Large,,,1,5.998950417037122,,,,,,"[0, -380]","[0, -380]",
memory,spatial_recall,333.67295491707046,336.39962187502533,12,2,Animal_Land_Solid_Large,,,1,2.7226510419277474,,,,,,"[329, 189]","[329, 189]",
memory,spatial_recall,338.2059577499749,341.61592495802324,12,2,Object_Sea_Pattern_Small,,,1,3.405906582949683,,,,,,"[-329, -190]","[-329, -190]",
memory,spatial_recall,342.6719247919973,344.91311312501784,12,2,Animal_Land_Pattern_Large,,,1,2.2389107909984887,,,,,,"[-329, 190]","[-329, 190]",
memory,spatial_recall,346.96579116699286,349.9052327499958,12,2,Object_Sea_Solid_Small,,,1,2.9354319169651717,,,,,,"[329, -190]","[329, -190]",
memory,spatial_recall,351.4638734579785,354.3529194999719,12,2,Animal_Land_Pattern_Small,,,1,2.883936000056565,,,,,,"[0, 380]","[0, 380]",
encoding,fixation,9.51133095799014,11.017215500003658,13,3,Animal_Sea_Pattern_Small,-6,,,,,,,,,,,
encoding,image,11.017319082980976,12.029652083059773,13,3,Animal_Sea_Pattern_Small,-6,,,,,,,,,,,
encoding,value,12.029761124984361,18.04326179099735,13,3,Animal_Sea_Pattern_Small,-6,,,,,,,,,,,
encoding,attention,18.04337495798245,21.06367962504737,13,3,Animal_Sea_Pattern_Small,-6,-6,1,0.9429138749837875,,,,,,,,
encoding,fixation,21.063883624970913,22.319250000058673,14,3,Object_Sea_Pattern_Large,5,,,,,,,,,,,
encoding,image,22.319361375062726,23.330734207993373,14,3,Object_Sea_Pattern_Large,5,,,,,,,,,,,
encoding,value,23.330855250009336,29.342803708044812,14,3,Object_Sea_Pattern_Large,5,,,,,,,,,,,
encoding,attention,29.342919999966398,32.36145287507679,14,3,Object_Sea_Pattern_Large,5,+5,1,0.6999886670382693,,,,,,,,
encoding,fixation,32.3616004580399,33.867118083056994,15,3,Object_Land_Pattern_Small,2,,,,,,,,,,,
encoding,image,33.86722324998118,34.87874950002879,15,3,Object_Land_Pattern_Small,2,,,,,,,,,,,
encoding,value,34.878872583038174,40.89104949997272,15,3,Object_Land_Pattern_Small,2,,,,,,,,,,,
encoding,attention,40.89117354108021,43.91148870799225,15,3,Object_Land_Pattern_Small,2,+2,1,0.8153689579339698,,,,,,,,
encoding,fixation,43.911650332971476,44.417026333045214,16,3,Object_Land_Solid_Large,-6,,,,,,,,,,,
encoding,image,44.41713958303444,45.42773662507534,16,3,Object_Land_Solid_Large,-6,,,,,,,,,,,
encoding,value,45.42785133305006,51.43903108302038,16,3,Object_Land_Solid_Large,-6,,,,,,,,,,,
encoding,attention,51.43914429098368,54.45591941603925,16,3,Object_Land_Solid_Large,-6,-6,1,0.8536594168981537,,,,,,,,
encoding,fixation,54.456066749989986,55.96108062507119,17,3,Animal_Sea_Solid_Large,-4,,,,,,,,,,,
encoding,image,55.96120016602799,56.97257983300369,17,3,Animal_Sea_Solid_Large,-4,,,,,,,,,,,
encoding,value,56.97268495801836,62.984722499968484,17,3,Animal_Sea_Solid_Large,-4,,,,,,,,,,,
encoding,attention,62.98489008296747,66.00202600006014,17,3,Animal_Sea_Solid_Large,-4,-4,1,1.0013512499863282,,,,,,,,
encoding,fixation,66.00219420797657,67.00725933304057,18,3,Animal_Land_Solid_Small,1,,,,,,,,,,,
encoding,image,67.0073709160788,68.01848812506068,18,3,Animal_Land_Solid_Small,1,,,,,,,,,,,
encoding,value,68.01860354107339,74.03083133301698,18,3,Animal_Land_Solid_Small,1,,,,,,,,,,,
encoding,attention,74.03094320802484,77.04775500006508,18,3,Animal_Land_Solid_Small,1,+1,1,0.795729250065051,,,,,,,,
n-back,,,,61,3,,,,1,None,V,False,None,,,,,
n-back,,,,62,3,,,,1,None,C,False,None,,,,,
n-back,,,,63,3,,,,1,0.34648091602139175,V,True,1,,,,,
n-back,,,,64,3,,,,1,0.5386966250371188,C,True,1,,,,,
n-back,,,,65,3,,,,1,0.7222532500745729,V,True,1,,,,,
n-back,,,,66,3,,,,1,None,N,False,None,,,,,
n-back,,,,67,3,,,,1,None,X,False,None,,,,,
n-back,,,,68,3,,,,1,None,B,False,None,,,,,
n-back,,,,69,3,,,,1,0.4686411250149831,X,True,1,,,,,
n-back,,,,70,3,,,,1,None,V,False,None,,,,,
n-back,,,,71,3,,,,1,None,C,False,None,,,,,
n-back,,,,72,3,,,,1,None,X,False,None,,,,,
n-back,,,,73,3,,,,1,None,Z,False,None,,,,,
n-back,,,,74,3,,,,1,None,N,False,None,,,,,
n-back,,,,75,3,,,,1,None,N,False,None,,,,,
n-back,,,,76,3,,,,1,0.38213650009129196,N,True,1,,,,,
n-back,,,,77,3,,,,1,None,B,False,None,,,,,
n-back,,,,78,3,,,,1,None,B,False,None,,,,,
n-back,,,,79,3,,,,1,0.40072950010653585,B,True,1,,,,,
n-back,,,,80,3,,,,1,0.7684499160386622,B,True,1,,,,,
n-back,,,,81,3,,,,1,1.0575372079620138,B,True,1,,,,,
n-back,,,,82,3,,,,1,1.034098583040759,B,True,1,,,,,
n-back,,,,83,3,,,,1,None,C,False,None,,,,,
n-back,,,,84,3,,,,1,None,X,False,None,,,,,
n-back,,,,85,3,,,,1,None,B,False,None,,,,,
n-back,,,,86,3,,,,1,0.47959454206284136,X,True,1,,,,,
n-back,,,,87,3,,,,1,None,C,False,None,,,,,
n-back,,,,88,3,,,,0,0.3428937919670716,B,False,1,,,,,
n-back,,,,89,3,,,,1,None,X,False,None,,,,,
n-back,,,,90,3,,,,1,None,Z,False,None,,,,,
choice,fixation,152.37409412499983,152.87756941607222,17,3,,,,,,,,,Land,,,,
choice,option,152.8860116660362,153.91089091601316,17,3,,,,,,,,,Land,,,,
choice,choice,153.910997916013,158.94038887496572,17,3,,,1,0,4.018871999927796,,,,Land,,,,
choice,fixation,158.94054595800117,159.69557620806154,18,3,,,,,,,,,Pattern,,,,
choice,option,159.7050309580518,160.73115791601595,18,3,,,,,,,,,Pattern,,,,
choice,choice,160.7312842500396,162.78079266601708,18,3,,,2,0,1.039413542021066,,,,Pattern,,,,
choice,fixation,162.78092408296652,164.0358535409905,19,3,,,,,,,,,Animal,,,,
choice,option,164.04502258298453,165.0720107080415,19,3,,,,,,,,,Animal,,,,
choice,choice,165.07213983300608,169.19716774998233,19,3,,,2,1,3.1150623339926824,,,,Animal,,,,
choice,fixation,169.19732595805544,169.70230970799457,20,3,,,,,,,,,Large,,,,
choice,option,169.71087254106533,170.73888183303643,20,3,,,,,,,,,Large,,,,
choice,choice,170.73902183305472,176.89439983305056,20,3,,,1,0,5.145004583057016,,,,Large,,,,
choice,fixation,176.89452075003646,178.1502813330153,21,3,,,,,,,,,Object,,,,
choice,option,178.1597659579711,179.18609612504952,21,3,,,,,,,,,Object,,,,
choice,choice,179.1861986250151,183.0131690830458,21,3,,,1,1,2.817609832971357,,,,Object,,,,
choice,fixation,183.0132955830777,184.51849458296783,22,3,,,,,,,,,Small,,,,
choice,option,184.52781225007493,185.5565279580187,22,3,,,,,,,,,Small,,,,
choice,choice,185.55663620796986,187.3567846249789,22,3,,,2,1,0.7908495420124382,,,,Small,,,,
choice,fixation,187.35690383298788,188.1119765409967,23,3,,,,,,,,,Solid,,,,
choice,option,188.12203125003725,189.15011129097547,23,3,,,,,,,,,Solid,,,,
choice,choice,189.15021829097532,193.49956462497357,23,3,,,1,0,3.3383754999376833,,,,Solid,,,,
choice,fixation,193.49970991606824,194.5065919579938,24,3,,,,,,,,,Sea,,,,
choice,option,194.514990375028,195.54120487498585,24,3,,,,,,,,,Sea,,,,
choice,choice,195.5413329580333,197.12617629102897,24,3,,,2,1,0.5754841659218073,,,,Sea,,,,
memory,free_recall,219.78987216600217,232.28674166603014,12,3,,,,,,,,,,,,,
memory,value_recall,253.56723300006706,257.90981445799116,13,3,Animal_Land_Solid_Small,,,,4.337844499968924,,,,,1,,,
memory,value_recall,259.4561355409678,265.7745620830683,14,3,Animal_Sea_Solid_Large,,,,6.314282333943993,,,,,-4,,,
memory,value_recall,267.0714669160079,270.32117745804135,15,3,Object_Land_Solid_Large,,,,3.245526958955452,,,,,-6,,,
memory,value_recall,271.3660239580786,275.9507286250591,16,3,Animal_Sea_Pattern_Small,,,,4.579731125035323,,,,,-6,,,
memory,value_recall,277.49704608297907,284.6331230830401,17,3,Object_Sea_Pattern_Large,,,,7.132003374979831,,,,,5,,,
memory,value_recall,286.4302699160762,290.1757992079947,18,3,Object_Land_Pattern_Small,,,,3.740817500045523,,,,,2,,,
memory,spatial_recall,299.48220020800363,305.1151771249715,18,3,Object_Sea_Pattern_Large,,,1,5.627168959006667,,,,,,"[0, 380]","[0, 380]",
memory,spatial_recall,306.430761583033,309.54481954104267,18,3,Animal_Sea_Solid_Large,,,1,3.11007733293809,,,,,,"[329, 189]","[329, 189]",
memory,spatial_recall,310.59948354098015,315.2144708749838,18,3,Animal_Land_Solid_Small,,,1,4.60982245800551,,,,,,"[329, -190]","[329, -190]",
memory,spatial_recall,316.7746805000352,321.0829053330235,18,3,Object_Land_Solid_Large,,,1,4.304219790967181,,,,,,"[-329, -190]","[-329, -190]",
memory,spatial_recall,323.1444993750192,327.3142146250466,18,3,Animal_Sea_Pattern_Small,,,1,4.165549624944106,,,,,,"[-329, 190]","[-329, 190]",
memory,spatial_recall,328.6273015830666,331.01413512497675,18,3,Object_Land_Pattern_Small,,,1,2.382525666966103,,,,,,"[0, -380]","[0, -380]",
encoding,fixation,9.749126333044842,10.257429040968418,19,4,Animal_Sea_Pattern_Large,7,,,,,,,,,,,
encoding,image,10.257547416025773,11.268257583025843,19,4,Animal_Sea_Pattern_Large,7,,,,,,,,,,,
encoding,value,11.268384707975201,17.28153699997347,19,4,Animal_Sea_Pattern_Large,7,,,,,,,,,,,
encoding,attention,17.281647166004404,20.298675665981136,19,4,Animal_Sea_Pattern_Large,7,+7,1,0.8313624169677496,,,,,,,,
encoding,fixation,20.29881541605573,21.054494208074175,20,4,Object_Land_Solid_Small,6,,,,,,,,,,,
encoding,image,21.054597625043243,22.065758915967308,20,4,Object_Land_Solid_Small,6,,,,,,,,,,,
encoding,value,22.065893250051886,28.07826345798094,20,4,Object_Land_Solid_Small,6,,,,,,,,,,,
encoding,attention,28.078435458010063,31.096739750006236,20,4,Object_Land_Solid_Small,6,+6,1,0.8687261670129374,,,,,,,,
encoding,fixation,31.09689475002233,32.35302787506953,21,4,Animal_Sea_Solid_Small,-6,,,,,,,,,,,
encoding,image,32.35313075000886,33.36445279105101,21,4,Animal_Sea_Solid_Small,-6,,,,,,,,,,,
encoding,value,33.36456895805895,39.376734458026476,21,4,Animal_Sea_Solid_Small,-6,,,,,,,,,,,
encoding,attention,39.37684095802251,42.39443474996369,21,4,Animal_Sea_Solid_Small,-6,-6,1,0.8332225830527022,,,,,,,,
encoding,fixation,42.394576249993406,43.64994866598863,22,4,Animal_Sea_Pattern_Small,-2,,,,,,,,,,,
encoding,image,43.65007270802744,44.66158029099461,22,4,Animal_Sea_Pattern_Small,-2,,,,,,,,,,,
encoding,value,44.66169904102571,50.67409241606947,22,4,Animal_Sea_Pattern_Small,-2,,,,,,,,,,,
encoding,attention,50.674218375002965,53.69187033304479,22,4,Animal_Sea_Pattern_Small,-2,-2,1,0.6626405419083312,,,,,,,,
encoding,fixation,53.69201724999584,54.44731583306566,23,4,Object_Land_Solid_Large,-1,,,,,,,,,,,
encoding,image,54.44743229099549,55.457310165977105,23,4,Object_Land_Solid_Large,-1,,,,,,,,,,,
encoding,value,55.457411790965125,61.46837058302481,23,4,Object_Land_Solid_Large,-1,,,,,,,,,,,
encoding,attention,61.46851179096848,64.48470525001176,23,4,Object_Land_Solid_Large,-1,-1,1,0.8080755829578266,,,,,,,,
encoding,fixation,64.48489991598763,65.24019937496632,24,4,Object_Land_Pattern_Large,-3,,,,,,,,,,,
encoding,image,65.24032520805486,66.25222829100676,24,4,Object_Land_Pattern_Large,-3,,,,,,,,,,,
encoding,value,66.25234416604508,72.26428262505215,24,4,Object_Land_Pattern_Large,-3,,,,,,,,,,,
encoding,attention,72.26442337501794,75.28290483297314,24,4,Object_Land_Pattern_Large,-3,-3,1,0.8269711249740794,,,,,,,,
n-back,,,,91,4,,,,0,None,N,True,None,,,,,
n-back,,,,92,4,,,,1,None,B,False,None,,,,,
n-back,,,,93,4,,,,1,0.3919594580074772,N,True,1,,,,,
n-back,,,,94,4,,,,1,None,X,False,None,,,,,
n-back,,,,95,4,,,,0,0.30727512505836785,B,False,1,,,,,
n-back,,,,96,4,,,,1,0.460375374997966,X,True,1,,,,,
n-back,,,,97,4,,,,1,None,N,False,None,,,,,
n-back,,,,98,4,,,,1,None,V,False,None,,,,,
n-back,,,,99,4,,,,1,None,B,False,None,,,,,
n-back,,,,100,4,,,,1,None,B,False,None,,,,,
n-back,,,,101,4,,,,1,None,X,False,None,,,,,
n-back,,,,102,4,,,,1,None,N,False,None,,,,,
n-back,,,,103,4,,,,1,0.5490559580503032,X,True,1,,,,,
n-back,,,,104,4,,,,1,0.9886960829608142,N,True,1,,,,,
n-back,,,,105,4,,,,1,None,N,False,None,,,,,
n-back,,,,106,4,,,,1,None,Z,False,None,,,,,
n-back,,,,107,4,,,,1,0.34478483290877193,N,True,1,,,,,
n-back,,,,108,4,,,,1,None,X,False,None,,,,,
n-back,,,,109,4,,,,1,0.3948803750099614,N,True,1,,,,,
n-back,,,,110,4,,,,1,None,B,False,None,,,,,
n-back,,,,111,4,,,,1,None,Z,False,None,,,,,
n-back,,,,112,4,,,,1,None,X,False,None,,,,,
n-back,,,,113,4,,,,1,None,V,False,None,,,,,
n-back,,,,114,4,,,,1,None,B,False,None,,,,,
n-back,,,,115,4,,,,1,0.4107312080450356,V,True,1,,,,,
n-back,,,,116,4,,,,1,0.7828725839499384,B,True,1,,,,,
n-back,,,,117,4,,,,1,None,Z,False,None,,,,,
n-back,,,,118,4,,,,1,None,Z,False,None,,,,,
n-back,,,,119,4,,,,1,0.3443406249862164,Z,True,1,,,,,
n-back,,,,120,4,,,,1,None,X,False,None,,,,,
choice,fixation,153.84744679101277,155.35071662499104,25,4,,,,,,,,,Small,,,,
choice,option,155.35961262497585,156.39059220801573,25,4,,,,,,,,,Small,,,,
choice,choice,156.3906975829741,167.51662079105154,25,4,,,1,0,10.11515149998013,,,,Small,,,,
choice,fixation,167.51674624998122,168.77256487496197,26,4,,,,,,,,,Pattern,,,,
choice,option,168.7818737080088,169.80885841604322,26,4,,,,,,,,,Pattern,,,,
choice,choice,169.80899462499656,175.25125308299903,26,4,,,1,1,4.432559667038731,,,,Pattern,,,,
choice,fixation,175.2513768330682,176.75663279101718,27,4,,,,,,,,,Large,,,,
choice,option,176.76572379097342,177.79344887507614,27,4,,,,,,,,,Large,,,,
choice,choice,177.7936350000091,181.9778026250424,27,4,,,1,1,3.1745967080350965,,,,Large,,,,
choice,fixation,181.97793670801912,182.9831868329784,28,4,,,,,,,,,Animal,,,,
choice,option,182.99281158298254,184.0195162909804,28,4,,,,,,,,,Animal,,,,
choice,choice,184.0196258330252,186.26656875002664,28,4,,,2,1,1.236851125024259,,,,Animal,,,,
choice,fixation,186.2666961660143,186.77338749996852,29,4,,,,,,,,,Sea,,,,
choice,option,186.78169462503865,187.80811091605574,29,4,,,,,,,,,Sea,,,,
choice,choice,187.80823595798574,192.77759491605684,29,4,,,2,1,3.9598135829437524,,,,Sea,,,,
choice,fixation,192.7777336660074,194.0329063750105,30,4,,,,,,,,,Land,,,,
choice,option,194.04173649998847,195.06853733304888,30,4,,,,,,,,,Land,,,,
choice,choice,195.0686740410747,201.1561835410539,30,4,,,1,1,5.07549337495584,,,,Land,,,,
choice,fixation,201.156298915972,202.16131908306852,31,4,,,,,,,,,Object,,,,
choice,option,202.1711164159933,203.19709362497088,31,4,,,,,,,,,Object,,,,
choice,choice,203.19719724997412,207.98481933306903,31,4,,,1,1,3.7775855000363663,,,,Object,,,,
choice,fixation,207.98494683299214,208.4901598750148,32,4,,,,,,,,,Solid,,,,
choice,option,208.49955662502907,209.52591375005431,32,4,,,,,,,,,Solid,,,,
choice,choice,209.52601866598707,214.2134422910167,32,4,,,1,0,3.6776068749604747,,,,Solid,,,,
memory,free_recall,239.98152933304664,251.8075813750038,18,4,,,,,,,,,,,,,
memory,value_recall,267.2770392500097,274.13957554101944,19,4,Animal_Sea_Pattern_Small,,,,6.859166375012137,,,,,-2,,,
memory,value_recall,275.9355225410545,280.26197662507184,20,4,Object_Land_Solid_Large,,,,4.32157475000713,,,,,-1,,,
memory,value_recall,282.0577635410009,286.1908942500595,21,4,Animal_Sea_Solid_Small,,,,4.129098624922335,,,,,-6,,,
memory,value_recall,287.4872597909998,292.6931161660468,22,4,Object_Land_Pattern_Large,,,,5.201623458066024,,,,,-3,,,
memory,value_recall,294.24029666604474,297.81177962501533,23,4,Animal_Sea_Pattern_Large,,,,3.5673381249653175,,,,,7,,,
memory,value_recall,299.1070400830358,302.11702733300626,24,4,Object_Land_Solid_Small,,,,3.0058024160098284,,,,,6,,,
memory,spatial_recall,309.1032208329998,311.8162684580311,24,4,Object_Land_Pattern_Large,,,1,2.709060374996625,,,,,,"[329, 189]","[329, 189]",
memory,spatial_recall,313.1319709579693,317.7586067910306,24,4,Animal_Sea_Pattern_Small,,,1,4.622662040987052,,,,,,"[-329, 190]","[-329, 190]",
memory,spatial_recall,319.31364712503273,321.23272162501235,24,4,Object_Land_Solid_Small,,,1,1.914087500073947,,,,,,"[0, 380]","[0, 380]",
memory,spatial_recall,323.2914265410509,326.61189487506635,24,4,Animal_Sea_Pattern_Large,,,1,3.3165199159411713,,,,,,"[0, -380]","[0, -380]",
memory,spatial_recall,328.16333254100755,331.1982530830428,24,4,Object_Land_Solid_Large,,,1,3.0306598340393975,,,,,,"[-329, -190]","[-329, -190]",
memory,spatial_recall,332.7604919580044,335.391894957982,24,4,Animal_Sea_Solid_Small,,,1,2.6273787500103936,,,,,,"[329, -190]","[329, -190]",
encoding,fixation,8.269952750066295,9.775965417036787,25,5,Object_Sea_Pattern_Small,3,,,,,,,,,,,
encoding,image,9.776075917063281,10.787657834007405,25,5,Object_Sea_Pattern_Small,3,,,,,,,,,,,
encoding,value,10.787775375065394,16.802460875012912,25,5,Object_Sea_Pattern_Small,3,,,,,,,,,,,
encoding,attention,16.80258408410009,19.820203917101026,25,5,Object_Sea_Pattern_Small,3,+3,1,0.6611583749763668,,,,,,,,
encoding,fixation,19.8203528750455,21.325528375105932,26,5,Animal_Land_Pattern_Small,1,,,,,,,,,,,
encoding,image,21.325630375067703,22.336345792049542,26,5,Animal_Land_Pattern_Small,1,,,,,,,,,,,
encoding,value,22.336461917031556,28.3481965000974,26,5,Animal_Land_Pattern_Small,1,,,,,,,,,,,
encoding,attention,28.34836158400867,31.365963999996893,26,5,Animal_Land_Pattern_Small,1,+1,1,0.6832489590160549,,,,,,,,
encoding,fixation,31.36610450001899,32.8719179170439,27,5,Object_Sea_Solid_Small,-9,,,,,,,,,,,
encoding,image,32.872034250060096,33.882278667064384,27,5,Object_Sea_Solid_Small,-9,,,,,,,,,,,
encoding,value,33.88239783409517,39.89384441706352,27,5,Object_Sea_Solid_Small,-9,,,,,,,,,,,
encoding,attention,39.893958917004056,42.91258575010579,27,5,Object_Sea_Solid_Small,-9,-9,1,0.8897960830945522,,,,,,,,
encoding,fixation,42.91277941700537,43.91891275008675,28,5,Object_Sea_Solid_Large,5,,,,,,,,,,,
encoding,image,43.919079125043936,44.930808667093515,28,5,Object_Sea_Solid_Large,5,,,,,,,,,,,
encoding,value,44.93091216706671,50.9430623750668,28,5,Object_Sea_Solid_Large,5,,,,,,,,,,,
encoding,attention,50.94317529199179,53.96110658405814,28,5,Object_Sea_Solid_Large,5,+5,1,0.8149322499521077,,,,,,,,
encoding,fixation,53.961250209016725,54.720023125060834,29,5,Animal_Land_Pattern_Large,-7,,,,,,,,,,,
encoding,image,54.72013112506829,55.7311610840261,29,5,Animal_Land_Pattern_Large,-7,,,,,,,,,,,
encoding,value,55.73127170908265,61.74305058410391,29,5,Animal_Land_Pattern_Large,-7,,,,,,,,,,,
encoding,attention,61.74322829209268,64.76102883403655,29,5,Animal_Land_Pattern_Large,-7,-7,1,0.7128728339448571,,,,,,,,
encoding,fixation,64.7611728340853,65.76839641702827,30,5,Animal_Land_Solid_Large,3,,,,,,,,,,,
encoding,image,65.7685043750098,66.7796837920323,30,5,Animal_Land_Solid_Large,3,,,,,,,,,,,
encoding,value,66.77979066700209,72.79142691707239,30,5,Animal_Land_Solid_Large,3,,,,,,,,,,,
encoding,attention,72.79156466701534,75.80868604208808,30,5,Animal_Land_Solid_Large,3,+3,1,0.713352374965325,,,,,,,,
n-back,,,,121,5,,,,1,None,X,False,None,,,,,
n-back,,,,122,5,,,,0,None,Z,True,None,,,,,
n-back,,,,123,5,,,,1,None,N,False,None,,,,,
n-back,,,,124,5,,,,1,None,C,False,None,,,,,
n-back,,,,125,5,,,,1,0.44352716708090156,N,True,1,,,,,
n-back,,,,126,5,,,,1,None,B,False,None,,,,,
n-back,,,,127,5,,,,1,None,X,False,None,,,,,
n-back,,,,128,5,,,,1,None,X,False,None,,,,,
n-back,,,,129,5,,,,1,None,B,False,None,,,,,
n-back,,,,130,5,,,,1,None,Z,False,None,,,,,
n-back,,,,131,5,,,,1,None,X,False,None,,,,,
n-back,,,,132,5,,,,1,None,V,False,None,,,,,
n-back,,,,133,5,,,,1,0.643185916938819,X,True,1,,,,,
n-back,,,,134,5,,,,1,0.5416516250697896,V,True,1,,,,,
n-back,,,,135,5,,,,0,1.3430431250017136,V,False,1,,,,,
n-back,,,,136,5,,,,1,0.5894642919301987,V,True,1,,,,,
n-back,,,,137,5,,,,1,0.9521042089909315,V,True,1,,,,,
n-back,,,,138,5,,,,1,None,B,False,None,,,,,
n-back,,,,139,5,,,,1,None,N,False,None,,,,,
n-back,,,,140,5,,,,1,None,V,False,None,,,,,
n-back,,,,141,5,,,,1,None,Z,False,None,,,,,
n-back,,,,142,5,,,,1,None,X,False,None,,,,,
n-back,,,,143,5,,,,1,0.43941541702952236,Z,True,1,,,,,
n-back,,,,144,5,,,,1,0.8415144579485059,X,True,1,,,,,
n-back,,,,145,5,,,,1,None,N,False,None,,,,,
n-back,,,,146,5,,,,1,None,V,False,None,,,,,
n-back,,,,147,5,,,,1,0.4455737080425024,N,True,1,,,,,
n-back,,,,148,5,,,,1,None,C,False,None,,,,,
n-back,,,,149,5,,,,1,0.9234902909956872,N,True,1,,,,,
n-back,,,,150,5,,,,1,None,B,False,None,,,,,
choice,fixation,158.72603920905385,159.4793862500228,33,5,,,,,,,,,Pattern,,,,
choice,option,159.4885837500915,160.51503370900173,33,5,,,,,,,,,Pattern,,,,
choice,choice,160.51518854207825,165.56152600003406,33,5,,,1,0,4.036501292022876,,,,Pattern,,,,
choice,fixation,165.56165300006978,166.31956550001632,34,5,,,,,,,,,Small,,,,
choice,option,166.32836916705128,167.35428066703025,34,5,,,,,,,,,Small,,,,
choice,choice,167.35438562510535,170.05368941708002,34,5,,,2,1,1.685806917026639,,,,Small,,,,
choice,fixation,170.05380483402405,171.30880320910364,35,5,,,,,,,,,Object,,,,
choice,option,171.31785816699266,172.34525070909876,35,5,,,,,,,,,Object,,,,
choice,choice,172.34536175010726,174.42585125006735,35,5,,,2,1,1.0710881659761071,,,,Object,,,,
choice,fixation,174.42596854199655,175.9309910000302,36,5,,,,,,,,,Large,,,,
choice,option,175.93985054199584,176.965884125093,36,5,,,,,,,,,Large,,,,
choice,choice,176.9659880840918,179.47587520908564,36,5,,,1,1,1.5003941669128835,,,,Large,,,,
choice,fixation,179.47600995900575,180.98144241701812,37,5,,,,,,,,,Animal,,,,
choice,option,180.99079891701695,182.01926237507723,37,5,,,,,,,,,Animal,,,,
choice,choice,182.01938329206314,190.7237079590559,37,5,,,1,0,7.694192124996334,,,,Animal,,,,
choice,fixation,190.72383650008123,191.72878383402713,38,5,,,,,,,,,Sea,,,,
choice,option,191.73783395905048,192.76421416702215,38,5,,,,,,,,,Sea,,,,
choice,choice,192.76435533410404,194.61636195902247,38,5,,,2,1,0.8424853750038892,,,,Sea,,,,
choice,fixation,194.6165535420878,195.87149537506048,39,5,,,,,,,,,Land,,,,
choice,option,195.88008429203182,196.90595770906657,39,5,,,,,,,,,Land,,,,
choice,choice,196.90605562506244,201.0966765000485,39,5,,,1,0,3.1811848329380155,,,,Land,,,,
choice,fixation,201.09679358405992,202.10156020906288,40,5,,,,,,,,,Solid,,,,
choice,option,202.11076095909812,203.13653408410028,40,5,,,,,,,,,Solid,,,,
choice,choice,203.1366461670259,205.60236058407463,40,5,,,2,1,1.4541071669664234,,,,Solid,,,,
memory,free_recall,219.9466212920379,233.70108683407307,24,5,,,,,,,,,,,,,
memory,value_recall,244.6796011250699,249.44372120907065,25,5,Animal_Land_Solid_Large,,,,4.759505792055279,,,,,3,,,
memory,value_recall,250.98982887505554,257.9075527091045,26,5,Animal_Land_Pattern_Small,,,,6.913344333996065,,,,,1,,,
memory,value_recall,259.95454395900015,265.1340071670711,27,5,Object_Sea_Solid_Large,,,,5.17541787493974,,,,,5,,,
memory,value_recall,266.930387834087,271.54098808404524,28,5,Object_Sea_Pattern_Small,,,,4.606380374985747,,,,,3,,,
memory,value_recall,273.33762845909223,278.23751895909663,29,5,Animal_Land_Pattern_Large,,,,4.895343750016764,,,,,-7,,,
memory,value_recall,279.28305591701064,282.47617150004953,30,5,Object_Sea_Solid_Small,,,,3.190572875086218,,,,,-9,,,
memory,spatial_recall,292.12893704208545,295.37425183400046,30,5,Animal_Land_Solid_Large,,,1,3.2413256249856204,,,,,,"[329, 189]","[329, 189]",
memory,spatial_recall,296.4293928340776,298.99044366704766,30,5,Object_Sea_Solid_Small,,,1,2.5558391669765115,,,,,,"[329, -190]","[329, -190]",
memory,spatial_recall,300.29544875002466,303.39037958404515,30,5,Animal_Land_Pattern_Small,,,1,3.089503957889974,,,,,,"[0, 380]","[0, 380]",
memory,spatial_recall,304.4458936670562,307.2042817090405,30,5,Animal_Land_Pattern_Large,,,1,2.754431250039488,,,,,,"[-329, 190]","[-329, 190]",
memory,spatial_recall,308.26099016703665,311.8932607920142,30,5,Object_Sea_Solid_Large,,,1,3.629309249925427,,,,,,"[0, -380]","[0, -380]",
memory,spatial_recall,313.45706325001083,315.7749337090645,30,5,Object_Sea_Pattern_Small,,,1,2.314077583956532,,,,,,"[-329, -190]","[-329, -190]",
encoding,fixation,9.250912166084163,10.006559291039594,31,6,Object_Land_Solid_Large,-9,,,,,,,,,,,
encoding,image,10.006663165986538,11.017053583054803,31,6,Object_Land_Solid_Large,-9,,,,,,,,,,,
encoding,value,11.017164166085422,17.029378541046754,31,6,Object_Land_Solid_Large,-9,,,,,,,,,,,
encoding,attention,17.02953395806253,20.048023750074208,31,6,Object_Land_Solid_Large,-9,-9,1,0.8657810000004247,,,,,,,,
encoding,fixation,20.04816754104104,20.803365166066214,32,6,Animal_Sea_Pattern_Small,-9,,,,,,,,,,,
encoding,image,20.803483250085264,21.814757500076666,32,6,Animal_Sea_Pattern_Small,-9,,,,,,,,,,,
encoding,value,21.814854750060476,27.826992291025817,32,6,Animal_Sea_Pattern_Small,-9,,,,,,,,,,,
encoding,attention,27.827114082989283,30.847170250024647,32,6,Animal_Sea_Pattern_Small,-9,-9,1,0.6976672920864075,,,,,,,,
encoding,fixation,30.847329540993087,32.102472458034754,33,6,Object_Land_Pattern_Small,2,,,,,,,,,,,
encoding,image,32.102583458065055,33.11424166604411,33,6,Object_Land_Pattern_Small,2,,,,,,,,,,,
encoding,value,33.11434916604776,39.12692583305761,33,6,Object_Land_Pattern_Small,2,,,,,,,,,,,
encoding,attention,39.12704950000625,42.1449501659954,33,6,Object_Land_Pattern_Small,2,+2,1,0.7433075000299141,,,,,,,,
encoding,fixation,42.14511575002689,43.40063804097008,34,6,Animal_Land_Solid_Small,9,,,,,,,,,,,
encoding,image,43.40075616608374,44.41254900000058,34,6,Animal_Land_Solid_Small,9,,,,,,,,,,,
encoding,value,44.412662291084416,50.4242542500142,34,6,Animal_Land_Solid_Small,9,,,,,,,,,,,
encoding,attention,50.424375000060536,53.44111354101915,34,6,Animal_Land_Solid_Small,9,+9,1,0.7979762079194188,,,,,,,,
encoding,fixation,53.441278040991165,53.946264415979385,35,6,Object_Sea_Pattern_Large,6,,,,,,,,,,,
encoding,image,53.94636820803862,54.957612750004046,35,6,Object_Sea_Pattern_Large,6,,,,,,,,,,,
encoding,value,54.95774058299139,60.96956624998711,35,6,Object_Sea_Pattern_Large,6,,,,,,,,,,,
encoding,attention,60.96968304098118,63.98758783307858,35,6,Object_Sea_Pattern_Large,6,+6,1,0.7329870419343933,,,,,,,,
encoding,fixation,63.987733375048265,64.74268945807125,36,6,Animal_Sea_Solid_Large,7,,,,,,,,,,,
encoding,image,64.74281299998984,65.75419975002296,36,6,Animal_Sea_Solid_Large,7,,,,,,,,,,,
encoding,value,65.75433170807082,71.7666073750006,36,6,Animal_Sea_Solid_Large,7,,,,,,,,,,,
encoding,attention,71.76672020799015,74.78433279099409,36,6,Animal_Sea_Solid_Large,7,+7,1,0.9925802500220016,,,,,,,,
n-back,,,,151,6,,,,1,None,C,False,None,,,,,
n-back,,,,152,6,,,,1,None,V,False,None,,,,,
n-back,,,,153,6,,,,1,None,Z,False,None,,,,,
n-back,,,,154,6,,,,1,None,B,False,None,,,,,
n-back,,,,155,6,,,,1,0.4094199170358479,Z,True,1,,,,,
n-back,,,,156,6,,,,1,None,V,False,None,,,,,
n-back,,,,157,6,,,,1,None,N,False,None,,,,,
n-back,,,,158,6,,,,1,0.3847372500458732,V,True,1,,,,,
n-back,,,,159,6,,,,1,None,X,False,None,,,,,
n-back,,,,160,6,,,,0,0.5789149169577286,N,False,1,,,,,
n-back,,,,161,6,,,,1,None,C,False,None,,,,,
n-back,,,,162,6,,,,0,None,N,True,None,,,,,
n-back,,,,163,6,,,,1,0.49687979195732623,C,True,1,,,,,
n-back,,,,164,6,,,,1,0.5766804590821266,N,True,1,,,,,
n-back,,,,165,6,,,,1,None,X,False,None,,,,,
n-back,,,,166,6,,,,1,0.7983510830672458,N,True,1,,,,,
n-back,,,,167,6,,,,1,None,N,False,None,,,,,
n-back,,,,168,6,,,,1,0.48347245797049254,N,True,1,,,,,
n-back,,,,169,6,,,,1,None,C,False,None,,,,,
n-back,,,,170,6,,,,1,None,C,False,None,,,,,
n-back,,,,171,6,,,,1,None,B,False,None,,,,,
n-back,,,,172,6,,,,1,None,N,False,None,,,,,
n-back,,,,173,6,,,,1,None,V,False,None,,,,,
n-back,,,,174,6,,,,1,0.9001669160788879,N,True,1,,,,,
n-back,,,,175,6,,,,0,None,V,True,None,,,,,
n-back,,,,176,6,,,,1,None,V,False,None,,,,,
n-back,,,,177,6,,,,1,0.36293195793405175,V,True,1,,,,,
n-back,,,,178,6,,,,1,None,X,False,None,,,,,
n-back,,,,179,6,,,,1,None,B,False,None,,,,,
n-back,,,,180,6,,,,1,None,Z,False,None,,,,,
choice,fixation,164.67341029108502,166.1767914580414,41,6,,,,,,,,,Pattern,,,,
choice,option,166.18566945800558,167.21437041601166,41,6,,,,,,,,,Pattern,,,,
choice,choice,167.21448199998122,171.27191670797765,41,6,,,2,1,3.0474904999136925,,,,Pattern,,,,
choice,fixation,171.2720466250321,172.0276506660739,42,6,,,,,,,,,Animal,,,,
choice,option,172.03683762508444,173.063533666078,42,6,,,,,,,,,Animal,,,,
choice,choice,173.06364712503273,175.66540333302692,42,6,,,1,1,1.5914322920143604,,,,Animal,,,,
choice,fixation,175.6655742500443,176.17039700003807,43,6,,,,,,,,,Land,,,,
choice,option,176.17922599997837,177.21002137498,43,6,,,,,,,,,Land,,,,
choice,choice,177.21013229107484,179.91855095804203,43,6,,,1,1,1.6987596669932827,,,,Land,,,,
choice,fixation,179.91867404105142,180.9236465410795,44,6,,,,,,,,,Small,,,,
choice,option,180.93271483306307,181.96087704098318,44,6,,,,,,,,,Small,,,,
choice,choice,181.96098812506534,188.09679075004533,44,6,,,1,1,5.125985375023447,,,,Small,,,,
choice,fixation,188.09690854104701,189.10207358305342,45,6,,,,,,,,,Sea,,,,
choice,option,189.11041087505873,190.13644666597247,45,6,,,,,,,,,Sea,,,,
choice,choice,190.13656204100698,192.7344888750231,45,6,,,2,0,1.5844970000907779,,,,Sea,,,,
choice,fixation,192.73463129100855,193.49001854099333,46,6,,,,,,,,,Large,,,,
choice,option,193.49850720807444,194.52459237503354,46,6,,,,,,,,,Large,,,,
choice,choice,194.52476225001737,201.53184366598725,46,6,,,2,0,5.9973967500263825,,,,Large,,,,
choice,fixation,201.53198579105083,202.5370263750665,47,6,,,,,,,,,Solid,,,,
choice,option,202.54659066605382,203.57245125004556,47,6,,,,,,,,,Solid,,,,
choice,choice,203.57256595802028,206.43199504096992,47,6,,,1,1,1.8493503750069067,,,,Solid,,,,
choice,fixation,206.43219062499702,207.18732983304653,48,6,,,,,,,,,Object,,,,
choice,option,207.1964717080118,208.22213512507733,48,6,,,,,,,,,Object,,,,
choice,choice,208.22224183299113,211.09792579105124,48,6,,,2,1,1.8646934579592198,,,,Object,,,,
memory,free_recall,222.2488354999805,240.49106083298102,30,6,,,,,,,,,,,,,
memory,value_recall,247.65802166599315,252.27437520807143,31,6,Animal_Sea_Pattern_Small,,,,4.6122696249512956,,,,,-9,,,
memory,value_recall,253.31965258298442,256.594128082972,32,6,Object_Land_Solid_Large,,,,3.268679958069697,,,,,-9,,,
memory,value_recall,258.6403454580577,264.1544889580691,33,6,Object_Sea_Pattern_Large,,,,5.509720791014843,,,,,6,,,
memory,value_recall,265.7006270410493,269.7300288750557,34,6,Object_Land_Pattern_Small,,,,4.024975124979392,,,,,2,,,
memory,value_recall,271.7777890000725,276.8015555830207,35,6,Animal_Sea_Solid_Large,,,,5.01965862500947,,,,,7,,,
memory,value_recall,278.84764887497295,282.2762443750398,36,6,Animal_Land_Solid_Small,,,,3.424464166047983,,,,,9,,,
memory,spatial_recall,289.86112683301326,292.2972053330159,36,6,Object_Sea_Pattern_Large,,,1,2.4322407089639455,,,,,,"[0, 380]","[0, 380]",
memory,spatial_recall,293.3563556660665,296.69957179098856,36,6,Animal_Sea_Pattern_Small,,,1,3.340644291951321,,,,,,"[-329, 190]","[-329, 190]",
memory,spatial_recall,297.7549423329765,300.2490819999948,36,6,Object_Land_Pattern_Small,,,1,2.490787999937311,,,,,,"[0, -380]","[0, -380]",
memory,spatial_recall,301.3005556659773,304.02935941598844,36,6,Object_Land_Solid_Large,,,1,2.7261308749439195,,,,,,"[-329, -190]","[-329, -190]",
memory,spatial_recall,305.58294866606593,307.9827628750354,36,6,Animal_Land_Solid_Small,,,1,2.3954800000647083,,,,,,"[329, -190]","[329, -190]",
memory,spatial_recall,310.0398092910182,313.5793768330477,36,6,Animal_Sea_Solid_Large,,,1,3.5356026659719646,,,,,,"[329, 189]","[329, 189]",
encoding,fixation,6.1918151249410585,6.949624249944463,37,7,Object_Sea_Solid_Small,5,,,,,,,,,,,
encoding,image,6.949743125005625,7.960632707923651,37,7,Object_Sea_Solid_Small,5,,,,,,,,,,,
encoding,value,7.9607386669376865,13.97327191696968,37,7,Object_Sea_Solid_Small,5,,,,,,,,,,,
encoding,attention,13.973408291931264,16.99013562500477,37,7,Object_Sea_Solid_Small,5,+5,1,0.9297582920407876,,,,,,,,
encoding,fixation,16.990289874956943,17.745584082906134,38,7,Object_Sea_Pattern_Small,-3,,,,,,,,,,,
encoding,image,17.745695416931994,18.756668332964182,38,7,Object_Sea_Pattern_Small,-3,,,,,,,,,,,
encoding,value,18.756816666922532,24.769582249922678,38,7,Object_Sea_Pattern_Small,-3,,,,,,,,,,,
encoding,attention,24.76969412493054,27.787412791978568,38,7,Object_Sea_Pattern_Small,-3,-3,1,0.7081611250760034,,,,,,,,
encoding,fixation,27.787583375000395,29.043495666934177,39,7,Animal_Sea_Pattern_Large,-1,,,,,,,,,,,
encoding,image,29.04359787493013,30.053980124997906,39,7,Animal_Sea_Pattern_Large,-1,,,,,,,,,,,
encoding,value,30.05411733291112,36.06707333296072,39,7,Animal_Sea_Pattern_Large,-1,,,,,,,,,,,
encoding,attention,36.06719591701403,39.08413195796311,39,7,Animal_Sea_Pattern_Large,-1,-1,1,0.9021313750417903,,,,,,,,
encoding,fixation,39.0843047919916,40.33935733290855,40,7,Animal_Land_Solid_Large,-1,,,,,,,,,,,
encoding,image,40.33945008297451,41.350854832911864,40,7,Animal_Land_Solid_Large,-1,,,,,,,,,,,
encoding,value,41.35095620795619,47.36271170794498,40,7,Animal_Land_Solid_Large,-1,,,,,,,,,,,
encoding,attention,47.36285599996336,50.381067374954,40,7,Animal_Land_Solid_Large,-1,-1,1,0.7551498749526218,,,,,,,,
encoding,fixation,50.38122112490237,51.886327957967296,41,7,Object_Land_Solid_Small,-3,,,,,,,,,,,
encoding,image,51.88645966700278,52.89888620795682,41,7,Object_Land_Solid_Small,-3,,,,,,,,,,,
encoding,value,52.89900808292441,58.91187899990473,41,7,Object_Land_Solid_Small,-3,,,,,,,,,,,
encoding,attention,58.91202812490519,61.9290640829131,41,7,Object_Land_Solid_Small,-3,-3,1,0.6538882920285687,,,,,,,,
encoding,fixation,61.92920749995392,62.43413987499662,42,7,Animal_Land_Pattern_Large,6,,,,,,,,,,,
encoding,image,62.43426274997182,63.445137916947715,42,7,Animal_Land_Pattern_Large,6,,,,,,,,,,,
encoding,value,63.4452498749597,69.45716124994215,42,7,Animal_Land_Pattern_Large,6,,,,,,,,,,,
encoding,attention,69.45727941696532,72.47460249997675,42,7,Animal_Land_Pattern_Large,6,+6,1,0.8521053330041468,,,,,,,,
n-back,,,,181,7,,,,1,None,X,False,None,,,,,
n-back,,,,182,7,,,,1,None,Z,False,None,,,,,
n-back,,,,183,7,,,,1,0.40528700000140816,X,True,1,,,,,
n-back,,,,184,7,,,,1,None,X,False,None,,,,,
n-back,,,,185,7,,,,0,0.3869365000864491,Z,False,1,,,,,
n-back,,,,186,7,,,,1,0.5930260000750422,X,True,1,,,,,
n-back,,,,187,7,,,,1,1.3110158750787377,Z,True,1,,,,,
n-back,,,,188,7,,,,1,None,B,False,None,,,,,
n-back,,,,189,7,,,,1,None,V,False,None,,,,,
n-back,,,,190,7,,,,1,None,V,False,None,,,,,
n-back,,,,191,7,,,,1,None,X,False,None,,,,,
n-back,,,,192,7,,,,1,None,Z,False,None,,,,,
n-back,,,,193,7,,,,1,0.7545300840865821,X,True,1,,,,,
n-back,,,,194,7,,,,1,0.5794230420142412,Z,True,1,,,,,
n-back,,,,195,7,,,,1,None,C,False,None,,,,,
n-back,,,,196,7,,,,1,None,X,False,None,,,,,
n-back,,,,197,7,,,,1,None,V,False,None,,,,,
n-back,,,,198,7,,,,1,None,N,False,None,,,,,
n-back,,,,199,7,,,,1,None,C,False,None,,,,,
n-back,,,,200,7,,,,1,0.36527658300474286,N,True,1,,,,,
n-back,,,,201,7,,,,1,None,X,False,None,,,,,
n-back,,,,202,7,,,,1,None,Z,False,None,,,,,
n-back,,,,203,7,,,,1,0.3046081670327112,X,True,1,,,,,
n-back,,,,204,7,,,,1,None,B,False,None,,,,,
n-back,,,,205,7,,,,1,None,B,False,None,,,,,
n-back,,,,206,7,,,,1,None,C,False,None,,,,,
n-back,,,,207,7,,,,1,0.31554362492170185,B,True,1,,,,,
n-back,,,,208,7,,,,1,0.5742364159086719,C,True,1,,,,,
n-back,,,,209,7,,,,1,0.6774526250083,B,True,1,,,,,
n-back,,,,210,7,,,,1,None,X,False,None,,,,,
choice,fixation,147.33084612491075,148.8343055829173,49,7,,,,,,,,,Animal,,,,
choice,option,148.9220815829467,149.94969024998136,49,7,,,,,,,,,Animal,,,,
choice,choice,149.94983783294447,154.66260770801455,49,7,,,1,1,3.702888667001389,,,,Animal,,,,
choice,fixation,154.66280895797536,155.66735000000335,50,7,,,,,,,,,Object,,,,
choice,option,155.6766971249599,156.7034696249757,50,7,,,,,,,,,Object,,,,
choice,choice,156.70358179195318,162.87299483292736,50,7,,,1,0,5.159362124977633,,,,Object,,,,
choice,fixation,162.87311641697306,164.127977291937,51,7,,,,,,,,,Large,,,,
choice,option,164.13668129197322,165.16320049995556,51,7,,,,,,,,,Large,,,,
choice,choice,165.16337049996946,171.14251566689927,51,7,,,2,0,4.968756207963452,,,,Large,,,,
choice,fixation,171.14264179195743,172.14890583290253,52,7,,,,,,,,,Land,,,,
choice,option,172.15764220792335,173.18353404197842,52,7,,,,,,,,,Land,,,,
choice,choice,173.18364274990745,176.7204827920068,52,7,,,1,1,2.527306541102007,,,,Land,,,,
choice,fixation,176.7206010830123,177.72593216691166,53,7,,,,,,,,,Pattern,,,,
choice,option,177.73580179200508,178.76295374997426,53,7,,,,,,,,,Pattern,,,,
choice,choice,178.76306441694032,181.75167591695208,53,7,,,2,0,1.9792498329188675,,,,Pattern,,,,
choice,fixation,181.7518014999805,182.75666466692928,54,7,,,,,,,,,Sea,,,,
choice,option,182.76514362497255,183.79089049994946,54,7,,,,,,,,,Sea,,,,
choice,choice,183.79099908296485,185.80508499999996,54,7,,,2,0,1.004308499977924,,,,Sea,,,,
choice,fixation,185.80525599990506,186.56077716697473,55,7,,,,,,,,,Small,,,,
choice,option,186.569531874964,187.59549170790706,55,7,,,,,,,,,Small,,,,
choice,choice,187.5956020829035,192.10880662500858,55,7,,,2,1,3.503730042022653,,,,Small,,,,
choice,fixation,192.10894345794804,193.1173785829451,56,7,,,,,,,,,Solid,,,,
choice,option,193.1265722499229,194.15256341698114,56,7,,,,,,,,,Solid,,,,
choice,choice,194.15266895794775,196.99894983298145,56,7,,,2,0,1.8363729170523584,,,,Solid,,,,
memory,free_recall,209.2652613329701,222.48983574996237,36,7,,,,,,,,,,,,,
memory,value_recall,231.94987254193984,237.89767262490932,37,7,Object_Land_Solid_Small,,,,5.9435687500517815,,,,,-3,,,
memory,value_recall,239.94281895796303,243.85664187499788,38,7,Animal_Sea_Pattern_Large,,,,3.908254708047025,,,,,-1,,,
memory,value_recall,245.90266987495124,248.62441649998073,39,7,Object_Sea_Solid_Small,,,,2.7174649588996544,,,,,5,,,
memory,value_recall,249.92323670792393,252.82433329196647,40,7,Animal_Land_Pattern_Large,,,,2.89601283299271,,,,,6,,,
memory,value_recall,253.86971816699952,259.47196029196493,41,7,Animal_Land_Solid_Large,,,,5.598677165922709,,,,,-1,,,
memory,value_recall,261.2671066249022,263.95215866691433,42,7,Object_Sea_Pattern_Small,,,,2.680837291991338,,,,,-3,,,
memory,spatial_recall,268.1172709169332,270.55446341692004,42,7,Animal_Land_Solid_Large,,,1,2.4346537500387058,,,,,,"[329, 189]","[329, 189]",
memory,spatial_recall,271.6140069999965,274.3048623749055,42,7,Object_Land_Solid_Small,,,1,2.688358666957356,,,,,,"[0, 380]","[0, 380]",
memory,spatial_recall,276.1121085420018,278.62422795791645,42,7,Animal_Land_Pattern_Large,,,1,2.508105333079584,,,,,,"[-329, 190]","[-329, 190]",
memory,spatial_recall,280.1853522079764,281.4742092919769,42,7,Object_Sea_Pattern_Small,,,1,1.2849672079319134,,,,,,"[-329, -190]","[-329, -190]",
memory,spatial_recall,283.0319588329876,284.5589990419103,42,7,Object_Sea_Solid_Small,,,1,1.5230260839452967,,,,,,"[329, -190]","[329, -190]",
memory,spatial_recall,286.11806895793416,288.00859670795035,42,7,Animal_Sea_Pattern_Large,,,1,1.8866223329678178,,,,,,"[0, -380]","[0, -380]",
