phase,event,trial_number,eyetracker_onset,eyetracker_offset,fix_start,fix_end,fix_duration_full,fix_duration_bounded,fix_x,fix_y,roi_x,roi_y,roi_content,onset,offset,game,image,outcome,choice,correct,rt,letter,match,response,option,true_value,true_position,recalled_position,Unnamed: 18
encoding,fixation,1,2782382,2783899,2782642.0,2782940.0,299.0,299.0,1941.0,1044.9,1920.0,1080.0,fixation,15.777233832981436,17.2933433749713,1.0,Animal_Sea_Solid_Small,8.0,,,,,,,,,,,
encoding,fixation,1,2782382,2783899,2783094.0,2783217.0,124.0,124.0,1809.0,912.0,1591.0,1269.0,Object_Land_Solid_Large,15.777233832981436,17.2933433749713,1.0,Animal_Sea_Solid_Small,8.0,,,,,,,,,,,
encoding,fixation,1,2782382,2783899,2783345.0,2783770.0,426.0,426.0,1843.7,1015.0,1591.0,1269.0,Object_Land_Solid_Large,15.777233832981436,17.2933433749713,1.0,Animal_Sea_Solid_Small,8.0,,,,,,,,,,,
encoding,fixation,1,2782382,2783899,2783792.0,2784032.0,241.0,107.0,1767.7,893.8,1591.0,1269.0,Object_Land_Solid_Large,15.777233832981436,17.2933433749713,1.0,Animal_Sea_Solid_Small,8.0,,,,,,,,,,,
encoding,image,1,2783899,2784918,2784063.0,2784152.0,90.0,90.0,2023.4,975.0999999999999,2249.0,1269.0,Animal_Sea_Solid_Small,17.293469083029777,18.31304687494412,1.0,Animal_Sea_Solid_Small,8.0,,,,,,,,,,,
encoding,image,1,2783899,2784918,2784190.0,2785115.0,926.0,728.0,2250.5,840.5999999999999,2249.0,1269.0,Animal_Sea_Solid_Small,17.293469083029777,18.31304687494412,1.0,Animal_Sea_Solid_Small,8.0,,,,,,,,,,,
encoding,value,1,2784918,2790935,2785126.0,2786868.0,1743.0,1743.0,2250.2,781.7,2249.0,1269.0,Animal_Sea_Solid_Small,18.31319862499367,24.329713333048858,1.0,Animal_Sea_Solid_Small,8.0,,,,,,,,,,,
encoding,value,1,2784918,2790935,2786879.0,2791164.0,4286.0,4056.0,2266.1,824.0,2249.0,1269.0,Animal_Sea_Solid_Small,18.31319862499367,24.329713333048858,1.0,Animal_Sea_Solid_Small,8.0,,,,,,,,,,,
encoding,attention,1,2790935,2793954,2791174.0,2791349.0,176.0,176.0,2246.6,779.7,2249.0,1269.0,Animal_Sea_Solid_Small,24.329899417003617,27.34851050004363,1.0,Animal_Sea_Solid_Small,8.0,8.0,1.0,1.1601317910244688,,,,,,,,
encoding,attention,1,2790935,2793954,2791359.0,2791659.0,301.0,301.0,2289.1,756.5,2249.0,1269.0,Animal_Sea_Solid_Small,24.329899417003617,27.34851050004363,1.0,Animal_Sea_Solid_Small,8.0,8.0,1.0,1.1601317910244688,,,,,,,,
encoding,attention,1,2790935,2793954,2791809.0,2792468.0,660.0,660.0,2289.9,767.5,2249.0,1269.0,Animal_Sea_Solid_Small,24.329899417003617,27.34851050004363,1.0,Animal_Sea_Solid_Small,8.0,8.0,1.0,1.1601317910244688,,,,,,,,
encoding,attention,1,2790935,2793954,2792634.0,2792877.0,244.0,244.0,2316.0,809.3,2249.0,1269.0,Animal_Sea_Solid_Small,24.329899417003617,27.34851050004363,1.0,Animal_Sea_Solid_Small,8.0,8.0,1.0,1.1601317910244688,,,,,,,,
encoding,attention,1,2790935,2793954,2792894.0,2793256.0,363.0,363.0,2256.9,826.2,2249.0,1269.0,Animal_Sea_Solid_Small,24.329899417003617,27.34851050004363,1.0,Animal_Sea_Solid_Small,8.0,8.0,1.0,1.1601317910244688,,,,,,,,
encoding,attention,1,2790935,2793954,2793429.0,2793877.0,449.0,449.0,2253.3,868.4000000000001,2249.0,1269.0,Animal_Sea_Solid_Small,24.329899417003617,27.34851050004363,1.0,Animal_Sea_Solid_Small,8.0,8.0,1.0,1.1601317910244688,,,,,,,,
encoding,fixation,2,2793954,2794960,2794072.0,2794290.0,219.0,219.0,2223.1,877.0,2249.0,1269.0,Animal_Sea_Solid_Small,27.348706958000548,28.35383795795497,1.0,Object_Land_Solid_Large,2.0,,,,,,,,,,,
encoding,fixation,2,2793954,2794960,2794330.0,2795225.0,896.0,630.0,1906.4,1078.0,1920.0,1080.0,fixation,27.348706958000548,28.35383795795497,1.0,Object_Land_Solid_Large,2.0,,,,,,,,,,,
encoding,image,2,2794960,2795974,2795258.0,2796511.0,1254.0,716.0,1582.6,903.7,1591.0,1269.0,Object_Land_Solid_Large,28.35395758296363,29.368175207986496,1.0,Object_Land_Solid_Large,2.0,,,,,,,,,,,
encoding,value,2,2795974,2801985,2796529.0,2797280.0,752.0,752.0,1608.1,796.8,1591.0,1269.0,Object_Land_Solid_Large,29.368281292030588,35.37932491698302,1.0,Object_Land_Solid_Large,2.0,,,,,,,,,,,
encoding,value,2,2795974,2801985,2797293.0,2797943.0,651.0,651.0,1602.4,883.3,1591.0,1269.0,Object_Land_Solid_Large,29.368281292030588,35.37932491698302,1.0,Object_Land_Solid_Large,2.0,,,,,,,,,,,
encoding,value,2,2795974,2801985,2798090.0,2798383.0,294.0,294.0,1603.6,808.0999999999999,1591.0,1269.0,Object_Land_Solid_Large,29.368281292030588,35.37932491698302,1.0,Object_Land_Solid_Large,2.0,,,,,,,,,,,
encoding,value,2,2795974,2801985,2798396.0,2799369.0,974.0,974.0,1625.4,878.7,1591.0,1269.0,Object_Land_Solid_Large,29.368281292030588,35.37932491698302,1.0,Object_Land_Solid_Large,2.0,,,,,,,,,,,
encoding,value,2,2795974,2801985,2799383.0,2801799.0,2417.0,2417.0,1621.0,790.7,1591.0,1269.0,Object_Land_Solid_Large,29.368281292030588,35.37932491698302,1.0,Object_Land_Solid_Large,2.0,,,,,,,,,,,
encoding,value,2,2795974,2801985,2801814.0,2802238.0,425.0,171.0,1607.1,867.2,1591.0,1269.0,Object_Land_Solid_Large,29.368281292030588,35.37932491698302,1.0,Object_Land_Solid_Large,2.0,,,,,,,,,,,
encoding,attention,2,2801986,2805002,2802254.0,2803547.0,1294.0,1294.0,1664.6,790.5,1591.0,1269.0,Object_Land_Solid_Large,35.37954262504354,38.395427208044566,1.0,Object_Land_Solid_Large,2.0,2.0,1.0,0.8282600829843432,,,,,,,,
encoding,attention,2,2801986,2805002,2803590.0,2803700.0,111.0,111.0,1635.9,823.0999999999999,1591.0,1269.0,Object_Land_Solid_Large,35.37954262504354,38.395427208044566,1.0,Object_Land_Solid_Large,2.0,2.0,1.0,0.8282600829843432,,,,,,,,
encoding,attention,2,2801986,2805002,2803885.0,2803997.0,113.0,113.0,1618.8,875.2,1591.0,1269.0,Object_Land_Solid_Large,35.37954262504354,38.395427208044566,1.0,Object_Land_Solid_Large,2.0,2.0,1.0,0.8282600829843432,,,,,,,,
encoding,attention,2,2801986,2805002,2804176.0,2804351.0,176.0,176.0,1625.9,849.0,1591.0,1269.0,Object_Land_Solid_Large,35.37954262504354,38.395427208044566,1.0,Object_Land_Solid_Large,2.0,2.0,1.0,0.8282600829843432,,,,,,,,
encoding,fixation,3,2805002,2806258,2805221.0,2805387.0,167.0,167.0,1915.7,1043.0,1920.0,1080.0,fixation,38.395613458007574,39.65167658298742,1.0,Animal_Sea_Pattern_Small,-3.0,,,,,,,,,,,
encoding,fixation,3,2805002,2806258,2805398.0,2806502.0,1105.0,860.0,1925.7,1067.8,1920.0,1080.0,fixation,38.395613458007574,39.65167658298742,1.0,Animal_Sea_Pattern_Small,-3.0,,,,,,,,,,,
encoding,image,3,2806258,2807270,2806541.0,2807651.0,1111.0,729.0,1612.4,1217.9,1591.0,891.0,Animal_Sea_Pattern_Small,39.65185695805121,40.6633198329946,1.0,Animal_Sea_Pattern_Small,-3.0,,,,,,,,,,,
encoding,value,3,2807270,2813281,2807662.0,2808462.0,801.0,801.0,1605.3,1168.7,1591.0,891.0,Animal_Sea_Pattern_Small,40.66346037504263,46.674766583018936,1.0,Animal_Sea_Pattern_Small,-3.0,,,,,,,,,,,
encoding,value,3,2807270,2813281,2808472.0,2808778.0,307.0,307.0,1614.0,1230.7,1591.0,891.0,Animal_Sea_Pattern_Small,40.66346037504263,46.674766583018936,1.0,Animal_Sea_Pattern_Small,-3.0,,,,,,,,,,,
encoding,value,3,2807270,2813281,2808904.0,2810887.0,1984.0,1984.0,1607.9,1161.2,1591.0,891.0,Animal_Sea_Pattern_Small,40.66346037504263,46.674766583018936,1.0,Animal_Sea_Pattern_Small,-3.0,,,,,,,,,,,
encoding,value,3,2807270,2813281,2810894.0,2812419.0,1526.0,1526.0,1632.4,1241.4,1591.0,891.0,Animal_Sea_Pattern_Small,40.66346037504263,46.674766583018936,1.0,Animal_Sea_Pattern_Small,-3.0,,,,,,,,,,,
encoding,value,3,2807270,2813281,2812430.0,2813627.0,1198.0,851.0,1616.2,1171.5,1591.0,891.0,Animal_Sea_Pattern_Small,40.66346037504263,46.674766583018936,1.0,Animal_Sea_Pattern_Small,-3.0,,,,,,,,,,,
encoding,attention,3,2813282,2816300,2813637.0,2813852.0,216.0,216.0,1575.3,1166.9,1591.0,891.0,Animal_Sea_Pattern_Small,46.67488741700072,49.693111249944195,1.0,Animal_Sea_Pattern_Small,-3.0,-3.0,1.0,0.9995864580851048,,,,,,,,
encoding,attention,3,2813282,2816300,2813986.0,2814593.0,608.0,608.0,1573.8,1137.2,1591.0,891.0,Animal_Sea_Pattern_Small,46.67488741700072,49.693111249944195,1.0,Animal_Sea_Pattern_Small,-3.0,-3.0,1.0,0.9995864580851048,,,,,,,,
encoding,attention,3,2813282,2816300,2814755.0,2815258.0,504.0,504.0,1657.1,1147.0,1591.0,891.0,Animal_Sea_Pattern_Small,46.67488741700072,49.693111249944195,1.0,Animal_Sea_Pattern_Small,-3.0,-3.0,1.0,0.9995864580851048,,,,,,,,
encoding,attention,3,2813282,2816300,2815272.0,2815794.0,523.0,523.0,1591.4,1205.2,1591.0,891.0,Animal_Sea_Pattern_Small,46.67488741700072,49.693111249944195,1.0,Animal_Sea_Pattern_Small,-3.0,-3.0,1.0,0.9995864580851048,,,,,,,,
encoding,fixation,4,2816300,2817557,2816551.0,2817770.0,1220.0,1006.0,1927.5,1094.1,1920.0,1080.0,fixation,49.69326733297203,50.95031466695946,1.0,Object_Land_Pattern_Large,4.0,,,,,,,,,,,
encoding,image,4,2817557,2818570,2817809.0,2818794.0,986.0,761.0,2264.7,1269.6,2249.0,891.0,Object_Land_Pattern_Large,50.95044066698756,51.96287554199807,1.0,Object_Land_Pattern_Large,4.0,,,,,,,,,,,
encoding,value,4,2818570,2824583,2818807.0,2819149.0,343.0,343.0,2248.7,1195.8,2249.0,891.0,Object_Land_Pattern_Large,51.96299174998421,57.975692832958885,1.0,Object_Land_Pattern_Large,4.0,,,,,,,,,,,
encoding,value,4,2818570,2824583,2819339.0,2820884.0,1546.0,1546.0,2247.0,1179.9,2249.0,891.0,Object_Land_Pattern_Large,51.96299174998421,57.975692832958885,1.0,Object_Land_Pattern_Large,4.0,,,,,,,,,,,
encoding,value,4,2818570,2824583,2820896.0,2821256.0,361.0,361.0,2242.4,1238.7,2249.0,891.0,Object_Land_Pattern_Large,51.96299174998421,57.975692832958885,1.0,Object_Land_Pattern_Large,4.0,,,,,,,,,,,
encoding,value,4,2818570,2824583,2821269.0,2821566.0,298.0,298.0,2245.1,1185.6,2249.0,891.0,Object_Land_Pattern_Large,51.96299174998421,57.975692832958885,1.0,Object_Land_Pattern_Large,4.0,,,,,,,,,,,
encoding,value,4,2818570,2824583,2821699.0,2822493.0,795.0,795.0,2235.8,1169.8,2249.0,891.0,Object_Land_Pattern_Large,51.96299174998421,57.975692832958885,1.0,Object_Land_Pattern_Large,4.0,,,,,,,,,,,
encoding,value,4,2818570,2824583,2822508.0,2822833.0,326.0,326.0,2254.5,1249.5,2249.0,891.0,Object_Land_Pattern_Large,51.96299174998421,57.975692832958885,1.0,Object_Land_Pattern_Large,4.0,,,,,,,,,,,
encoding,value,4,2818570,2824583,2822844.0,2823944.0,1101.0,1101.0,2249.2,1189.9,2249.0,891.0,Object_Land_Pattern_Large,51.96299174998421,57.975692832958885,1.0,Object_Land_Pattern_Large,4.0,,,,,,,,,,,
encoding,value,4,2818570,2824583,2824084.0,2824954.0,871.0,499.0,2249.9,1190.5,2249.0,891.0,Object_Land_Pattern_Large,51.96299174998421,57.975692832958885,1.0,Object_Land_Pattern_Large,4.0,,,,,,,,,,,
encoding,attention,4,2824583,2827603,2824962.0,2825912.0,951.0,951.0,2290.8,1181.2,2249.0,891.0,Object_Land_Pattern_Large,57.97581387497485,60.995280332979746,1.0,Object_Land_Pattern_Large,4.0,4.0,1.0,1.0336944590089845,,,,,,,,
encoding,attention,4,2824583,2827603,2826064.0,2827336.0,1273.0,1273.0,2295.8,1192.4,2249.0,891.0,Object_Land_Pattern_Large,57.97581387497485,60.995280332979746,1.0,Object_Land_Pattern_Large,4.0,4.0,1.0,1.0336944590089845,,,,,,,,
encoding,attention,4,2824583,2827603,2827349.0,2827488.0,140.0,140.0,2247.2,1187.4,2249.0,891.0,Object_Land_Pattern_Large,57.97581387497485,60.995280332979746,1.0,Object_Land_Pattern_Large,4.0,4.0,1.0,1.0336944590089845,,,,,,,,
encoding,fixation,5,2827603,2828109,2827859.0,2827942.0,84.0,84.0,2274.3,1087.0,2249.0,891.0,Object_Land_Pattern_Large,60.99549362505786,61.501587542006746,1.0,Animal_Sea_Pattern_Large,-2.0,,,,,,,,,,,
encoding,fixation,5,2827603,2828109,2828109.0,2828233.0,125.0,0.0,2006.1,1058.0,2249.0,1269.0,Animal_Sea_Solid_Small,60.99549362505786,61.501587542006746,1.0,Animal_Sea_Pattern_Large,-2.0,,,,,,,,,,,
encoding,image,5,2828109,2829119,2828109.0,2828233.0,125.0,125.0,2006.1,1058.0,2249.0,1269.0,Animal_Sea_Solid_Small,61.50168762495741,62.51176620798651,1.0,Animal_Sea_Pattern_Large,-2.0,,,,,,,,,,,
encoding,image,5,2828109,2829119,2828340.0,2828437.0,98.0,98.0,1903.7,869.2,1920.0,1460.0,Animal_Sea_Pattern_Large,61.50168762495741,62.51176620798651,1.0,Animal_Sea_Pattern_Large,-2.0,,,,,,,,,,,
encoding,image,5,2828109,2829119,2828461.0,2828628.0,168.0,168.0,1903.5,719.3,1920.0,1460.0,Animal_Sea_Pattern_Large,61.50168762495741,62.51176620798651,1.0,Animal_Sea_Pattern_Large,-2.0,,,,,,,,,,,
encoding,image,5,2828109,2829119,2828778.0,2829383.0,606.0,341.0,1887.4,687.3,1920.0,1460.0,Animal_Sea_Pattern_Large,61.50168762495741,62.51176620798651,1.0,Animal_Sea_Pattern_Large,-2.0,,,,,,,,,,,
encoding,value,5,2829119,2835130,2829396.0,2829718.0,323.0,323.0,1926.4,613.7,1920.0,1460.0,Animal_Sea_Pattern_Large,62.51186720805708,68.522194167017,1.0,Animal_Sea_Pattern_Large,-2.0,,,,,,,,,,,
encoding,value,5,2829119,2835130,2829736.0,2829891.0,156.0,156.0,1909.4,675.3,1920.0,1460.0,Animal_Sea_Pattern_Large,62.51186720805708,68.522194167017,1.0,Animal_Sea_Pattern_Large,-2.0,,,,,,,,,,,
encoding,value,5,2829119,2835130,2830038.0,2830228.0,191.0,191.0,1919.5,687.0999999999999,1920.0,1460.0,Animal_Sea_Pattern_Large,62.51186720805708,68.522194167017,1.0,Animal_Sea_Pattern_Large,-2.0,,,,,,,,,,,
encoding,value,5,2829119,2835130,2830391.0,2830813.0,423.0,423.0,1922.4,671.3,1920.0,1460.0,Animal_Sea_Pattern_Large,62.51186720805708,68.522194167017,1.0,Animal_Sea_Pattern_Large,-2.0,,,,,,,,,,,
encoding,value,5,2829119,2835130,2830822.0,2831215.0,394.0,394.0,1917.8,621.0999999999999,1920.0,1460.0,Animal_Sea_Pattern_Large,62.51186720805708,68.522194167017,1.0,Animal_Sea_Pattern_Large,-2.0,,,,,,,,,,,
encoding,value,5,2829119,2835130,2831233.0,2831624.0,392.0,392.0,1884.3,711.2,1920.0,1460.0,Animal_Sea_Pattern_Large,62.51186720805708,68.522194167017,1.0,Animal_Sea_Pattern_Large,-2.0,,,,,,,,,,,
encoding,value,5,2829119,2835130,2831644.0,2831902.0,259.0,259.0,1904.0,624.5999999999999,1920.0,1460.0,Animal_Sea_Pattern_Large,62.51186720805708,68.522194167017,1.0,Animal_Sea_Pattern_Large,-2.0,,,,,,,,,,,
encoding,value,5,2829119,2835130,2831916.0,2832743.0,828.0,828.0,1904.5,679.8,1920.0,1460.0,Animal_Sea_Pattern_Large,62.51186720805708,68.522194167017,1.0,Animal_Sea_Pattern_Large,-2.0,,,,,,,,,,,
encoding,value,5,2829119,2835130,2832885.0,2833210.0,326.0,326.0,1897.8,658.7,1920.0,1460.0,Animal_Sea_Pattern_Large,62.51186720805708,68.522194167017,1.0,Animal_Sea_Pattern_Large,-2.0,,,,,,,,,,,
encoding,value,5,2829119,2835130,2833220.0,2834023.0,804.0,804.0,1905.7,683.4000000000001,1920.0,1460.0,Animal_Sea_Pattern_Large,62.51186720805708,68.522194167017,1.0,Animal_Sea_Pattern_Large,-2.0,,,,,,,,,,,
encoding,value,5,2829119,2835130,2834035.0,2834695.0,661.0,661.0,1918.3,658.9000000000001,1920.0,1460.0,Animal_Sea_Pattern_Large,62.51186720805708,68.522194167017,1.0,Animal_Sea_Pattern_Large,-2.0,,,,,,,,,,,
encoding,value,5,2829119,2835130,2834703.0,2835677.0,975.0,427.0,1915.7,664.3,1920.0,1460.0,Animal_Sea_Pattern_Large,62.51186720805708,68.522194167017,1.0,Animal_Sea_Pattern_Large,-2.0,,,,,,,,,,,
encoding,attention,5,2835130,2838186,2835691.0,2837470.0,1780.0,1780.0,1862.8,575.0,1920.0,1460.0,Animal_Sea_Pattern_Large,68.52230258297641,71.57799895794597,1.0,Animal_Sea_Pattern_Large,-2.0,-2.0,1.0,1.006499208975583,,,,,,,,
encoding,attention,5,2835130,2838186,2837485.0,2837516.0,32.0,32.0,1927.5,618.9000000000001,1920.0,1460.0,Animal_Sea_Pattern_Large,68.52230258297641,71.57799895794597,1.0,Animal_Sea_Pattern_Large,-2.0,-2.0,1.0,1.006499208975583,,,,,,,,
encoding,attention,5,2835130,2838186,2837679.0,2838139.0,461.0,461.0,1907.5,629.0999999999999,1920.0,1460.0,Animal_Sea_Pattern_Large,68.52230258297641,71.57799895794597,1.0,Animal_Sea_Pattern_Large,-2.0,-2.0,1.0,1.006499208975583,,,,,,,,
encoding,fixation,6,2838186,2839192,2838302.0,2838727.0,426.0,426.0,1906.7,625.4000000000001,1920.0,1460.0,Animal_Sea_Pattern_Large,71.57814608304761,72.58411833294667,1.0,Object_Land_Solid_Small,-8.0,,,,,,,,,,,
encoding,fixation,6,2838186,2839192,2838778.0,2838898.0,121.0,121.0,1879.6,1056.1,1920.0,1080.0,fixation,71.57814608304761,72.58411833294667,1.0,Object_Land_Solid_Small,-8.0,,,,,,,,,,,
encoding,fixation,6,2838186,2839192,2838905.0,2839547.0,643.0,287.0,1919.9,1080.2,1920.0,1080.0,fixation,71.57814608304761,72.58411833294667,1.0,Object_Land_Solid_Small,-8.0,,,,,,,,,,,
encoding,image,6,2839192,2840203,2839596.0,2840300.0,705.0,607.0,1928.2,1400.9,1920.0,700.0,Object_Land_Solid_Small,72.58422437496483,73.59552574995905,1.0,Object_Land_Solid_Small,-8.0,,,,,,,,,,,
encoding,value,6,2840203,2846216,2840312.0,2840629.0,318.0,318.0,1898.5,1447.0,1920.0,700.0,Object_Land_Solid_Small,73.59565029200166,79.60744183300994,1.0,Object_Land_Solid_Small,-8.0,,,,,,,,,,,
encoding,value,6,2840203,2846216,2840643.0,2840962.0,320.0,320.0,1915.8,1391.3,1920.0,700.0,Object_Land_Solid_Small,73.59565029200166,79.60744183300994,1.0,Object_Land_Solid_Small,-8.0,,,,,,,,,,,
encoding,value,6,2840203,2846216,2841093.0,2841745.0,653.0,653.0,1939.1,1384.3,1920.0,700.0,Object_Land_Solid_Small,73.59565029200166,79.60744183300994,1.0,Object_Land_Solid_Small,-8.0,,,,,,,,,,,
encoding,value,6,2840203,2846216,2841764.0,2842231.0,468.0,468.0,1910.4,1480.2,1920.0,700.0,Object_Land_Solid_Small,73.59565029200166,79.60744183300994,1.0,Object_Land_Solid_Small,-8.0,,,,,,,,,,,
encoding,value,6,2840203,2846216,2842250.0,2842717.0,468.0,468.0,1918.8,1399.6,1920.0,700.0,Object_Land_Solid_Small,73.59565029200166,79.60744183300994,1.0,Object_Land_Solid_Small,-8.0,,,,,,,,,,,
encoding,value,6,2840203,2846216,2842850.0,2844095.0,1246.0,1246.0,1926.1,1381.4,1920.0,700.0,Object_Land_Solid_Small,73.59565029200166,79.60744183300994,1.0,Object_Land_Solid_Small,-8.0,,,,,,,,,,,
encoding,value,6,2840203,2846216,2844107.0,2844456.0,350.0,350.0,1930.4,1311.9,1920.0,700.0,Object_Land_Solid_Small,73.59565029200166,79.60744183300994,1.0,Object_Land_Solid_Small,-8.0,,,,,,,,,,,
encoding,value,6,2840203,2846216,2844464.0,2847311.0,2848.0,1752.0,1918.3,1352.1,1920.0,700.0,Object_Land_Solid_Small,73.59565029200166,79.60744183300994,1.0,Object_Land_Solid_Small,-8.0,,,,,,,,,,,
encoding,attention,6,2846216,2849234,2847496.0,2848813.0,1318.0,1318.0,1898.7,1379.8,1920.0,700.0,Object_Land_Solid_Small,79.60762362496462,82.62562812503893,1.0,Object_Land_Solid_Small,-8.0,-8.0,1.0,0.8457066250266507,,,,,,,,
encoding,attention,6,2846216,2849234,2848825.0,2849160.0,336.0,336.0,1964.3,1359.1,1920.0,700.0,Object_Land_Solid_Small,79.60762362496462,82.62562812503893,1.0,Object_Land_Solid_Small,-8.0,-8.0,1.0,0.8457066250266507,,,,,,,,
encoding,fixation,7,3259585,3260842,3259830.0,3260027.0,198.0,198.0,1923.8,1116.2,1920.0,1080.0,fixation,11.836207333020866,13.092692292062566,2.0,Animal_Land_Solid_Large,-1.0,,,,,,,,,,,
encoding,fixation,7,3259585,3260842,3260194.0,3260277.0,84.0,84.0,1910.0,1270.5,1920.0,700.0,Animal_Land_Pattern_Small,11.836207333020866,13.092692292062566,2.0,Animal_Land_Solid_Large,-1.0,,,,,,,,,,,
encoding,fixation,7,3259585,3260842,3260446.0,3260708.0,263.0,263.0,1931.1,1150.9,1920.0,700.0,Animal_Land_Pattern_Small,11.836207333020866,13.092692292062566,2.0,Animal_Land_Solid_Large,-1.0,,,,,,,,,,,
encoding,fixation,7,3259585,3260842,3260725.0,3261037.0,313.0,117.0,1884.4,1102.6,1920.0,1080.0,fixation,11.836207333020866,13.092692292062566,2.0,Animal_Land_Solid_Large,-1.0,,,,,,,,,,,
encoding,image,7,3260842,3261854,3261087.0,3261427.0,341.0,341.0,2242.8,1281.8,2249.0,891.0,Animal_Land_Solid_Large,13.092793249990793,14.105046499986202,2.0,Animal_Land_Solid_Large,-1.0,,,,,,,,,,,
encoding,image,7,3260842,3261854,3261444.0,3262082.0,639.0,410.0,2218.8,1252.2,2249.0,891.0,Animal_Land_Solid_Large,13.092793249990793,14.105046499986202,2.0,Animal_Land_Solid_Large,-1.0,,,,,,,,,,,
encoding,value,7,3261854,3267868,3262093.0,3262619.0,527.0,527.0,2231.5,1211.8,2249.0,891.0,Animal_Land_Solid_Large,14.105176832992584,20.118569958023727,2.0,Animal_Land_Solid_Large,-1.0,,,,,,,,,,,
encoding,value,7,3261854,3267868,3262757.0,3262962.0,206.0,206.0,2267.2,1195.1,2249.0,891.0,Animal_Land_Solid_Large,14.105176832992584,20.118569958023727,2.0,Animal_Land_Solid_Large,-1.0,,,,,,,,,,,
encoding,value,7,3261854,3267868,3262974.0,3263341.0,368.0,368.0,2238.2,1258.9,2249.0,891.0,Animal_Land_Solid_Large,14.105176832992584,20.118569958023727,2.0,Animal_Land_Solid_Large,-1.0,,,,,,,,,,,
encoding,value,7,3261854,3267868,3263357.0,3263975.0,619.0,619.0,2240.0,1193.9,2249.0,891.0,Animal_Land_Solid_Large,14.105176832992584,20.118569958023727,2.0,Animal_Land_Solid_Large,-1.0,,,,,,,,,,,
encoding,value,7,3261854,3267868,3264004.0,3264463.0,460.0,460.0,2242.2,1323.0,2249.0,891.0,Animal_Land_Solid_Large,14.105176832992584,20.118569958023727,2.0,Animal_Land_Solid_Large,-1.0,,,,,,,,,,,
encoding,value,7,3261854,3267868,3264480.0,3264691.0,212.0,212.0,2225.0,1228.6,2249.0,891.0,Animal_Land_Solid_Large,14.105176832992584,20.118569958023727,2.0,Animal_Land_Solid_Large,-1.0,,,,,,,,,,,
encoding,value,7,3261854,3267868,3264698.0,3265050.0,353.0,353.0,2228.1,1201.2,2249.0,891.0,Animal_Land_Solid_Large,14.105176832992584,20.118569958023727,2.0,Animal_Land_Solid_Large,-1.0,,,,,,,,,,,
encoding,value,7,3261854,3267868,3265073.0,3265740.0,668.0,668.0,2232.4,1321.3,2249.0,891.0,Animal_Land_Solid_Large,14.105176832992584,20.118569958023727,2.0,Animal_Land_Solid_Large,-1.0,,,,,,,,,,,
encoding,value,7,3261854,3267868,3265762.0,3266531.0,770.0,770.0,2242.6,1205.3,2249.0,891.0,Animal_Land_Solid_Large,14.105176832992584,20.118569958023727,2.0,Animal_Land_Solid_Large,-1.0,,,,,,,,,,,
encoding,value,7,3261854,3267868,3266541.0,3267843.0,1303.0,1303.0,2252.8,1237.1,2249.0,891.0,Animal_Land_Solid_Large,14.105176832992584,20.118569958023727,2.0,Animal_Land_Solid_Large,-1.0,,,,,,,,,,,
encoding,value,7,3261854,3267868,3267853.0,3268432.0,580.0,15.0,2265.0,1212.8,2249.0,891.0,Animal_Land_Solid_Large,14.105176832992584,20.118569958023727,2.0,Animal_Land_Solid_Large,-1.0,,,,,,,,,,,
encoding,attention,7,3267868,3270889,3268577.0,3269043.0,467.0,467.0,2290.7,1194.8,2249.0,891.0,Animal_Land_Solid_Large,20.11867433297448,23.139095750055276,2.0,Animal_Land_Solid_Large,-1.0,-1.0,1.0,0.9224325419636444,,,,,,,,
encoding,attention,7,3267868,3270889,3269181.0,3270176.0,996.0,996.0,2262.4,1307.5,2249.0,891.0,Animal_Land_Solid_Large,20.11867433297448,23.139095750055276,2.0,Animal_Land_Solid_Large,-1.0,-1.0,1.0,0.9224325419636444,,,,,,,,
encoding,fixation,8,3270889,3272394,3271108.0,3271969.0,862.0,862.0,1941.7,1097.9,1920.0,1080.0,fixation,23.139257333008572,24.644731167005375,2.0,Animal_Land_Pattern_Large,8.0,,,,,,,,,,,
encoding,fixation,8,3270889,3272394,3271977.0,3272256.0,280.0,280.0,1907.0,1093.8,1920.0,1080.0,fixation,23.139257333008572,24.644731167005375,2.0,Animal_Land_Pattern_Large,8.0,,,,,,,,,,,
encoding,image,8,3272394,3273406,3272412.0,3272598.0,187.0,187.0,1957.5,1096.3,1920.0,1080.0,fixation,24.644838917069137,25.6561268750811,2.0,Animal_Land_Pattern_Large,8.0,,,,,,,,,,,
encoding,image,8,3272394,3273406,3272635.0,3273426.0,792.0,771.0,1583.6,1240.9,1591.0,891.0,Animal_Land_Pattern_Large,24.644838917069137,25.6561268750811,2.0,Animal_Land_Pattern_Large,8.0,,,,,,,,,,,
encoding,value,8,3273406,3279420,3273439.0,3273922.0,484.0,484.0,1580.0,1184.6,1591.0,891.0,Animal_Land_Pattern_Large,25.65623654203955,31.669932916993275,2.0,Animal_Land_Pattern_Large,8.0,,,,,,,,,,,
encoding,value,8,3273406,3279420,3274097.0,3274819.0,723.0,723.0,1570.2,1238.0,1591.0,891.0,Animal_Land_Pattern_Large,25.65623654203955,31.669932916993275,2.0,Animal_Land_Pattern_Large,8.0,,,,,,,,,,,
encoding,value,8,3273406,3279420,3274836.0,3277272.0,2437.0,2437.0,1589.1,1192.5,1591.0,891.0,Animal_Land_Pattern_Large,25.65623654203955,31.669932916993275,2.0,Animal_Land_Pattern_Large,8.0,,,,,,,,,,,
encoding,value,8,3273406,3279420,3277282.0,3277833.0,552.0,552.0,1566.3,1274.5,1591.0,891.0,Animal_Land_Pattern_Large,25.65623654203955,31.669932916993275,2.0,Animal_Land_Pattern_Large,8.0,,,,,,,,,,,
encoding,value,8,3273406,3279420,3277848.0,3280789.0,2942.0,1572.0,1565.2,1210.5,1591.0,891.0,Animal_Land_Pattern_Large,25.65623654203955,31.669932916993275,2.0,Animal_Land_Pattern_Large,8.0,,,,,,,,,,,
encoding,attention,8,3279420,3282437,3280960.0,3281333.0,374.0,374.0,1589.9,1249.6,1591.0,891.0,Animal_Land_Pattern_Large,31.670051499968395,34.6871017080266,2.0,Animal_Land_Pattern_Large,8.0,8.0,1.0,1.1109680419322103,,,,,,,,
encoding,attention,8,3279420,3282437,3281481.0,3281834.0,354.0,354.0,1638.8,1188.5,1591.0,891.0,Animal_Land_Pattern_Large,31.670051499968395,34.6871017080266,2.0,Animal_Land_Pattern_Large,8.0,8.0,1.0,1.1109680419322103,,,,,,,,
encoding,attention,8,3279420,3282437,3281846.0,3282076.0,231.0,231.0,1638.5,1171.5,1591.0,891.0,Animal_Land_Pattern_Large,31.670051499968395,34.6871017080266,2.0,Animal_Land_Pattern_Large,8.0,8.0,1.0,1.1109680419322103,,,,,,,,
encoding,fixation,9,3282437,3283945,3282643.0,3282818.0,176.0,176.0,1969.8,1127.1,1920.0,1080.0,fixation,34.68724308302626,36.1951840830734,2.0,Object_Sea_Solid_Large,5.0,,,,,,,,,,,
encoding,fixation,9,3282437,3283945,3282826.0,3283372.0,547.0,547.0,1939.2,1124.3,1920.0,1080.0,fixation,34.68724308302626,36.1951840830734,2.0,Object_Sea_Solid_Large,5.0,,,,,,,,,,,
encoding,fixation,9,3282437,3283945,3283410.0,3283779.0,370.0,370.0,2313.1,1130.6,2249.0,891.0,Animal_Land_Solid_Large,34.68724308302626,36.1951840830734,2.0,Object_Sea_Solid_Large,5.0,,,,,,,,,,,
encoding,fixation,9,3282437,3283945,3283806.0,3284182.0,377.0,139.0,1961.1,1162.9,1920.0,700.0,Animal_Land_Pattern_Small,34.68724308302626,36.1951840830734,2.0,Object_Sea_Solid_Large,5.0,,,,,,,,,,,
encoding,image,9,3283945,3284957,3284231.0,3284503.0,273.0,273.0,1951.2,709.5,1920.0,1460.0,Object_Sea_Solid_Large,36.19528970797546,37.20716362504754,2.0,Object_Sea_Solid_Large,5.0,,,,,,,,,,,
encoding,image,9,3283945,3284957,3284512.0,3285323.0,812.0,445.0,1939.4,662.3,1920.0,1460.0,Object_Sea_Solid_Large,36.19528970797546,37.20716362504754,2.0,Object_Sea_Solid_Large,5.0,,,,,,,,,,,
encoding,value,9,3284957,3290970,3285337.0,3286095.0,759.0,759.0,1931.9,587.2,1920.0,1460.0,Object_Sea_Solid_Large,37.20727816701401,43.219928583013825,2.0,Object_Sea_Solid_Large,5.0,,,,,,,,,,,
encoding,value,9,3284957,3290970,3286110.0,3286928.0,819.0,819.0,1921.7,636.9000000000001,1920.0,1460.0,Object_Sea_Solid_Large,37.20727816701401,43.219928583013825,2.0,Object_Sea_Solid_Large,5.0,,,,,,,,,,,
encoding,value,9,3284957,3290970,3286938.0,3291237.0,4300.0,4032.0,1925.9,575.2,1920.0,1460.0,Object_Sea_Solid_Large,37.20727816701401,43.219928583013825,2.0,Object_Sea_Solid_Large,5.0,,,,,,,,,,,
encoding,attention,9,3290970,3293989,3291247.0,3291677.0,431.0,431.0,1896.7,566.8,1920.0,1460.0,Object_Sea_Solid_Large,43.22008275007829,46.23799412499648,2.0,Object_Sea_Solid_Large,5.0,5.0,1.0,1.1009738340508193,,,,,,,,
encoding,attention,9,3290970,3293989,3291690.0,3292472.0,783.0,783.0,1975.0,565.3,1920.0,1460.0,Object_Sea_Solid_Large,43.22008275007829,46.23799412499648,2.0,Object_Sea_Solid_Large,5.0,5.0,1.0,1.1009738340508193,,,,,,,,
encoding,attention,9,3290970,3293989,3292638.0,3293422.0,785.0,785.0,1907.5,654.4000000000001,1920.0,1460.0,Object_Sea_Solid_Large,43.22008275007829,46.23799412499648,2.0,Object_Sea_Solid_Large,5.0,5.0,1.0,1.1009738340508193,,,,,,,,
encoding,fixation,10,3293989,3294746,3294007.0,3294236.0,230.0,230.0,1987.6,610.0999999999999,1920.0,1460.0,Object_Sea_Solid_Large,46.23815679200925,46.99531129200477,2.0,Object_Sea_Pattern_Small,-8.0,,,,,,,,,,,
encoding,fixation,10,3293989,3294746,3294284.0,3294984.0,701.0,462.0,1929.6,1083.4,1920.0,1080.0,fixation,46.23815679200925,46.99531129200477,2.0,Object_Sea_Pattern_Small,-8.0,,,,,,,,,,,
encoding,image,10,3294746,3295757,3295018.0,3295532.0,515.0,515.0,1618.3,917.7,1591.0,1269.0,Object_Sea_Pattern_Small,46.995428457972594,48.00673533300869,2.0,Object_Sea_Pattern_Small,-8.0,,,,,,,,,,,
encoding,image,10,3294746,3295757,3295543.0,3295807.0,265.0,214.0,1601.9,857.3,1591.0,1269.0,Object_Sea_Pattern_Small,46.995428457972594,48.00673533300869,2.0,Object_Sea_Pattern_Small,-8.0,,,,,,,,,,,
encoding,value,10,3295757,3301769,3295816.0,3296809.0,994.0,994.0,1606.5,794.5999999999999,1591.0,1269.0,Object_Sea_Pattern_Small,48.00690483301878,54.01786024996545,2.0,Object_Sea_Pattern_Small,-8.0,,,,,,,,,,,
encoding,value,10,3295757,3301769,3296824.0,3297015.0,192.0,192.0,1583.5,857.8,1591.0,1269.0,Object_Sea_Pattern_Small,48.00690483301878,54.01786024996545,2.0,Object_Sea_Pattern_Small,-8.0,,,,,,,,,,,
encoding,value,10,3295757,3301769,3297185.0,3298268.0,1084.0,1084.0,1602.9,806.0,1591.0,1269.0,Object_Sea_Pattern_Small,48.00690483301878,54.01786024996545,2.0,Object_Sea_Pattern_Small,-8.0,,,,,,,,,,,
encoding,value,10,3295757,3301769,3298280.0,3299175.0,896.0,896.0,1597.4,851.0999999999999,1591.0,1269.0,Object_Sea_Pattern_Small,48.00690483301878,54.01786024996545,2.0,Object_Sea_Pattern_Small,-8.0,,,,,,,,,,,
encoding,value,10,3295757,3301769,3299188.0,3299805.0,618.0,618.0,1601.8,796.5,1591.0,1269.0,Object_Sea_Pattern_Small,48.00690483301878,54.01786024996545,2.0,Object_Sea_Pattern_Small,-8.0,,,,,,,,,,,
encoding,value,10,3295757,3301769,3299814.0,3300193.0,380.0,380.0,1597.4,835.3,1591.0,1269.0,Object_Sea_Pattern_Small,48.00690483301878,54.01786024996545,2.0,Object_Sea_Pattern_Small,-8.0,,,,,,,,,,,
encoding,value,10,3295757,3301769,3300203.0,3302054.0,1852.0,1566.0,1607.4,792.3,1591.0,1269.0,Object_Sea_Pattern_Small,48.00690483301878,54.01786024996545,2.0,Object_Sea_Pattern_Small,-8.0,,,,,,,,,,,
encoding,attention,10,3301769,3304791,3302061.0,3303032.0,972.0,972.0,1566.4,787.0999999999999,1591.0,1269.0,Object_Sea_Pattern_Small,54.01796766708139,57.03973129205406,2.0,Object_Sea_Pattern_Small,-8.0,-8.0,1.0,1.0058466659393162,,,,,,,,
encoding,attention,10,3301769,3304791,3303254.0,3303994.0,741.0,741.0,1602.8,864.7,1591.0,1269.0,Object_Sea_Pattern_Small,54.01796766708139,57.03973129205406,2.0,Object_Sea_Pattern_Small,-8.0,-8.0,1.0,1.0058466659393162,,,,,,,,
encoding,attention,10,3301769,3304791,3304002.0,3304570.0,569.0,569.0,1585.8,876.4000000000001,1591.0,1269.0,Object_Sea_Pattern_Small,54.01796766708139,57.03973129205406,2.0,Object_Sea_Pattern_Small,-8.0,-8.0,1.0,1.0058466659393162,,,,,,,,
encoding,fixation,11,3304791,3305298,3305014.0,3305388.0,375.0,284.0,1939.1,1049.7,1920.0,1080.0,fixation,57.0398886250332,57.54678762506228,2.0,Object_Sea_Solid_Small,8.0,,,,,,,,,,,
encoding,image,11,3305298,3306308,3305515.0,3305593.0,79.0,79.0,2020.3,1077.9,2249.0,1269.0,Object_Sea_Solid_Small,57.54688354197424,58.55682012496982,2.0,Object_Sea_Solid_Small,8.0,,,,,,,,,,,
encoding,image,11,3305298,3306308,3305621.0,3306108.0,488.0,488.0,2237.0,896.5,2249.0,1269.0,Object_Sea_Solid_Small,57.54688354197424,58.55682012496982,2.0,Object_Sea_Solid_Small,8.0,,,,,,,,,,,
encoding,image,11,3305298,3306308,3306123.0,3306487.0,365.0,185.0,2253.6,801.2,2249.0,1269.0,Object_Sea_Solid_Small,57.54688354197424,58.55682012496982,2.0,Object_Sea_Solid_Small,8.0,,,,,,,,,,,
encoding,value,11,3306308,3312319,3306494.0,3307003.0,510.0,510.0,2259.5,770.3,2249.0,1269.0,Object_Sea_Solid_Small,58.55693941703066,64.56802112504374,2.0,Object_Sea_Solid_Small,8.0,,,,,,,,,,,
encoding,value,11,3306308,3312319,3307180.0,3307376.0,197.0,197.0,2220.6,832.7,2249.0,1269.0,Object_Sea_Solid_Small,58.55693941703066,64.56802112504374,2.0,Object_Sea_Solid_Small,8.0,,,,,,,,,,,
encoding,value,11,3306308,3312319,3307389.0,3307818.0,430.0,430.0,2242.6,873.3,2249.0,1269.0,Object_Sea_Solid_Small,58.55693941703066,64.56802112504374,2.0,Object_Sea_Solid_Small,8.0,,,,,,,,,,,
encoding,value,11,3306308,3312319,3307839.0,3311581.0,3743.0,3743.0,2253.9,752.0999999999999,2249.0,1269.0,Object_Sea_Solid_Small,58.55693941703066,64.56802112504374,2.0,Object_Sea_Solid_Small,8.0,,,,,,,,,,,
encoding,value,11,3306308,3312319,3311747.0,3312595.0,849.0,572.0,2247.6,785.8,2249.0,1269.0,Object_Sea_Solid_Small,58.55693941703066,64.56802112504374,2.0,Object_Sea_Solid_Small,8.0,,,,,,,,,,,
encoding,attention,11,3312320,3315337,3312603.0,3314066.0,1464.0,1464.0,2222.4,761.4000000000001,2249.0,1269.0,Object_Sea_Solid_Small,64.56816408305895,67.58512958302163,2.0,Object_Sea_Solid_Small,8.0,8.0,1.0,0.8258607919560745,,,,,,,,
encoding,attention,11,3312320,3315337,3314087.0,3314975.0,889.0,889.0,2272.4,835.4000000000001,2249.0,1269.0,Object_Sea_Solid_Small,64.56816408305895,67.58512958302163,2.0,Object_Sea_Solid_Small,8.0,8.0,1.0,0.8258607919560745,,,,,,,,
encoding,fixation,12,3315337,3316842,3315998.0,3316537.0,540.0,540.0,2012.2,839.7,1920.0,1460.0,Object_Sea_Solid_Large,67.58527391706593,69.0906011670595,2.0,Animal_Land_Pattern_Small,-1.0,,,,,,,,,,,
encoding,fixation,12,3315337,3316842,3316560.0,3316762.0,203.0,203.0,1920.6,902.5,1920.0,1460.0,Object_Sea_Solid_Large,67.58527391706593,69.0906011670595,2.0,Animal_Land_Pattern_Small,-1.0,,,,,,,,,,,
encoding,fixation,12,3315337,3316842,3316784.0,3317161.0,378.0,58.0,1923.6,1051.2,1920.0,1080.0,fixation,67.58527391706593,69.0906011670595,2.0,Animal_Land_Pattern_Small,-1.0,,,,,,,,,,,
encoding,image,12,3316842,3317854,3317210.0,3317911.0,702.0,644.0,1935.8,1457.0,1920.0,700.0,Animal_Land_Pattern_Small,69.09072891704272,70.10222579201218,2.0,Animal_Land_Pattern_Small,-1.0,,,,,,,,,,,
encoding,value,12,3317854,3323866,3317932.0,3318454.0,523.0,523.0,1917.1,1377.4,1920.0,700.0,Animal_Land_Pattern_Small,70.10233079199679,76.11398954200558,2.0,Animal_Land_Pattern_Small,-1.0,,,,,,,,,,,
encoding,value,12,3317854,3323866,3318603.0,3319176.0,574.0,574.0,1915.2,1430.0,1920.0,700.0,Animal_Land_Pattern_Small,70.10233079199679,76.11398954200558,2.0,Animal_Land_Pattern_Small,-1.0,,,,,,,,,,,
encoding,value,12,3317854,3323866,3319189.0,3323122.0,3934.0,3934.0,1909.5,1390.3,1920.0,700.0,Animal_Land_Pattern_Small,70.10233079199679,76.11398954200558,2.0,Animal_Land_Pattern_Small,-1.0,,,,,,,,,,,
encoding,value,12,3317854,3323866,3323251.0,3324262.0,1012.0,615.0,1928.9,1397.3,1920.0,700.0,Animal_Land_Pattern_Small,70.10233079199679,76.11398954200558,2.0,Animal_Land_Pattern_Small,-1.0,,,,,,,,,,,
encoding,attention,12,3323866,3326885,3324272.0,3325075.0,804.0,804.0,1869.6,1398.8,1920.0,700.0,Animal_Land_Pattern_Small,76.11410862498451,79.1334294170374,2.0,Animal_Land_Pattern_Small,-1.0,-1.0,1.0,0.9732352909632028,,,,,,,,
encoding,attention,12,3323866,3326885,3325246.0,3325488.0,243.0,243.0,1912.6,1345.2,1920.0,700.0,Animal_Land_Pattern_Small,76.11410862498451,79.1334294170374,2.0,Animal_Land_Pattern_Small,-1.0,-1.0,1.0,0.9732352909632028,,,,,,,,
encoding,attention,12,3323866,3326885,3325671.0,3325741.0,71.0,71.0,1930.7,1303.8,1920.0,700.0,Animal_Land_Pattern_Small,76.11410862498451,79.1334294170374,2.0,Animal_Land_Pattern_Small,-1.0,-1.0,1.0,0.9732352909632028,,,,,,,,
encoding,attention,12,3323866,3326885,3325906.0,3326264.0,359.0,359.0,1919.7,1364.0,1920.0,700.0,Animal_Land_Pattern_Small,76.11410862498451,79.1334294170374,2.0,Animal_Land_Pattern_Small,-1.0,-1.0,1.0,0.9732352909632028,,,,,,,,
encoding,fixation,13,3626715,3628221,3627012.0,3627173.0,162.0,162.0,1922.8,1114.9,1920.0,1080.0,fixation,9.51133095799014,11.017215500003658,3.0,Animal_Sea_Pattern_Small,-6.0,,,,,,,,,,,
encoding,fixation,13,3626715,3628221,3627373.0,3627485.0,113.0,113.0,1898.2,1174.4,1920.0,700.0,Object_Sea_Pattern_Large,9.51133095799014,11.017215500003658,3.0,Animal_Sea_Pattern_Small,-6.0,,,,,,,,,,,
encoding,fixation,13,3626715,3628221,3627628.0,3627976.0,349.0,349.0,1944.0,1129.8,1920.0,1080.0,fixation,9.51133095799014,11.017215500003658,3.0,Animal_Sea_Pattern_Small,-6.0,,,,,,,,,,,
encoding,fixation,13,3626715,3628221,3627986.0,3628286.0,301.0,235.0,1901.8,1125.0,1920.0,1080.0,fixation,9.51133095799014,11.017215500003658,3.0,Animal_Sea_Pattern_Small,-6.0,,,,,,,,,,,
encoding,image,13,3628221,3629233,3628328.0,3628408.0,81.0,81.0,1950.4,1322.2,1920.0,700.0,Object_Sea_Pattern_Large,11.017319082980976,12.029652083059773,3.0,Animal_Sea_Pattern_Small,-6.0,,,,,,,,,,,
encoding,image,13,3628221,3629233,3628441.0,3629052.0,612.0,612.0,1616.9,1225.7,1591.0,891.0,Animal_Sea_Pattern_Small,11.017319082980976,12.029652083059773,3.0,Animal_Sea_Pattern_Small,-6.0,,,,,,,,,,,
encoding,image,13,3628221,3629233,3629198.0,3629442.0,245.0,35.0,1618.9,1190.5,1591.0,891.0,Animal_Sea_Pattern_Small,11.017319082980976,12.029652083059773,3.0,Animal_Sea_Pattern_Small,-6.0,,,,,,,,,,,
encoding,value,13,3629233,3635247,3629452.0,3630088.0,637.0,637.0,1609.5,1176.7,1591.0,891.0,Animal_Sea_Pattern_Small,12.02976112498436,18.04326179099735,3.0,Animal_Sea_Pattern_Small,-6.0,,,,,,,,,,,
encoding,value,13,3629233,3635247,3630104.0,3630447.0,344.0,344.0,1603.9,1251.7,1591.0,891.0,Animal_Sea_Pattern_Small,12.02976112498436,18.04326179099735,3.0,Animal_Sea_Pattern_Small,-6.0,,,,,,,,,,,
encoding,value,13,3629233,3635247,3630464.0,3633160.0,2697.0,2697.0,1594.4,1202.0,1591.0,891.0,Animal_Sea_Pattern_Small,12.02976112498436,18.04326179099735,3.0,Animal_Sea_Pattern_Small,-6.0,,,,,,,,,,,
encoding,value,13,3629233,3635247,3633174.0,3633718.0,545.0,545.0,1611.2,1258.4,1591.0,891.0,Animal_Sea_Pattern_Small,12.02976112498436,18.04326179099735,3.0,Animal_Sea_Pattern_Small,-6.0,,,,,,,,,,,
encoding,value,13,3629233,3635247,3633731.0,3634729.0,999.0,999.0,1601.1,1231.4,1591.0,891.0,Animal_Sea_Pattern_Small,12.02976112498436,18.04326179099735,3.0,Animal_Sea_Pattern_Small,-6.0,,,,,,,,,,,
encoding,value,13,3629233,3635247,3634742.0,3636443.0,1702.0,505.0,1612.9,1218.2,1591.0,891.0,Animal_Sea_Pattern_Small,12.02976112498436,18.04326179099735,3.0,Animal_Sea_Pattern_Small,-6.0,,,,,,,,,,,
encoding,attention,13,3635247,3638268,3636602.0,3637393.0,792.0,792.0,1611.4,1246.7,1591.0,891.0,Animal_Sea_Pattern_Small,18.04337495798245,21.06367962504737,3.0,Animal_Sea_Pattern_Small,-6.0,-6.0,1.0,0.9429138749837876,,,,,,,,
encoding,attention,13,3635247,3638268,3637580.0,3637945.0,366.0,366.0,1638.7,1163.8,1591.0,891.0,Animal_Sea_Pattern_Small,18.04337495798245,21.06367962504737,3.0,Animal_Sea_Pattern_Small,-6.0,-6.0,1.0,0.9429138749837876,,,,,,,,
encoding,fixation,14,3638268,3639523,3638541.0,3638729.0,189.0,189.0,1926.1,1113.8,1920.0,1080.0,fixation,21.063883624970913,22.319250000058673,3.0,Object_Sea_Pattern_Large,5.0,,,,,,,,,,,
encoding,fixation,14,3638268,3639523,3638876.0,3639082.0,207.0,207.0,1907.0,1149.6,1920.0,700.0,Object_Sea_Pattern_Large,21.063883624970913,22.319250000058673,3.0,Object_Sea_Pattern_Large,5.0,,,,,,,,,,,
encoding,fixation,14,3638268,3639523,3639122.0,3639351.0,230.0,230.0,1879.7,1321.6,1920.0,700.0,Object_Sea_Pattern_Large,21.063883624970913,22.319250000058673,3.0,Object_Sea_Pattern_Large,5.0,,,,,,,,,,,
encoding,fixation,14,3638268,3639523,3639440.0,3639692.0,253.0,83.0,1913.5,1162.9,1920.0,700.0,Object_Sea_Pattern_Large,21.063883624970913,22.319250000058673,3.0,Object_Sea_Pattern_Large,5.0,,,,,,,,,,,
encoding,image,14,3639523,3640535,3639742.0,3640375.0,634.0,634.0,1928.4,1425.9,1920.0,700.0,Object_Sea_Pattern_Large,22.319361375062726,23.330734207993373,3.0,Object_Sea_Pattern_Large,5.0,,,,,,,,,,,
encoding,image,14,3639523,3640535,3640402.0,3640750.0,349.0,133.0,1923.1,1354.9,1920.0,700.0,Object_Sea_Pattern_Large,22.319361375062726,23.330734207993373,3.0,Object_Sea_Pattern_Large,5.0,,,,,,,,,,,
encoding,value,14,3640535,3646547,3640764.0,3640988.0,225.0,225.0,1935.1,1397.9,1920.0,700.0,Object_Sea_Pattern_Large,23.330855250009336,29.342803708044812,3.0,Object_Sea_Pattern_Large,5.0,,,,,,,,,,,
encoding,value,14,3640535,3646547,3641173.0,3642175.0,1003.0,1003.0,1897.9,1369.9,1920.0,700.0,Object_Sea_Pattern_Large,23.330855250009336,29.342803708044812,3.0,Object_Sea_Pattern_Large,5.0,,,,,,,,,,,
encoding,value,14,3640535,3646547,3642191.0,3644648.0,2458.0,2458.0,1906.7,1379.8,1920.0,700.0,Object_Sea_Pattern_Large,23.330855250009336,29.342803708044812,3.0,Object_Sea_Pattern_Large,5.0,,,,,,,,,,,
encoding,value,14,3640535,3646547,3644658.0,3646822.0,2165.0,1889.0,1911.5,1409.7,1920.0,700.0,Object_Sea_Pattern_Large,23.330855250009336,29.342803708044812,3.0,Object_Sea_Pattern_Large,5.0,,,,,,,,,,,
encoding,attention,14,3646547,3649566,3646830.0,3647494.0,665.0,665.0,1866.3,1415.1,1920.0,700.0,Object_Sea_Pattern_Large,29.3429199999664,32.36145287507679,3.0,Object_Sea_Pattern_Large,5.0,5.0,1.0,0.6999886670382693,,,,,,,,
encoding,attention,14,3646547,3649566,3647656.0,3647823.0,168.0,168.0,1867.8,1349.4,1920.0,700.0,Object_Sea_Pattern_Large,29.3429199999664,32.36145287507679,3.0,Object_Sea_Pattern_Large,5.0,5.0,1.0,0.6999886670382693,,,,,,,,
encoding,attention,14,3646547,3649566,3647966.0,3649196.0,1231.0,1231.0,1871.5,1350.9,1920.0,700.0,Object_Sea_Pattern_Large,29.3429199999664,32.36145287507679,3.0,Object_Sea_Pattern_Large,5.0,5.0,1.0,0.6999886670382693,,,,,,,,
encoding,fixation,15,3649566,3651071,3649806.0,3649978.0,173.0,173.0,1885.5,1188.2,1920.0,700.0,Object_Sea_Pattern_Large,32.3616004580399,33.867118083056994,3.0,Object_Land_Pattern_Small,2.0,,,,,,,,,,,
encoding,fixation,15,3649566,3651071,3649991.0,3651279.0,1289.0,1080.0,1917.4,1115.2,1920.0,1080.0,fixation,32.3616004580399,33.867118083056994,3.0,Object_Land_Pattern_Small,2.0,,,,,,,,,,,
encoding,image,15,3651072,3652083,3651321.0,3651699.0,379.0,379.0,1940.6,675.9000000000001,1920.0,1460.0,Object_Land_Pattern_Small,33.86722324998118,34.87874950002879,3.0,Object_Land_Pattern_Small,2.0,,,,,,,,,,,
encoding,image,15,3651072,3652083,3651713.0,3651992.0,280.0,280.0,1919.9,615.3,1920.0,1460.0,Object_Land_Pattern_Small,33.86722324998118,34.87874950002879,3.0,Object_Land_Pattern_Small,2.0,,,,,,,,,,,
encoding,image,15,3651072,3652083,3651999.0,3652778.0,780.0,84.0,1919.8,565.0999999999999,1920.0,1460.0,Object_Land_Pattern_Small,33.86722324998118,34.87874950002879,3.0,Object_Land_Pattern_Small,2.0,,,,,,,,,,,
encoding,value,15,3652083,3658096,3652993.0,3653811.0,819.0,819.0,1922.0,631.3,1920.0,1460.0,Object_Land_Pattern_Small,34.878872583038174,40.89104949997272,3.0,Object_Land_Pattern_Small,2.0,,,,,,,,,,,
encoding,value,15,3652083,3658096,3653861.0,3654507.0,647.0,647.0,1921.6,1035.0,1920.0,1080.0,fixation,34.878872583038174,40.89104949997272,3.0,Object_Land_Pattern_Small,2.0,,,,,,,,,,,
encoding,value,15,3652083,3658096,3654554.0,3658314.0,3761.0,3542.0,1918.6,553.5999999999999,1920.0,1460.0,Object_Land_Pattern_Small,34.878872583038174,40.89104949997272,3.0,Object_Land_Pattern_Small,2.0,,,,,,,,,,,
encoding,attention,15,3658096,3661116,3658324.0,3659185.0,862.0,862.0,1879.8,544.9000000000001,1920.0,1460.0,Object_Land_Pattern_Small,40.89117354108021,43.91148870799225,3.0,Object_Land_Pattern_Small,2.0,2.0,1.0,0.8153689579339698,,,,,,,,
encoding,attention,15,3658096,3661116,3659346.0,3660050.0,705.0,705.0,1901.2,612.8,1920.0,1460.0,Object_Land_Pattern_Small,40.89117354108021,43.91148870799225,3.0,Object_Land_Pattern_Small,2.0,2.0,1.0,0.8153689579339698,,,,,,,,
encoding,fixation,16,3661117,3661622,3661390.0,3661914.0,525.0,232.0,1909.6,1057.3,1920.0,1080.0,fixation,43.91165033297147,44.417026333045214,3.0,Object_Land_Solid_Large,-6.0,,,,,,,,,,,
encoding,image,16,3661622,3662633,3661940.0,3662230.0,291.0,291.0,1638.2,886.4000000000001,1591.0,1269.0,Object_Land_Solid_Large,44.41713958303444,45.42773662507534,3.0,Object_Land_Solid_Large,-6.0,,,,,,,,,,,
encoding,image,16,3661622,3662633,3662244.0,3662777.0,534.0,389.0,1612.7,822.2,1591.0,1269.0,Object_Land_Solid_Large,44.41713958303444,45.42773662507534,3.0,Object_Land_Solid_Large,-6.0,,,,,,,,,,,
encoding,value,16,3662633,3668644,3662785.0,3663252.0,468.0,468.0,1615.9,784.0,1591.0,1269.0,Object_Land_Solid_Large,45.42785133305006,51.43903108302038,3.0,Object_Land_Solid_Large,-6.0,,,,,,,,,,,
encoding,value,16,3662633,3668644,3663448.0,3664408.0,961.0,961.0,1591.9,816.3,1591.0,1269.0,Object_Land_Solid_Large,45.42785133305006,51.43903108302038,3.0,Object_Land_Solid_Large,-6.0,,,,,,,,,,,
encoding,value,16,3662633,3668644,3664417.0,3665331.0,915.0,915.0,1603.7,782.9000000000001,1591.0,1269.0,Object_Land_Solid_Large,45.42785133305006,51.43903108302038,3.0,Object_Land_Solid_Large,-6.0,,,,,,,,,,,
encoding,value,16,3662633,3668644,3665342.0,3665668.0,327.0,327.0,1585.8,832.0,1591.0,1269.0,Object_Land_Solid_Large,45.42785133305006,51.43903108302038,3.0,Object_Land_Solid_Large,-6.0,,,,,,,,,,,
encoding,value,16,3662633,3668644,3665679.0,3668908.0,3230.0,2965.0,1608.8,772.2,1591.0,1269.0,Object_Land_Solid_Large,45.42785133305006,51.43903108302038,3.0,Object_Land_Solid_Large,-6.0,,,,,,,,,,,
encoding,attention,16,3668644,3671661,3668915.0,3669750.0,836.0,836.0,1559.7,771.7,1591.0,1269.0,Object_Land_Solid_Large,51.43914429098368,54.45591941603925,3.0,Object_Land_Solid_Large,-6.0,-6.0,1.0,0.8536594168981537,,,,,,,,
encoding,attention,16,3668644,3671661,3669994.0,3670127.0,134.0,134.0,1555.9,822.0999999999999,1591.0,1269.0,Object_Land_Solid_Large,51.43914429098368,54.45591941603925,3.0,Object_Land_Solid_Large,-6.0,-6.0,1.0,0.8536594168981537,,,,,,,,
encoding,attention,16,3668644,3671661,3670308.0,3670761.0,454.0,454.0,1566.7,820.5999999999999,1591.0,1269.0,Object_Land_Solid_Large,51.43914429098368,54.45591941603925,3.0,Object_Land_Solid_Large,-6.0,-6.0,1.0,0.8536594168981537,,,,,,,,
encoding,attention,16,3668644,3671661,3670776.0,3671120.0,345.0,345.0,1561.5,858.8,1591.0,1269.0,Object_Land_Solid_Large,51.43914429098368,54.45591941603925,3.0,Object_Land_Solid_Large,-6.0,-6.0,1.0,0.8536594168981537,,,,,,,,
encoding,fixation,17,3671662,3673166,3671864.0,3672760.0,897.0,897.0,1934.2,1063.9,1920.0,1080.0,fixation,54.456066749989986,55.96108062507119,3.0,Animal_Sea_Solid_Large,-4.0,,,,,,,,,,,
encoding,fixation,17,3671662,3673166,3672782.0,3673346.0,565.0,384.0,2111.5,1155.4,2249.0,891.0,Animal_Sea_Solid_Large,54.456066749989986,55.96108062507119,3.0,Animal_Sea_Solid_Large,-4.0,,,,,,,,,,,
encoding,image,17,3673167,3674178,3673371.0,3673707.0,337.0,337.0,2251.6,1274.9,2249.0,891.0,Animal_Sea_Solid_Large,55.96120016602799,56.97257983300369,3.0,Animal_Sea_Solid_Large,-4.0,,,,,,,,,,,
encoding,image,17,3673167,3674178,3673726.0,3674872.0,1147.0,452.0,2241.0,1185.5,2249.0,891.0,Animal_Sea_Solid_Large,55.96120016602799,56.97257983300369,3.0,Animal_Sea_Solid_Large,-4.0,,,,,,,,,,,
encoding,value,17,3674178,3680190,3675046.0,3675575.0,530.0,530.0,2188.2,1154.3,2249.0,891.0,Animal_Sea_Solid_Large,56.97268495801836,62.98472249996848,3.0,Animal_Sea_Solid_Large,-4.0,,,,,,,,,,,
encoding,value,17,3674178,3680190,3675586.0,3676934.0,1349.0,1349.0,2245.2,1185.1,2249.0,891.0,Animal_Sea_Solid_Large,56.97268495801836,62.98472249996848,3.0,Animal_Sea_Solid_Large,-4.0,,,,,,,,,,,
encoding,value,17,3674178,3680190,3676943.0,3677417.0,475.0,475.0,2217.7,1168.3,2249.0,891.0,Animal_Sea_Solid_Large,56.97268495801836,62.98472249996848,3.0,Animal_Sea_Solid_Large,-4.0,,,,,,,,,,,
encoding,value,17,3674178,3680190,3677562.0,3680614.0,3053.0,2628.0,2238.0,1179.1,2249.0,891.0,Animal_Sea_Solid_Large,56.97268495801836,62.98472249996848,3.0,Animal_Sea_Solid_Large,-4.0,,,,,,,,,,,
encoding,attention,17,3680191,3683208,3680628.0,3681486.0,859.0,859.0,2300.4,1171.4,2249.0,891.0,Animal_Sea_Solid_Large,62.98489008296747,66.00202600006014,3.0,Animal_Sea_Solid_Large,-4.0,-4.0,1.0,1.0013512499863282,,,,,,,,
encoding,attention,17,3680191,3683208,3681696.0,3682087.0,392.0,392.0,2252.9,1175.1,2249.0,891.0,Animal_Sea_Solid_Large,62.98489008296747,66.00202600006014,3.0,Animal_Sea_Solid_Large,-4.0,-4.0,1.0,1.0013512499863282,,,,,,,,
encoding,attention,17,3680191,3683208,3682119.0,3682629.0,511.0,511.0,1935.4,1072.1,1920.0,1080.0,fixation,62.98489008296747,66.00202600006014,3.0,Animal_Sea_Solid_Large,-4.0,-4.0,1.0,1.0013512499863282,,,,,,,,
encoding,fixation,18,3683208,3684213,3683402.0,3684410.0,1009.0,811.0,1952.9,1067.3,1920.0,1080.0,fixation,66.00219420797657,67.00725933304057,3.0,Animal_Land_Solid_Small,1.0,,,,,,,,,,,
encoding,image,18,3684213,3685224,3684445.0,3684800.0,356.0,356.0,2272.3,859.4000000000001,2249.0,1269.0,Animal_Land_Solid_Small,67.0073709160788,68.01848812506068,3.0,Animal_Land_Solid_Small,1.0,,,,,,,,,,,
encoding,image,18,3684213,3685224,3684808.0,3685017.0,210.0,210.0,2274.0,819.7,2249.0,1269.0,Animal_Land_Solid_Small,67.0073709160788,68.01848812506068,3.0,Animal_Land_Solid_Small,1.0,,,,,,,,,,,
encoding,image,18,3684213,3685224,3685026.0,3685873.0,848.0,198.0,2264.9,771.0999999999999,2249.0,1269.0,Animal_Land_Solid_Small,67.0073709160788,68.01848812506068,3.0,Animal_Land_Solid_Small,1.0,,,,,,,,,,,
encoding,value,18,3685224,3691237,3686062.0,3687054.0,993.0,993.0,2247.7,786.5999999999999,2249.0,1269.0,Animal_Land_Solid_Small,68.01860354107339,74.03083133301698,3.0,Animal_Land_Solid_Small,1.0,,,,,,,,,,,
encoding,value,18,3685224,3691237,3687089.0,3687307.0,219.0,219.0,1947.1,1016.7,1920.0,1080.0,fixation,68.01860354107339,74.03083133301698,3.0,Animal_Land_Solid_Small,1.0,,,,,,,,,,,
encoding,value,18,3685224,3691237,3687341.0,3691593.0,4253.0,3896.0,2269.8,754.5999999999999,2249.0,1269.0,Animal_Land_Solid_Small,68.01860354107339,74.03083133301698,3.0,Animal_Land_Solid_Small,1.0,,,,,,,,,,,
encoding,attention,18,3691237,3694254,3691604.0,3692289.0,686.0,686.0,2310.4,746.8,2249.0,1269.0,Animal_Land_Solid_Small,74.03094320802484,77.04775500006508,3.0,Animal_Land_Solid_Small,1.0,1.0,1.0,0.795729250065051,,,,,,,,
encoding,attention,18,3691237,3694254,3692462.0,3692957.0,496.0,496.0,2307.1,822.9000000000001,2249.0,1269.0,Animal_Land_Solid_Small,74.03094320802484,77.04775500006508,3.0,Animal_Land_Solid_Small,1.0,1.0,1.0,0.795729250065051,,,,,,,,
encoding,attention,18,3691237,3694254,3692964.0,3693509.0,546.0,546.0,2288.1,817.4000000000001,2249.0,1269.0,Animal_Land_Solid_Small,74.03094320802484,77.04775500006508,3.0,Animal_Land_Solid_Small,1.0,1.0,1.0,0.795729250065051,,,,,,,,
encoding,attention,18,3691237,3694254,3693553.0,3693834.0,282.0,282.0,1949.1,986.8,1920.0,1460.0,Object_Land_Pattern_Small,74.03094320802484,77.04775500006508,3.0,Animal_Land_Solid_Small,1.0,1.0,1.0,0.795729250065051,,,,,,,,
encoding,fixation,19,3976034,3976542,3976265.0,3976396.0,132.0,132.0,1924.3,1066.2,1920.0,1080.0,fixation,9.749126333044842,10.257429040968418,4.0,Animal_Sea_Pattern_Large,7.0,,,,,,,,,,,
encoding,image,19,3976542,3977553,3976584.0,3976788.0,205.0,205.0,1962.8,1083.7,1920.0,1080.0,fixation,10.257547416025773,11.268257583025845,4.0,Animal_Sea_Pattern_Large,7.0,,,,,,,,,,,
encoding,image,19,3976542,3977553,3976834.0,3977015.0,182.0,182.0,1917.8,737.7,1920.0,1460.0,Animal_Sea_Pattern_Large,10.257547416025773,11.268257583025845,4.0,Animal_Sea_Pattern_Large,7.0,,,,,,,,,,,
encoding,image,19,3976542,3977553,3977025.0,3977340.0,316.0,316.0,1922.9,695.4000000000001,1920.0,1460.0,Animal_Sea_Pattern_Large,10.257547416025773,11.268257583025845,4.0,Animal_Sea_Pattern_Large,7.0,,,,,,,,,,,
encoding,image,19,3976542,3977553,3977351.0,3977703.0,353.0,202.0,1919.0,633.5,1920.0,1460.0,Animal_Sea_Pattern_Large,10.257547416025773,11.268257583025845,4.0,Animal_Sea_Pattern_Large,7.0,,,,,,,,,,,
encoding,value,19,3977553,3983566,3977714.0,3978017.0,304.0,304.0,1941.1,591.2,1920.0,1460.0,Animal_Sea_Pattern_Large,11.2683847079752,17.28153699997347,4.0,Animal_Sea_Pattern_Large,7.0,,,,,,,,,,,
encoding,value,19,3977553,3983566,3978175.0,3978454.0,280.0,280.0,1920.7,602.3,1920.0,1460.0,Animal_Sea_Pattern_Large,11.2683847079752,17.28153699997347,4.0,Animal_Sea_Pattern_Large,7.0,,,,,,,,,,,
encoding,value,19,3977553,3983566,3978628.0,3979384.0,757.0,757.0,1912.4,690.2,1920.0,1460.0,Animal_Sea_Pattern_Large,11.2683847079752,17.28153699997347,4.0,Animal_Sea_Pattern_Large,7.0,,,,,,,,,,,
encoding,value,19,3977553,3983566,3979392.0,3979985.0,594.0,594.0,1950.8,671.9000000000001,1920.0,1460.0,Animal_Sea_Pattern_Large,11.2683847079752,17.28153699997347,4.0,Animal_Sea_Pattern_Large,7.0,,,,,,,,,,,
encoding,value,19,3977553,3983566,3980005.0,3980436.0,432.0,432.0,1942.8,557.0,1920.0,1460.0,Animal_Sea_Pattern_Large,11.2683847079752,17.28153699997347,4.0,Animal_Sea_Pattern_Large,7.0,,,,,,,,,,,
encoding,value,19,3977553,3983566,3980458.0,3980838.0,381.0,381.0,1911.1,678.7,1920.0,1460.0,Animal_Sea_Pattern_Large,11.2683847079752,17.28153699997347,4.0,Animal_Sea_Pattern_Large,7.0,,,,,,,,,,,
encoding,value,19,3977553,3983566,3980858.0,3981281.0,424.0,424.0,1940.6,582.0,1920.0,1460.0,Animal_Sea_Pattern_Large,11.2683847079752,17.28153699997347,4.0,Animal_Sea_Pattern_Large,7.0,,,,,,,,,,,
encoding,value,19,3977553,3983566,3981297.0,3981711.0,415.0,415.0,1924.8,671.0999999999999,1920.0,1460.0,Animal_Sea_Pattern_Large,11.2683847079752,17.28153699997347,4.0,Animal_Sea_Pattern_Large,7.0,,,,,,,,,,,
encoding,value,19,3977553,3983566,3981731.0,3982069.0,339.0,339.0,1931.9,564.5,1920.0,1460.0,Animal_Sea_Pattern_Large,11.2683847079752,17.28153699997347,4.0,Animal_Sea_Pattern_Large,7.0,,,,,,,,,,,
encoding,value,19,3977553,3983566,3982080.0,3982442.0,363.0,363.0,1940.2,619.8,1920.0,1460.0,Animal_Sea_Pattern_Large,11.2683847079752,17.28153699997347,4.0,Animal_Sea_Pattern_Large,7.0,,,,,,,,,,,
encoding,value,19,3977553,3983566,3982459.0,3982807.0,349.0,349.0,1912.5,683.5999999999999,1920.0,1460.0,Animal_Sea_Pattern_Large,11.2683847079752,17.28153699997347,4.0,Animal_Sea_Pattern_Large,7.0,,,,,,,,,,,
encoding,value,19,3977553,3983566,3982828.0,3984657.0,1830.0,738.0,1895.6,565.4000000000001,1920.0,1460.0,Animal_Sea_Pattern_Large,11.2683847079752,17.28153699997347,4.0,Animal_Sea_Pattern_Large,7.0,,,,,,,,,,,
encoding,attention,19,3983567,3986584,3984803.0,3985790.0,988.0,988.0,1973.2,585.5,1920.0,1460.0,Animal_Sea_Pattern_Large,17.281647166004404,20.298675665981136,4.0,Animal_Sea_Pattern_Large,7.0,7.0,1.0,0.8313624169677496,,,,,,,,
encoding,attention,19,3983567,3986584,3985803.0,3986097.0,295.0,295.0,1897.0,565.0999999999999,1920.0,1460.0,Animal_Sea_Pattern_Large,17.281647166004404,20.298675665981136,4.0,Animal_Sea_Pattern_Large,7.0,7.0,1.0,0.8313624169677496,,,,,,,,
encoding,fixation,20,3986584,3987339,3986842.0,3987256.0,415.0,415.0,1925.0,1086.3,1920.0,1080.0,fixation,20.29881541605573,21.054494208074175,4.0,Object_Land_Solid_Small,6.0,,,,,,,,,,,
encoding,image,20,3987340,3988351,3987413.0,3987607.0,195.0,195.0,1919.4,1090.7,1920.0,1080.0,fixation,21.054597625043243,22.065758915967308,4.0,Object_Land_Solid_Small,6.0,,,,,,,,,,,
encoding,image,20,3987340,3988351,3987647.0,3987880.0,234.0,234.0,1938.0,1412.9,1920.0,700.0,Object_Land_Solid_Small,21.054597625043243,22.065758915967308,4.0,Object_Land_Solid_Small,6.0,,,,,,,,,,,
encoding,image,20,3987340,3988351,3987901.0,3989241.0,1341.0,450.0,1912.5,1368.3,1920.0,700.0,Object_Land_Solid_Small,21.054597625043243,22.065758915967308,4.0,Object_Land_Solid_Small,6.0,,,,,,,,,,,
encoding,value,20,3988351,3994364,3989262.0,3989534.0,273.0,273.0,1903.8,1490.9,1920.0,700.0,Object_Land_Solid_Small,22.06589325005189,28.07826345798094,4.0,Object_Land_Solid_Small,6.0,,,,,,,,,,,
encoding,value,20,3988351,3994364,3989550.0,3989768.0,219.0,219.0,1910.4,1423.9,1920.0,700.0,Object_Land_Solid_Small,22.06589325005189,28.07826345798094,4.0,Object_Land_Solid_Small,6.0,,,,,,,,,,,
encoding,value,20,3988351,3994364,3989905.0,3990362.0,458.0,458.0,1917.4,1214.2,1920.0,700.0,Object_Land_Solid_Small,22.06589325005189,28.07826345798094,4.0,Object_Land_Solid_Small,6.0,,,,,,,,,,,
encoding,value,20,3988351,3994364,3990383.0,3991147.0,765.0,765.0,1915.0,1092.5,1920.0,1080.0,fixation,22.06589325005189,28.07826345798094,4.0,Object_Land_Solid_Small,6.0,,,,,,,,,,,
encoding,value,20,3988351,3994364,3991164.0,3991586.0,423.0,423.0,1927.5,1210.8,1920.0,700.0,Object_Land_Solid_Small,22.06589325005189,28.07826345798094,4.0,Object_Land_Solid_Small,6.0,,,,,,,,,,,
encoding,value,20,3988351,3994364,3991606.0,3992154.0,549.0,549.0,1916.3,1284.6,1920.0,700.0,Object_Land_Solid_Small,22.06589325005189,28.07826345798094,4.0,Object_Land_Solid_Small,6.0,,,,,,,,,,,
encoding,value,20,3988351,3994364,3992169.0,3995475.0,3307.0,2195.0,1922.8,1405.4,1920.0,700.0,Object_Land_Solid_Small,22.06589325005189,28.07826345798094,4.0,Object_Land_Solid_Small,6.0,,,,,,,,,,,
encoding,attention,20,3994364,3997382,3995645.0,3995770.0,126.0,126.0,1967.7,1377.9,1920.0,700.0,Object_Land_Solid_Small,28.078435458010063,31.096739750006236,4.0,Object_Land_Solid_Small,6.0,6.0,1.0,0.8687261670129374,,,,,,,,
encoding,attention,20,3994364,3997382,3995930.0,3996212.0,283.0,283.0,1926.8,1215.3,1920.0,700.0,Object_Land_Solid_Small,28.078435458010063,31.096739750006236,4.0,Object_Land_Solid_Small,6.0,6.0,1.0,0.8687261670129374,,,,,,,,
encoding,attention,20,3994364,3997382,3996249.0,3996937.0,689.0,689.0,1953.8,1404.9,1920.0,700.0,Object_Land_Solid_Small,28.078435458010063,31.096739750006236,4.0,Object_Land_Solid_Small,6.0,6.0,1.0,0.8687261670129374,,,,,,,,
encoding,fixation,21,3997383,3998639,3997442.0,3998125.0,684.0,684.0,1996.8,940.9000000000001,1920.0,1460.0,Animal_Sea_Pattern_Large,31.09689475002233,32.35302787506953,4.0,Animal_Sea_Solid_Small,-6.0,,,,,,,,,,,
encoding,fixation,21,3997383,3998639,3998145.0,3998384.0,240.0,240.0,1936.0,1043.7,1920.0,1080.0,fixation,31.09689475002233,32.35302787506953,4.0,Animal_Sea_Solid_Small,-6.0,,,,,,,,,,,
encoding,fixation,21,3997383,3998639,3998405.0,3998674.0,270.0,234.0,1967.3,1152.9,2249.0,891.0,Object_Land_Pattern_Large,31.09689475002233,32.35302787506953,4.0,Animal_Sea_Solid_Small,-6.0,,,,,,,,,,,
encoding,image,21,3998639,3999650,3998712.0,3998902.0,191.0,191.0,1948.7,1386.6,1920.0,700.0,Object_Land_Solid_Small,32.35313075000886,33.36445279105101,4.0,Animal_Sea_Solid_Small,-6.0,,,,,,,,,,,
encoding,image,21,3998639,3999650,3998945.0,3999213.0,269.0,269.0,2237.8,917.2,2249.0,1269.0,Animal_Sea_Solid_Small,32.35313075000886,33.36445279105101,4.0,Animal_Sea_Solid_Small,-6.0,,,,,,,,,,,
encoding,image,21,3998639,3999650,3999227.0,3999837.0,611.0,423.0,2258.6,831.7,2249.0,1269.0,Animal_Sea_Solid_Small,32.35313075000886,33.36445279105101,4.0,Animal_Sea_Solid_Small,-6.0,,,,,,,,,,,
encoding,value,21,3999650,4005663,3999853.0,4000329.0,477.0,477.0,2270.3,745.4000000000001,2249.0,1269.0,Animal_Sea_Solid_Small,33.36456895805895,39.37673445802648,4.0,Animal_Sea_Solid_Small,-6.0,,,,,,,,,,,
encoding,value,21,3999650,4005663,4000506.0,4001193.0,688.0,688.0,2253.9,844.5,2249.0,1269.0,Animal_Sea_Solid_Small,33.36456895805895,39.37673445802648,4.0,Animal_Sea_Solid_Small,-6.0,,,,,,,,,,,
encoding,value,21,3999650,4005663,4001208.0,4003167.0,1960.0,1960.0,2259.3,759.8,2249.0,1269.0,Animal_Sea_Solid_Small,33.36456895805895,39.37673445802648,4.0,Animal_Sea_Solid_Small,-6.0,,,,,,,,,,,
encoding,value,21,3999650,4005663,4003180.0,4003614.0,435.0,435.0,2263.7,789.0,2249.0,1269.0,Animal_Sea_Solid_Small,33.36456895805895,39.37673445802648,4.0,Animal_Sea_Solid_Small,-6.0,,,,,,,,,,,
encoding,value,21,3999650,4005663,4003622.0,4005384.0,1763.0,1763.0,2268.2,742.9000000000001,2249.0,1269.0,Animal_Sea_Solid_Small,33.36456895805895,39.37673445802648,4.0,Animal_Sea_Solid_Small,-6.0,,,,,,,,,,,
encoding,value,21,3999650,4005663,4005402.0,4005510.0,109.0,109.0,2255.0,810.3,2249.0,1269.0,Animal_Sea_Solid_Small,33.36456895805895,39.37673445802648,4.0,Animal_Sea_Solid_Small,-6.0,,,,,,,,,,,
encoding,attention,21,4005663,4008680,4005666.0,4005891.0,226.0,226.0,2268.3,829.0,2249.0,1269.0,Animal_Sea_Solid_Small,39.37684095802251,42.39443474996369,4.0,Animal_Sea_Solid_Small,-6.0,-6.0,1.0,0.8332225830527022,,,,,,,,
encoding,attention,21,4005663,4008680,4005900.0,4006075.0,176.0,176.0,2252.4,776.8,2249.0,1269.0,Animal_Sea_Solid_Small,39.37684095802251,42.39443474996369,4.0,Animal_Sea_Solid_Small,-6.0,-6.0,1.0,0.8332225830527022,,,,,,,,
encoding,attention,21,4005663,4008680,4006085.0,4006775.0,691.0,691.0,2306.2,765.0999999999999,2249.0,1269.0,Animal_Sea_Solid_Small,39.37684095802251,42.39443474996369,4.0,Animal_Sea_Solid_Small,-6.0,-6.0,1.0,0.8332225830527022,,,,,,,,
encoding,attention,21,4005663,4008680,4006975.0,4007185.0,211.0,211.0,2142.1,899.2,2249.0,1269.0,Animal_Sea_Solid_Small,39.37684095802251,42.39443474996369,4.0,Animal_Sea_Solid_Small,-6.0,-6.0,1.0,0.8332225830527022,,,,,,,,
encoding,attention,21,4005663,4008680,4007207.0,4007659.0,453.0,453.0,1979.1,855.7,1920.0,1460.0,Animal_Sea_Pattern_Large,39.37684095802251,42.39443474996369,4.0,Animal_Sea_Solid_Small,-6.0,-6.0,1.0,0.8332225830527022,,,,,,,,
encoding,attention,21,4005663,4008680,4007700.0,4008423.0,724.0,724.0,1931.3,1175.3,1920.0,700.0,Object_Land_Solid_Small,39.37684095802251,42.39443474996369,4.0,Animal_Sea_Solid_Small,-6.0,-6.0,1.0,0.8332225830527022,,,,,,,,
encoding,fixation,22,4008681,4009936,4008959.0,4009158.0,200.0,200.0,1936.8,1095.5,1920.0,1080.0,fixation,42.394576249993406,43.64994866598863,4.0,Animal_Sea_Pattern_Small,-2.0,,,,,,,,,,,
encoding,fixation,22,4008681,4009936,4009313.0,4010170.0,858.0,623.0,1921.2,1071.1,1920.0,1080.0,fixation,42.394576249993406,43.64994866598863,4.0,Animal_Sea_Pattern_Small,-2.0,,,,,,,,,,,
encoding,image,22,4009936,4010948,4010199.0,4010554.0,356.0,356.0,1604.4,1237.9,1591.0,891.0,Animal_Sea_Pattern_Small,43.65007270802744,44.66158029099461,4.0,Animal_Sea_Pattern_Small,-2.0,,,,,,,,,,,
encoding,image,22,4009936,4010948,4010564.0,4011477.0,914.0,384.0,1592.6,1197.5,1591.0,891.0,Animal_Sea_Pattern_Small,43.65007270802744,44.66158029099461,4.0,Animal_Sea_Pattern_Small,-2.0,,,,,,,,,,,
encoding,value,22,4010948,4016961,4011641.0,4011778.0,138.0,138.0,1627.1,1187.3,1591.0,891.0,Animal_Sea_Pattern_Small,44.66169904102571,50.67409241606947,4.0,Animal_Sea_Pattern_Small,-2.0,,,,,,,,,,,
encoding,value,22,4010948,4016961,4011816.0,4012234.0,419.0,419.0,1935.8,1096.0,1920.0,1080.0,fixation,44.66169904102571,50.67409241606947,4.0,Animal_Sea_Pattern_Small,-2.0,,,,,,,,,,,
encoding,value,22,4010948,4016961,4012280.0,4012648.0,369.0,369.0,1971.1,1391.1,1920.0,700.0,Object_Land_Solid_Small,44.66169904102571,50.67409241606947,4.0,Animal_Sea_Pattern_Small,-2.0,,,,,,,,,,,
encoding,value,22,4010948,4016961,4012685.0,4014590.0,1906.0,1906.0,1586.2,1212.5,1591.0,891.0,Animal_Sea_Pattern_Small,44.66169904102571,50.67409241606947,4.0,Animal_Sea_Pattern_Small,-2.0,,,,,,,,,,,
encoding,value,22,4010948,4016961,4014605.0,4015010.0,406.0,406.0,1611.5,1279.6,1591.0,891.0,Animal_Sea_Pattern_Small,44.66169904102571,50.67409241606947,4.0,Animal_Sea_Pattern_Small,-2.0,,,,,,,,,,,
encoding,value,22,4010948,4016961,4015022.0,4016128.0,1107.0,1107.0,1597.1,1221.0,1591.0,891.0,Animal_Sea_Pattern_Small,44.66169904102571,50.67409241606947,4.0,Animal_Sea_Pattern_Small,-2.0,,,,,,,,,,,
encoding,value,22,4010948,4016961,4016141.0,4016407.0,267.0,267.0,1674.2,1222.1,1591.0,891.0,Animal_Sea_Pattern_Small,44.66169904102571,50.67409241606947,4.0,Animal_Sea_Pattern_Small,-2.0,,,,,,,,,,,
encoding,value,22,4010948,4016961,4016423.0,4017349.0,927.0,538.0,1583.7,1217.1,1591.0,891.0,Animal_Sea_Pattern_Small,44.66169904102571,50.67409241606947,4.0,Animal_Sea_Pattern_Small,-2.0,,,,,,,,,,,
encoding,attention,22,4016961,4019978,4017358.0,4017885.0,528.0,528.0,1642.6,1207.7,1591.0,891.0,Animal_Sea_Pattern_Small,50.674218375002965,53.69187033304479,4.0,Animal_Sea_Pattern_Small,-2.0,-2.0,1.0,0.6626405419083312,,,,,,,,
encoding,attention,22,4016961,4019978,4018068.0,4018667.0,600.0,600.0,1882.4,1109.2,1920.0,1080.0,fixation,50.674218375002965,53.69187033304479,4.0,Animal_Sea_Pattern_Small,-2.0,-2.0,1.0,0.6626405419083312,,,,,,,,
encoding,attention,22,4016961,4019978,4018707.0,4019455.0,749.0,749.0,1961.1,1346.8,1920.0,700.0,Object_Land_Solid_Small,50.674218375002965,53.69187033304479,4.0,Animal_Sea_Pattern_Small,-2.0,-2.0,1.0,0.6626405419083312,,,,,,,,
encoding,attention,22,4016961,4019978,4019469.0,4019856.0,388.0,388.0,1869.5,1363.5,1920.0,700.0,Object_Land_Solid_Small,50.674218375002965,53.69187033304479,4.0,Animal_Sea_Pattern_Small,-2.0,-2.0,1.0,0.6626405419083312,,,,,,,,
encoding,fixation,23,4019978,4020734,4020265.0,4020587.0,323.0,323.0,1934.1,1090.6,1920.0,1080.0,fixation,53.69201724999584,54.44731583306566,4.0,Object_Land_Solid_Large,-1.0,,,,,,,,,,,
encoding,image,23,4020734,4021744,4020769.0,4020975.0,207.0,207.0,1944.1,1068.5,1920.0,1080.0,fixation,54.44743229099549,55.457310165977105,4.0,Object_Land_Solid_Large,-1.0,,,,,,,,,,,
encoding,image,23,4020734,4021744,4021036.0,4021250.0,215.0,215.0,1633.1,888.5,1591.0,1269.0,Object_Land_Solid_Large,54.44743229099549,55.457310165977105,4.0,Object_Land_Solid_Large,-1.0,,,,,,,,,,,
encoding,image,23,4020734,4021744,4021266.0,4022470.0,1205.0,478.0,1620.1,810.0,1591.0,1269.0,Object_Land_Solid_Large,54.44743229099549,55.457310165977105,4.0,Object_Land_Solid_Large,-1.0,,,,,,,,,,,
encoding,value,23,4021744,4027755,4022643.0,4023105.0,463.0,463.0,1848.5,963.7,1591.0,1269.0,Object_Land_Solid_Large,55.457411790965125,61.46837058302481,4.0,Object_Land_Solid_Large,-1.0,,,,,,,,,,,
encoding,value,23,4021744,4027755,4023133.0,4023637.0,505.0,505.0,1611.4,831.9000000000001,1591.0,1269.0,Object_Land_Solid_Large,55.457411790965125,61.46837058302481,4.0,Object_Land_Solid_Large,-1.0,,,,,,,,,,,
encoding,value,23,4021744,4027755,4023651.0,4023890.0,240.0,240.0,1632.4,878.5,1591.0,1269.0,Object_Land_Solid_Large,55.457411790965125,61.46837058302481,4.0,Object_Land_Solid_Large,-1.0,,,,,,,,,,,
encoding,value,23,4021744,4027755,4023906.0,4024352.0,447.0,447.0,1626.0,782.5,1591.0,1269.0,Object_Land_Solid_Large,55.457411790965125,61.46837058302481,4.0,Object_Land_Solid_Large,-1.0,,,,,,,,,,,
encoding,value,23,4021744,4027755,4024555.0,4024918.0,364.0,364.0,1591.9,831.0,1591.0,1269.0,Object_Land_Solid_Large,55.457411790965125,61.46837058302481,4.0,Object_Land_Solid_Large,-1.0,,,,,,,,,,,
encoding,value,23,4021744,4027755,4024939.0,4025282.0,344.0,344.0,1613.8,914.2,1591.0,1269.0,Object_Land_Solid_Large,55.457411790965125,61.46837058302481,4.0,Object_Land_Solid_Large,-1.0,,,,,,,,,,,
encoding,value,23,4021744,4027755,4025297.0,4025525.0,229.0,229.0,1600.4,814.0,1591.0,1269.0,Object_Land_Solid_Large,55.457411790965125,61.46837058302481,4.0,Object_Land_Solid_Large,-1.0,,,,,,,,,,,
encoding,value,23,4021744,4027755,4025541.0,4025758.0,218.0,218.0,1619.0,875.8,1591.0,1269.0,Object_Land_Solid_Large,55.457411790965125,61.46837058302481,4.0,Object_Land_Solid_Large,-1.0,,,,,,,,,,,
encoding,value,23,4021744,4027755,4025779.0,4026402.0,624.0,624.0,1614.6,775.0,1591.0,1269.0,Object_Land_Solid_Large,55.457411790965125,61.46837058302481,4.0,Object_Land_Solid_Large,-1.0,,,,,,,,,,,
encoding,value,23,4021744,4027755,4026426.0,4026735.0,310.0,310.0,1628.8,864.2,1591.0,1269.0,Object_Land_Solid_Large,55.457411790965125,61.46837058302481,4.0,Object_Land_Solid_Large,-1.0,,,,,,,,,,,
encoding,value,23,4021744,4027755,4026749.0,4027599.0,851.0,851.0,1621.2,783.3,1591.0,1269.0,Object_Land_Solid_Large,55.457411790965125,61.46837058302481,4.0,Object_Land_Solid_Large,-1.0,,,,,,,,,,,
encoding,value,23,4021744,4027755,4027615.0,4027952.0,338.0,140.0,1612.9,850.0999999999999,1591.0,1269.0,Object_Land_Solid_Large,55.457411790965125,61.46837058302481,4.0,Object_Land_Solid_Large,-1.0,,,,,,,,,,,
encoding,attention,23,4027755,4030772,4027965.0,4028803.0,839.0,839.0,1582.0,796.0,1591.0,1269.0,Object_Land_Solid_Large,61.46851179096848,64.48470525001176,4.0,Object_Land_Solid_Large,-1.0,-1.0,1.0,0.8080755829578266,,,,,,,,
encoding,attention,23,4027755,4030772,4029009.0,4029690.0,682.0,682.0,1625.1,830.9000000000001,1591.0,1269.0,Object_Land_Solid_Large,61.46851179096848,64.48470525001176,4.0,Object_Land_Solid_Large,-1.0,-1.0,1.0,0.8080755829578266,,,,,,,,
encoding,attention,23,4027755,4030772,4029716.0,4030500.0,785.0,785.0,1908.5,955.5,1920.0,1460.0,Animal_Sea_Pattern_Large,61.46851179096848,64.48470525001176,4.0,Object_Land_Solid_Large,-1.0,-1.0,1.0,0.8080755829578266,,,,,,,,
encoding,fixation,24,4030772,4031527,4030891.0,4031056.0,166.0,166.0,1633.0,864.4000000000001,1591.0,1269.0,Object_Land_Solid_Large,64.48489991598763,65.24019937496632,4.0,Object_Land_Pattern_Large,-3.0,,,,,,,,,,,
encoding,fixation,24,4030772,4031527,4031097.0,4031710.0,614.0,430.0,1937.5,1077.7,1920.0,1080.0,fixation,64.48489991598763,65.24019937496632,4.0,Object_Land_Pattern_Large,-3.0,,,,,,,,,,,
encoding,image,24,4031527,4032539,4031748.0,4032093.0,346.0,346.0,2232.7,1261.0,2249.0,891.0,Object_Land_Pattern_Large,65.24032520805486,66.25222829100676,4.0,Object_Land_Pattern_Large,-3.0,,,,,,,,,,,
encoding,image,24,4031527,4032539,4032111.0,4032617.0,507.0,428.0,2206.2,1158.3,2249.0,891.0,Object_Land_Pattern_Large,65.24032520805486,66.25222829100676,4.0,Object_Land_Pattern_Large,-3.0,,,,,,,,,,,
encoding,value,24,4032539,4038552,4032626.0,4033186.0,561.0,561.0,2243.3,1165.7,2249.0,891.0,Object_Land_Pattern_Large,66.25234416604508,72.26428262505215,4.0,Object_Land_Pattern_Large,-3.0,,,,,,,,,,,
encoding,value,24,4032539,4038552,4033356.0,4033528.0,173.0,173.0,2173.7,1147.7,2249.0,891.0,Object_Land_Pattern_Large,66.25234416604508,72.26428262505215,4.0,Object_Land_Pattern_Large,-3.0,,,,,,,,,,,
encoding,value,24,4032539,4038552,4033537.0,4033604.0,68.0,68.0,2242.8,1148.8,2249.0,891.0,Object_Land_Pattern_Large,66.25234416604508,72.26428262505215,4.0,Object_Land_Pattern_Large,-3.0,,,,,,,,,,,
encoding,value,24,4032539,4038552,4033768.0,4034269.0,502.0,502.0,2246.8,1174.7,2249.0,891.0,Object_Land_Pattern_Large,66.25234416604508,72.26428262505215,4.0,Object_Land_Pattern_Large,-3.0,,,,,,,,,,,
encoding,value,24,4032539,4038552,4034408.0,4039639.0,5232.0,4144.0,2243.0,1191.0,2249.0,891.0,Object_Land_Pattern_Large,66.25234416604508,72.26428262505215,4.0,Object_Land_Pattern_Large,-3.0,,,,,,,,,,,
encoding,attention,24,4038552,4041570,4039802.0,4040839.0,1038.0,1038.0,2232.3,1225.1,2249.0,891.0,Object_Land_Pattern_Large,72.26442337501794,75.28290483297314,4.0,Object_Land_Pattern_Large,-3.0,-3.0,1.0,0.8269711249740794,,,,,,,,
encoding,attention,24,4038552,4041570,4040877.0,4041481.0,605.0,605.0,1956.4,1065.7,1920.0,1080.0,fixation,72.26442337501794,75.28290483297314,4.0,Object_Land_Pattern_Large,-3.0,-3.0,1.0,0.8269711249740794,,,,,,,,
encoding,fixation,25,4350292,4351798,4350519.0,4350724.0,206.0,206.0,1904.6,1121.9,1920.0,1080.0,fixation,8.269952750066295,9.775965417036788,5.0,Object_Sea_Pattern_Small,3.0,,,,,,,,,,,
encoding,fixation,25,4350292,4351798,4350933.0,4351095.0,163.0,163.0,1928.5,1144.9,1920.0,1080.0,fixation,8.269952750066295,9.775965417036788,5.0,Object_Sea_Pattern_Small,3.0,,,,,,,,,,,
encoding,fixation,25,4350292,4351798,4351251.0,4351530.0,280.0,280.0,1917.9,1156.4,1920.0,700.0,Animal_Land_Pattern_Small,8.269952750066295,9.775965417036788,5.0,Object_Sea_Pattern_Small,3.0,,,,,,,,,,,
encoding,fixation,25,4350292,4351798,4351553.0,4351785.0,233.0,233.0,2036.6,1290.8,1920.0,700.0,Animal_Land_Pattern_Small,8.269952750066295,9.775965417036788,5.0,Object_Sea_Pattern_Small,3.0,,,,,,,,,,,
encoding,image,25,4351798,4352810,4351814.0,4352011.0,198.0,198.0,1909.2,1096.1,1920.0,1080.0,fixation,9.77607591706328,10.787657834007405,5.0,Object_Sea_Pattern_Small,3.0,,,,,,,,,,,
encoding,image,25,4351798,4352810,4352040.0,4352211.0,172.0,172.0,1666.6,933.5999999999999,1591.0,1269.0,Object_Sea_Pattern_Small,9.77607591706328,10.787657834007405,5.0,Object_Sea_Pattern_Small,3.0,,,,,,,,,,,
encoding,image,25,4351798,4352810,4352228.0,4352433.0,206.0,206.0,1629.8,919.7,1591.0,1269.0,Object_Sea_Pattern_Small,9.77607591706328,10.787657834007405,5.0,Object_Sea_Pattern_Small,3.0,,,,,,,,,,,
encoding,image,25,4351798,4352810,4352441.0,4352876.0,436.0,369.0,1606.0,891.0,1591.0,1269.0,Object_Sea_Pattern_Small,9.77607591706328,10.787657834007405,5.0,Object_Sea_Pattern_Small,3.0,,,,,,,,,,,
encoding,value,25,4352810,4358825,4352888.0,4353332.0,445.0,445.0,1632.3,812.2,1591.0,1269.0,Object_Sea_Pattern_Small,10.787775375065394,16.802460875012912,5.0,Object_Sea_Pattern_Small,3.0,,,,,,,,,,,
encoding,value,25,4352810,4358825,4353566.0,4354560.0,995.0,995.0,1611.2,814.9000000000001,1591.0,1269.0,Object_Sea_Pattern_Small,10.787775375065394,16.802460875012912,5.0,Object_Sea_Pattern_Small,3.0,,,,,,,,,,,
encoding,value,25,4352810,4358825,4354578.0,4354907.0,330.0,330.0,1593.1,896.4000000000001,1591.0,1269.0,Object_Sea_Pattern_Small,10.787775375065394,16.802460875012912,5.0,Object_Sea_Pattern_Small,3.0,,,,,,,,,,,
encoding,value,25,4352810,4358825,4354926.0,4355470.0,545.0,545.0,1618.7,798.2,1591.0,1269.0,Object_Sea_Pattern_Small,10.787775375065394,16.802460875012912,5.0,Object_Sea_Pattern_Small,3.0,,,,,,,,,,,
encoding,value,25,4352810,4358825,4355489.0,4356182.0,694.0,694.0,1613.5,876.4000000000001,1591.0,1269.0,Object_Sea_Pattern_Small,10.787775375065394,16.802460875012912,5.0,Object_Sea_Pattern_Small,3.0,,,,,,,,,,,
encoding,value,25,4352810,4358825,4356195.0,4358379.0,2185.0,2185.0,1616.2,794.9000000000001,1591.0,1269.0,Object_Sea_Pattern_Small,10.787775375065394,16.802460875012912,5.0,Object_Sea_Pattern_Small,3.0,,,,,,,,,,,
encoding,value,25,4352810,4358825,4358540.0,4359773.0,1234.0,285.0,1599.7,807.0,1591.0,1269.0,Object_Sea_Pattern_Small,10.787775375065394,16.802460875012912,5.0,Object_Sea_Pattern_Small,3.0,,,,,,,,,,,
encoding,attention,25,4358825,4361843,4359935.0,4360947.0,1013.0,1013.0,1617.6,894.0999999999999,1591.0,1269.0,Object_Sea_Pattern_Small,16.80258408410009,19.820203917101026,5.0,Object_Sea_Pattern_Small,3.0,3.0,1.0,0.6611583749763668,,,,,,,,
encoding,attention,25,4358825,4361843,4361130.0,4361584.0,455.0,455.0,1637.8,809.7,1591.0,1269.0,Object_Sea_Pattern_Small,16.80258408410009,19.820203917101026,5.0,Object_Sea_Pattern_Small,3.0,3.0,1.0,0.6611583749763668,,,,,,,,
encoding,fixation,26,4361843,4363348,4362052.0,4362748.0,697.0,697.0,1923.9,1077.4,1920.0,1080.0,fixation,19.8203528750455,21.325528375105932,5.0,Animal_Land_Pattern_Small,1.0,,,,,,,,,,,
encoding,fixation,26,4361843,4363348,4362784.0,4363553.0,770.0,564.0,1894.5,1248.6,1920.0,700.0,Animal_Land_Pattern_Small,19.8203528750455,21.325528375105932,5.0,Animal_Land_Pattern_Small,1.0,,,,,,,,,,,
encoding,image,26,4363348,4364359,4363577.0,4364326.0,750.0,750.0,1916.8,1439.4,1920.0,700.0,Animal_Land_Pattern_Small,21.325630375067703,22.336345792049546,5.0,Animal_Land_Pattern_Small,1.0,,,,,,,,,,,
encoding,image,26,4363348,4364359,4364339.0,4365174.0,836.0,20.0,1904.1,1381.1,1920.0,700.0,Animal_Land_Pattern_Small,21.325630375067703,22.336345792049546,5.0,Animal_Land_Pattern_Small,1.0,,,,,,,,,,,
encoding,value,26,4364359,4370371,4365305.0,4365809.0,505.0,505.0,1928.2,1346.5,1920.0,700.0,Animal_Land_Pattern_Small,22.336461917031556,28.3481965000974,5.0,Animal_Land_Pattern_Small,1.0,,,,,,,,,,,
encoding,value,26,4364359,4370371,4365829.0,4366207.0,379.0,379.0,1909.0,1436.3,1920.0,700.0,Animal_Land_Pattern_Small,22.336461917031556,28.3481965000974,5.0,Animal_Land_Pattern_Small,1.0,,,,,,,,,,,
encoding,value,26,4364359,4370371,4366359.0,4366598.0,240.0,240.0,1927.0,1411.0,1920.0,700.0,Animal_Land_Pattern_Small,22.336461917031556,28.3481965000974,5.0,Animal_Land_Pattern_Small,1.0,,,,,,,,,,,
encoding,value,26,4364359,4370371,4366605.0,4370651.0,4047.0,3766.0,1930.8,1388.4,1920.0,700.0,Animal_Land_Pattern_Small,22.336461917031556,28.3481965000974,5.0,Animal_Land_Pattern_Small,1.0,,,,,,,,,,,
encoding,attention,26,4370371,4373389,4370659.0,4370889.0,231.0,231.0,1880.7,1401.9,1920.0,700.0,Animal_Land_Pattern_Small,28.34836158400867,31.365963999996893,5.0,Animal_Land_Pattern_Small,1.0,1.0,1.0,0.6832489590160549,,,,,,,,
encoding,attention,26,4370371,4373389,4371043.0,4371314.0,272.0,272.0,1870.3,1355.6,1920.0,700.0,Animal_Land_Pattern_Small,28.34836158400867,31.365963999996893,5.0,Animal_Land_Pattern_Small,1.0,1.0,1.0,0.6832489590160549,,,,,,,,
encoding,attention,26,4370371,4373389,4371495.0,4371695.0,201.0,201.0,1901.0,1340.9,1920.0,700.0,Animal_Land_Pattern_Small,28.34836158400867,31.365963999996893,5.0,Animal_Land_Pattern_Small,1.0,1.0,1.0,0.6832489590160549,,,,,,,,
encoding,attention,26,4370371,4373389,4371702.0,4371927.0,226.0,226.0,1889.0,1385.4,1920.0,700.0,Animal_Land_Pattern_Small,28.34836158400867,31.365963999996893,5.0,Animal_Land_Pattern_Small,1.0,1.0,1.0,0.6832489590160549,,,,,,,,
encoding,attention,26,4370371,4373389,4371940.0,4372173.0,234.0,234.0,1918.1,1457.8,1920.0,700.0,Animal_Land_Pattern_Small,28.34836158400867,31.365963999996893,5.0,Animal_Land_Pattern_Small,1.0,1.0,1.0,0.6832489590160549,,,,,,,,
encoding,attention,26,4370371,4373389,4372329.0,4372390.0,62.0,62.0,1922.1,1334.8,1920.0,700.0,Animal_Land_Pattern_Small,28.34836158400867,31.365963999996893,5.0,Animal_Land_Pattern_Small,1.0,1.0,1.0,0.6832489590160549,,,,,,,,
encoding,attention,26,4370371,4373389,4372557.0,4372636.0,80.0,80.0,1930.0,1316.4,1920.0,700.0,Animal_Land_Pattern_Small,28.34836158400867,31.365963999996893,5.0,Animal_Land_Pattern_Small,1.0,1.0,1.0,0.6832489590160549,,,,,,,,
encoding,fixation,27,4373389,4374895,4373654.0,4373763.0,110.0,110.0,1906.5,1114.5,1920.0,1080.0,fixation,31.36610450001899,32.8719179170439,5.0,Object_Sea_Solid_Small,-9.0,,,,,,,,,,,
encoding,fixation,27,4373389,4374895,4373955.0,4374153.0,199.0,199.0,1915.2,1083.0,1920.0,1080.0,fixation,31.36610450001899,32.8719179170439,5.0,Object_Sea_Solid_Small,-9.0,,,,,,,,,,,
encoding,fixation,27,4373389,4374895,4374159.0,4375093.0,935.0,736.0,1932.0,1086.7,1920.0,1080.0,fixation,31.36610450001899,32.8719179170439,5.0,Object_Sea_Solid_Small,-9.0,,,,,,,,,,,
encoding,image,27,4374895,4375905,4375128.0,4375423.0,296.0,296.0,2247.4,884.4000000000001,2249.0,1269.0,Object_Sea_Solid_Small,32.872034250060096,33.882278667064384,5.0,Object_Sea_Solid_Small,-9.0,,,,,,,,,,,
encoding,image,27,4374895,4375905,4375582.0,4376480.0,899.0,323.0,2262.8,811.0999999999999,2249.0,1269.0,Object_Sea_Solid_Small,32.872034250060096,33.882278667064384,5.0,Object_Sea_Solid_Small,-9.0,,,,,,,,,,,
encoding,value,27,4375905,4381917,4376497.0,4377488.0,992.0,992.0,2263.4,862.8,2249.0,1269.0,Object_Sea_Solid_Small,33.88239783409517,39.89384441706352,5.0,Object_Sea_Solid_Small,-9.0,,,,,,,,,,,
encoding,value,27,4375905,4381917,4377506.0,4378056.0,551.0,551.0,2250.9,763.0,2249.0,1269.0,Object_Sea_Solid_Small,33.88239783409517,39.89384441706352,5.0,Object_Sea_Solid_Small,-9.0,,,,,,,,,,,
encoding,value,27,4375905,4381917,4378070.0,4378287.0,218.0,218.0,2261.7,834.3,2249.0,1269.0,Object_Sea_Solid_Small,33.88239783409517,39.89384441706352,5.0,Object_Sea_Solid_Small,-9.0,,,,,,,,,,,
encoding,value,27,4375905,4381917,4378298.0,4378720.0,423.0,423.0,2252.2,771.8,2249.0,1269.0,Object_Sea_Solid_Small,33.88239783409517,39.89384441706352,5.0,Object_Sea_Solid_Small,-9.0,,,,,,,,,,,
encoding,value,27,4375905,4381917,4378905.0,4379250.0,346.0,346.0,2271.7,857.0999999999999,2249.0,1269.0,Object_Sea_Solid_Small,33.88239783409517,39.89384441706352,5.0,Object_Sea_Solid_Small,-9.0,,,,,,,,,,,
encoding,value,27,4375905,4381917,4379263.0,4382248.0,2986.0,2654.0,2262.4,765.8,2249.0,1269.0,Object_Sea_Solid_Small,33.88239783409517,39.89384441706352,5.0,Object_Sea_Solid_Small,-9.0,,,,,,,,,,,
encoding,attention,27,4381917,4384936,4382257.0,4383015.0,759.0,759.0,2224.8,748.5,2249.0,1269.0,Object_Sea_Solid_Small,39.893958917004056,42.91258575010579,5.0,Object_Sea_Solid_Small,-9.0,-9.0,1.0,0.8897960830945522,,,,,,,,
encoding,attention,27,4381917,4384936,4383181.0,4383297.0,117.0,117.0,2264.9,849.0,2249.0,1269.0,Object_Sea_Solid_Small,39.893958917004056,42.91258575010579,5.0,Object_Sea_Solid_Small,-9.0,-9.0,1.0,0.8897960830945522,,,,,,,,
encoding,attention,27,4381917,4384936,4383442.0,4383744.0,303.0,303.0,2263.9,867.0,2249.0,1269.0,Object_Sea_Solid_Small,39.893958917004056,42.91258575010579,5.0,Object_Sea_Solid_Small,-9.0,-9.0,1.0,0.8897960830945522,,,,,,,,
encoding,attention,27,4381917,4384936,4383909.0,4384236.0,328.0,328.0,2255.4,841.0,2249.0,1269.0,Object_Sea_Solid_Small,39.893958917004056,42.91258575010579,5.0,Object_Sea_Solid_Small,-9.0,-9.0,1.0,0.8897960830945522,,,,,,,,
encoding,attention,27,4381917,4384936,4384245.0,4384338.0,94.0,94.0,2212.9,798.9000000000001,2249.0,1269.0,Object_Sea_Solid_Small,39.893958917004056,42.91258575010579,5.0,Object_Sea_Solid_Small,-9.0,-9.0,1.0,0.8897960830945522,,,,,,,,
encoding,attention,27,4381917,4384936,4384487.0,4384678.0,192.0,192.0,2216.9,868.2,2249.0,1269.0,Object_Sea_Solid_Small,39.893958917004056,42.91258575010579,5.0,Object_Sea_Solid_Small,-9.0,-9.0,1.0,0.8897960830945522,,,,,,,,
encoding,fixation,28,4384936,4385943,4385184.0,4386014.0,831.0,759.0,1931.9,1066.6,1920.0,1080.0,fixation,42.91277941700537,43.91891275008675,5.0,Object_Sea_Solid_Large,5.0,,,,,,,,,,,
encoding,image,28,4385943,4386954,4386148.0,4386264.0,117.0,117.0,1924.0,1019.4000000000001,1920.0,1080.0,fixation,43.919079125043936,44.930808667093515,5.0,Object_Sea_Solid_Large,5.0,,,,,,,,,,,
encoding,image,28,4385943,4386954,4386297.0,4386604.0,308.0,308.0,1919.0,702.5999999999999,1920.0,1460.0,Object_Sea_Solid_Large,43.919079125043936,44.930808667093515,5.0,Object_Sea_Solid_Large,5.0,,,,,,,,,,,
encoding,image,28,4385943,4386954,4386617.0,4387545.0,929.0,337.0,1925.1,606.8,1920.0,1460.0,Object_Sea_Solid_Large,43.919079125043936,44.930808667093515,5.0,Object_Sea_Solid_Large,5.0,,,,,,,,,,,
encoding,value,28,4386954,4392967,4387561.0,4388651.0,1091.0,1091.0,1932.9,647.7,1920.0,1460.0,Object_Sea_Solid_Large,44.93091216706671,50.9430623750668,5.0,Object_Sea_Solid_Large,5.0,,,,,,,,,,,
encoding,value,28,4386954,4392967,4388666.0,4389579.0,914.0,914.0,1928.3,576.4000000000001,1920.0,1460.0,Object_Sea_Solid_Large,44.93091216706671,50.9430623750668,5.0,Object_Sea_Solid_Large,5.0,,,,,,,,,,,
encoding,value,28,4386954,4392967,4389595.0,4390032.0,438.0,438.0,1915.9,638.5999999999999,1920.0,1460.0,Object_Sea_Solid_Large,44.93091216706671,50.9430623750668,5.0,Object_Sea_Solid_Large,5.0,,,,,,,,,,,
encoding,value,28,4386954,4392967,4390044.0,4390459.0,416.0,416.0,1915.4,580.7,1920.0,1460.0,Object_Sea_Solid_Large,44.93091216706671,50.9430623750668,5.0,Object_Sea_Solid_Large,5.0,,,,,,,,,,,
encoding,value,28,4386954,4392967,4390472.0,4391096.0,625.0,625.0,1937.0,643.0,1920.0,1460.0,Object_Sea_Solid_Large,44.93091216706671,50.9430623750668,5.0,Object_Sea_Solid_Large,5.0,,,,,,,,,,,
encoding,value,28,4386954,4392967,4391106.0,4392083.0,978.0,978.0,1924.9,592.8,1920.0,1460.0,Object_Sea_Solid_Large,44.93091216706671,50.9430623750668,5.0,Object_Sea_Solid_Large,5.0,,,,,,,,,,,
encoding,value,28,4386954,4392967,4392096.0,4393157.0,1062.0,871.0,1933.6,635.8,1920.0,1460.0,Object_Sea_Solid_Large,44.93091216706671,50.9430623750668,5.0,Object_Sea_Solid_Large,5.0,,,,,,,,,,,
encoding,attention,28,4392967,4395985,4393170.0,4394003.0,834.0,834.0,1894.1,571.3,1920.0,1460.0,Object_Sea_Solid_Large,50.94317529199179,53.96110658405814,5.0,Object_Sea_Solid_Large,5.0,5.0,1.0,0.8149322499521077,,,,,,,,
encoding,attention,28,4392967,4395985,4394204.0,4394663.0,460.0,460.0,1938.6,642.9000000000001,1920.0,1460.0,Object_Sea_Solid_Large,50.94317529199179,53.96110658405814,5.0,Object_Sea_Solid_Large,5.0,5.0,1.0,0.8149322499521077,,,,,,,,
encoding,attention,28,4392967,4395985,4394671.0,4395029.0,359.0,359.0,1920.2,655.4000000000001,1920.0,1460.0,Object_Sea_Solid_Large,50.94317529199179,53.96110658405814,5.0,Object_Sea_Solid_Large,5.0,5.0,1.0,0.8149322499521077,,,,,,,,
encoding,attention,28,4392967,4395985,4395061.0,4395523.0,463.0,463.0,2269.8,830.9000000000001,2249.0,1269.0,Object_Sea_Solid_Small,50.94317529199179,53.96110658405814,5.0,Object_Sea_Solid_Large,5.0,5.0,1.0,0.8149322499521077,,,,,,,,
encoding,attention,28,4392967,4395985,4395691.0,4395913.0,223.0,223.0,2082.4,916.2,2249.0,1269.0,Object_Sea_Solid_Small,50.94317529199179,53.96110658405814,5.0,Object_Sea_Solid_Large,5.0,5.0,1.0,0.8149322499521077,,,,,,,,
encoding,fixation,29,4395985,4396744,4396249.0,4396448.0,200.0,200.0,1926.8,1032.6,1920.0,1080.0,fixation,53.961250209016725,54.720023125060834,5.0,Animal_Land_Pattern_Large,-7.0,,,,,,,,,,,
encoding,fixation,29,4395985,4396744,4396459.0,4396993.0,535.0,285.0,1925.9,1094.1,1920.0,1080.0,fixation,53.961250209016725,54.720023125060834,5.0,Animal_Land_Pattern_Large,-7.0,,,,,,,,,,,
encoding,image,29,4396744,4397755,4397026.0,4397524.0,499.0,499.0,1578.5,1266.2,1591.0,891.0,Animal_Land_Pattern_Large,54.72013112506829,55.7311610840261,5.0,Animal_Land_Pattern_Large,-7.0,,,,,,,,,,,
encoding,image,29,4396744,4397755,4397532.0,4398394.0,863.0,223.0,1566.9,1229.8,1591.0,891.0,Animal_Land_Pattern_Large,54.72013112506829,55.7311610840261,5.0,Animal_Land_Pattern_Large,-7.0,,,,,,,,,,,
encoding,value,29,4397755,4403767,4398412.0,4398623.0,212.0,212.0,1561.2,1281.4,1591.0,891.0,Animal_Land_Pattern_Large,55.73127170908265,61.74305058410391,5.0,Animal_Land_Pattern_Large,-7.0,,,,,,,,,,,
encoding,value,29,4397755,4403767,4398795.0,4399072.0,278.0,278.0,1587.6,1236.6,1591.0,891.0,Animal_Land_Pattern_Large,55.73127170908265,61.74305058410391,5.0,Animal_Land_Pattern_Large,-7.0,,,,,,,,,,,
encoding,value,29,4397755,4403767,4399091.0,4401029.0,1939.0,1939.0,1580.4,1207.1,1591.0,891.0,Animal_Land_Pattern_Large,55.73127170908265,61.74305058410391,5.0,Animal_Land_Pattern_Large,-7.0,,,,,,,,,,,
encoding,value,29,4397755,4403767,4401035.0,4401239.0,205.0,205.0,1570.8,1232.6,1591.0,891.0,Animal_Land_Pattern_Large,55.73127170908265,61.74305058410391,5.0,Animal_Land_Pattern_Large,-7.0,,,,,,,,,,,
encoding,value,29,4397755,4403767,4401377.0,4404098.0,2722.0,2390.0,1577.5,1211.5,1591.0,891.0,Animal_Land_Pattern_Large,55.73127170908265,61.74305058410391,5.0,Animal_Land_Pattern_Large,-7.0,,,,,,,,,,,
encoding,attention,29,4403767,4406785,4404106.0,4404729.0,624.0,624.0,1524.9,1225.2,1591.0,891.0,Animal_Land_Pattern_Large,61.74322829209268,64.76102883403655,5.0,Animal_Land_Pattern_Large,-7.0,-7.0,1.0,0.7128728339448571,,,,,,,,
encoding,attention,29,4403767,4406785,4404919.0,4405617.0,699.0,699.0,1569.7,1195.9,1591.0,891.0,Animal_Land_Pattern_Large,61.74322829209268,64.76102883403655,5.0,Animal_Land_Pattern_Large,-7.0,-7.0,1.0,0.7128728339448571,,,,,,,,
encoding,attention,29,4403767,4406785,4405627.0,4406692.0,1066.0,1066.0,1619.9,1227.6,1591.0,891.0,Animal_Land_Pattern_Large,61.74322829209268,64.76102883403655,5.0,Animal_Land_Pattern_Large,-7.0,-7.0,1.0,0.7128728339448571,,,,,,,,
encoding,fixation,30,4406786,4407793,4407009.0,4407210.0,202.0,202.0,1873.6,1088.0,1920.0,1080.0,fixation,64.7611728340853,65.76839641702827,5.0,Animal_Land_Solid_Large,3.0,,,,,,,,,,,
encoding,fixation,30,4406786,4407793,4407364.0,4407993.0,630.0,429.0,1930.5,1099.4,1920.0,1080.0,fixation,64.7611728340853,65.76839641702827,5.0,Animal_Land_Solid_Large,3.0,,,,,,,,,,,
encoding,image,30,4407793,4408804,4408033.0,4408390.0,358.0,358.0,2269.0,1278.4,2249.0,891.0,Animal_Land_Solid_Large,65.7685043750098,66.7796837920323,5.0,Animal_Land_Solid_Large,3.0,,,,,,,,,,,
encoding,image,30,4407793,4408804,4408403.0,4409246.0,844.0,401.0,2252.1,1197.1,2249.0,891.0,Animal_Land_Solid_Large,65.7685043750098,66.7796837920323,5.0,Animal_Land_Solid_Large,3.0,,,,,,,,,,,
encoding,value,30,4408804,4414816,4409383.0,4410026.0,644.0,644.0,2241.2,1221.0,2249.0,891.0,Animal_Land_Solid_Large,66.77979066700209,72.79142691707239,5.0,Animal_Land_Solid_Large,3.0,,,,,,,,,,,
encoding,value,30,4408804,4414816,4410160.0,4412179.0,2020.0,2020.0,2250.1,1194.6,2249.0,891.0,Animal_Land_Solid_Large,66.77979066700209,72.79142691707239,5.0,Animal_Land_Solid_Large,3.0,,,,,,,,,,,
encoding,value,30,4408804,4414816,4412311.0,4415353.0,3043.0,2505.0,2258.4,1192.1,2249.0,891.0,Animal_Land_Solid_Large,66.77979066700209,72.79142691707239,5.0,Animal_Land_Solid_Large,3.0,,,,,,,,,,,
encoding,attention,30,4414816,4417834,4415458.0,4415769.0,312.0,312.0,2199.0,1228.1,2249.0,891.0,Animal_Land_Solid_Large,72.79156466701534,75.80868604208808,5.0,Animal_Land_Solid_Large,3.0,3.0,1.0,0.713352374965325,,,,,,,,
encoding,attention,30,4414816,4417834,4415925.0,4417113.0,1189.0,1189.0,2198.0,1212.6,2249.0,891.0,Animal_Land_Solid_Large,72.79156466701534,75.80868604208808,5.0,Animal_Land_Solid_Large,3.0,3.0,1.0,0.713352374965325,,,,,,,,
encoding,attention,30,4414816,4417834,4417136.0,4417386.0,251.0,251.0,2243.2,1308.0,2249.0,891.0,Animal_Land_Solid_Large,72.79156466701534,75.80868604208808,5.0,Animal_Land_Solid_Large,3.0,3.0,1.0,0.713352374965325,,,,,,,,
encoding,fixation,31,4681329,4682084,4681570.0,4681679.0,110.0,110.0,1909.4,1064.5,1920.0,1080.0,fixation,9.250912166084165,10.006559291039594,6.0,Object_Land_Solid_Large,-9.0,,,,,,,,,,,
encoding,fixation,31,4681329,4682084,4681940.0,4682130.0,191.0,144.0,1911.1,1218.4,1920.0,700.0,Object_Sea_Pattern_Large,9.250912166084165,10.006559291039594,6.0,Object_Land_Solid_Large,-9.0,,,,,,,,,,,
encoding,image,31,4682084,4683095,4682155.0,4682320.0,166.0,166.0,1913.4,1101.2,1920.0,1080.0,fixation,10.006663165986538,11.017053583054803,6.0,Object_Land_Solid_Large,-9.0,,,,,,,,,,,
encoding,image,31,4682084,4683095,4682349.0,4682680.0,332.0,332.0,1620.0,937.3,1591.0,1269.0,Object_Land_Solid_Large,10.006663165986538,11.017053583054803,6.0,Object_Land_Solid_Large,-9.0,,,,,,,,,,,
encoding,image,31,4682084,4683095,4682691.0,4682961.0,271.0,271.0,1588.2,890.0999999999999,1591.0,1269.0,Object_Land_Solid_Large,10.006663165986538,11.017053583054803,6.0,Object_Land_Solid_Large,-9.0,,,,,,,,,,,
encoding,image,31,4682084,4683095,4682974.0,4683175.0,202.0,121.0,1591.3,835.5,1591.0,1269.0,Object_Land_Solid_Large,10.006663165986538,11.017053583054803,6.0,Object_Land_Solid_Large,-9.0,,,,,,,,,,,
encoding,value,31,4683095,4689108,4683326.0,4683992.0,667.0,667.0,1611.4,840.2,1591.0,1269.0,Object_Land_Solid_Large,11.017164166085422,17.029378541046754,6.0,Object_Land_Solid_Large,-9.0,,,,,,,,,,,
encoding,value,31,4683095,4689108,4684007.0,4684588.0,582.0,582.0,1593.0,880.9000000000001,1591.0,1269.0,Object_Land_Solid_Large,11.017164166085422,17.029378541046754,6.0,Object_Land_Solid_Large,-9.0,,,,,,,,,,,
encoding,value,31,4683095,4689108,4684603.0,4686453.0,1851.0,1851.0,1616.5,785.7,1591.0,1269.0,Object_Land_Solid_Large,11.017164166085422,17.029378541046754,6.0,Object_Land_Solid_Large,-9.0,,,,,,,,,,,
encoding,value,31,4683095,4689108,4686585.0,4687427.0,843.0,843.0,1608.4,803.0999999999999,1591.0,1269.0,Object_Land_Solid_Large,11.017164166085422,17.029378541046754,6.0,Object_Land_Solid_Large,-9.0,,,,,,,,,,,
encoding,value,31,4683095,4689108,4687448.0,4688077.0,630.0,630.0,1634.8,909.4000000000001,1591.0,1269.0,Object_Land_Solid_Large,11.017164166085422,17.029378541046754,6.0,Object_Land_Solid_Large,-9.0,,,,,,,,,,,
encoding,value,31,4683095,4689108,4688093.0,4689127.0,1035.0,1015.0,1615.1,799.5999999999999,1591.0,1269.0,Object_Land_Solid_Large,11.017164166085422,17.029378541046754,6.0,Object_Land_Solid_Large,-9.0,,,,,,,,,,,
encoding,attention,31,4689108,4692126,4689144.0,4689404.0,261.0,261.0,1630.2,830.5,1591.0,1269.0,Object_Land_Solid_Large,17.02953395806253,20.048023750074208,6.0,Object_Land_Solid_Large,-9.0,-9.0,1.0,0.8657810000004247,,,,,,,,
encoding,attention,31,4689108,4692126,4689414.0,4690230.0,817.0,817.0,1658.8,781.3,1591.0,1269.0,Object_Land_Solid_Large,17.02953395806253,20.048023750074208,6.0,Object_Land_Solid_Large,-9.0,-9.0,1.0,0.8657810000004247,,,,,,,,
encoding,attention,31,4689108,4692126,4690511.0,4690592.0,82.0,82.0,1626.2,821.0,1591.0,1269.0,Object_Land_Solid_Large,17.02953395806253,20.048023750074208,6.0,Object_Land_Solid_Large,-9.0,-9.0,1.0,0.8657810000004247,,,,,,,,
encoding,fixation,32,4692126,4692882,4692358.0,4693103.0,746.0,524.0,1925.3,1100.4,1920.0,1080.0,fixation,20.04816754104104,20.803365166066214,6.0,Animal_Sea_Pattern_Small,-9.0,,,,,,,,,,,
encoding,image,32,4692882,4693893,4693143.0,4693438.0,296.0,296.0,1590.9,1278.5,1591.0,891.0,Animal_Sea_Pattern_Small,20.803483250085264,21.814757500076663,6.0,Animal_Sea_Pattern_Small,-9.0,,,,,,,,,,,
encoding,image,32,4692882,4693893,4693451.0,4694471.0,1021.0,442.0,1566.1,1230.6,1591.0,891.0,Animal_Sea_Pattern_Small,20.803483250085264,21.814757500076663,6.0,Animal_Sea_Pattern_Small,-9.0,,,,,,,,,,,
encoding,value,32,4693893,4699906,4694619.0,4695303.0,685.0,685.0,1596.4,1218.4,1591.0,891.0,Animal_Sea_Pattern_Small,21.814854750060476,27.826992291025817,6.0,Animal_Sea_Pattern_Small,-9.0,,,,,,,,,,,
encoding,value,32,4693893,4699906,4695318.0,4695809.0,492.0,492.0,1599.4,1287.6,1591.0,891.0,Animal_Sea_Pattern_Small,21.814854750060476,27.826992291025817,6.0,Animal_Sea_Pattern_Small,-9.0,,,,,,,,,,,
encoding,value,32,4693893,4699906,4695825.0,4696381.0,557.0,557.0,1573.1,1229.6,1591.0,891.0,Animal_Sea_Pattern_Small,21.814854750060476,27.826992291025817,6.0,Animal_Sea_Pattern_Small,-9.0,,,,,,,,,,,
encoding,value,32,4693893,4699906,4696393.0,4696568.0,176.0,176.0,1569.6,1175.6,1591.0,891.0,Animal_Sea_Pattern_Small,21.814854750060476,27.826992291025817,6.0,Animal_Sea_Pattern_Small,-9.0,,,,,,,,,,,
encoding,value,32,4693893,4699906,4696713.0,4700157.0,3445.0,3193.0,1576.4,1238.0,1591.0,891.0,Animal_Sea_Pattern_Small,21.814854750060476,27.826992291025817,6.0,Animal_Sea_Pattern_Small,-9.0,,,,,,,,,,,
encoding,attention,32,4699906,4702926,4700170.0,4700833.0,664.0,664.0,1519.3,1247.9,1591.0,891.0,Animal_Sea_Pattern_Small,27.827114082989283,30.847170250024647,6.0,Animal_Sea_Pattern_Small,-9.0,-9.0,1.0,0.6976672920864075,,,,,,,,
encoding,attention,32,4699906,4702926,4701011.0,4701765.0,755.0,755.0,1585.1,1220.0,1591.0,891.0,Animal_Sea_Pattern_Small,27.827114082989283,30.847170250024647,6.0,Animal_Sea_Pattern_Small,-9.0,-9.0,1.0,0.6976672920864075,,,,,,,,
encoding,attention,32,4699906,4702926,4701806.0,4702319.0,514.0,514.0,1590.4,849.9000000000001,1591.0,1269.0,Object_Land_Solid_Large,27.827114082989283,30.847170250024647,6.0,Animal_Sea_Pattern_Small,-9.0,-9.0,1.0,0.6976672920864075,,,,,,,,
encoding,attention,32,4699906,4702926,4702366.0,4702784.0,419.0,419.0,1621.1,1180.8,1591.0,891.0,Animal_Sea_Pattern_Small,27.827114082989283,30.847170250024647,6.0,Animal_Sea_Pattern_Small,-9.0,-9.0,1.0,0.6976672920864075,,,,,,,,
encoding,fixation,33,4702926,4704181,4702961.0,4703149.0,189.0,189.0,1632.0,1188.8,1591.0,891.0,Animal_Sea_Pattern_Small,30.847329540993087,32.102472458034754,6.0,Object_Land_Pattern_Small,2.0,,,,,,,,,,,
encoding,fixation,33,4702926,4704181,4703183.0,4703586.0,404.0,404.0,1930.2,1070.1,1920.0,1080.0,fixation,30.847329540993087,32.102472458034754,6.0,Object_Land_Pattern_Small,2.0,,,,,,,,,,,
encoding,fixation,33,4702926,4704181,4703594.0,4704124.0,531.0,531.0,1930.5,1095.3,1920.0,1080.0,fixation,30.847329540993087,32.102472458034754,6.0,Object_Land_Pattern_Small,2.0,,,,,,,,,,,
encoding,fixation,33,4702926,4704181,4704133.0,4704391.0,259.0,48.0,1968.5,1133.5,2249.0,891.0,Animal_Sea_Solid_Large,30.847329540993087,32.102472458034754,6.0,Object_Land_Pattern_Small,2.0,,,,,,,,,,,
encoding,image,33,4704181,4705193,4704441.0,4704691.0,251.0,251.0,1937.1,698.8,1920.0,1460.0,Object_Land_Pattern_Small,32.102583458065055,33.11424166604411,6.0,Object_Land_Pattern_Small,2.0,,,,,,,,,,,
encoding,image,33,4704181,4705193,4704702.0,4704890.0,189.0,189.0,1932.0,633.7,1920.0,1460.0,Object_Land_Pattern_Small,32.102583458065055,33.11424166604411,6.0,Object_Land_Pattern_Small,2.0,,,,,,,,,,,
encoding,image,33,4704181,4705193,4704903.0,4705769.0,867.0,290.0,1933.7,574.5999999999999,1920.0,1460.0,Object_Land_Pattern_Small,32.102583458065055,33.11424166604411,6.0,Object_Land_Pattern_Small,2.0,,,,,,,,,,,
encoding,value,33,4705193,4711206,4705952.0,4706383.0,432.0,432.0,1934.0,643.0,1920.0,1460.0,Object_Land_Pattern_Small,33.11434916604776,39.12692583305761,6.0,Object_Land_Pattern_Small,2.0,,,,,,,,,,,
encoding,value,33,4705193,4711206,4706395.0,4707457.0,1063.0,1063.0,1945.4,657.4000000000001,1920.0,1460.0,Object_Land_Pattern_Small,33.11434916604776,39.12692583305761,6.0,Object_Land_Pattern_Small,2.0,,,,,,,,,,,
encoding,value,33,4705193,4711206,4707474.0,4708786.0,1313.0,1313.0,1927.7,564.7,1920.0,1460.0,Object_Land_Pattern_Small,33.11434916604776,39.12692583305761,6.0,Object_Land_Pattern_Small,2.0,,,,,,,,,,,
encoding,value,33,4705193,4711206,4708800.0,4709471.0,672.0,672.0,1928.5,639.5,1920.0,1460.0,Object_Land_Pattern_Small,33.11434916604776,39.12692583305761,6.0,Object_Land_Pattern_Small,2.0,,,,,,,,,,,
encoding,value,33,4705193,4711206,4709487.0,4711534.0,2048.0,1719.0,1927.4,548.5,1920.0,1460.0,Object_Land_Pattern_Small,33.11434916604776,39.12692583305761,6.0,Object_Land_Pattern_Small,2.0,,,,,,,,,,,
encoding,attention,33,4711206,4714224,4711545.0,4712185.0,641.0,641.0,1890.7,534.4000000000001,1920.0,1460.0,Object_Land_Pattern_Small,39.12704950000625,42.1449501659954,6.0,Object_Land_Pattern_Small,2.0,2.0,1.0,0.7433075000299141,,,,,,,,
encoding,attention,33,4711206,4714224,4712404.0,4712601.0,198.0,198.0,1929.2,678.5,1920.0,1460.0,Object_Land_Pattern_Small,39.12704950000625,42.1449501659954,6.0,Object_Land_Pattern_Small,2.0,2.0,1.0,0.7433075000299141,,,,,,,,
encoding,attention,33,4711206,4714224,4712761.0,4713487.0,727.0,727.0,1941.0,655.5999999999999,1920.0,1460.0,Object_Land_Pattern_Small,39.12704950000625,42.1449501659954,6.0,Object_Land_Pattern_Small,2.0,2.0,1.0,0.7433075000299141,,,,,,,,
encoding,attention,33,4711206,4714224,4713536.0,4714001.0,466.0,466.0,1867.7,962.0,1920.0,1460.0,Object_Land_Pattern_Small,39.12704950000625,42.1449501659954,6.0,Object_Land_Pattern_Small,2.0,2.0,1.0,0.7433075000299141,,,,,,,,
encoding,fixation,34,4714224,4715480,4714335.0,4714467.0,133.0,133.0,1887.6,559.2,1920.0,1460.0,Object_Land_Pattern_Small,42.14511575002689,43.40063804097008,6.0,Animal_Land_Solid_Small,9.0,,,,,,,,,,,
encoding,fixation,34,4714224,4715480,4714510.0,4714940.0,431.0,431.0,1931.2,1038.6,1920.0,1080.0,fixation,42.14511575002689,43.40063804097008,6.0,Animal_Land_Solid_Small,9.0,,,,,,,,,,,
encoding,fixation,34,4714224,4715480,4714955.0,4715206.0,252.0,252.0,1926.6,1114.2,1920.0,1080.0,fixation,42.14511575002689,43.40063804097008,6.0,Animal_Land_Solid_Small,9.0,,,,,,,,,,,
encoding,fixation,34,4714224,4715480,4715241.0,4715588.0,348.0,239.0,1923.6,1311.3,1920.0,700.0,Object_Sea_Pattern_Large,42.14511575002689,43.40063804097008,6.0,Animal_Land_Solid_Small,9.0,,,,,,,,,,,
encoding,image,34,4715480,4716492,4715613.0,4715708.0,96.0,96.0,1935.2,1132.6,1920.0,1080.0,fixation,43.40075616608374,44.41254900000058,6.0,Animal_Land_Solid_Small,9.0,,,,,,,,,,,
encoding,image,34,4715480,4716492,4715755.0,4716114.0,360.0,360.0,2229.4,809.7,2249.0,1269.0,Animal_Land_Solid_Small,43.40075616608374,44.41254900000058,6.0,Animal_Land_Solid_Small,9.0,,,,,,,,,,,
encoding,image,34,4715480,4716492,4716287.0,4716622.0,336.0,205.0,2279.4,814.7,2249.0,1269.0,Animal_Land_Solid_Small,43.40075616608374,44.41254900000058,6.0,Animal_Land_Solid_Small,9.0,,,,,,,,,,,
encoding,value,34,4716492,4722504,4716630.0,4717109.0,480.0,480.0,2250.0,757.8,2249.0,1269.0,Animal_Land_Solid_Small,44.412662291084416,50.4242542500142,6.0,Animal_Land_Solid_Small,9.0,,,,,,,,,,,
encoding,value,34,4716492,4722504,4717132.0,4717867.0,736.0,736.0,2278.4,861.9000000000001,2249.0,1269.0,Animal_Land_Solid_Small,44.412662291084416,50.4242542500142,6.0,Animal_Land_Solid_Small,9.0,,,,,,,,,,,
encoding,value,34,4716492,4722504,4717882.0,4718183.0,302.0,302.0,2270.1,760.3,2249.0,1269.0,Animal_Land_Solid_Small,44.412662291084416,50.4242542500142,6.0,Animal_Land_Solid_Small,9.0,,,,,,,,,,,
encoding,value,34,4716492,4722504,4718353.0,4718628.0,276.0,276.0,2259.0,813.8,2249.0,1269.0,Animal_Land_Solid_Small,44.412662291084416,50.4242542500142,6.0,Animal_Land_Solid_Small,9.0,,,,,,,,,,,
encoding,value,34,4716492,4722504,4718639.0,4718926.0,288.0,288.0,2265.4,843.2,2249.0,1269.0,Animal_Land_Solid_Small,44.412662291084416,50.4242542500142,6.0,Animal_Land_Solid_Small,9.0,,,,,,,,,,,
encoding,value,34,4716492,4722504,4718945.0,4722793.0,3849.0,3559.0,2262.6,745.3,2249.0,1269.0,Animal_Land_Solid_Small,44.412662291084416,50.4242542500142,6.0,Animal_Land_Solid_Small,9.0,,,,,,,,,,,
encoding,attention,34,4722504,4725521,4722801.0,4723717.0,917.0,917.0,2221.4,732.0,2249.0,1269.0,Animal_Land_Solid_Small,50.424375000060536,53.44111354101915,6.0,Animal_Land_Solid_Small,9.0,9.0,1.0,0.7979762079194188,,,,,,,,
encoding,fixation,35,4725521,4726026,4725930.0,4726351.0,422.0,96.0,1894.2,880.4000000000001,1920.0,1460.0,Object_Land_Pattern_Small,53.441278040991165,53.946264415979385,6.0,Object_Sea_Pattern_Large,6.0,,,,,,,,,,,
encoding,image,35,4726026,4727038,4726403.0,4726703.0,301.0,301.0,1928.4,1494.4,1920.0,700.0,Object_Sea_Pattern_Large,53.94636820803862,54.957612750004046,6.0,Object_Sea_Pattern_Large,6.0,,,,,,,,,,,
encoding,image,35,4726026,4727038,4726723.0,4727623.0,901.0,315.0,1905.6,1432.0,1920.0,700.0,Object_Sea_Pattern_Large,53.94636820803862,54.957612750004046,6.0,Object_Sea_Pattern_Large,6.0,,,,,,,,,,,
encoding,value,35,4727038,4733050,4727805.0,4728185.0,381.0,381.0,1920.7,1418.2,1920.0,700.0,Object_Sea_Pattern_Large,54.95774058299139,60.96956624998711,6.0,Object_Sea_Pattern_Large,6.0,,,,,,,,,,,
encoding,value,35,4727038,4733050,4728221.0,4728555.0,335.0,335.0,1982.5,1082.8,1920.0,1080.0,fixation,54.95774058299139,60.96956624998711,6.0,Object_Sea_Pattern_Large,6.0,,,,,,,,,,,
