subject,phase,event,trial_number,game,option,choice,rt,roi_content,item_index,is_relevant,fix_start,fix_end,fix_duration_bounded
149,choice,choice,1,1.0,Pattern,2.0,73.2519602909997,Animal_Land_Solid_Large,0,0,9711146.0,9711659.0,513.0
149,choice,choice,1,1.0,Pattern,2.0,73.2519602909997,Animal_Sea_Solid_Large,1,0,9711717.0,9712174.0,457.0
149,choice,choice,1,1.0,Pattern,2.0,73.2519602909997,Object_Sea_Pattern_Large,2,1,9712193.0,9712858.0,665.0
149,choice,choice,1,1.0,Pattern,2.0,73.2519602909997,Animal_Land_Solid_Large,0,0,9712897.0,9713578.0,681.0
149,choice,choice,1,1.0,Pattern,2.0,73.2519602909997,Object_Sea_Pattern_Large,2,1,9713783.0,9713987.0,204.0
149,choice,choice,1,1.0,Pattern,2.0,73.2519602909997,Animal_Land_Solid_Large,0,0,9714032.0,9716303.0,2271.0
149,choice,choice,1,1.0,Pattern,2.0,73.2519602909997,Object_Land_Pattern_Small,3,1,9718089.0,9718383.0,294.0
149,choice,choice,1,1.0,Pattern,2.0,73.2519602909997,Animal_Land_Solid_Small,4,0,9718694.0,9718983.0,289.0
149,choice,choice,1,1.0,Pattern,2.0,73.2519602909997,Animal_Sea_Solid_Large,1,0,9719924.0,9720173.0,249.0
149,choice,choice,1,1.0,Pattern,2.0,73.2519602909997,Animal_Land_Solid_Large,0,0,9720203.0,9720472.0,269.0
149,choice,choice,1,1.0,Pattern,2.0,73.2519602909997,Object_Sea_Pattern_Large,2,1,9720501.0,9721524.0,1023.0
149,choice,choice,1,1.0,Pattern,2.0,73.2519602909997,Animal_Sea_Solid_Large,1,0,9721764.0,9722079.0,315.0
149,choice,choice,1,1.0,Pattern,2.0,73.2519602909997,Animal_Land_Solid_Large,0,0,9722109.0,9722274.0,165.0
149,choice,choice,1,1.0,Pattern,2.0,73.2519602909997,Object_Sea_Pattern_Large,2,1,9722315.0,9726516.0,4201.0
149,choice,choice,1,1.0,Pattern,2.0,73.2519602909997,Animal_Land_Solid_Large,0,0,9726850.0,9727616.0,766.0
149,choice,choice,1,1.0,Pattern,2.0,73.2519602909997,Animal_Sea_Solid_Large,1,0,9727650.0,9728012.0,362.0
149,choice,choice,1,1.0,Pattern,2.0,73.2519602909997,Animal_Land_Solid_Large,0,0,9728040.0,9728292.0,252.0
149,choice,choice,1,1.0,Pattern,2.0,73.2519602909997,Object_Land_Pattern_Small,3,1,9729858.0,9732005.0,2147.0
149,choice,choice,1,1.0,Pattern,2.0,73.2519602909997,Animal_Land_Solid_Large,0,0,9732942.0,9733466.0,524.0
149,choice,choice,1,1.0,Pattern,2.0,73.2519602909997,Animal_Land_Solid_Small,4,0,9734089.0,9734253.0,164.0
149,choice,choice,1,1.0,Pattern,2.0,73.2519602909997,Animal_Land_Solid_Large,0,0,9735148.0,9735874.0,726.0
149,choice,choice,1,1.0,Pattern,2.0,73.2519602909997,Object_Sea_Pattern_Large,2,1,9735935.0,9736299.0,364.0
149,choice,choice,1,1.0,Pattern,2.0,73.2519602909997,Animal_Sea_Solid_Large,1,0,9736319.0,9736545.0,226.0
149,choice,choice,1,1.0,Pattern,2.0,73.2519602909997,Animal_Land_Solid_Large,0,0,9736586.0,9737071.0,485.0
149,choice,choice,1,1.0,Pattern,2.0,73.2519602909997,Object_Sea_Pattern_Large,2,1,9737138.0,9737423.0,285.0
149,choice,choice,1,1.0,Pattern,2.0,73.2519602909997,Animal_Land_Solid_Large,0,0,9737446.0,9737638.0,192.0
149,choice,choice,1,1.0,Pattern,2.0,73.2519602909997,Object_Sea_Pattern_Large,2,1,9737664.0,9737952.0,288.0
149,choice,choice,1,1.0,Pattern,2.0,73.2519602909997,Animal_Sea_Solid_Large,1,0,9737973.0,9738183.0,210.0
149,choice,choice,1,1.0,Pattern,2.0,73.2519602909997,Object_Sea_Pattern_Large,2,1,9738199.0,9743132.0,4933.0
149,choice,choice,1,1.0,Pattern,2.0,73.2519602909997,Animal_Sea_Solid_Large,1,0,9744182.0,9744697.0,515.0
149,choice,choice,1,1.0,Pattern,2.0,73.2519602909997,Object_Sea_Pattern_Large,2,1,9744720.0,9745175.0,455.0
149,choice,choice,1,1.0,Pattern,2.0,73.2519602909997,Animal_Land_Solid_Large,0,0,9745213.0,9746132.0,919.0
149,choice,choice,1,1.0,Pattern,2.0,73.2519602909997,Animal_Sea_Solid_Large,1,0,9746192.0,9746402.0,210.0
149,choice,choice,1,1.0,Pattern,2.0,73.2519602909997,Object_Sea_Pattern_Large,2,1,9746577.0,9747193.0,616.0
149,choice,choice,1,1.0,Pattern,2.0,73.2519602909997,Animal_Land_Solid_Large,0,0,9747217.0,9747723.0,506.0
149,choice,choice,1,1.0,Pattern,2.0,73.2519602909997,Object_Sea_Pattern_Large,2,1,9747746.0,9749556.0,1810.0
149,choice,choice,1,1.0,Pattern,2.0,73.2519602909997,Animal_Land_Solid_Large,0,0,9751368.0,9752332.0,964.0
149,choice,choice,1,1.0,Pattern,2.0,73.2519602909997,Object_Land_Pattern_Small,3,1,9752394.0,9752710.0,316.0
149,choice,choice,1,1.0,Pattern,2.0,73.2519602909997,Animal_Land_Solid_Large,0,0,9752875.0,9753170.0,295.0
149,choice,choice,1,1.0,Pattern,2.0,73.2519602909997,Object_Land_Pattern_Small,3,1,9753192.0,9754157.0,965.0
149,choice,choice,1,1.0,Pattern,2.0,73.2519602909997,Animal_Land_Solid_Large,0,0,9755512.0,9759098.0,3586.0
149,choice,choice,1,1.0,Pattern,2.0,73.2519602909997,Animal_Sea_Solid_Large,1,0,9759775.0,9760080.0,305.0
149,choice,choice,1,1.0,Pattern,2.0,73.2519602909997,Animal_Land_Solid_Large,0,0,9760121.0,9760996.0,875.0
149,choice,choice,1,1.0,Pattern,2.0,73.2519602909997,Object_Sea_Pattern_Large,2,1,9761033.0,9761388.0,355.0
149,choice,choice,1,1.0,Pattern,2.0,73.2519602909997,Object_Land_Pattern_Small,3,1,9762286.0,9762555.0,269.0
149,choice,choice,1,1.0,Pattern,2.0,73.2519602909997,Object_Sea_Pattern_Large,2,1,9762594.0,9764329.0,1735.0
149,choice,choice,1,1.0,Pattern,2.0,73.2519602909997,Animal_Land_Solid_Large,0,0,9764598.0,9764817.0,219.0
149,choice,choice,1,1.0,Pattern,2.0,73.2519602909997,Object_Sea_Pattern_Large,2,1,9765458.0,9768938.0,3480.0
149,choice,choice,1,1.0,Pattern,2.0,73.2519602909997,Animal_Sea_Solid_Large,1,0,9769515.0,9769712.0,197.0
149,choice,choice,1,1.0,Pattern,2.0,73.2519602909997,Object_Sea_Pattern_Large,2,1,9769741.0,9774862.0,5121.0
149,choice,choice,1,1.0,Pattern,2.0,73.2519602909997,Object_Land_Pattern_Small,3,1,9774986.0,9775817.0,831.0
149,choice,choice,1,1.0,Pattern,2.0,73.2519602909997,Object_Sea_Pattern_Large,2,1,9776455.0,9781691.0,5236.0
149,choice,choice,1,1.0,Pattern,2.0,73.2519602909997,Animal_Land_Solid_Large,0,0,9782034.0,9782297.0,263.0
149,choice,choice,2,1.0,Animal,1.0,4.878595875000428,Animal_Land_Solid_Large,0,1,9786009.0,9787389.0,1380.0
149,choice,choice,2,1.0,Animal,1.0,4.878595875000428,Animal_Sea_Solid_Large,1,1,9787652.0,9787846.0,194.0
149,choice,choice,2,1.0,Animal,1.0,4.878595875000428,Object_Sea_Pattern_Large,2,0,9787865.0,9789378.0,1513.0
149,choice,choice,2,1.0,Animal,1.0,4.878595875000428,Animal_Land_Solid_Large,0,1,9789583.0,9790424.0,841.0
149,choice,choice,3,1.0,Sea,1.0,23.681443165999553,Animal_Land_Solid_Large,0,0,9794015.0,9794423.0,408.0
149,choice,choice,3,1.0,Sea,1.0,23.681443165999553,Object_Sea_Pattern_Large,2,1,9794459.0,9804503.0,10044.0
149,choice,choice,3,1.0,Sea,1.0,23.681443165999553,Animal_Sea_Solid_Large,1,1,9805827.0,9806521.0,694.0
149,choice,choice,3,1.0,Sea,1.0,23.681443165999553,Object_Sea_Pattern_Large,2,1,9806552.0,9806891.0,339.0
149,choice,choice,3,1.0,Sea,1.0,23.681443165999553,Animal_Sea_Solid_Large,1,1,9806937.0,9807233.0,296.0
149,choice,choice,3,1.0,Sea,1.0,23.681443165999553,Object_Sea_Pattern_Large,2,1,9807276.0,9809959.0,2683.0
149,choice,choice,3,1.0,Sea,1.0,23.681443165999553,Animal_Sea_Solid_Large,1,1,9810461.0,9810584.0,123.0
149,choice,choice,3,1.0,Sea,1.0,23.681443165999553,Animal_Land_Solid_Large,0,0,9810815.0,9812738.0,1923.0
149,choice,choice,3,1.0,Sea,1.0,23.681443165999553,Object_Sea_Pattern_Large,2,1,9813308.0,9814085.0,777.0
149,choice,choice,3,1.0,Sea,1.0,23.681443165999553,Animal_Land_Solid_Large,0,0,9814142.0,9814279.0,137.0
149,choice,choice,3,1.0,Sea,1.0,23.681443165999553,Object_Land_Pattern_Small,3,0,9814305.0,9815624.0,1319.0
149,choice,choice,3,1.0,Sea,1.0,23.681443165999553,Animal_Sea_Solid_Large,1,1,9816718.0,9817408.0,690.0
149,choice,choice,4,1.0,Large,1.0,7.324483708000116,Object_Sea_Pattern_Large,2,1,9820486.0,9822883.0,2397.0
149,choice,choice,4,1.0,Large,1.0,7.324483708000116,Animal_Sea_Solid_Large,1,1,9823269.0,9823596.0,327.0
149,choice,choice,4,1.0,Large,1.0,7.324483708000116,Object_Sea_Pattern_Large,2,1,9823622.0,9823891.0,269.0
149,choice,choice,4,1.0,Large,1.0,7.324483708000116,Animal_Land_Solid_Large,0,1,9823938.0,9824498.0,560.0
149,choice,choice,4,1.0,Large,1.0,7.324483708000116,Object_Land_Pattern_Small,3,0,9824531.0,9825195.0,664.0
149,choice,choice,4,1.0,Large,1.0,7.324483708000116,Animal_Land_Solid_Large,0,1,9825239.0,9825512.0,273.0
149,choice,choice,4,1.0,Large,1.0,7.324483708000116,Animal_Sea_Solid_Large,1,1,9825535.0,9826267.0,732.0
149,choice,choice,4,1.0,Large,1.0,7.324483708000116,Object_Sea_Pattern_Large,2,1,9826302.0,9826735.0,433.0
149,choice,choice,4,1.0,Large,1.0,7.324483708000116,Animal_Land_Solid_Small,4,0,9826744.0,9827052.0,308.0
149,choice,choice,4,1.0,Large,1.0,7.324483708000116,Animal_Land_Solid_Large,0,1,9827090.0,9827335.0,245.0
149,choice,choice,4,1.0,Large,1.0,7.324483708000116,Object_Sea_Pattern_Large,2,1,9827366.0,9827535.0,169.0
149,choice,choice,5,1.0,Solid,1.0,26.058002167000268,Animal_Land_Solid_Small,4,1,9833319.0,9833812.0,493.0
149,choice,choice,5,1.0,Solid,1.0,26.058002167000268,Object_Sea_Pattern_Small,5,0,9833836.0,9836639.0,2803.0
149,choice,choice,5,1.0,Solid,1.0,26.058002167000268,Animal_Land_Solid_Large,0,1,9840858.0,9841093.0,235.0
149,choice,choice,5,1.0,Solid,1.0,26.058002167000268,Object_Sea_Pattern_Large,2,0,9841130.0,9841568.0,438.0
149,choice,choice,5,1.0,Solid,1.0,26.058002167000268,Animal_Sea_Solid_Large,1,1,9841587.0,9841793.0,206.0
149,choice,choice,5,1.0,Solid,1.0,26.058002167000268,Animal_Land_Solid_Large,0,1,9842109.0,9842250.0,141.0
149,choice,choice,5,1.0,Solid,1.0,26.058002167000268,Object_Sea_Pattern_Large,2,0,9842289.0,9843059.0,770.0
149,choice,choice,5,1.0,Solid,1.0,26.058002167000268,Animal_Land_Solid_Large,0,1,9843292.0,9843486.0,194.0
149,choice,choice,5,1.0,Solid,1.0,26.058002167000268,Object_Sea_Pattern_Large,2,0,9843859.0,9844578.0,719.0
149,choice,choice,5,1.0,Solid,1.0,26.058002167000268,Animal_Land_Solid_Large,0,1,9845225.0,9846363.0,1138.0
149,choice,choice,5,1.0,Solid,1.0,26.058002167000268,Object_Sea_Pattern_Large,2,0,9850608.0,9851075.0,467.0
149,choice,choice,5,1.0,Solid,1.0,26.058002167000268,Animal_Land_Solid_Large,0,1,9851100.0,9851382.0,282.0
149,choice,choice,5,1.0,Solid,1.0,26.058002167000268,Object_Sea_Pattern_Large,2,0,9851852.0,9853808.0,1956.0
149,choice,choice,5,1.0,Solid,1.0,26.058002167000268,Animal_Land_Solid_Large,0,1,9854969.0,9855621.0,652.0
149,choice,choice,5,1.0,Solid,1.0,26.058002167000268,Object_Sea_Pattern_Large,2,0,9855646.0,9856395.0,749.0
149,choice,choice,6,1.0,Object,1.0,31.096307832999628,Object_Sea_Pattern_Large,2,1,9860746.0,9863146.0,2400.0
149,choice,choice,6,1.0,Object,1.0,31.096307832999628,Animal_Land_Solid_Large,0,0,9868367.0,9869105.0,738.0
149,choice,choice,6,1.0,Object,1.0,31.096307832999628,Object_Sea_Pattern_Large,2,1,9870025.0,9870160.0,135.0
149,choice,choice,6,1.0,Object,1.0,31.096307832999628,Animal_Land_Solid_Large,0,0,9870518.0,9871353.0,835.0
149,choice,choice,6,1.0,Object,1.0,31.096307832999628,Object_Sea_Pattern_Large,2,1,9872976.0,9873327.0,351.0
149,choice,choice,6,1.0,Object,1.0,31.096307832999628,Animal_Land_Solid_Large,0,0,9873364.0,9873955.0,591.0
149,choice,choice,6,1.0,Object,1.0,31.096307832999628,Object_Sea_Pattern_Large,2,1,9874027.0,9875145.0,1118.0
149,choice,choice,6,1.0,Object,1.0,31.096307832999628,Animal_Land_Solid_Small,4,0,9877984.0,9878149.0,165.0
149,choice,choice,6,1.0,Object,1.0,31.096307832999628,Animal_Sea_Solid_Large,1,0,9880302.0,9880428.0,126.0
149,choice,choice,6,1.0,Object,1.0,31.096307832999628,Animal_Land_Solid_Large,0,0,9881425.0,9881841.0,416.0
149,choice,choice,6,1.0,Object,1.0,31.096307832999628,Object_Sea_Pattern_Large,2,1,9882975.0,9883277.0,302.0
149,choice,choice,6,1.0,Object,1.0,31.096307832999628,Animal_Land_Solid_Large,0,0,9883611.0,9883888.0,277.0
149,choice,choice,6,1.0,Object,1.0,31.096307832999628,Object_Sea_Pattern_Large,2,1,9884342.0,9885190.0,848.0
149,choice,choice,6,1.0,Object,1.0,31.096307832999628,Animal_Land_Solid_Large,0,0,9887355.0,9888066.0,711.0
149,choice,choice,6,1.0,Object,1.0,31.096307832999628,Object_Sea_Pattern_Small,5,1,9888763.0,9889167.0,404.0
149,choice,choice,6,1.0,Object,1.0,31.096307832999628,Object_Land_Pattern_Small,3,1,9890213.0,9890494.0,281.0
149,choice,choice,7,1.0,Land,2.0,4.1287572080000245,Animal_Land_Solid_Large,0,1,9895800.0,9896618.0,818.0
149,choice,choice,7,1.0,Land,2.0,4.1287572080000245,Object_Land_Pattern_Small,3,1,9897035.0,9897398.0,363.0
149,choice,choice,8,1.0,Small,2.0,7.628127874999336,Object_Sea_Pattern_Large,2,0,9901801.0,9902364.0,563.0
149,choice,choice,8,1.0,Small,2.0,7.628127874999336,Animal_Sea_Solid_Large,1,0,9902383.0,9902890.0,507.0
149,choice,choice,8,1.0,Small,2.0,7.628127874999336,Animal_Land_Solid_Small,4,1,9902919.0,9903221.0,302.0
149,choice,choice,8,1.0,Small,2.0,7.628127874999336,Animal_Land_Solid_Large,0,0,9904046.0,9904710.0,664.0
149,choice,choice,9,2.0,Solid,2.0,55.45277358400017,Object_Land_Solid_Large,0,1,10352558.0,10352929.0,371.0
149,choice,choice,9,2.0,Solid,2.0,55.45277358400017,Object_Sea_Solid_Small,1,1,10352953.0,10353420.0,467.0
149,choice,choice,9,2.0,Solid,2.0,55.45277358400017,Object_Land_Solid_Large,0,1,10353462.0,10355743.0,2281.0
149,choice,choice,9,2.0,Solid,2.0,55.45277358400017,Object_Sea_Solid_Small,1,1,10356553.0,10357104.0,551.0
149,choice,choice,9,2.0,Solid,2.0,55.45277358400017,Object_Land_Solid_Large,0,1,10357125.0,10357418.0,293.0
149,choice,choice,9,2.0,Solid,2.0,55.45277358400017,Object_Sea_Solid_Small,1,1,10357655.0,10357945.0,290.0
149,choice,choice,9,2.0,Solid,2.0,55.45277358400017,Object_Land_Solid_Large,0,1,10357972.0,10358456.0,484.0
149,choice,choice,9,2.0,Solid,2.0,55.45277358400017,Object_Sea_Solid_Small,1,1,10358478.0,10359306.0,828.0
149,choice,choice,9,2.0,Solid,2.0,55.45277358400017,Object_Land_Solid_Large,0,1,10359329.0,10359869.0,540.0
149,choice,choice,9,2.0,Solid,2.0,55.45277358400017,Object_Sea_Solid_Small,1,1,10359896.0,10360587.0,691.0
149,choice,choice,9,2.0,Solid,2.0,55.45277358400017,Object_Land_Solid_Large,0,1,10360609.0,10361100.0,491.0
149,choice,choice,9,2.0,Solid,2.0,55.45277358400017,Object_Sea_Solid_Small,1,1,10361305.0,10361747.0,442.0
149,choice,choice,9,2.0,Solid,2.0,55.45277358400017,Object_Land_Solid_Large,0,1,10361769.0,10363537.0,1768.0
149,choice,choice,9,2.0,Solid,2.0,55.45277358400017,Object_Sea_Solid_Small,1,1,10364281.0,10365814.0,1533.0
149,choice,choice,9,2.0,Solid,2.0,55.45277358400017,Object_Land_Solid_Large,0,1,10366096.0,10366386.0,290.0
149,choice,choice,9,2.0,Solid,2.0,55.45277358400017,Object_Sea_Solid_Small,1,1,10366407.0,10366707.0,300.0
149,choice,choice,9,2.0,Solid,2.0,55.45277358400017,Animal_Sea_Pattern_Small,2,0,10366757.0,10367856.0,1099.0
149,choice,choice,9,2.0,Solid,2.0,55.45277358400017,Object_Land_Pattern_Large,3,0,10368623.0,10368886.0,263.0
149,choice,choice,9,2.0,Solid,2.0,55.45277358400017,Animal_Sea_Pattern_Small,2,0,10368919.0,10369719.0,800.0
149,choice,choice,9,2.0,Solid,2.0,55.45277358400017,Object_Sea_Solid_Small,1,1,10369840.0,10370638.0,798.0
149,choice,choice,9,2.0,Solid,2.0,55.45277358400017,Animal_Sea_Solid_Small,4,1,10370712.0,10370960.0,248.0
149,choice,choice,9,2.0,Solid,2.0,55.45277358400017,Object_Sea_Solid_Small,1,1,10371922.0,10372607.0,685.0
149,choice,choice,9,2.0,Solid,2.0,55.45277358400017,Animal_Sea_Solid_Small,4,1,10374029.0,10374728.0,699.0
149,choice,choice,9,2.0,Solid,2.0,55.45277358400017,Object_Sea_Solid_Small,1,1,10375095.0,10376215.0,1120.0
149,choice,choice,9,2.0,Solid,2.0,55.45277358400017,Animal_Sea_Pattern_Small,2,0,10377500.0,10382528.0,5028.0
149,choice,choice,9,2.0,Solid,2.0,55.45277358400017,Object_Land_Solid_Large,0,1,10383324.0,10383677.0,353.0
149,choice,choice,9,2.0,Solid,2.0,55.45277358400017,Animal_Sea_Pattern_Small,2,0,10383701.0,10384472.0,771.0
149,choice,choice,9,2.0,Solid,2.0,55.45277358400017,Object_Land_Solid_Large,0,1,10384514.0,10385349.0,835.0
149,choice,choice,9,2.0,Solid,2.0,55.45277358400017,Animal_Land_Pattern_Large,5,0,10386047.0,10386371.0,324.0
149,choice,choice,9,2.0,Solid,2.0,55.45277358400017,Object_Land_Pattern_Large,3,0,10386395.0,10387042.0,647.0
149,choice,choice,9,2.0,Solid,2.0,55.45277358400017,Animal_Sea_Pattern_Small,2,0,10387353.0,10391808.0,4455.0
149,choice,choice,9,2.0,Solid,2.0,55.45277358400017,Object_Land_Solid_Large,0,1,10393323.0,10393725.0,402.0
149,choice,choice,9,2.0,Solid,2.0,55.45277358400017,Object_Sea_Solid_Small,1,1,10393766.0,10394477.0,711.0
149,choice,choice,9,2.0,Solid,2.0,55.45277358400017,Animal_Sea_Pattern_Small,2,0,10394550.0,10395019.0,469.0
149,choice,choice,9,2.0,Solid,2.0,55.45277358400017,Object_Land_Solid_Large,0,1,10395202.0,10395534.0,332.0
149,choice,choice,9,2.0,Solid,2.0,55.45277358400017,Object_Sea_Solid_Small,1,1,10395563.0,10396020.0,457.0
149,choice,choice,9,2.0,Solid,2.0,55.45277358400017,Object_Land_Solid_Large,0,1,10396350.0,10396626.0,276.0
149,choice,choice,9,2.0,Solid,2.0,55.45277358400017,Animal_Sea_Pattern_Small,2,0,10396647.0,10396975.0,328.0
149,choice,choice,9,2.0,Solid,2.0,55.45277358400017,Object_Sea_Solid_Small,1,1,10397023.0,10398824.0,1801.0
149,choice,choice,9,2.0,Solid,2.0,55.45277358400017,Animal_Sea_Pattern_Small,2,0,10398887.0,10399627.0,740.0
149,choice,choice,9,2.0,Solid,2.0,55.45277358400017,Object_Land_Solid_Large,0,1,10399663.0,10400111.0,448.0
149,choice,choice,9,2.0,Solid,2.0,55.45277358400017,Object_Sea_Solid_Small,1,1,10400134.0,10402427.0,2293.0
149,choice,choice,9,2.0,Solid,2.0,55.45277358400017,Animal_Sea_Pattern_Small,2,0,10402483.0,10402712.0,229.0
149,choice,choice,9,2.0,Solid,2.0,55.45277358400017,Object_Sea_Solid_Small,1,1,10403868.0,10404122.0,254.0
149,choice,choice,9,2.0,Solid,2.0,55.45277358400017,Animal_Sea_Solid_Small,4,1,10404136.0,10405305.0,1169.0
149,choice,choice,9,2.0,Solid,2.0,55.45277358400017,Object_Sea_Solid_Small,1,1,10405548.0,10405900.0,352.0
149,choice,choice,9,2.0,Solid,2.0,55.45277358400017,Animal_Sea_Solid_Small,4,1,10405934.0,10406206.0,272.0
149,choice,choice,9,2.0,Solid,2.0,55.45277358400017,Object_Sea_Solid_Small,1,1,10406242.0,10406624.0,382.0
149,choice,choice,9,2.0,Solid,2.0,55.45277358400017,Animal_Sea_Solid_Small,4,1,10406646.0,10407454.0,808.0
149,choice,choice,10,2.0,Object,2.0,75.88732958400033,Object_Land_Solid_Large,0,1,10410759.0,10414861.0,4102.0
149,choice,choice,10,2.0,Object,2.0,75.88732958400033,Object_Sea_Solid_Small,1,1,10415795.0,10416088.0,293.0
149,choice,choice,10,2.0,Object,2.0,75.88732958400033,Object_Land_Solid_Large,0,1,10416115.0,10417450.0,1335.0
149,choice,choice,10,2.0,Object,2.0,75.88732958400033,Object_Sea_Solid_Small,1,1,10417740.0,10418686.0,946.0
149,choice,choice,10,2.0,Object,2.0,75.88732958400033,Object_Land_Solid_Large,0,1,10418911.0,10419175.0,264.0
149,choice,choice,10,2.0,Object,2.0,75.88732958400033,Object_Sea_Solid_Small,1,1,10419201.0,10420917.0,1716.0
149,choice,choice,10,2.0,Object,2.0,75.88732958400033,Object_Land_Solid_Large,0,1,10421191.0,10421809.0,618.0
149,choice,choice,10,2.0,Object,2.0,75.88732958400033,Object_Sea_Solid_Small,1,1,10421831.0,10422241.0,410.0
149,choice,choice,10,2.0,Object,2.0,75.88732958400033,Animal_Sea_Solid_Small,4,0,10422589.0,10422812.0,223.0
149,choice,choice,10,2.0,Object,2.0,75.88732958400033,Animal_Land_Pattern_Large,5,0,10423077.0,10424923.0,1846.0
149,choice,choice,10,2.0,Object,2.0,75.88732958400033,Animal_Sea_Solid_Small,4,0,10424951.0,10425208.0,257.0
149,choice,choice,10,2.0,Object,2.0,75.88732958400033,Object_Land_Solid_Large,0,1,10425428.0,10425635.0,207.0
149,choice,choice,10,2.0,Object,2.0,75.88732958400033,Object_Sea_Solid_Small,1,1,10425664.0,10426307.0,643.0
149,choice,choice,10,2.0,Object,2.0,75.88732958400033,Animal_Land_Pattern_Large,5,0,10426369.0,10426658.0,289.0
149,choice,choice,10,2.0,Object,2.0,75.88732958400033,Animal_Sea_Pattern_Small,2,0,10426709.0,10427000.0,291.0
149,choice,choice,10,2.0,Object,2.0,75.88732958400033,Object_Land_Pattern_Large,3,1,10427020.0,10427458.0,438.0
149,choice,choice,10,2.0,Object,2.0,75.88732958400033,Animal_Sea_Pattern_Small,2,0,10428296.0,10429765.0,1469.0
149,choice,choice,10,2.0,Object,2.0,75.88732958400033,Object_Land_Solid_Large,0,1,10430095.0,10430295.0,200.0
149,choice,choice,10,2.0,Object,2.0,75.88732958400033,Animal_Sea_Pattern_Small,2,0,10430319.0,10432365.0,2046.0
149,choice,choice,10,2.0,Object,2.0,75.88732958400033,Object_Sea_Solid_Small,1,1,10433055.0,10433328.0,273.0
149,choice,choice,10,2.0,Object,2.0,75.88732958400033,Animal_Sea_Pattern_Small,2,0,10433374.0,10433760.0,386.0
149,choice,choice,10,2.0,Object,2.0,75.88732958400033,Object_Sea_Solid_Small,1,1,10433816.0,10434053.0,237.0
149,choice,choice,10,2.0,Object,2.0,75.88732958400033,Animal_Sea_Pattern_Small,2,0,10434247.0,10434520.0,273.0
149,choice,choice,10,2.0,Object,2.0,75.88732958400033,Object_Sea_Solid_Small,1,1,10434567.0,10434763.0,196.0
149,choice,choice,10,2.0,Object,2.0,75.88732958400033,Animal_Sea_Pattern_Small,2,0,10434818.0,10438324.0,3506.0
149,choice,choice,10,2.0,Object,2.0,75.88732958400033,Object_Sea_Solid_Small,1,1,10438842.0,10439045.0,203.0
149,choice,choice,10,2.0,Object,2.0,75.88732958400033,Animal_Sea_Pattern_Small,2,0,10439092.0,10442694.0,3602.0
149,choice,choice,10,2.0,Object,2.0,75.88732958400033,Object_Land_Pattern_Large,3,1,10443970.0,10444331.0,361.0
149,choice,choice,10,2.0,Object,2.0,75.88732958400033,Animal_Sea_Pattern_Small,2,0,10444377.0,10445547.0,1170.0
149,choice,choice,10,2.0,Object,2.0,75.88732958400033,Object_Land_Solid_Large,0,1,10445788.0,10446270.0,482.0
149,choice,choice,10,2.0,Object,2.0,75.88732958400033,Object_Sea_Solid_Small,1,1,10446297.0,10446648.0,351.0
149,choice,choice,10,2.0,Object,2.0,75.88732958400033,Animal_Sea_Pattern_Small,2,0,10446696.0,10454546.0,7850.0
149,choice,choice,10,2.0,Object,2.0,75.88732958400033,Animal_Land_Pattern_Large,5,0,10455663.0,10455824.0,161.0
149,choice,choice,10,2.0,Object,2.0,75.88732958400033,Object_Land_Solid_Large,0,1,10455897.0,10457586.0,1689.0
149,choice,choice,10,2.0,Object,2.0,75.88732958400033,Object_Sea_Solid_Small,1,1,10458008.0,10458602.0,594.0
149,choice,choice,10,2.0,Object,2.0,75.88732958400033,Object_Land_Solid_Large,0,1,10458620.0,10459022.0,402.0
149,choice,choice,10,2.0,Object,2.0,75.88732958400033,Object_Sea_Solid_Small,1,1,10459258.0,10460227.0,969.0
149,choice,choice,10,2.0,Object,2.0,75.88732958400033,Object_Land_Solid_Large,0,1,10460264.0,10464392.0,4128.0
149,choice,choice,10,2.0,Object,2.0,75.88732958400033,Object_Sea_Solid_Small,1,1,10465119.0,10465330.0,211.0
149,choice,choice,10,2.0,Object,2.0,75.88732958400033,Animal_Sea_Solid_Small,4,0,10465359.0,10466947.0,1588.0
149,choice,choice,10,2.0,Object,2.0,75.88732958400033,Object_Sea_Solid_Small,1,1,10467958.0,10468361.0,403.0
149,choice,choice,10,2.0,Object,2.0,75.88732958400033,Object_Land_Solid_Large,0,1,10468413.0,10469363.0,950.0
149,choice,choice,10,2.0,Object,2.0,75.88732958400033,Animal_Sea_Solid_Small,4,0,10469413.0,10470996.0,1583.0
149,choice,choice,10,2.0,Object,2.0,75.88732958400033,Object_Sea_Solid_Small,1,1,10471239.0,10471443.0,204.0
149,choice,choice,10,2.0,Object,2.0,75.88732958400033,Object_Land_Solid_Large,0,1,10471488.0,10471810.0,322.0
149,choice,choice,10,2.0,Object,2.0,75.88732958400033,Object_Sea_Solid_Small,1,1,10471836.0,10472221.0,385.0
149,choice,choice,10,2.0,Object,2.0,75.88732958400033,Animal_Sea_Solid_Small,4,0,10472265.0,10472518.0,253.0
149,choice,choice,10,2.0,Object,2.0,75.88732958400033,Object_Land_Pattern_Large,3,1,10474265.0,10474542.0,277.0
149,choice,choice,10,2.0,Object,2.0,75.88732958400033,Animal_Sea_Pattern_Small,2,0,10474952.0,10475892.0,940.0
149,choice,choice,10,2.0,Object,2.0,75.88732958400033,Object_Land_Solid_Large,0,1,10476132.0,10476657.0,525.0
149,choice,choice,10,2.0,Object,2.0,75.88732958400033,Animal_Sea_Pattern_Small,2,0,10476683.0,10478160.0,1477.0
149,choice,choice,10,2.0,Object,2.0,75.88732958400033,Object_Land_Solid_Large,0,1,10479180.0,10479781.0,601.0
149,choice,choice,10,2.0,Object,2.0,75.88732958400033,Animal_Sea_Pattern_Small,2,0,10480300.0,10482827.0,2527.0
149,choice,choice,10,2.0,Object,2.0,75.88732958400033,Object_Land_Solid_Large,0,1,10483118.0,10483360.0,242.0
149,choice,choice,10,2.0,Object,2.0,75.88732958400033,Object_Sea_Solid_Small,1,1,10483383.0,10483680.0,297.0
149,choice,choice,11,2.0,Large,2.0,4.069804374999876,Object_Land_Solid_Large,0,1,10489480.0,10490639.0,1159.0
149,choice,choice,11,2.0,Large,2.0,4.069804374999876,Object_Sea_Solid_Small,1,0,10490708.0,10490832.0,124.0
149,choice,choice,11,2.0,Large,2.0,4.069804374999876,Object_Land_Solid_Large,0,1,10490872.0,10491500.0,628.0
149,choice,choice,11,2.0,Large,2.0,4.069804374999876,Object_Sea_Solid_Small,1,0,10491754.0,10492643.0,889.0
149,choice,choice,11,2.0,Large,2.0,4.069804374999876,Object_Land_Solid_Large,0,1,10492682.0,10493501.0,819.0
149,choice,choice,12,2.0,Small,1.0,12.962613458001217,Object_Sea_Solid_Small,1,1,10497295.0,10497609.0,314.0
149,choice,choice,12,2.0,Small,1.0,12.962613458001217,Object_Land_Solid_Large,0,0,10497883.0,10498126.0,243.0
149,choice,choice,12,2.0,Small,1.0,12.962613458001217,Object_Sea_Solid_Small,1,1,10498184.0,10498916.0,732.0
149,choice,choice,12,2.0,Small,1.0,12.962613458001217,Animal_Sea_Pattern_Small,2,1,10498959.0,10499615.0,656.0
149,choice,choice,12,2.0,Small,1.0,12.962613458001217,Object_Land_Solid_Large,0,0,10499634.0,10500215.0,581.0
149,choice,choice,12,2.0,Small,1.0,12.962613458001217,Object_Sea_Solid_Small,1,1,10500444.0,10502679.0,2235.0
149,choice,choice,12,2.0,Small,1.0,12.962613458001217,Object_Land_Solid_Large,0,0,10503013.0,10503538.0,525.0
149,choice,choice,12,2.0,Small,1.0,12.962613458001217,Object_Sea_Solid_Small,1,1,10503796.0,10507028.0,3232.0
149,choice,choice,12,2.0,Small,1.0,12.962613458001217,Object_Land_Solid_Large,0,0,10507144.0,10507350.0,206.0
149,choice,choice,13,2.0,Sea,2.0,40.52024150000034,Object_Land_Solid_Large,0,0,10512982.0,10513585.0,603.0
149,choice,choice,13,2.0,Sea,2.0,40.52024150000034,Object_Sea_Solid_Small,1,1,10513631.0,10514395.0,764.0
149,choice,choice,13,2.0,Sea,2.0,40.52024150000034,Object_Land_Solid_Large,0,0,10514437.0,10514684.0,247.0
149,choice,choice,13,2.0,Sea,2.0,40.52024150000034,Object_Sea_Solid_Small,1,1,10514870.0,10515384.0,514.0
149,choice,choice,13,2.0,Sea,2.0,40.52024150000034,Animal_Sea_Pattern_Small,2,1,10515414.0,10516788.0,1374.0
149,choice,choice,13,2.0,Sea,2.0,40.52024150000034,Object_Sea_Solid_Small,1,1,10517028.0,10521293.0,4265.0
149,choice,choice,13,2.0,Sea,2.0,40.52024150000034,Object_Land_Solid_Large,0,0,10525377.0,10525827.0,450.0
149,choice,choice,13,2.0,Sea,2.0,40.52024150000034,Animal_Sea_Pattern_Small,2,1,10525850.0,10527108.0,1258.0
149,choice,choice,13,2.0,Sea,2.0,40.52024150000034,Object_Sea_Solid_Small,1,1,10527392.0,10529006.0,1614.0
149,choice,choice,13,2.0,Sea,2.0,40.52024150000034,Object_Land_Solid_Large,0,0,10529077.0,10529429.0,352.0
149,choice,choice,13,2.0,Sea,2.0,40.52024150000034,Animal_Sea_Pattern_Small,2,1,10529449.0,10529805.0,356.0
149,choice,choice,13,2.0,Sea,2.0,40.52024150000034,Object_Sea_Solid_Small,1,1,10529851.0,10530704.0,853.0
149,choice,choice,13,2.0,Sea,2.0,40.52024150000034,Object_Land_Solid_Large,0,0,10530937.0,10531151.0,214.0
149,choice,choice,13,2.0,Sea,2.0,40.52024150000034,Object_Sea_Solid_Small,1,1,10531189.0,10531431.0,242.0
149,choice,choice,13,2.0,Sea,2.0,40.52024150000034,Animal_Sea_Pattern_Small,2,1,10531467.0,10531784.0,317.0
149,choice,choice,13,2.0,Sea,2.0,40.52024150000034,Object_Sea_Solid_Small,1,1,10531972.0,10532337.0,365.0
149,choice,choice,13,2.0,Sea,2.0,40.52024150000034,Object_Land_Solid_Large,0,0,10532361.0,10532772.0,411.0
149,choice,choice,13,2.0,Sea,2.0,40.52024150000034,Object_Sea_Solid_Small,1,1,10532798.0,10534154.0,1356.0
149,choice,choice,13,2.0,Sea,2.0,40.52024150000034,Animal_Sea_Pattern_Small,2,1,10534410.0,10534879.0,469.0
149,choice,choice,13,2.0,Sea,2.0,40.52024150000034,Object_Sea_Solid_Small,1,1,10534922.0,10535464.0,542.0
149,choice,choice,13,2.0,Sea,2.0,40.52024150000034,Object_Land_Solid_Large,0,0,10535490.0,10535703.0,213.0
149,choice,choice,13,2.0,Sea,2.0,40.52024150000034,Object_Sea_Solid_Small,1,1,10535727.0,10536297.0,570.0
149,choice,choice,13,2.0,Sea,2.0,40.52024150000034,Object_Land_Solid_Large,0,0,10536546.0,10536869.0,323.0
149,choice,choice,13,2.0,Sea,2.0,40.52024150000034,Animal_Sea_Pattern_Small,2,1,10536889.0,10537344.0,455.0
149,choice,choice,13,2.0,Sea,2.0,40.52024150000034,Object_Land_Solid_Large,0,0,10537782.0,10538077.0,295.0
149,choice,choice,13,2.0,Sea,2.0,40.52024150000034,Animal_Sea_Pattern_Small,2,1,10538097.0,10550878.0,12781.0
149,choice,choice,14,2.0,Animal,2.0,4.972981332999552,Object_Land_Solid_Large,0,0,10555967.0,10556624.0,657.0
149,choice,choice,14,2.0,Animal,2.0,4.972981332999552,Object_Sea_Solid_Small,1,0,10556853.0,10557383.0,530.0
149,choice,choice,14,2.0,Animal,2.0,4.972981332999552,Object_Land_Solid_Large,0,0,10557406.0,10559270.0,1864.0
149,choice,choice,14,2.0,Animal,2.0,4.972981332999552,Object_Sea_Solid_Small,1,0,10559749.0,10560061.0,312.0
149,choice,choice,15,2.0,Pattern,1.0,17.098829584001578,Object_Land_Solid_Large,0,0,10564435.0,10564779.0,344.0
149,choice,choice,15,2.0,Pattern,1.0,17.098829584001578,Object_Sea_Solid_Small,1,0,10564802.0,10565232.0,430.0
149,choice,choice,15,2.0,Pattern,1.0,17.098829584001578,Object_Land_Solid_Large,0,0,10565255.0,10565523.0,268.0
149,choice,choice,15,2.0,Pattern,1.0,17.098829584001578,Object_Sea_Solid_Small,1,0,10565727.0,10566145.0,418.0
149,choice,choice,15,2.0,Pattern,1.0,17.098829584001578,Object_Land_Solid_Large,0,0,10566173.0,10566426.0,253.0
149,choice,choice,15,2.0,Pattern,1.0,17.098829584001578,Object_Sea_Solid_Small,1,0,10566452.0,10569681.0,3229.0
149,choice,choice,15,2.0,Pattern,1.0,17.098829584001578,Object_Land_Solid_Large,0,0,10569714.0,10570409.0,695.0
149,choice,choice,15,2.0,Pattern,1.0,17.098829584001578,Object_Sea_Solid_Small,1,0,10570423.0,10571783.0,1360.0
149,choice,choice,15,2.0,Pattern,1.0,17.098829584001578,Object_Land_Solid_Large,0,0,10572710.0,10573239.0,529.0
149,choice,choice,15,2.0,Pattern,1.0,17.098829584001578,Object_Sea_Solid_Small,1,0,10573258.0,10573561.0,303.0
149,choice,choice,15,2.0,Pattern,1.0,17.098829584001578,Object_Land_Solid_Large,0,0,10573578.0,10574146.0,568.0
149,choice,choice,15,2.0,Pattern,1.0,17.098829584001578,Animal_Sea_Pattern_Small,2,1,10574364.0,10574822.0,458.0
149,choice,choice,15,2.0,Pattern,1.0,17.098829584001578,Object_Sea_Solid_Small,1,0,10574865.0,10577670.0,2805.0
149,choice,choice,15,2.0,Pattern,1.0,17.098829584001578,Object_Land_Solid_Large,0,0,10577806.0,10578266.0,460.0
149,choice,choice,15,2.0,Pattern,1.0,17.098829584001578,Animal_Sea_Pattern_Small,2,1,10578467.0,10578699.0,232.0
149,choice,choice,15,2.0,Pattern,1.0,17.098829584001578,Object_Sea_Solid_Small,1,0,10578728.0,10580444.0,1716.0
149,choice,choice,15,2.0,Pattern,1.0,17.098829584001578,Object_Land_Solid_Large,0,0,10580530.0,10581042.0,512.0
149,choice,choice,16,2.0,Land,2.0,6.136110750001535,Object_Land_Solid_Large,0,1,10585012.0,10585295.0,283.0
149,choice,choice,16,2.0,Land,2.0,6.136110750001535,Object_Sea_Solid_Small,1,0,10585320.0,10585736.0,416.0
149,choice,choice,16,2.0,Land,2.0,6.136110750001535,Object_Land_Solid_Large,0,1,10585764.0,10586140.0,376.0
149,choice,choice,16,2.0,Land,2.0,6.136110750001535,Object_Sea_Solid_Small,1,0,10586164.0,10586332.0,168.0
149,choice,choice,16,2.0,Land,2.0,6.136110750001535,Object_Land_Solid_Large,0,1,10586527.0,10590381.0,3854.0
149,choice,choice,17,3.0,Animal,1.0,22.16444945799958,Animal_Sea_Pattern_Large,0,1,10920253.0,10921154.0,901.0
149,choice,choice,17,3.0,Animal,1.0,22.16444945799958,Object_Sea_Solid_Large,1,0,10921428.0,10922202.0,774.0
149,choice,choice,17,3.0,Animal,1.0,22.16444945799958,Animal_Sea_Pattern_Large,0,1,10922237.0,10924066.0,1829.0
149,choice,choice,17,3.0,Animal,1.0,22.16444945799958,Animal_Land_Solid_Small,2,1,10924477.0,10924875.0,398.0
149,choice,choice,17,3.0,Animal,1.0,22.16444945799958,Object_Sea_Pattern_Large,3,0,10925655.0,10925828.0,173.0
149,choice,choice,17,3.0,Animal,1.0,22.16444945799958,Object_Sea_Solid_Large,1,0,10926788.0,10927540.0,752.0
149,choice,choice,17,3.0,Animal,1.0,22.16444945799958,Animal_Land_Pattern_Small,4,1,10927816.0,10928604.0,788.0
149,choice,choice,17,3.0,Animal,1.0,22.16444945799958,Object_Sea_Solid_Large,1,0,10928624.0,10929020.0,396.0
149,choice,choice,17,3.0,Animal,1.0,22.16444945799958,Animal_Land_Solid_Small,2,1,10929991.0,10931725.0,1734.0
149,choice,choice,17,3.0,Animal,1.0,22.16444945799958,Animal_Sea_Pattern_Large,0,1,10936405.0,10938327.0,1922.0
149,choice,choice,17,3.0,Animal,1.0,22.16444945799958,Object_Sea_Pattern_Large,3,0,10938567.0,10938790.0,223.0
149,choice,choice,17,3.0,Animal,1.0,22.16444945799958,Animal_Land_Solid_Small,2,1,10939510.0,10940087.0,577.0
149,choice,choice,17,3.0,Animal,1.0,22.16444945799958,Object_Sea_Solid_Large,1,0,10940621.0,10941704.0,1083.0
149,choice,choice,17,3.0,Animal,1.0,22.16444945799958,Object_Sea_Pattern_Large,3,0,10941946.0,10942017.0,71.0
149,choice,choice,18,3.0,Large,2.0,14.832747417000064,Animal_Sea_Pattern_Large,0,1,10945879.0,10946618.0,739.0
149,choice,choice,18,3.0,Large,2.0,14.832747417000064,Object_Sea_Solid_Large,1,1,10946824.0,10947150.0,326.0
149,choice,choice,18,3.0,Large,2.0,14.832747417000064,Animal_Sea_Pattern_Large,0,1,10947175.0,10947543.0,368.0
149,choice,choice,18,3.0,Large,2.0,14.832747417000064,Object_Sea_Solid_Large,1,1,10947569.0,10948052.0,483.0
149,choice,choice,18,3.0,Large,2.0,14.832747417000064,Object_Sea_Pattern_Large,3,1,10948308.0,10948542.0,234.0
149,choice,choice,18,3.0,Large,2.0,14.832747417000064,Object_Sea_Solid_Large,1,1,10948581.0,10949806.0,1225.0
149,choice,choice,18,3.0,Large,2.0,14.832747417000064,Animal_Sea_Pattern_Large,0,1,10950009.0,10950229.0,220.0
149,choice,choice,18,3.0,Large,2.0,14.832747417000064,Object_Sea_Solid_Large,1,1,10950243.0,10950596.0,353.0
149,choice,choice,18,3.0,Large,2.0,14.832747417000064,Animal_Sea_Pattern_Large,0,1,10950795.0,10952886.0,2091.0
149,choice,choice,18,3.0,Large,2.0,14.832747417000064,Object_Sea_Solid_Large,1,1,10953200.0,10953486.0,286.0
149,choice,choice,18,3.0,Large,2.0,14.832747417000064,Animal_Sea_Pattern_Large,0,1,10953511.0,10956494.0,2983.0
149,choice,choice,18,3.0,Large,2.0,14.832747417000064,Object_Sea_Pattern_Large,3,1,10956837.0,10957343.0,506.0
149,choice,choice,18,3.0,Large,2.0,14.832747417000064,Animal_Sea_Pattern_Large,0,1,10957369.0,10957556.0,187.0
149,choice,choice,18,3.0,Large,2.0,14.832747417000064,Object_Sea_Pattern_Large,3,1,10957580.0,10958137.0,557.0
149,choice,choice,18,3.0,Large,2.0,14.832747417000064,Animal_Sea_Pattern_Large,0,1,10958160.0,10958404.0,244.0
149,choice,choice,18,3.0,Large,2.0,14.832747417000064,Object_Sea_Solid_Large,1,1,10958440.0,10958654.0,214.0
149,choice,choice,18,3.0,Large,2.0,14.832747417000064,Animal_Sea_Pattern_Large,0,1,10958865.0,10959031.0,166.0
149,choice,choice,18,3.0,Large,2.0,14.832747417000064,Object_Sea_Pattern_Large,3,1,10959055.0,10960019.0,964.0
149,choice,choice,18,3.0,Large,2.0,14.832747417000064,Animal_Sea_Pattern_Large,0,1,10960042.0,10960409.0,367.0
149,choice,choice,19,3.0,Solid,1.0,33.54439554199962,Object_Sea_Solid_Large,1,1,10964225.0,10965519.0,1294.0
149,choice,choice,19,3.0,Solid,1.0,33.54439554199962,Animal_Sea_Pattern_Large,0,0,10965755.0,10966708.0,953.0
149,choice,choice,19,3.0,Solid,1.0,33.54439554199962,Object_Sea_Solid_Large,1,1,10966753.0,10967310.0,557.0
149,choice,choice,19,3.0,Solid,1.0,33.54439554199962,Animal_Sea_Pattern_Large,0,0,10967330.0,10968923.0,1593.0
149,choice,choice,19,3.0,Solid,1.0,33.54439554199962,Object_Sea_Solid_Large,1,1,10968954.0,10969089.0,135.0
149,choice,choice,19,3.0,Solid,1.0,33.54439554199962,Animal_Sea_Pattern_Large,0,0,10969277.0,10977791.0,8514.0
149,choice,choice,19,3.0,Solid,1.0,33.54439554199962,Object_Sea_Pattern_Large,3,0,10979093.0,10979500.0,407.0
149,choice,choice,19,3.0,Solid,1.0,33.54439554199962,Object_Sea_Solid_Large,1,1,10979543.0,10979816.0,273.0
149,choice,choice,19,3.0,Solid,1.0,33.54439554199962,Animal_Sea_Pattern_Large,0,0,10980063.0,10987189.0,7126.0
149,choice,choice,19,3.0,Solid,1.0,33.54439554199962,Object_Sea_Pattern_Large,3,0,10987716.0,10989714.0,1998.0
149,choice,choice,19,3.0,Solid,1.0,33.54439554199962,Object_Sea_Solid_Large,1,1,10993141.0,10993226.0,85.0
149,choice,choice,19,3.0,Solid,1.0,33.54439554199962,Animal_Land_Pattern_Small,4,0,10993465.0,10994028.0,563.0
149,choice,choice,19,3.0,Solid,1.0,33.54439554199962,Object_Sea_Solid_Large,1,1,10994092.0,10997266.0,3174.0
149,choice,choice,20,3.0,Land,1.0,10.41013991699947,Object_Sea_Solid_Large,1,0,11000824.0,11001834.0,1010.0
149,choice,choice,20,3.0,Land,1.0,10.41013991699947,Animal_Sea_Pattern_Large,0,0,11001889.0,11002091.0,202.0
149,choice,choice,20,3.0,Land,1.0,10.41013991699947,Animal_Land_Pattern_Small,4,1,11002124.0,11002931.0,807.0
149,choice,choice,20,3.0,Land,1.0,10.41013991699947,Object_Sea_Solid_Large,1,0,11003222.0,11003945.0,723.0
149,choice,choice,20,3.0,Land,1.0,10.41013991699947,Animal_Land_Solid_Small,2,1,11004801.0,11006136.0,1335.0
149,choice,choice,20,3.0,Land,1.0,10.41013991699947,Object_Sea_Pattern_Large,3,0,11009190.0,11009429.0,239.0
149,choice,choice,20,3.0,Land,1.0,10.41013991699947,Animal_Sea_Pattern_Large,0,0,11009450.0,11010078.0,628.0
149,choice,choice,20,3.0,Land,1.0,10.41013991699947,Object_Sea_Pattern_Large,3,0,11010092.0,11010404.0,312.0
149,choice,choice,21,3.0,Sea,1.0,19.3628130420002,Animal_Sea_Pattern_Large,0,1,11013895.0,11021331.0,7436.0
149,choice,choice,21,3.0,Sea,1.0,19.3628130420002,Object_Sea_Solid_Large,1,1,11023208.0,11023737.0,529.0
149,choice,choice,21,3.0,Sea,1.0,19.3628130420002,Animal_Sea_Pattern_Large,0,1,11023937.0,11025193.0,1256.0
149,choice,choice,21,3.0,Sea,1.0,19.3628130420002,Object_Sea_Solid_Large,1,1,11025499.0,11026306.0,807.0
149,choice,choice,21,3.0,Sea,1.0,19.3628130420002,Animal_Sea_Pattern_Large,0,1,11026541.0,11030644.0,4103.0
149,choice,choice,21,3.0,Sea,1.0,19.3628130420002,Object_Sea_Pattern_Large,3,1,11031485.0,11031961.0,476.0
149,choice,choice,21,3.0,Sea,1.0,19.3628130420002,Animal_Sea_Pattern_Large,0,1,11032002.0,11033111.0,1109.0
149,choice,choice,22,3.0,Object,1.0,10.99522641600015,Animal_Sea_Pattern_Large,0,0,11036130.0,11039048.0,2918.0
149,choice,choice,22,3.0,Object,1.0,10.99522641600015,Object_Sea_Pattern_Large,3,1,11039450.0,11040363.0,913.0
149,choice,choice,22,3.0,Object,1.0,10.99522641600015,Object_Sea_Solid_Large,1,1,11040428.0,11041605.0,1177.0
149,choice,choice,22,3.0,Object,1.0,10.99522641600015,Animal_Sea_Pattern_Large,0,0,11041821.0,11042180.0,359.0
149,choice,choice,22,3.0,Object,1.0,10.99522641600015,Object_Sea_Solid_Large,1,1,11042194.0,11042471.0,277.0
149,choice,choice,22,3.0,Object,1.0,10.99522641600015,Animal_Sea_Pattern_Large,0,0,11042503.0,11042896.0,393.0
149,choice,choice,22,3.0,Object,1.0,10.99522641600015,Object_Sea_Solid_Large,1,1,11043073.0,11043599.0,526.0
149,choice,choice,22,3.0,Object,1.0,10.99522641600015,Animal_Sea_Pattern_Large,0,0,11044031.0,11044564.0,533.0
149,choice,choice,22,3.0,Object,1.0,10.99522641600015,Object_Sea_Solid_Large,1,1,11044843.0,11045024.0,181.0
149,choice,choice,22,3.0,Object,1.0,10.99522641600015,Object_Sea_Pattern_Large,3,1,11045068.0,11045328.0,260.0
149,choice,choice,22,3.0,Object,1.0,10.99522641600015,Object_Sea_Solid_Large,1,1,11045363.0,11046260.0,897.0
149,choice,choice,22,3.0,Object,1.0,10.99522641600015,Animal_Sea_Pattern_Large,0,0,11046286.0,11046932.0,646.0
149,choice,choice,23,3.0,Small,2.0,7.968165874999613,Object_Land_Solid_Small,5,1,11050247.0,11050594.0,347.0
149,choice,choice,23,3.0,Small,2.0,7.968165874999613,Animal_Land_Pattern_Small,4,1,11050633.0,11051434.0,801.0
149,choice,choice,23,3.0,Small,2.0,7.968165874999613,Animal_Land_Solid_Small,2,1,11052006.0,11052358.0,352.0
149,choice,choice,23,3.0,Small,2.0,7.968165874999613,Object_Sea_Pattern_Large,3,0,11052378.0,11052777.0,399.0
149,choice,choice,23,3.0,Small,2.0,7.968165874999613,Object_Sea_Solid_Large,1,0,11053019.0,11054286.0,1267.0
149,choice,choice,23,3.0,Small,2.0,7.968165874999613,Object_Sea_Pattern_Large,3,0,11054333.0,11054521.0,188.0
149,choice,choice,23,3.0,Small,2.0,7.968165874999613,Animal_Sea_Pattern_Large,0,0,11054812.0,11055459.0,647.0
149,choice,choice,23,3.0,Small,2.0,7.968165874999613,Object_Sea_Solid_Large,1,0,11055487.0,11055746.0,259.0
149,choice,choice,23,3.0,Small,2.0,7.968165874999613,Animal_Sea_Pattern_Large,0,0,11055771.0,11056105.0,334.0
149,choice,choice,23,3.0,Small,2.0,7.968165874999613,Object_Sea_Solid_Large,1,0,11056130.0,11056332.0,202.0
149,choice,choice,23,3.0,Small,2.0,7.968165874999613,Animal_Sea_Pattern_Large,0,0,11056549.0,11056762.0,213.0
149,choice,choice,23,3.0,Small,2.0,7.968165874999613,Object_Sea_Solid_Large,1,0,11056780.0,11057419.0,639.0
149,choice,choice,24,3.0,Pattern,1.0,14.572941792001076,Animal_Sea_Pattern_Large,0,1,11061370.0,11062000.0,630.0
149,choice,choice,24,3.0,Pattern,1.0,14.572941792001076,Object_Sea_Solid_Large,1,0,11062255.0,11062840.0,585.0
149,choice,choice,24,3.0,Pattern,1.0,14.572941792001076,Animal_Sea_Pattern_Large,0,1,11062862.0,11064331.0,1469.0
149,choice,choice,24,3.0,Pattern,1.0,14.572941792001076,Object_Sea_Solid_Large,1,0,11064394.0,11064751.0,357.0
149,choice,choice,24,3.0,Pattern,1.0,14.572941792001076,Animal_Sea_Pattern_Large,0,1,11064764.0,11065161.0,397.0
149,choice,choice,24,3.0,Pattern,1.0,14.572941792001076,Object_Sea_Solid_Large,1,0,11065407.0,11066806.0,1399.0
149,choice,choice,24,3.0,Pattern,1.0,14.572941792001076,Animal_Sea_Pattern_Large,0,1,11067079.0,11067764.0,685.0
149,choice,choice,24,3.0,Pattern,1.0,14.572941792001076,Object_Sea_Solid_Large,1,0,11067790.0,11068132.0,342.0
149,choice,choice,24,3.0,Pattern,1.0,14.572941792001076,Animal_Sea_Pattern_Large,0,1,11068153.0,11068242.0,89.0
149,choice,choice,24,3.0,Pattern,1.0,14.572941792001076,Object_Sea_Solid_Large,1,0,11068487.0,11068733.0,246.0
149,choice,choice,24,3.0,Pattern,1.0,14.572941792001076,Animal_Sea_Pattern_Large,0,1,11068759.0,11069256.0,497.0
149,choice,choice,24,3.0,Pattern,1.0,14.572941792001076,Object_Sea_Solid_Large,1,0,11069453.0,11069785.0,332.0
149,choice,choice,24,3.0,Pattern,1.0,14.572941792001076,Animal_Sea_Pattern_Large,0,1,11069812.0,11071127.0,1315.0
149,choice,choice,24,3.0,Pattern,1.0,14.572941792001076,Object_Sea_Pattern_Large,3,1,11071389.0,11071576.0,187.0
149,choice,choice,24,3.0,Pattern,1.0,14.572941792001076,Animal_Sea_Pattern_Large,0,1,11071611.0,11073168.0,1557.0
149,choice,choice,24,3.0,Pattern,1.0,14.572941792001076,Object_Sea_Pattern_Large,3,1,11074060.0,11074563.0,503.0
149,choice,choice,24,3.0,Pattern,1.0,14.572941792001076,Animal_Sea_Pattern_Large,0,1,11074587.0,11075080.0,493.0
149,choice,choice,25,4.0,Sea,1.0,51.885494083000594,Animal_Sea_Solid_Large,0,1,11343949.0,11345962.0,2013.0
149,choice,choice,25,4.0,Sea,1.0,51.885494083000594,Animal_Land_Solid_Large,1,0,11346454.0,11346520.0,66.0
149,choice,choice,25,4.0,Sea,1.0,51.885494083000594,Animal_Sea_Solid_Large,0,1,11346770.0,11349337.0,2567.0
149,choice,choice,25,4.0,Sea,1.0,51.885494083000594,Object_Sea_Pattern_Large,2,1,11349695.0,11350445.0,750.0
149,choice,choice,25,4.0,Sea,1.0,51.885494083000594,Animal_Sea_Solid_Large,0,1,11350657.0,11351029.0,372.0
149,choice,choice,25,4.0,Sea,1.0,51.885494083000594,Animal_Land_Solid_Large,1,0,11351052.0,11351461.0,409.0
149,choice,choice,25,4.0,Sea,1.0,51.885494083000594,Animal_Sea_Solid_Large,0,1,11351503.0,11352331.0,828.0
149,choice,choice,25,4.0,Sea,1.0,51.885494083000594,Animal_Land_Solid_Large,1,0,11352356.0,11352507.0,151.0
149,choice,choice,25,4.0,Sea,1.0,51.885494083000594,Animal_Sea_Solid_Large,0,1,11352743.0,11353002.0,259.0
149,choice,choice,25,4.0,Sea,1.0,51.885494083000594,Object_Sea_Pattern_Large,2,1,11353043.0,11353439.0,396.0
149,choice,choice,25,4.0,Sea,1.0,51.885494083000594,Object_Sea_Pattern_Small,3,1,11353480.0,11353798.0,318.0
149,choice,choice,25,4.0,Sea,1.0,51.885494083000594,Animal_Sea_Solid_Large,0,1,11354454.0,11354579.0,125.0
149,choice,choice,25,4.0,Sea,1.0,51.885494083000594,Object_Sea_Pattern_Small,3,1,11354634.0,11354914.0,280.0
149,choice,choice,25,4.0,Sea,1.0,51.885494083000594,Animal_Sea_Solid_Large,0,1,11354971.0,11355247.0,276.0
149,choice,choice,25,4.0,Sea,1.0,51.885494083000594,Object_Sea_Pattern_Small,3,1,11355298.0,11356049.0,751.0
149,choice,choice,25,4.0,Sea,1.0,51.885494083000594,Animal_Land_Solid_Large,1,0,11356107.0,11356803.0,696.0
149,choice,choice,25,4.0,Sea,1.0,51.885494083000594,Animal_Sea_Solid_Large,0,1,11357329.0,11357837.0,508.0
149,choice,choice,25,4.0,Sea,1.0,51.885494083000594,Animal_Land_Solid_Large,1,0,11357862.0,11358435.0,573.0
149,choice,choice,25,4.0,Sea,1.0,51.885494083000594,Animal_Sea_Solid_Large,0,1,11358768.0,11359263.0,495.0
149,choice,choice,25,4.0,Sea,1.0,51.885494083000594,Animal_Land_Solid_Large,1,0,11359288.0,11362507.0,3219.0
149,choice,choice,25,4.0,Sea,1.0,51.885494083000594,Object_Sea_Pattern_Large,2,1,11362858.0,11363209.0,351.0
149,choice,choice,25,4.0,Sea,1.0,51.885494083000594,Animal_Sea_Solid_Large,0,1,11363249.0,11363590.0,341.0
149,choice,choice,25,4.0,Sea,1.0,51.885494083000594,Animal_Land_Solid_Large,1,0,11363865.0,11365305.0,1440.0
149,choice,choice,25,4.0,Sea,1.0,51.885494083000594,Object_Sea_Pattern_Large,2,1,11365538.0,11366462.0,924.0
149,choice,choice,25,4.0,Sea,1.0,51.885494083000594,Animal_Land_Solid_Small,4,0,11366520.0,11367019.0,499.0
149,choice,choice,25,4.0,Sea,1.0,51.885494083000594,Object_Sea_Pattern_Large,2,1,11367417.0,11367625.0,208.0
149,choice,choice,25,4.0,Sea,1.0,51.885494083000594,Animal_Land_Solid_Large,1,0,11367667.0,11368021.0,354.0
149,choice,choice,25,4.0,Sea,1.0,51.885494083000594,Object_Sea_Pattern_Large,2,1,11368064.0,11368343.0,279.0
149,choice,choice,25,4.0,Sea,1.0,51.885494083000594,Animal_Land_Solid_Large,1,0,11368384.0,11368861.0,477.0
149,choice,choice,25,4.0,Sea,1.0,51.885494083000594,Object_Sea_Pattern_Large,2,1,11368907.0,11369281.0,374.0
149,choice,choice,25,4.0,Sea,1.0,51.885494083000594,Animal_Land_Solid_Large,1,0,11369482.0,11369901.0,419.0
149,choice,choice,25,4.0,Sea,1.0,51.885494083000594,Object_Sea_Pattern_Large,2,1,11369945.0,11370613.0,668.0
149,choice,choice,25,4.0,Sea,1.0,51.885494083000594,Animal_Land_Solid_Large,1,0,11370873.0,11371500.0,627.0
149,choice,choice,25,4.0,Sea,1.0,51.885494083000594,Object_Sea_Pattern_Large,2,1,11371758.0,11371854.0,96.0
149,choice,choice,25,4.0,Sea,1.0,51.885494083000594,Animal_Land_Solid_Large,1,0,11371902.0,11372191.0,289.0
149,choice,choice,25,4.0,Sea,1.0,51.885494083000594,Animal_Sea_Solid_Large,0,1,11372459.0,11372986.0,527.0
149,choice,choice,25,4.0,Sea,1.0,51.885494083000594,Animal_Land_Solid_Large,1,0,11373032.0,11373786.0,754.0
149,choice,choice,25,4.0,Sea,1.0,51.885494083000594,Animal_Sea_Solid_Large,0,1,11374212.0,11374686.0,474.0
149,choice,choice,25,4.0,Sea,1.0,51.885494083000594,Animal_Land_Solid_Large,1,0,11374717.0,11375023.0,306.0
149,choice,choice,25,4.0,Sea,1.0,51.885494083000594,Animal_Sea_Solid_Large,0,1,11375046.0,11375227.0,181.0
149,choice,choice,25,4.0,Sea,1.0,51.885494083000594,Animal_Land_Solid_Large,1,0,11375450.0,11376051.0,601.0
149,choice,choice,25,4.0,Sea,1.0,51.885494083000594,Object_Sea_Pattern_Small,3,1,11376078.0,11376415.0,337.0
149,choice,choice,25,4.0,Sea,1.0,51.885494083000594,Animal_Sea_Solid_Large,0,1,11376464.0,11376879.0,415.0
149,choice,choice,25,4.0,Sea,1.0,51.885494083000594,Animal_Land_Solid_Large,1,0,11377120.0,11377521.0,401.0
149,choice,choice,25,4.0,Sea,1.0,51.885494083000594,Object_Land_Pattern_Small,5,0,11377561.0,11378222.0,661.0
149,choice,choice,25,4.0,Sea,1.0,51.885494083000594,Animal_Sea_Solid_Large,0,1,11378284.0,11378938.0,654.0
149,choice,choice,25,4.0,Sea,1.0,51.885494083000594,Animal_Land_Solid_Large,1,0,11379198.0,11380034.0,836.0
149,choice,choice,25,4.0,Sea,1.0,51.885494083000594,Animal_Land_Solid_Small,4,0,11380339.0,11380543.0,204.0
149,choice,choice,25,4.0,Sea,1.0,51.885494083000594,Animal_Land_Solid_Large,1,0,11380865.0,11381203.0,338.0
149,choice,choice,25,4.0,Sea,1.0,51.885494083000594,Animal_Land_Solid_Small,4,0,11381253.0,11381513.0,260.0
149,choice,choice,25,4.0,Sea,1.0,51.885494083000594,Object_Sea_Pattern_Large,2,1,11382004.0,11382383.0,379.0
149,choice,choice,25,4.0,Sea,1.0,51.885494083000594,Animal_Land_Solid_Large,1,0,11382645.0,11382984.0,339.0
149,choice,choice,25,4.0,Sea,1.0,51.885494083000594,Object_Sea_Pattern_Large,2,1,11383017.0,11386143.0,3126.0
149,choice,choice,25,4.0,Sea,1.0,51.885494083000594,Animal_Sea_Solid_Large,0,1,11386655.0,11387181.0,526.0
149,choice,choice,25,4.0,Sea,1.0,51.885494083000594,Animal_Land_Solid_Large,1,0,11387198.0,11389836.0,2638.0
149,choice,choice,25,4.0,Sea,1.0,51.885494083000594,Object_Sea_Pattern_Large,2,1,11389881.0,11389998.0,117.0
149,choice,choice,25,4.0,Sea,1.0,51.885494083000594,Animal_Sea_Solid_Large,0,1,11390193.0,11391641.0,1448.0
149,choice,choice,25,4.0,Sea,1.0,51.885494083000594,Animal_Land_Solid_Large,1,0,11391729.0,11391954.0,225.0
149,choice,choice,25,4.0,Sea,1.0,51.885494083000594,Animal_Sea_Solid_Large,0,1,11391986.0,11392426.0,440.0
149,choice,choice,25,4.0,Sea,1.0,51.885494083000594,Animal_Land_Solid_Large,1,0,11392677.0,11392908.0,231.0
149,choice,choice,25,4.0,Sea,1.0,51.885494083000594,Animal_Sea_Solid_Large,0,1,11393279.0,11394190.0,911.0
149,choice,choice,25,4.0,Sea,1.0,51.885494083000594,Object_Sea_Pattern_Large,2,1,11394409.0,11395501.0,1092.0
149,choice,choice,26,4.0,Animal,1.0,10.613836250000531,Animal_Sea_Solid_Large,0,1,11399334.0,11400035.0,701.0
149,choice,choice,26,4.0,Animal,1.0,10.613836250000531,Animal_Land_Solid_Large,1,1,11400253.0,11400993.0,740.0
149,choice,choice,26,4.0,Animal,1.0,10.613836250000531,Animal_Sea_Solid_Large,0,1,11401028.0,11401598.0,570.0
149,choice,choice,26,4.0,Animal,1.0,10.613836250000531,Animal_Land_Solid_Large,1,1,11401869.0,11402291.0,422.0
149,choice,choice,26,4.0,Animal,1.0,10.613836250000531,Animal_Sea_Solid_Large,0,1,11402311.0,11402646.0,335.0
149,choice,choice,26,4.0,Animal,1.0,10.613836250000531,Object_Sea_Pattern_Large,2,0,11402689.0,11403047.0,358.0
149,choice,choice,26,4.0,Animal,1.0,10.613836250000531,Animal_Sea_Solid_Large,0,1,11403320.0,11403781.0,461.0
149,choice,choice,26,4.0,Animal,1.0,10.613836250000531,Animal_Land_Solid_Small,4,1,11403832.0,11404359.0,527.0
149,choice,choice,26,4.0,Animal,1.0,10.613836250000531,Animal_Land_Solid_Large,1,1,11405242.0,11405467.0,225.0
149,choice,choice,26,4.0,Animal,1.0,10.613836250000531,Animal_Land_Solid_Small,4,1,11405693.0,11406359.0,666.0
149,choice,choice,26,4.0,Animal,1.0,10.613836250000531,Animal_Land_Solid_Large,1,1,11407152.0,11407329.0,177.0
149,choice,choice,26,4.0,Animal,1.0,10.613836250000531,Animal_Land_Solid_Small,4,1,11408328.0,11409276.0,948.0
149,choice,choice,27,4.0,Land,2.0,10.001785208,Animal_Sea_Solid_Large,0,0,11413417.0,11413758.0,341.0
149,choice,choice,27,4.0,Land,2.0,10.001785208,Animal_Land_Solid_Large,1,1,11413781.0,11414823.0,1042.0
149,choice,choice,27,4.0,Land,2.0,10.001785208,Object_Sea_Pattern_Large,2,0,11415073.0,11415332.0,259.0
149,choice,choice,27,4.0,Land,2.0,10.001785208,Animal_Sea_Solid_Large,0,0,11415542.0,11415759.0,217.0
149,choice,choice,27,4.0,Land,2.0,10.001785208,Object_Sea_Pattern_Large,2,0,11416063.0,11416735.0,672.0
149,choice,choice,27,4.0,Land,2.0,10.001785208,Animal_Land_Solid_Small,4,1,11416778.0,11417342.0,564.0
149,choice,choice,27,4.0,Land,2.0,10.001785208,Animal_Land_Solid_Large,1,1,11417390.0,11417809.0,419.0
149,choice,choice,27,4.0,Land,2.0,10.001785208,Animal_Land_Solid_Small,4,1,11418362.0,11418731.0,369.0
149,choice,choice,27,4.0,Land,2.0,10.001785208,Animal_Land_Solid_Large,1,1,11418948.0,11419345.0,397.0
149,choice,choice,27,4.0,Land,2.0,10.001785208,Object_Sea_Pattern_Small,3,0,11419382.0,11419573.0,191.0
149,choice,choice,27,4.0,Land,2.0,10.001785208,Animal_Land_Solid_Large,1,1,11419879.0,11420651.0,772.0
149,choice,choice,28,4.0,Small,2.0,28.2983666250002,Animal_Land_Solid_Large,1,0,11426294.0,11426542.0,248.0
149,choice,choice,28,4.0,Small,2.0,28.2983666250002,Animal_Sea_Solid_Large,0,0,11426568.0,11437621.0,11053.0
149,choice,choice,28,4.0,Small,2.0,28.2983666250002,Object_Sea_Pattern_Large,2,0,11439982.0,11440322.0,340.0
149,choice,choice,28,4.0,Small,2.0,28.2983666250002,Animal_Sea_Solid_Large,0,0,11440348.0,11440627.0,279.0
149,choice,choice,28,4.0,Small,2.0,28.2983666250002,Object_Sea_Pattern_Large,2,0,11440653.0,11441171.0,518.0
149,choice,choice,28,4.0,Small,2.0,28.2983666250002,Animal_Sea_Solid_Large,0,0,11441197.0,11441402.0,205.0
149,choice,choice,28,4.0,Small,2.0,28.2983666250002,Object_Sea_Pattern_Large,2,0,11441425.0,11441646.0,221.0
149,choice,choice,28,4.0,Small,2.0,28.2983666250002,Animal_Land_Solid_Small,4,1,11441667.0,11441942.0,275.0
149,choice,choice,28,4.0,Small,2.0,28.2983666250002,Object_Sea_Pattern_Small,3,1,11442807.0,11443476.0,669.0
149,choice,choice,28,4.0,Small,2.0,28.2983666250002,Animal_Land_Solid_Large,1,0,11445024.0,11445562.0,538.0
149,choice,choice,28,4.0,Small,2.0,28.2983666250002,Animal_Land_Solid_Small,4,1,11445603.0,11445907.0,304.0
149,choice,choice,28,4.0,Small,2.0,28.2983666250002,Animal_Land_Solid_Large,1,0,11446327.0,11446588.0,261.0
149,choice,choice,28,4.0,Small,2.0,28.2983666250002,Object_Land_Pattern_Small,5,1,11446610.0,11448367.0,1757.0
149,choice,choice,28,4.0,Small,2.0,28.2983666250002,Animal_Land_Solid_Large,1,0,11448690.0,11449179.0,489.0
149,choice,choice,28,4.0,Small,2.0,28.2983666250002,Object_Land_Pattern_Small,5,1,11449200.0,11451046.0,1846.0
149,choice,choice,28,4.0,Small,2.0,28.2983666250002,Animal_Land_Solid_Small,4,1,11451386.0,11451636.0,250.0
149,choice,choice,28,4.0,Small,2.0,28.2983666250002,Object_Land_Pattern_Small,5,1,11451683.0,11451890.0,207.0
149,choice,choice,28,4.0,Small,2.0,28.2983666250002,Animal_Land_Solid_Small,4,1,11451928.0,11452152.0,224.0
149,choice,choice,28,4.0,Small,2.0,28.2983666250002,Animal_Land_Solid_Large,1,0,11452453.0,11453091.0,638.0
149,choice,choice,28,4.0,Small,2.0,28.2983666250002,Object_Land_Pattern_Small,5,1,11453139.0,11453341.0,202.0
149,choice,choice,28,4.0,Small,2.0,28.2983666250002,Animal_Land_Solid_Small,4,1,11453367.0,11453878.0,511.0
149,choice,choice,28,4.0,Small,2.0,28.2983666250002,Object_Land_Pattern_Small,5,1,11453921.0,11454549.0,628.0
149,choice,choice,29,4.0,Object,2.0,8.615466375000324,Animal_Sea_Solid_Large,0,0,11458186.0,11459700.0,1514.0
149,choice,choice,29,4.0,Object,2.0,8.615466375000324,Object_Sea_Pattern_Large,2,1,11460154.0,11461185.0,1031.0
149,choice,choice,29,4.0,Object,2.0,8.615466375000324,Animal_Sea_Solid_Large,0,0,11461432.0,11461614.0,182.0
149,choice,choice,29,4.0,Object,2.0,8.615466375000324,Object_Sea_Pattern_Large,2,1,11461637.0,11462547.0,910.0
149,choice,choice,29,4.0,Object,2.0,8.615466375000324,Animal_Land_Solid_Large,1,0,11463228.0,11464488.0,1260.0
149,choice,choice,29,4.0,Object,2.0,8.615466375000324,Object_Sea_Pattern_Large,2,1,11465455.0,11466285.0,830.0
149,choice,choice,29,4.0,Object,2.0,8.615466375000324,Animal_Sea_Solid_Large,0,0,11466307.0,11466746.0,439.0
149,choice,choice,30,4.0,Pattern,2.0,14.852552791999187,Animal_Sea_Solid_Large,0,0,11470883.0,11472049.0,1166.0
149,choice,choice,30,4.0,Pattern,2.0,14.852552791999187,Object_Sea_Pattern_Large,2,1,11472102.0,11474227.0,2125.0
149,choice,choice,30,4.0,Pattern,2.0,14.852552791999187,Animal_Sea_Solid_Large,0,0,11474508.0,11474652.0,144.0
149,choice,choice,30,4.0,Pattern,2.0,14.852552791999187,Object_Sea_Pattern_Large,2,1,11474932.0,11476870.0,1938.0
149,choice,choice,30,4.0,Pattern,2.0,14.852552791999187,Object_Sea_Pattern_Small,3,1,11477393.0,11477414.0,21.0
149,choice,choice,30,4.0,Pattern,2.0,14.852552791999187,Animal_Land_Solid_Large,1,0,11478055.0,11478309.0,254.0
149,choice,choice,30,4.0,Pattern,2.0,14.852552791999187,Object_Sea_Pattern_Large,2,1,11478359.0,11478644.0,285.0
149,choice,choice,30,4.0,Pattern,2.0,14.852552791999187,Animal_Sea_Solid_Large,0,0,11478890.0,11479441.0,551.0
149,choice,choice,30,4.0,Pattern,2.0,14.852552791999187,Object_Sea_Pattern_Large,2,1,11479467.0,11481321.0,1854.0
149,choice,choice,30,4.0,Pattern,2.0,14.852552791999187,Animal_Land_Solid_Large,1,0,11481379.0,11482188.0,809.0
149,choice,choice,31,4.0,Large,1.0,15.202893083000165,Animal_Sea_Solid_Large,0,1,11488400.0,11489021.0,621.0
149,choice,choice,31,4.0,Large,1.0,15.202893083000165,Animal_Land_Solid_Large,1,1,11489036.0,11489693.0,657.0
149,choice,choice,31,4.0,Large,1.0,15.202893083000165,Animal_Sea_Solid_Large,0,1,11489929.0,11490821.0,892.0
149,choice,choice,31,4.0,Large,1.0,15.202893083000165,Animal_Land_Solid_Large,1,1,11491078.0,11491359.0,281.0
149,choice,choice,31,4.0,Large,1.0,15.202893083000165,Object_Sea_Pattern_Large,2,1,11491634.0,11491665.0,31.0
149,choice,choice,31,4.0,Large,1.0,15.202893083000165,Animal_Sea_Solid_Large,0,1,11491910.0,11492946.0,1036.0
149,choice,choice,31,4.0,Large,1.0,15.202893083000165,Object_Sea_Pattern_Large,2,1,11492993.0,11493192.0,199.0
149,choice,choice,31,4.0,Large,1.0,15.202893083000165,Animal_Sea_Solid_Large,0,1,11493465.0,11494012.0,547.0
149,choice,choice,31,4.0,Large,1.0,15.202893083000165,Object_Sea_Pattern_Large,2,1,11494315.0,11494915.0,600.0
149,choice,choice,31,4.0,Large,1.0,15.202893083000165,Animal_Sea_Solid_Large,0,1,11495193.0,11497510.0,2317.0
149,choice,choice,31,4.0,Large,1.0,15.202893083000165,Animal_Land_Solid_Large,1,1,11497623.0,11498369.0,746.0
149,choice,choice,31,4.0,Large,1.0,15.202893083000165,Animal_Sea_Solid_Large,0,1,11498419.0,11498929.0,510.0
149,choice,choice,31,4.0,Large,1.0,15.202893083000165,Object_Sea_Pattern_Large,2,1,11499166.0,11499487.0,321.0
149,choice,choice,31,4.0,Large,1.0,15.202893083000165,Animal_Sea_Solid_Large,0,1,11499513.0,11500244.0,731.0
149,choice,choice,31,4.0,Large,1.0,15.202893083000165,Animal_Land_Solid_Large,1,1,11501151.0,11501354.0,203.0
149,choice,choice,31,4.0,Large,1.0,15.202893083000165,Object_Sea_Pattern_Large,2,1,11501398.0,11501477.0,79.0
149,choice,choice,31,4.0,Large,1.0,15.202893083000165,Animal_Sea_Solid_Large,0,1,11501696.0,11503117.0,1421.0
149,choice,choice,32,4.0,Solid,1.0,11.71126033300061,Animal_Land_Solid_Large,1,1,11506761.0,11507096.0,335.0
149,choice,choice,32,4.0,Solid,1.0,11.71126033300061,Animal_Sea_Solid_Large,0,1,11507311.0,11507819.0,508.0
149,choice,choice,32,4.0,Solid,1.0,11.71126033300061,Object_Sea_Pattern_Large,2,0,11507842.0,11507960.0,118.0
149,choice,choice,32,4.0,Solid,1.0,11.71126033300061,Animal_Sea_Solid_Large,0,1,11508221.0,11508589.0,368.0
149,choice,choice,32,4.0,Solid,1.0,11.71126033300061,Animal_Land_Solid_Large,1,1,11508626.0,11509141.0,515.0
149,choice,choice,32,4.0,Solid,1.0,11.71126033300061,Animal_Land_Solid_Small,4,1,11509188.0,11509486.0,298.0
149,choice,choice,32,4.0,Solid,1.0,11.71126033300061,Animal_Land_Solid_Large,1,1,11510040.0,11511185.0,1145.0
149,choice,choice,32,4.0,Solid,1.0,11.71126033300061,Animal_Sea_Solid_Large,0,1,11511972.0,11514079.0,2107.0
149,choice,choice,32,4.0,Solid,1.0,11.71126033300061,Animal_Land_Solid_Large,1,1,11514150.0,11514273.0,123.0
149,choice,choice,32,4.0,Solid,1.0,11.71126033300061,Animal_Sea_Solid_Large,0,1,11514500.0,11514913.0,413.0
149,choice,choice,32,4.0,Solid,1.0,11.71126033300061,Animal_Land_Solid_Large,1,1,11514937.0,11515408.0,471.0
149,choice,choice,32,4.0,Solid,1.0,11.71126033300061,Animal_Sea_Solid_Large,0,1,11515671.0,11516440.0,769.0
149,choice,choice,32,4.0,Solid,1.0,11.71126033300061,Animal_Land_Solid_Large,1,1,11516486.0,11516797.0,311.0
149,choice,choice,32,4.0,Solid,1.0,11.71126033300061,Object_Sea_Pattern_Large,2,0,11516836.0,11517280.0,444.0
149,choice,choice,33,5.0,Object,1.0,3.638411208001344,Object_Land_Solid_Large,0,1,11778204.0,11778859.0,655.0
149,choice,choice,33,5.0,Object,1.0,3.638411208001344,Animal_Sea_Pattern_Small,1,0,11779149.0,11779359.0,210.0
149,choice,choice,33,5.0,Object,1.0,3.638411208001344,Object_Sea_Solid_Small,2,1,11779602.0,11779974.0,372.0
149,choice,choice,33,5.0,Object,1.0,3.638411208001344,Animal_Sea_Pattern_Small,1,0,11780003.0,11780417.0,414.0
149,choice,choice,33,5.0,Object,1.0,3.638411208001344,Object_Sea_Solid_Small,2,1,11780678.0,11781154.0,476.0
149,choice,choice,33,5.0,Object,1.0,3.638411208001344,Object_Land_Pattern_Large,3,1,11781196.0,11781410.0,214.0
149,choice,choice,34,5.0,Pattern,2.0,9.387209374999657,Object_Land_Solid_Large,0,0,11785361.0,11785706.0,345.0
149,choice,choice,34,5.0,Pattern,2.0,9.387209374999657,Object_Sea_Solid_Small,2,0,11785731.0,11786750.0,1019.0
149,choice,choice,34,5.0,Pattern,2.0,9.387209374999657,Object_Land_Solid_Large,0,0,11788060.0,11789228.0,1168.0
149,choice,choice,34,5.0,Pattern,2.0,9.387209374999657,Object_Sea_Solid_Small,2,0,11792085.0,11792486.0,401.0
149,choice,choice,34,5.0,Pattern,2.0,9.387209374999657,Object_Land_Solid_Large,0,0,11792717.0,11793046.0,329.0
149,choice,choice,34,5.0,Pattern,2.0,9.387209374999657,Object_Sea_Solid_Small,2,0,11793072.0,11793326.0,254.0
149,choice,choice,34,5.0,Pattern,2.0,9.387209374999657,Object_Land_Solid_Large,0,0,11793352.0,11793694.0,342.0
149,choice,choice,35,5.0,Small,2.0,22.788022499998988,Object_Sea_Solid_Small,2,1,11798102.0,11800011.0,1909.0
149,choice,choice,35,5.0,Small,2.0,22.788022499998988,Animal_Sea_Pattern_Small,1,1,11800073.0,11800188.0,115.0
149,choice,choice,35,5.0,Small,2.0,22.788022499998988,Object_Sea_Solid_Small,2,1,11800841.0,11801286.0,445.0
149,choice,choice,35,5.0,Small,2.0,22.788022499998988,Animal_Sea_Pattern_Small,1,1,11802355.0,11803091.0,736.0
149,choice,choice,35,5.0,Small,2.0,22.788022499998988,Object_Land_Solid_Large,0,0,11804545.0,11804955.0,410.0
149,choice,choice,35,5.0,Small,2.0,22.788022499998988,Animal_Sea_Pattern_Small,1,1,11804980.0,11805384.0,404.0
149,choice,choice,35,5.0,Small,2.0,22.788022499998988,Object_Land_Solid_Large,0,0,11805598.0,11805999.0,401.0
149,choice,choice,35,5.0,Small,2.0,22.788022499998988,Object_Sea_Solid_Small,2,1,11806024.0,11806278.0,254.0
149,choice,choice,35,5.0,Small,2.0,22.788022499998988,Animal_Sea_Pattern_Small,1,1,11806305.0,11806906.0,601.0
149,choice,choice,35,5.0,Small,2.0,22.788022499998988,Object_Land_Solid_Large,0,0,11806928.0,11807554.0,626.0
149,choice,choice,35,5.0,Small,2.0,22.788022499998988,Object_Sea_Solid_Small,2,1,11807851.0,11808470.0,619.0
149,choice,choice,35,5.0,Small,2.0,22.788022499998988,Object_Land_Solid_Large,0,0,11808764.0,11808971.0,207.0
149,choice,choice,35,5.0,Small,2.0,22.788022499998988,Object_Sea_Solid_Small,2,1,11808993.0,11809499.0,506.0
149,choice,choice,35,5.0,Small,2.0,22.788022499998988,Object_Land_Solid_Large,0,0,11809524.0,11810010.0,486.0
149,choice,choice,35,5.0,Small,2.0,22.788022499998988,Object_Sea_Solid_Small,2,1,11810297.0,11810586.0,289.0
149,choice,choice,35,5.0,Small,2.0,22.788022499998988,Object_Land_Solid_Large,0,0,11810628.0,11810897.0,269.0
149,choice,choice,35,5.0,Small,2.0,22.788022499998988,Object_Sea_Solid_Small,2,1,11810934.0,11811201.0,267.0
149,choice,choice,35,5.0,Small,2.0,22.788022499998988,Object_Land_Solid_Large,0,0,11811436.0,11811813.0,377.0
149,choice,choice,35,5.0,Small,2.0,22.788022499998988,Object_Sea_Solid_Small,2,1,11811830.0,11814070.0,2240.0
149,choice,choice,35,5.0,Small,2.0,22.788022499998988,Animal_Sea_Pattern_Small,1,1,11814603.0,11814877.0,274.0
149,choice,choice,35,5.0,Small,2.0,22.788022499998988,Object_Land_Solid_Large,0,0,11814901.0,11815309.0,408.0
149,choice,choice,35,5.0,Small,2.0,22.788022499998988,Animal_Sea_Pattern_Small,1,1,11815333.0,11815647.0,314.0
149,choice,choice,35,5.0,Small,2.0,22.788022499998988,Object_Land_Solid_Large,0,0,11815672.0,11816424.0,752.0
149,choice,choice,35,5.0,Small,2.0,22.788022499998988,Object_Sea_Solid_Small,2,1,11816707.0,11817203.0,496.0
149,choice,choice,35,5.0,Small,2.0,22.788022499998988,Animal_Sea_Pattern_Small,1,1,11817252.0,11817791.0,539.0
149,choice,choice,35,5.0,Small,2.0,22.788022499998988,Object_Sea_Solid_Small,2,1,11817836.0,11818102.0,266.0
149,choice,choice,35,5.0,Small,2.0,22.788022499998988,Animal_Sea_Pattern_Small,1,1,11818509.0,11818868.0,359.0
149,choice,choice,35,5.0,Small,2.0,22.788022499998988,Object_Sea_Solid_Small,2,1,11818911.0,11820104.0,1193.0
149,choice,choice,35,5.0,Small,2.0,22.788022499998988,Object_Land_Solid_Large,0,0,11820354.0,11820576.0,222.0
149,choice,choice,36,5.0,Land,1.0,3.766777291999461,Object_Sea_Solid_Small,2,0,11823409.0,11823762.0,353.0
149,choice,choice,36,5.0,Land,1.0,3.766777291999461,Object_Land_Solid_Large,0,1,11824095.0,11824783.0,688.0
149,choice,choice,36,5.0,Land,1.0,3.766777291999461,Animal_Sea_Pattern_Small,1,0,11824804.0,11825942.0,1138.0
149,choice,choice,36,5.0,Land,1.0,3.766777291999461,Object_Land_Solid_Large,0,1,11826207.0,11826736.0,529.0
149,choice,choice,37,5.0,Animal,1.0,28.81564462499955,Object_Sea_Solid_Small,2,0,11830595.0,11832509.0,1914.0
149,choice,choice,37,5.0,Animal,1.0,28.81564462499955,Object_Land_Solid_Large,0,0,11832825.0,11834538.0,1713.0
149,choice,choice,37,5.0,Animal,1.0,28.81564462499955,Object_Sea_Solid_Small,2,0,11835057.0,11835357.0,300.0
149,choice,choice,37,5.0,Animal,1.0,28.81564462499955,Object_Land_Solid_Large,0,0,11835565.0,11837100.0,1535.0
149,choice,choice,37,5.0,Animal,1.0,28.81564462499955,Object_Sea_Solid_Small,2,0,11837371.0,11837606.0,235.0
149,choice,choice,37,5.0,Animal,1.0,28.81564462499955,Object_Land_Solid_Large,0,0,11837642.0,11838187.0,545.0
149,choice,choice,37,5.0,Animal,1.0,28.81564462499955,Object_Sea_Solid_Small,2,0,11838210.0,11841484.0,3274.0
149,choice,choice,37,5.0,Animal,1.0,28.81564462499955,Object_Land_Solid_Large,0,0,11842041.0,11843430.0,1389.0
149,choice,choice,37,5.0,Animal,1.0,28.81564462499955,Object_Sea_Solid_Small,2,0,11844236.0,11845431.0,1195.0
149,choice,choice,37,5.0,Animal,1.0,28.81564462499955,Object_Land_Solid_Large,0,0,11846004.0,11846279.0,275.0
149,choice,choice,37,5.0,Animal,1.0,28.81564462499955,Object_Sea_Solid_Small,2,0,11846299.0,11847833.0,1534.0
149,choice,choice,37,5.0,Animal,1.0,28.81564462499955,Animal_Land_Pattern_Large,4,1,11847958.0,11848533.0,575.0
149,choice,choice,37,5.0,Animal,1.0,28.81564462499955,Object_Sea_Solid_Small,2,0,11849971.0,11850163.0,192.0
149,choice,choice,37,5.0,Animal,1.0,28.81564462499955,Animal_Sea_Solid_Small,5,1,11850178.0,11850648.0,470.0
149,choice,choice,37,5.0,Animal,1.0,28.81564462499955,Object_Sea_Solid_Small,2,0,11850677.0,11852209.0,1532.0
149,choice,choice,37,5.0,Animal,1.0,28.81564462499955,Animal_Sea_Pattern_Small,1,1,11852723.0,11853276.0,553.0
149,choice,choice,37,5.0,Animal,1.0,28.81564462499955,Object_Sea_Solid_Small,2,0,11853324.0,11854979.0,1655.0
149,choice,choice,37,5.0,Animal,1.0,28.81564462499955,Object_Land_Solid_Large,0,0,11855679.0,11856017.0,338.0
149,choice,choice,37,5.0,Animal,1.0,28.81564462499955,Object_Sea_Solid_Small,2,0,11856083.0,11856400.0,317.0
149,choice,choice,37,5.0,Animal,1.0,28.81564462499955,Object_Land_Solid_Large,0,0,11856424.0,11856923.0,499.0
149,choice,choice,37,5.0,Animal,1.0,28.81564462499955,Object_Sea_Solid_Small,2,0,11857156.0,11857374.0,218.0
149,choice,choice,37,5.0,Animal,1.0,28.81564462499955,Animal_Sea_Pattern_Small,1,1,11857691.0,11858764.0,1073.0
149,choice,choice,38,5.0,Sea,2.0,7.306493209000109,Object_Land_Solid_Large,0,0,11861939.0,11862610.0,671.0
149,choice,choice,38,5.0,Sea,2.0,7.306493209000109,Object_Sea_Solid_Small,2,1,11862810.0,11862828.0,18.0
149,choice,choice,38,5.0,Sea,2.0,7.306493209000109,Object_Land_Solid_Large,0,0,11862834.0,11863175.0,341.0
149,choice,choice,38,5.0,Sea,2.0,7.306493209000109,Object_Sea_Solid_Small,2,1,11863201.0,11863360.0,159.0
149,choice,choice,38,5.0,Sea,2.0,7.306493209000109,Object_Land_Solid_Large,0,0,11863611.0,11865084.0,1473.0
149,choice,choice,38,5.0,Sea,2.0,7.306493209000109,Object_Sea_Solid_Small,2,1,11865146.0,11865389.0,243.0
149,choice,choice,38,5.0,Sea,2.0,7.306493209000109,Object_Land_Solid_Large,0,0,11865418.0,11866481.0,1063.0
149,choice,choice,38,5.0,Sea,2.0,7.306493209000109,Object_Sea_Solid_Small,2,1,11866506.0,11866997.0,491.0
149,choice,choice,38,5.0,Sea,2.0,7.306493209000109,Object_Land_Solid_Large,0,0,11867022.0,11868453.0,1431.0
149,choice,choice,38,5.0,Sea,2.0,7.306493209000109,Object_Sea_Solid_Small,2,1,11868689.0,11869122.0,433.0
149,choice,choice,39,5.0,Large,1.0,1.89895924999837,Animal_Sea_Pattern_Small,1,0,11872459.0,11872721.0,262.0
149,choice,choice,39,5.0,Large,1.0,1.89895924999837,Object_Sea_Solid_Small,2,0,11873495.0,11873857.0,362.0
149,choice,choice,39,5.0,Large,1.0,1.89895924999837,Object_Land_Solid_Large,0,1,11873885.0,11874311.0,426.0
149,choice,choice,40,5.0,Solid,2.0,15.673673999999664,Object_Land_Solid_Large,0,1,11878375.0,11878729.0,354.0
149,choice,choice,40,5.0,Solid,2.0,15.673673999999664,Object_Sea_Solid_Small,2,1,11878754.0,11879004.0,250.0
149,choice,choice,40,5.0,Solid,2.0,15.673673999999664,Object_Land_Solid_Large,0,1,11879030.0,11880703.0,1673.0
149,choice,choice,40,5.0,Solid,2.0,15.673673999999664,Animal_Sea_Pattern_Small,1,0,11880924.0,11881246.0,322.0
149,choice,choice,40,5.0,Solid,2.0,15.673673999999664,Object_Sea_Solid_Small,2,1,11881272.0,11881683.0,411.0
149,choice,choice,40,5.0,Solid,2.0,15.673673999999664,Object_Land_Solid_Large,0,1,11881946.0,11882455.0,509.0
149,choice,choice,40,5.0,Solid,2.0,15.673673999999664,Object_Sea_Solid_Small,2,1,11882483.0,11883075.0,592.0
149,choice,choice,40,5.0,Solid,2.0,15.673673999999664,Object_Land_Solid_Large,0,1,11883449.0,11883894.0,445.0
149,choice,choice,40,5.0,Solid,2.0,15.673673999999664,Object_Sea_Solid_Small,2,1,11883917.0,11884120.0,203.0
149,choice,choice,40,5.0,Solid,2.0,15.673673999999664,Animal_Sea_Solid_Small,5,1,11885631.0,11885892.0,261.0
149,choice,choice,40,5.0,Solid,2.0,15.673673999999664,Object_Sea_Solid_Small,2,1,11889618.0,11889934.0,316.0
149,choice,choice,41,6.0,Large,1.0,24.23490504199981,Animal_Sea_Pattern_Large,0,1,12155949.0,12158269.0,2320.0
149,choice,choice,41,6.0,Large,1.0,24.23490504199981,Object_Sea_Solid_Large,1,1,12159060.0,12159859.0,799.0
149,choice,choice,41,6.0,Large,1.0,24.23490504199981,Animal_Sea_Pattern_Large,0,1,12160099.0,12160480.0,381.0
149,choice,choice,41,6.0,Large,1.0,24.23490504199981,Object_Sea_Solid_Large,1,1,12160934.0,12161474.0,540.0
149,choice,choice,41,6.0,Large,1.0,24.23490504199981,Animal_Sea_Pattern_Large,0,1,12161510.0,12162694.0,1184.0
149,choice,choice,41,6.0,Large,1.0,24.23490504199981,Object_Sea_Pattern_Large,2,1,12162951.0,12163321.0,370.0
149,choice,choice,41,6.0,Large,1.0,24.23490504199981,Animal_Sea_Pattern_Large,0,1,12163358.0,12164033.0,675.0
149,choice,choice,41,6.0,Large,1.0,24.23490504199981,Object_Sea_Solid_Large,1,1,12164076.0,12164548.0,472.0
149,choice,choice,41,6.0,Large,1.0,24.23490504199981,Animal_Sea_Pattern_Large,0,1,12164574.0,12165064.0,490.0
149,choice,choice,41,6.0,Large,1.0,24.23490504199981,Object_Sea_Solid_Large,1,1,12165092.0,12165604.0,512.0
149,choice,choice,41,6.0,Large,1.0,24.23490504199981,Animal_Sea_Pattern_Large,0,1,12165636.0,12165964.0,328.0
149,choice,choice,41,6.0,Large,1.0,24.23490504199981,Object_Sea_Solid_Large,1,1,12165988.0,12166586.0,598.0
149,choice,choice,41,6.0,Large,1.0,24.23490504199981,Animal_Sea_Pattern_Large,0,1,12166623.0,12167057.0,434.0
149,choice,choice,41,6.0,Large,1.0,24.23490504199981,Object_Sea_Pattern_Large,2,1,12167075.0,12167458.0,383.0
149,choice,choice,41,6.0,Large,1.0,24.23490504199981,Animal_Sea_Pattern_Large,0,1,12167501.0,12167969.0,468.0
149,choice,choice,41,6.0,Large,1.0,24.23490504199981,Object_Sea_Solid_Large,1,1,12167994.0,12168737.0,743.0
149,choice,choice,41,6.0,Large,1.0,24.23490504199981,Animal_Sea_Pattern_Large,0,1,12168790.0,12170896.0,2106.0
149,choice,choice,41,6.0,Large,1.0,24.23490504199981,Object_Sea_Solid_Large,1,1,12170966.0,12171447.0,481.0
149,choice,choice,41,6.0,Large,1.0,24.23490504199981,Animal_Sea_Pattern_Large,0,1,12171745.0,12173428.0,1683.0
149,choice,choice,41,6.0,Large,1.0,24.23490504199981,Object_Sea_Solid_Large,1,1,12173831.0,12174029.0,198.0
149,choice,choice,41,6.0,Large,1.0,24.23490504199981,Animal_Sea_Pattern_Large,0,1,12174063.0,12174353.0,290.0
149,choice,choice,41,6.0,Large,1.0,24.23490504199981,Object_Sea_Solid_Large,1,1,12174379.0,12174798.0,419.0
149,choice,choice,41,6.0,Large,1.0,24.23490504199981,Animal_Sea_Pattern_Large,0,1,12174835.0,12175633.0,798.0
149,choice,choice,41,6.0,Large,1.0,24.23490504199981,Object_Sea_Pattern_Large,2,1,12176005.0,12176913.0,908.0
149,choice,choice,41,6.0,Large,1.0,24.23490504199981,Animal_Sea_Pattern_Large,0,1,12177166.0,12177283.0,117.0
149,choice,choice,41,6.0,Large,1.0,24.23490504199981,Object_Sea_Solid_Large,1,1,12177370.0,12179240.0,1870.0
149,choice,choice,42,6.0,Solid,2.0,5.277160499999809,Animal_Sea_Pattern_Large,0,0,12182161.0,12182921.0,760.0
149,choice,choice,42,6.0,Solid,2.0,5.277160499999809,Object_Sea_Pattern_Large,2,0,12182951.0,12183158.0,207.0
149,choice,choice,42,6.0,Solid,2.0,5.277160499999809,Object_Sea_Solid_Large,1,1,12183205.0,12185196.0,1991.0
149,choice,choice,42,6.0,Solid,2.0,5.277160499999809,Animal_Sea_Pattern_Large,0,0,12185766.0,12186139.0,373.0
149,choice,choice,42,6.0,Solid,2.0,5.277160499999809,Object_Sea_Solid_Large,1,1,12186223.0,12186784.0,561.0
149,choice,choice,42,6.0,Solid,2.0,5.277160499999809,Animal_Sea_Pattern_Large,0,0,12186815.0,12187009.0,194.0
149,choice,choice,43,6.0,Object,2.0,30.71141554099995,Animal_Sea_Pattern_Large,0,0,12191309.0,12191960.0,651.0
149,choice,choice,43,6.0,Object,2.0,30.71141554099995,Object_Sea_Solid_Large,1,1,12192250.0,12192571.0,321.0
149,choice,choice,43,6.0,Object,2.0,30.71141554099995,Animal_Sea_Pattern_Large,0,0,12192599.0,12193015.0,416.0
149,choice,choice,43,6.0,Object,2.0,30.71141554099995,Object_Sea_Pattern_Large,2,1,12193032.0,12193345.0,313.0
149,choice,choice,43,6.0,Object,2.0,30.71141554099995,Animal_Sea_Pattern_Large,0,0,12193586.0,12194058.0,472.0
149,choice,choice,43,6.0,Object,2.0,30.71141554099995,Object_Sea_Pattern_Large,2,1,12194136.0,12194328.0,192.0
149,choice,choice,43,6.0,Object,2.0,30.71141554099995,Object_Sea_Solid_Large,1,1,12194370.0,12195035.0,665.0
149,choice,choice,43,6.0,Object,2.0,30.71141554099995,Animal_Sea_Pattern_Large,0,0,12195292.0,12195563.0,271.0
149,choice,choice,43,6.0,Object,2.0,30.71141554099995,Object_Sea_Solid_Large,1,1,12195603.0,12195878.0,275.0
149,choice,choice,43,6.0,Object,2.0,30.71141554099995,Object_Land_Solid_Small,3,1,12196400.0,12196857.0,457.0
149,choice,choice,43,6.0,Object,2.0,30.71141554099995,Animal_Sea_Pattern_Large,0,0,12196911.0,12197076.0,165.0
149,choice,choice,43,6.0,Object,2.0,30.71141554099995,Object_Sea_Pattern_Large,2,1,12197121.0,12199568.0,2447.0
149,choice,choice,43,6.0,Object,2.0,30.71141554099995,Object_Sea_Solid_Large,1,1,12199858.0,12200751.0,893.0
149,choice,choice,43,6.0,Object,2.0,30.71141554099995,Object_Sea_Pattern_Large,2,1,12201065.0,12201403.0,338.0
149,choice,choice,43,6.0,Object,2.0,30.71141554099995,Animal_Sea_Pattern_Large,0,0,12201425.0,12201780.0,355.0
149,choice,choice,43,6.0,Object,2.0,30.71141554099995,Object_Sea_Pattern_Large,2,1,12201795.0,12202658.0,863.0
149,choice,choice,43,6.0,Object,2.0,30.71141554099995,Object_Sea_Solid_Large,1,1,12202860.0,12203173.0,313.0
149,choice,choice,43,6.0,Object,2.0,30.71141554099995,Object_Sea_Pattern_Large,2,1,12203221.0,12204316.0,1095.0
149,choice,choice,43,6.0,Object,2.0,30.71141554099995,Object_Sea_Solid_Large,1,1,12204545.0,12205625.0,1080.0
149,choice,choice,43,6.0,Object,2.0,30.71141554099995,Object_Sea_Pattern_Large,2,1,12205660.0,12206758.0,1098.0
149,choice,choice,43,6.0,Object,2.0,30.71141554099995,Object_Sea_Solid_Large,1,1,12207005.0,12208750.0,1745.0
149,choice,choice,43,6.0,Object,2.0,30.71141554099995,Object_Sea_Pattern_Large,2,1,12209039.0,12218088.0,9049.0
149,choice,choice,43,6.0,Object,2.0,30.71141554099995,Object_Sea_Solid_Large,1,1,12219320.0,12219534.0,214.0
149,choice,choice,43,6.0,Object,2.0,30.71141554099995,Object_Sea_Pattern_Large,2,1,12219777.0,12221550.0,1773.0
149,choice,choice,44,6.0,Pattern,2.0,13.72891887500009,Animal_Sea_Pattern_Large,0,1,12225841.0,12226612.0,771.0
149,choice,choice,44,6.0,Pattern,2.0,13.72891887500009,Object_Sea_Solid_Large,1,0,12226657.0,12228077.0,1420.0
149,choice,choice,44,6.0,Pattern,2.0,13.72891887500009,Animal_Sea_Pattern_Large,0,1,12228102.0,12228967.0,865.0
149,choice,choice,44,6.0,Pattern,2.0,13.72891887500009,Object_Sea_Pattern_Large,2,1,12229245.0,12229572.0,327.0
149,choice,choice,44,6.0,Pattern,2.0,13.72891887500009,Animal_Sea_Pattern_Large,0,1,12229855.0,12230136.0,281.0
149,choice,choice,44,6.0,Pattern,2.0,13.72891887500009,Object_Sea_Pattern_Large,2,1,12230163.0,12230666.0,503.0
149,choice,choice,44,6.0,Pattern,2.0,13.72891887500009,Animal_Sea_Pattern_Large,0,1,12230687.0,12231060.0,373.0
149,choice,choice,44,6.0,Pattern,2.0,13.72891887500009,Object_Sea_Solid_Large,1,0,12231087.0,12231743.0,656.0
149,choice,choice,44,6.0,Pattern,2.0,13.72891887500009,Animal_Sea_Pattern_Large,0,1,12231771.0,12233617.0,1846.0
149,choice,choice,44,6.0,Pattern,2.0,13.72891887500009,Animal_Land_Pattern_Small,4,1,12233882.0,12234593.0,711.0
149,choice,choice,44,6.0,Pattern,2.0,13.72891887500009,Object_Sea_Pattern_Large,2,1,12234641.0,12235099.0,458.0
149,choice,choice,44,6.0,Pattern,2.0,13.72891887500009,Animal_Sea_Pattern_Large,0,1,12235118.0,12235722.0,604.0
149,choice,choice,44,6.0,Pattern,2.0,13.72891887500009,Object_Sea_Pattern_Large,2,1,12235737.0,12236432.0,695.0
149,choice,choice,44,6.0,Pattern,2.0,13.72891887500009,Object_Sea_Solid_Large,1,0,12236463.0,12237286.0,823.0
149,choice,choice,45,6.0,Land,2.0,24.776591374999043,Object_Sea_Pattern_Large,2,0,12241677.0,12242081.0,404.0
149,choice,choice,45,6.0,Land,2.0,24.776591374999043,Object_Sea_Solid_Large,1,0,12242113.0,12242955.0,842.0
149,choice,choice,45,6.0,Land,2.0,24.776591374999043,Animal_Land_Pattern_Small,4,1,12243002.0,12243778.0,776.0
149,choice,choice,45,6.0,Land,2.0,24.776591374999043,Object_Land_Solid_Small,3,1,12243817.0,12244140.0,323.0
149,choice,choice,45,6.0,Land,2.0,24.776591374999043,Animal_Land_Solid_Small,5,1,12244166.0,12244430.0,264.0
149,choice,choice,45,6.0,Land,2.0,24.776591374999043,Animal_Land_Pattern_Small,4,1,12244474.0,12244599.0,125.0
149,choice,choice,45,6.0,Land,2.0,24.776591374999043,Animal_Land_Solid_Small,5,1,12245598.0,12247465.0,1867.0
149,choice,choice,45,6.0,Land,2.0,24.776591374999043,Object_Sea_Solid_Large,1,0,12249462.0,12249784.0,322.0
149,choice,choice,45,6.0,Land,2.0,24.776591374999043,Animal_Land_Pattern_Small,4,1,12249808.0,12250100.0,292.0
149,choice,choice,45,6.0,Land,2.0,24.776591374999043,Object_Sea_Solid_Large,1,0,12250384.0,12250422.0,38.0
149,choice,choice,45,6.0,Land,2.0,24.776591374999043,Animal_Land_Pattern_Small,4,1,12250428.0,12251285.0,857.0
149,choice,choice,45,6.0,Land,2.0,24.776591374999043,Object_Sea_Solid_Large,1,0,12251339.0,12251718.0,379.0
149,choice,choice,45,6.0,Land,2.0,24.776591374999043,Animal_Land_Pattern_Small,4,1,12251742.0,12251960.0,218.0
149,choice,choice,45,6.0,Land,2.0,24.776591374999043,Object_Sea_Solid_Large,1,0,12252213.0,12252376.0,163.0
149,choice,choice,45,6.0,Land,2.0,24.776591374999043,Animal_Land_Solid_Small,5,1,12253247.0,12253490.0,243.0
149,choice,choice,45,6.0,Land,2.0,24.776591374999043,Object_Sea_Solid_Large,1,0,12254123.0,12254299.0,176.0
149,choice,choice,45,6.0,Land,2.0,24.776591374999043,Animal_Land_Solid_Small,5,1,12255244.0,12255453.0,209.0
149,choice,choice,45,6.0,Land,2.0,24.776591374999043,Object_Sea_Pattern_Large,2,0,12255891.0,12256127.0,236.0
149,choice,choice,45,6.0,Land,2.0,24.776591374999043,Object_Sea_Solid_Large,1,0,12256794.0,12257714.0,920.0
149,choice,choice,45,6.0,Land,2.0,24.776591374999043,Animal_Land_Solid_Small,5,1,12258370.0,12259159.0,789.0
149,choice,choice,45,6.0,Land,2.0,24.776591374999043,Animal_Land_Pattern_Small,4,1,12259635.0,12259942.0,307.0
149,choice,choice,45,6.0,Land,2.0,24.776591374999043,Animal_Land_Solid_Small,5,1,12259971.0,12263476.0,3505.0
149,choice,choice,46,6.0,Small,2.0,7.455234458000632,Object_Sea_Solid_Large,1,0,12270944.0,12272562.0,1618.0
149,choice,choice,46,6.0,Small,2.0,7.455234458000632,Object_Land_Solid_Small,3,1,12272842.0,12273172.0,330.0
149,choice,choice,46,6.0,Small,2.0,7.455234458000632,Animal_Land_Pattern_Small,4,1,12273388.0,12273604.0,216.0
149,choice,choice,46,6.0,Small,2.0,7.455234458000632,Object_Sea_Solid_Large,1,0,12274163.0,12274491.0,328.0
149,choice,choice,46,6.0,Small,2.0,7.455234458000632,Animal_Land_Solid_Small,5,1,12274533.0,12275436.0,903.0
149,choice,choice,46,6.0,Small,2.0,7.455234458000632,Object_Sea_Pattern_Large,2,0,12275759.0,12275997.0,238.0
149,choice,choice,47,6.0,Sea,2.0,12.770917249999911,Object_Sea_Pattern_Large,2,1,12280357.0,12280887.0,530.0
149,choice,choice,47,6.0,Sea,2.0,12.770917249999911,Animal_Land_Pattern_Small,4,0,12280931.0,12281778.0,847.0
149,choice,choice,47,6.0,Sea,2.0,12.770917249999911,Object_Sea_Solid_Large,1,1,12282158.0,12283035.0,877.0
149,choice,choice,47,6.0,Sea,2.0,12.770917249999911,Animal_Sea_Pattern_Large,0,1,12283081.0,12284236.0,1155.0
149,choice,choice,47,6.0,Sea,2.0,12.770917249999911,Object_Sea_Solid_Large,1,1,12284722.0,12285393.0,671.0
149,choice,choice,47,6.0,Sea,2.0,12.770917249999911,Object_Sea_Pattern_Large,2,1,12285453.0,12285967.0,514.0
149,choice,choice,47,6.0,Sea,2.0,12.770917249999911,Animal_Sea_Pattern_Large,0,1,12286007.0,12286696.0,689.0
149,choice,choice,47,6.0,Sea,2.0,12.770917249999911,Object_Sea_Solid_Large,1,1,12286946.0,12288094.0,1148.0
149,choice,choice,47,6.0,Sea,2.0,12.770917249999911,Animal_Sea_Pattern_Large,0,1,12288128.0,12288353.0,225.0
149,choice,choice,47,6.0,Sea,2.0,12.770917249999911,Object_Sea_Solid_Large,1,1,12288370.0,12289473.0,1103.0
149,choice,choice,47,6.0,Sea,2.0,12.770917249999911,Object_Sea_Pattern_Large,2,1,12289526.0,12290409.0,883.0
149,choice,choice,47,6.0,Sea,2.0,12.770917249999911,Object_Sea_Solid_Large,1,1,12290448.0,12290859.0,411.0
149,choice,choice,47,6.0,Sea,2.0,12.770917249999911,Object_Sea_Pattern_Large,2,1,12290894.0,12291430.0,536.0
149,choice,choice,47,6.0,Sea,2.0,12.770917249999911,Object_Sea_Solid_Large,1,1,12291698.0,12292037.0,339.0
149,choice,choice,47,6.0,Sea,2.0,12.770917249999911,Object_Sea_Pattern_Large,2,1,12292076.0,12292783.0,707.0
149,choice,choice,48,6.0,Animal,2.0,29.798626166999384,Animal_Sea_Pattern_Large,0,1,12296557.0,12296966.0,409.0
149,choice,choice,48,6.0,Animal,2.0,29.798626166999384,Object_Sea_Solid_Large,1,0,12297011.0,12297323.0,312.0
149,choice,choice,48,6.0,Animal,2.0,29.798626166999384,Animal_Land_Solid_Small,5,1,12297354.0,12297653.0,299.0
149,choice,choice,48,6.0,Animal,2.0,29.798626166999384,Animal_Sea_Pattern_Large,0,1,12298434.0,12300758.0,2324.0
149,choice,choice,48,6.0,Animal,2.0,29.798626166999384,Object_Sea_Solid_Large,1,0,12301110.0,12301370.0,260.0
149,choice,choice,48,6.0,Animal,2.0,29.798626166999384,Animal_Land_Pattern_Small,4,1,12301633.0,12303128.0,1495.0
149,choice,choice,48,6.0,Animal,2.0,29.798626166999384,Object_Sea_Solid_Large,1,0,12303142.0,12303451.0,309.0
149,choice,choice,48,6.0,Animal,2.0,29.798626166999384,Animal_Land_Pattern_Small,4,1,12303473.0,12303767.0,294.0
149,choice,choice,48,6.0,Animal,2.0,29.798626166999384,Object_Sea_Solid_Large,1,0,12303792.0,12304319.0,527.0
149,choice,choice,48,6.0,Animal,2.0,29.798626166999384,Animal_Land_Pattern_Small,4,1,12304606.0,12304867.0,261.0
149,choice,choice,48,6.0,Animal,2.0,29.798626166999384,Object_Sea_Solid_Large,1,0,12304892.0,12306658.0,1766.0
149,choice,choice,48,6.0,Animal,2.0,29.798626166999384,Animal_Land_Pattern_Small,4,1,12307492.0,12310000.0,2508.0
149,choice,choice,48,6.0,Animal,2.0,29.798626166999384,Object_Sea_Solid_Large,1,0,12310091.0,12310287.0,196.0
149,choice,choice,48,6.0,Animal,2.0,29.798626166999384,Animal_Sea_Pattern_Large,0,1,12310317.0,12311227.0,910.0
149,choice,choice,48,6.0,Animal,2.0,29.798626166999384,Animal_Land_Pattern_Small,4,1,12311277.0,12315993.0,4716.0
149,choice,choice,48,6.0,Animal,2.0,29.798626166999384,Animal_Sea_Pattern_Large,0,1,12316215.0,12316910.0,695.0
149,choice,choice,48,6.0,Animal,2.0,29.798626166999384,Animal_Land_Pattern_Small,4,1,12317188.0,12317541.0,353.0
149,choice,choice,48,6.0,Animal,2.0,29.798626166999384,Animal_Land_Solid_Small,5,1,12317585.0,12317771.0,186.0
149,choice,choice,48,6.0,Animal,2.0,29.798626166999384,Object_Sea_Solid_Large,1,0,12317812.0,12318356.0,544.0
149,choice,choice,48,6.0,Animal,2.0,29.798626166999384,Animal_Land_Pattern_Small,4,1,12318395.0,12319968.0,1573.0
149,choice,choice,48,6.0,Animal,2.0,29.798626166999384,Animal_Land_Solid_Small,5,1,12321691.0,12321908.0,217.0
149,choice,choice,48,6.0,Animal,2.0,29.798626166999384,Animal_Land_Pattern_Small,4,1,12322729.0,12323205.0,476.0
149,choice,choice,48,6.0,Animal,2.0,29.798626166999384,Object_Sea_Solid_Large,1,0,12323225.0,12323546.0,321.0
149,choice,choice,48,6.0,Animal,2.0,29.798626166999384,Animal_Sea_Pattern_Large,0,1,12323911.0,12324533.0,622.0
149,choice,choice,48,6.0,Animal,2.0,29.798626166999384,Animal_Land_Pattern_Small,4,1,12324559.0,12325822.0,1263.0
149,choice,choice,49,7.0,Small,2.0,12.58745799999997,Object_Land_Solid_Large,0,0,12559280.0,12559479.0,199.0
149,choice,choice,49,7.0,Small,2.0,12.58745799999997,Object_Sea_Pattern_Small,1,1,12559537.0,12560827.0,1290.0
149,choice,choice,49,7.0,Small,2.0,12.58745799999997,Object_Land_Solid_Large,0,0,12562322.0,12562756.0,434.0
149,choice,choice,49,7.0,Small,2.0,12.58745799999997,Object_Sea_Pattern_Small,1,1,12563106.0,12565971.0,2865.0
149,choice,choice,49,7.0,Small,2.0,12.58745799999997,Object_Land_Pattern_Large,2,0,12567764.0,12567988.0,224.0
149,choice,choice,50,7.0,Pattern,2.0,14.368854124999416,Animal_Sea_Solid_Small,3,0,12575547.0,12575951.0,404.0
149,choice,choice,50,7.0,Pattern,2.0,14.368854124999416,Animal_Land_Solid_Large,4,0,12578538.0,12578745.0,207.0
149,choice,choice,50,7.0,Pattern,2.0,14.368854124999416,Animal_Sea_Pattern_Small,5,1,12579619.0,12580090.0,471.0
149,choice,choice,50,7.0,Pattern,2.0,14.368854124999416,Object_Land_Solid_Large,0,0,12580115.0,12580620.0,505.0
149,choice,choice,50,7.0,Pattern,2.0,14.368854124999416,Animal_Sea_Pattern_Small,5,1,12580645.0,12581605.0,960.0
149,choice,choice,50,7.0,Pattern,2.0,14.368854124999416,Animal_Sea_Solid_Small,3,0,12581823.0,12582022.0,199.0
149,choice,choice,50,7.0,Pattern,2.0,14.368854124999416,Animal_Land_Solid_Large,4,0,12582317.0,12582857.0,540.0
149,choice,choice,50,7.0,Pattern,2.0,14.368854124999416,Object_Land_Solid_Large,0,0,12582922.0,12583403.0,481.0
149,choice,choice,50,7.0,Pattern,2.0,14.368854124999416,Animal_Land_Solid_Large,4,0,12583589.0,12584259.0,670.0
149,choice,choice,50,7.0,Pattern,2.0,14.368854124999416,Object_Land_Solid_Large,0,0,12584728.0,12586301.0,1573.0
149,choice,choice,50,7.0,Pattern,2.0,14.368854124999416,Animal_Sea_Pattern_Small,5,1,12586544.0,12588004.0,1460.0
149,choice,choice,50,7.0,Pattern,2.0,14.368854124999416,Object_Land_Solid_Large,0,0,12588029.0,12588448.0,419.0
149,choice,choice,50,7.0,Pattern,2.0,14.368854124999416,Animal_Land_Solid_Large,4,0,12588472.0,12588719.0,247.0
149,choice,choice,50,7.0,Pattern,2.0,14.368854124999416,Object_Land_Pattern_Large,2,1,12588764.0,12588987.0,223.0
149,choice,choice,51,7.0,Solid,2.0,20.872824084000968,Object_Land_Solid_Large,0,1,12592731.0,12593464.0,733.0
149,choice,choice,51,7.0,Solid,2.0,20.872824084000968,Animal_Land_Solid_Large,4,1,12593709.0,12593976.0,267.0
149,choice,choice,51,7.0,Solid,2.0,20.872824084000968,Animal_Sea_Pattern_Small,5,0,12594016.0,12594332.0,316.0
149,choice,choice,51,7.0,Solid,2.0,20.872824084000968,Animal_Land_Solid_Large,4,1,12594366.0,12594852.0,486.0
149,choice,choice,51,7.0,Solid,2.0,20.872824084000968,Object_Land_Solid_Large,0,1,12594912.0,12595204.0,292.0
149,choice,choice,51,7.0,Solid,2.0,20.872824084000968,Animal_Land_Solid_Large,4,1,12595382.0,12596653.0,1271.0
149,choice,choice,51,7.0,Solid,2.0,20.872824084000968,Object_Land_Solid_Large,0,1,12596915.0,12597208.0,293.0
149,choice,choice,51,7.0,Solid,2.0,20.872824084000968,Animal_Sea_Pattern_Small,5,0,12597237.0,12597637.0,400.0
149,choice,choice,51,7.0,Solid,2.0,20.872824084000968,Object_Land_Solid_Large,0,1,12597661.0,12599463.0,1802.0
149,choice,choice,51,7.0,Solid,2.0,20.872824084000968,Animal_Land_Solid_Large,4,1,12599758.0,12600149.0,391.0
149,choice,choice,51,7.0,Solid,2.0,20.872824084000968,Object_Land_Solid_Large,0,1,12600301.0,12600594.0,293.0
149,choice,choice,51,7.0,Solid,2.0,20.872824084000968,Animal_Land_Solid_Large,4,1,12600618.0,12600952.0,334.0
149,choice,choice,51,7.0,Solid,2.0,20.872824084000968,Object_Land_Solid_Large,0,1,12600977.0,12601229.0,252.0
149,choice,choice,51,7.0,Solid,2.0,20.872824084000968,Animal_Land_Solid_Large,4,1,12601252.0,12601923.0,671.0
149,choice,choice,51,7.0,Solid,2.0,20.872824084000968,Object_Land_Solid_Large,0,1,12602367.0,12602644.0,277.0
149,choice,choice,51,7.0,Solid,2.0,20.872824084000968,Animal_Land_Solid_Large,4,1,12602666.0,12603110.0,444.0
149,choice,choice,51,7.0,Solid,2.0,20.872824084000968,Object_Land_Solid_Large,0,1,12603134.0,12603334.0,200.0
149,choice,choice,51,7.0,Solid,2.0,20.872824084000968,Animal_Land_Solid_Large,4,1,12603359.0,12604242.0,883.0
149,choice,choice,51,7.0,Solid,2.0,20.872824084000968,Object_Land_Solid_Large,0,1,12604294.0,12604985.0,691.0
149,choice,choice,51,7.0,Solid,2.0,20.872824084000968,Animal_Land_Solid_Large,4,1,12605212.0,12605472.0,260.0
149,choice,choice,51,7.0,Solid,2.0,20.872824084000968,Object_Land_Solid_Large,0,1,12605496.0,12605704.0,208.0
149,choice,choice,51,7.0,Solid,2.0,20.872824084000968,Animal_Land_Solid_Large,4,1,12605728.0,12607709.0,1981.0
149,choice,choice,51,7.0,Solid,2.0,20.872824084000968,Animal_Sea_Solid_Small,3,1,12607976.0,12609612.0,1636.0
149,choice,choice,51,7.0,Solid,2.0,20.872824084000968,Object_Land_Solid_Large,0,1,12610420.0,12612956.0,2536.0
149,choice,choice,51,7.0,Solid,2.0,20.872824084000968,Animal_Land_Solid_Large,4,1,12613213.0,12613481.0,268.0
149,choice,choice,52,7.0,Land,1.0,16.38004125000043,Object_Land_Solid_Large,0,1,12616230.0,12617025.0,795.0
149,choice,choice,52,7.0,Land,1.0,16.38004125000043,Animal_Land_Solid_Large,4,1,12617044.0,12617398.0,354.0
149,choice,choice,52,7.0,Land,1.0,16.38004125000043,Object_Land_Solid_Large,0,1,12617421.0,12618163.0,742.0
149,choice,choice,52,7.0,Land,1.0,16.38004125000043,Animal_Sea_Pattern_Small,5,0,12618190.0,12618832.0,642.0
149,choice,choice,52,7.0,Land,1.0,16.38004125000043,Object_Land_Solid_Large,0,1,12618878.0,12620567.0,1689.0
149,choice,choice,52,7.0,Land,1.0,16.38004125000043,Animal_Land_Solid_Large,4,1,12620641.0,12621310.0,669.0
149,choice,choice,52,7.0,Land,1.0,16.38004125000043,Object_Land_Solid_Large,0,1,12621350.0,12621566.0,216.0
149,choice,choice,52,7.0,Land,1.0,16.38004125000043,Animal_Land_Solid_Large,4,1,12621593.0,12622776.0,1183.0
149,choice,choice,52,7.0,Land,1.0,16.38004125000043,Object_Land_Solid_Large,0,1,12623009.0,12623245.0,236.0
149,choice,choice,52,7.0,Land,1.0,16.38004125000043,Animal_Land_Solid_Large,4,1,12623271.0,12624556.0,1285.0
149,choice,choice,52,7.0,Land,1.0,16.38004125000043,Animal_Sea_Pattern_Small,5,0,12624592.0,12625022.0,430.0
149,choice,choice,52,7.0,Land,1.0,16.38004125000043,Object_Land_Solid_Large,0,1,12625674.0,12626488.0,814.0
149,choice,choice,52,7.0,Land,1.0,16.38004125000043,Animal_Land_Solid_Large,4,1,12626528.0,12626941.0,413.0
149,choice,choice,52,7.0,Land,1.0,16.38004125000043,Object_Land_Solid_Large,0,1,12627258.0,12627727.0,469.0
149,choice,choice,52,7.0,Land,1.0,16.38004125000043,Animal_Land_Solid_Large,4,1,12627750.0,12628840.0,1090.0
149,choice,choice,52,7.0,Land,1.0,16.38004125000043,Object_Land_Solid_Large,0,1,12629346.0,12629790.0,444.0
149,choice,choice,52,7.0,Land,1.0,16.38004125000043,Animal_Land_Solid_Large,4,1,12629810.0,12630093.0,283.0
149,choice,choice,52,7.0,Land,1.0,16.38004125000043,Object_Land_Solid_Large,0,1,12630116.0,12630614.0,498.0
149,choice,choice,52,7.0,Land,1.0,16.38004125000043,Animal_Land_Solid_Large,4,1,12630638.0,12631059.0,421.0
149,choice,choice,52,7.0,Land,1.0,16.38004125000043,Object_Land_Solid_Large,0,1,12631076.0,12631353.0,277.0
149,choice,choice,52,7.0,Land,1.0,16.38004125000043,Animal_Sea_Pattern_Small,5,0,12631393.0,12631753.0,360.0
149,choice,choice,52,7.0,Land,1.0,16.38004125000043,Animal_Land_Solid_Large,4,1,12631795.0,12632414.0,619.0
149,choice,choice,53,7.0,Sea,2.0,18.80155920800098,Object_Land_Solid_Large,0,0,12635084.0,12635881.0,797.0
149,choice,choice,53,7.0,Sea,2.0,18.80155920800098,Animal_Land_Solid_Large,4,0,12636145.0,12636849.0,704.0
149,choice,choice,53,7.0,Sea,2.0,18.80155920800098,Object_Land_Solid_Large,0,0,12636871.0,12637322.0,451.0
149,choice,choice,53,7.0,Sea,2.0,18.80155920800098,Animal_Land_Solid_Large,4,0,12637346.0,12638151.0,805.0
149,choice,choice,53,7.0,Sea,2.0,18.80155920800098,Object_Land_Solid_Large,0,0,12638181.0,12638928.0,747.0
149,choice,choice,53,7.0,Sea,2.0,18.80155920800098,Animal_Land_Solid_Large,4,0,12639182.0,12639460.0,278.0
149,choice,choice,53,7.0,Sea,2.0,18.80155920800098,Animal_Sea_Solid_Small,3,1,12639500.0,12639981.0,481.0
149,choice,choice,53,7.0,Sea,2.0,18.80155920800098,Animal_Sea_Pattern_Small,5,1,12640482.0,12641654.0,1172.0
149,choice,choice,53,7.0,Sea,2.0,18.80155920800098,Object_Land_Solid_Large,0,0,12641882.0,12642383.0,501.0
149,choice,choice,53,7.0,Sea,2.0,18.80155920800098,Animal_Sea_Pattern_Small,5,1,12642403.0,12644040.0,1637.0
149,choice,choice,53,7.0,Sea,2.0,18.80155920800098,Animal_Land_Solid_Large,4,0,12644273.0,12644517.0,244.0
149,choice,choice,53,7.0,Sea,2.0,18.80155920800098,Animal_Sea_Pattern_Small,5,1,12644551.0,12644815.0,264.0
149,choice,choice,53,7.0,Sea,2.0,18.80155920800098,Animal_Land_Solid_Large,4,0,12644857.0,12645052.0,195.0
149,choice,choice,53,7.0,Sea,2.0,18.80155920800098,Animal_Sea_Pattern_Small,5,1,12645090.0,12645847.0,757.0
149,choice,choice,53,7.0,Sea,2.0,18.80155920800098,Object_Land_Solid_Large,0,0,12646052.0,12646277.0,225.0
149,choice,choice,53,7.0,Sea,2.0,18.80155920800098,Animal_Land_Solid_Large,4,0,12646304.0,12646850.0,546.0
149,choice,choice,53,7.0,Sea,2.0,18.80155920800098,Object_Land_Solid_Large,0,0,12647512.0,12647822.0,310.0
149,choice,choice,53,7.0,Sea,2.0,18.80155920800098,Animal_Land_Solid_Large,4,0,12647852.0,12648183.0,331.0
149,choice,choice,53,7.0,Sea,2.0,18.80155920800098,Object_Land_Solid_Large,0,0,12648214.0,12648712.0,498.0
149,choice,choice,53,7.0,Sea,2.0,18.80155920800098,Animal_Land_Solid_Large,4,0,12648742.0,12649540.0,798.0
149,choice,choice,53,7.0,Sea,2.0,18.80155920800098,Object_Land_Solid_Large,0,0,12649832.0,12650493.0,661.0
149,choice,choice,53,7.0,Sea,2.0,18.80155920800098,Animal_Land_Solid_Large,4,0,12650512.0,12651250.0,738.0
149,choice,choice,53,7.0,Sea,2.0,18.80155920800098,Animal_Sea_Solid_Small,3,1,12651298.0,12652287.0,989.0
149,choice,choice,53,7.0,Sea,2.0,18.80155920800098,Animal_Land_Solid_Large,4,0,12652344.0,12653339.0,995.0
149,choice,choice,54,7.0,Animal,1.0,11.771973499999149,Animal_Land_Solid_Large,4,1,12656401.0,12656755.0,354.0
149,choice,choice,54,7.0,Animal,1.0,11.771973499999149,Object_Land_Solid_Large,0,0,12656788.0,12657224.0,436.0
149,choice,choice,54,7.0,Animal,1.0,11.771973499999149,Animal_Land_Solid_Large,4,1,12657247.0,12659203.0,1956.0
149,choice,choice,54,7.0,Animal,1.0,11.771973499999149,Object_Land_Solid_Large,0,0,12659476.0,12659750.0,274.0
149,choice,choice,54,7.0,Animal,1.0,11.771973499999149,Animal_Sea_Pattern_Small,5,1,12659774.0,12660350.0,576.0
149,choice,choice,54,7.0,Animal,1.0,11.771973499999149,Animal_Land_Solid_Large,4,1,12660605.0,12660930.0,325.0
149,choice,choice,54,7.0,Animal,1.0,11.771973499999149,Animal_Sea_Pattern_Small,5,1,12660967.0,12661946.0,979.0
149,choice,choice,54,7.0,Animal,1.0,11.771973499999149,Animal_Land_Solid_Large,4,1,12662019.0,12663127.0,1108.0
149,choice,choice,54,7.0,Animal,1.0,11.771973499999149,Object_Land_Solid_Large,0,0,12663616.0,12663920.0,304.0
149,choice,choice,54,7.0,Animal,1.0,11.771973499999149,Animal_Land_Solid_Large,4,1,12663939.0,12665793.0,1854.0
149,choice,choice,54,7.0,Animal,1.0,11.771973499999149,Object_Land_Solid_Large,0,0,12665870.0,12666386.0,516.0
149,choice,choice,54,7.0,Animal,1.0,11.771973499999149,Animal_Land_Solid_Large,4,1,12666422.0,12667063.0,641.0
149,choice,choice,54,7.0,Animal,1.0,11.771973499999149,Object_Land_Solid_Large,0,0,12667088.0,12667382.0,294.0
149,choice,choice,54,7.0,Animal,1.0,11.771973499999149,Animal_Land_Solid_Large,4,1,12667410.0,12668092.0,682.0
149,choice,choice,55,7.0,Object,2.0,8.248313916999905,Animal_Land_Solid_Large,4,0,12672331.0,12672872.0,541.0
149,choice,choice,55,7.0,Object,2.0,8.248313916999905,Object_Land_Solid_Large,0,1,12672894.0,12673115.0,221.0
149,choice,choice,55,7.0,Object,2.0,8.248313916999905,Object_Sea_Pattern_Small,1,1,12673165.0,12673618.0,453.0
149,choice,choice,55,7.0,Object,2.0,8.248313916999905,Animal_Land_Solid_Large,4,0,12674064.0,12674321.0,257.0
149,choice,choice,55,7.0,Object,2.0,8.248313916999905,Object_Land_Solid_Large,0,1,12674507.0,12675732.0,1225.0
149,choice,choice,55,7.0,Object,2.0,8.248313916999905,Animal_Sea_Pattern_Small,5,0,12675749.0,12675970.0,221.0
149,choice,choice,55,7.0,Object,2.0,8.248313916999905,Animal_Land_Solid_Large,4,0,12676503.0,12677767.0,1264.0
149,choice,choice,55,7.0,Object,2.0,8.248313916999905,Object_Land_Solid_Large,0,1,12677823.0,12678296.0,473.0
149,choice,choice,55,7.0,Object,2.0,8.248313916999905,Animal_Land_Solid_Large,4,0,12678344.0,12679364.0,1020.0
149,choice,choice,56,7.0,Large,2.0,17.334064582999417,Object_Land_Solid_Large,0,1,12682704.0,12682964.0,260.0
149,choice,choice,56,7.0,Large,2.0,17.334064582999417,Animal_Land_Solid_Large,4,1,12682987.0,12684074.0,1087.0
149,choice,choice,56,7.0,Large,2.0,17.334064582999417,Object_Land_Solid_Large,0,1,12684389.0,12684683.0,294.0
149,choice,choice,56,7.0,Large,2.0,17.334064582999417,Animal_Land_Solid_Large,4,1,12684745.0,12685432.0,687.0
149,choice,choice,56,7.0,Large,2.0,17.334064582999417,Object_Land_Solid_Large,0,1,12685707.0,12687432.0,1725.0
149,choice,choice,56,7.0,Large,2.0,17.334064582999417,Animal_Sea_Pattern_Small,5,0,12688165.0,12688379.0,214.0
149,choice,choice,56,7.0,Large,2.0,17.334064582999417,Animal_Land_Solid_Large,4,1,12688416.0,12688758.0,342.0
149,choice,choice,56,7.0,Large,2.0,17.334064582999417,Object_Land_Solid_Large,0,1,12689329.0,12689730.0,401.0
149,choice,choice,56,7.0,Large,2.0,17.334064582999417,Animal_Land_Solid_Large,4,1,12689753.0,12690110.0,357.0
149,choice,choice,56,7.0,Large,2.0,17.334064582999417,Object_Sea_Pattern_Small,1,0,12690391.0,12690655.0,264.0
149,choice,choice,56,7.0,Large,2.0,17.334064582999417,Animal_Land_Solid_Large,4,1,12691038.0,12693198.0,2160.0
149,choice,choice,56,7.0,Large,2.0,17.334064582999417,Object_Land_Pattern_Large,2,1,12695070.0,12695832.0,762.0
149,choice,choice,56,7.0,Large,2.0,17.334064582999417,Object_Land_Solid_Large,0,1,12696896.0,12697741.0,845.0
149,choice,choice,56,7.0,Large,2.0,17.334064582999417,Animal_Land_Solid_Large,4,1,12697765.0,12698097.0,332.0
149,choice,choice,56,7.0,Large,2.0,17.334064582999417,Animal_Sea_Pattern_Small,5,0,12698130.0,12698585.0,455.0
149,choice,choice,56,7.0,Large,2.0,17.334064582999417,Animal_Land_Solid_Large,4,1,12698613.0,12699060.0,447.0
149,choice,choice,56,7.0,Large,2.0,17.334064582999417,Object_Land_Solid_Large,0,1,12699084.0,12699305.0,221.0
149,choice,choice,56,7.0,Large,2.0,17.334064582999417,Animal_Land_Solid_Large,4,1,12699330.0,12699848.0,518.0
149,choice,choice,56,7.0,Large,2.0,17.334064582999417,Animal_Sea_Pattern_Small,5,0,12699874.0,12700036.0,162.0
