phase,event,trial_number,eyetracker_onset,eyetracker_offset,fix_start,fix_end,fix_duration_full,fix_duration_bounded,fix_x,fix_y,roi_x,roi_y,roi_content,onset,offset,game,image,outcome,choice,correct,rt,letter,match,response,option,true_value,true_position,recalled_position,Unnamed: 18
encoding,fixation,1,9535774,9537036,9536008.0,9536412.0,405.0,405.0,1901.4,1084.1,1920.0,1080.0,fixation,23.30230824999944,24.564792125000167,1.0,Object_Sea_Pattern_Large,-2.0,,,,,,,,,,,
encoding,fixation,1,9535774,9537036,9536448.0,9536728.0,281.0,281.0,2081.3,1265.8,2249.0,891.0,Animal_Land_Solid_Large,23.30230824999944,24.564792125000167,1.0,Object_Sea_Pattern_Large,-2.0,,,,,,,,,,,
encoding,fixation,1,9535774,9537036,9536974.0,9537200.0,227.0,62.0,1985.6,1236.5,1920.0,700.0,Animal_Sea_Solid_Large,23.30230824999944,24.564792125000167,1.0,Object_Sea_Pattern_Large,-2.0,,,,,,,,,,,
encoding,image,1,9537036,9538054,9537234.0,9538602.0,1369.0,820.0,1586.5,1205.3,1591.0,891.0,Object_Sea_Pattern_Large,24.564918707999823,25.582944332999432,1.0,Object_Sea_Pattern_Large,-2.0,,,,,,,,,,,
encoding,value,1,9538054,9544069,9538610.0,9540047.0,1438.0,1438.0,1574.2,1217.0,1591.0,891.0,Object_Sea_Pattern_Large,25.583060250000017,31.597720624999965,1.0,Object_Sea_Pattern_Large,-2.0,,,,,,,,,,,
encoding,value,1,9538054,9544069,9540058.0,9540353.0,296.0,296.0,1589.0,1223.4,1591.0,891.0,Object_Sea_Pattern_Large,25.583060250000017,31.597720624999965,1.0,Object_Sea_Pattern_Large,-2.0,,,,,,,,,,,
encoding,value,1,9538054,9544069,9540361.0,9540559.0,199.0,199.0,1589.0,1154.6,1591.0,891.0,Object_Sea_Pattern_Large,25.583060250000017,31.597720624999965,1.0,Object_Sea_Pattern_Large,-2.0,,,,,,,,,,,
encoding,value,1,9538054,9544069,9540714.0,9540922.0,209.0,209.0,1584.1,1194.0,1591.0,891.0,Object_Sea_Pattern_Large,25.583060250000017,31.597720624999965,1.0,Object_Sea_Pattern_Large,-2.0,,,,,,,,,,,
encoding,value,1,9538054,9544069,9540935.0,9542388.0,1454.0,1454.0,1594.6,1227.0,1591.0,891.0,Object_Sea_Pattern_Large,25.583060250000017,31.597720624999965,1.0,Object_Sea_Pattern_Large,-2.0,,,,,,,,,,,
encoding,value,1,9538054,9544069,9542546.0,9544691.0,2146.0,1523.0,1584.7,1218.1,1591.0,891.0,Object_Sea_Pattern_Large,25.583060250000017,31.597720624999965,1.0,Object_Sea_Pattern_Large,-2.0,,,,,,,,,,,
encoding,attention,1,9544069,9547088,9544699.0,9546159.0,1461.0,1461.0,1629.6,1170.5,1591.0,891.0,Object_Sea_Pattern_Large,31.597831790999408,34.616156416000194,1.0,Object_Sea_Pattern_Large,-2.0,-2.0,1.0,1.6267369999995935,,,,,,,,
encoding,fixation,2,9547088,9547843,9547309.0,9548200.0,892.0,534.0,1902.5,1076.3,1920.0,1080.0,fixation,34.616329499999665,35.37146620800013,1.0,Animal_Land_Solid_Small,2.0,,,,,,,,,,,
encoding,image,2,9547843,9548854,9548228.0,9549048.0,821.0,626.0,1614.5,930.8,1591.0,1269.0,Animal_Land_Solid_Small,35.371588040999995,36.382299375,1.0,Animal_Land_Solid_Small,2.0,,,,,,,,,,,
encoding,value,2,9548854,9554866,9549069.0,9550157.0,1089.0,1089.0,1593.5,788.4000000000001,1591.0,1269.0,Animal_Land_Solid_Small,36.382431874999384,42.393934916000035,1.0,Animal_Land_Solid_Small,2.0,,,,,,,,,,,
encoding,value,2,9548854,9554866,9550381.0,9553976.0,3596.0,3596.0,1610.6,940.9000000000001,1591.0,1269.0,Animal_Land_Solid_Small,36.382431874999384,42.393934916000035,1.0,Animal_Land_Solid_Small,2.0,,,,,,,,,,,
encoding,value,2,9548854,9554866,9554254.0,9554807.0,554.0,554.0,1611.2,978.9000000000001,1591.0,1269.0,Animal_Land_Solid_Small,36.382431874999384,42.393934916000035,1.0,Animal_Land_Solid_Small,2.0,,,,,,,,,,,
encoding,value,2,9548854,9554866,9554834.0,9555095.0,262.0,32.0,1567.2,1124.6,1591.0,891.0,Object_Sea_Pattern_Large,36.382431874999384,42.393934916000035,1.0,Animal_Land_Solid_Small,2.0,,,,,,,,,,,
encoding,attention,2,9554866,9557883,9555135.0,9555501.0,367.0,367.0,1601.0,796.3,1591.0,1269.0,Animal_Land_Solid_Small,42.39406187499935,45.410957665999376,1.0,Animal_Land_Solid_Small,2.0,2.0,1.0,2.669976291999774,,,,,,,,
encoding,attention,2,9554866,9557883,9555537.0,9555847.0,311.0,311.0,1570.7,961.0,1591.0,1269.0,Animal_Land_Solid_Small,42.39406187499935,45.410957665999376,1.0,Animal_Land_Solid_Small,2.0,2.0,1.0,2.669976291999774,,,,,,,,
encoding,attention,2,9554866,9557883,9555853.0,9555921.0,69.0,69.0,1568.8,978.8,1591.0,1269.0,Animal_Land_Solid_Small,42.39406187499935,45.410957665999376,1.0,Animal_Land_Solid_Small,2.0,2.0,1.0,2.669976291999774,,,,,,,,
encoding,attention,2,9554866,9557883,9555938.0,9556121.0,184.0,184.0,1568.4,975.8,1591.0,1269.0,Animal_Land_Solid_Small,42.39406187499935,45.410957665999376,1.0,Animal_Land_Solid_Small,2.0,2.0,1.0,2.669976291999774,,,,,,,,
encoding,attention,2,9554866,9557883,9556145.0,9556192.0,48.0,48.0,1571.1,970.4000000000001,1591.0,1269.0,Animal_Land_Solid_Small,42.39406187499935,45.410957665999376,1.0,Animal_Land_Solid_Small,2.0,2.0,1.0,2.669976291999774,,,,,,,,
encoding,attention,2,9554866,9557883,9556234.0,9556474.0,241.0,241.0,1615.5,804.8,1591.0,1269.0,Animal_Land_Solid_Small,42.39406187499935,45.410957665999376,1.0,Animal_Land_Solid_Small,2.0,2.0,1.0,2.669976291999774,,,,,,,,
encoding,attention,2,9554866,9557883,9556482.0,9556997.0,516.0,516.0,1548.4,787.8,1591.0,1269.0,Animal_Land_Solid_Small,42.39406187499935,45.410957665999376,1.0,Animal_Land_Solid_Small,2.0,2.0,1.0,2.669976291999774,,,,,,,,
encoding,attention,2,9554866,9557883,9557012.0,9557398.0,387.0,387.0,1526.2,796.2,1591.0,1269.0,Animal_Land_Solid_Small,42.39406187499935,45.410957665999376,1.0,Animal_Land_Solid_Small,2.0,2.0,1.0,2.669976291999774,,,,,,,,
encoding,attention,2,9554866,9557883,9557441.0,9557837.0,397.0,397.0,1574.2,836.0999999999999,1591.0,1269.0,Animal_Land_Solid_Small,42.39406187499935,45.410957665999376,1.0,Animal_Land_Solid_Small,2.0,2.0,1.0,2.669976291999774,,,,,,,,
encoding,fixation,3,9557883,9559388,9558058.0,9558255.0,198.0,198.0,1576.4,983.0999999999999,1591.0,1269.0,Animal_Land_Solid_Small,45.41111279100005,46.91593299999931,1.0,Animal_Sea_Solid_Large,-3.0,,,,,,,,,,,
encoding,fixation,3,9557883,9559388,9558285.0,9559415.0,1131.0,1103.0,1884.8,1095.4,1920.0,1080.0,fixation,45.41111279100005,46.91593299999931,1.0,Animal_Sea_Solid_Large,-3.0,,,,,,,,,,,
encoding,image,3,9559388,9560399,9559433.0,9559648.0,216.0,216.0,1803.5,1113.1,1591.0,891.0,Object_Sea_Pattern_Large,46.91605016599988,47.927060625000195,1.0,Animal_Sea_Solid_Large,-3.0,,,,,,,,,,,
encoding,image,3,9559388,9560399,9559689.0,9560104.0,416.0,416.0,1880.7,1418.9,1920.0,700.0,Animal_Sea_Solid_Large,46.91605016599988,47.927060625000195,1.0,Animal_Sea_Solid_Large,-3.0,,,,,,,,,,,
encoding,image,3,9559388,9560399,9560111.0,9560495.0,385.0,288.0,1892.4,1441.0,1920.0,700.0,Animal_Sea_Solid_Large,46.91605016599988,47.927060625000195,1.0,Animal_Sea_Solid_Large,-3.0,,,,,,,,,,,
encoding,value,3,9560399,9566412,9560667.0,9560867.0,201.0,201.0,1888.0,1350.2,1920.0,700.0,Animal_Sea_Solid_Large,47.9271719999997,53.93927120799981,1.0,Animal_Sea_Solid_Large,-3.0,,,,,,,,,,,
encoding,value,3,9560399,9566412,9560888.0,9561476.0,589.0,589.0,1899.5,1432.3,1920.0,700.0,Animal_Sea_Solid_Large,47.9271719999997,53.93927120799981,1.0,Animal_Sea_Solid_Large,-3.0,,,,,,,,,,,
encoding,value,3,9560399,9566412,9561499.0,9561689.0,191.0,191.0,1697.3,1417.5,1591.0,891.0,Object_Sea_Pattern_Large,47.9271719999997,53.93927120799981,1.0,Animal_Sea_Solid_Large,-3.0,,,,,,,,,,,
encoding,value,3,9560399,9566412,9561711.0,9562355.0,645.0,645.0,1890.3,1456.6,1920.0,700.0,Animal_Sea_Solid_Large,47.9271719999997,53.93927120799981,1.0,Animal_Sea_Solid_Large,-3.0,,,,,,,,,,,
encoding,value,3,9560399,9566412,9562561.0,9563176.0,616.0,616.0,1883.7,1483.2,1920.0,700.0,Animal_Sea_Solid_Large,47.9271719999997,53.93927120799981,1.0,Animal_Sea_Solid_Large,-3.0,,,,,,,,,,,
encoding,value,3,9560399,9566412,9563183.0,9564091.0,909.0,909.0,1896.4,1502.6,1920.0,700.0,Animal_Sea_Solid_Large,47.9271719999997,53.93927120799981,1.0,Animal_Sea_Solid_Large,-3.0,,,,,,,,,,,
encoding,value,3,9560399,9566412,9564111.0,9564366.0,256.0,256.0,1881.1,1366.1,1920.0,700.0,Animal_Sea_Solid_Large,47.9271719999997,53.93927120799981,1.0,Animal_Sea_Solid_Large,-3.0,,,,,,,,,,,
encoding,value,3,9560399,9566412,9564386.0,9564710.0,325.0,325.0,1880.6,1464.6,1920.0,700.0,Animal_Sea_Solid_Large,47.9271719999997,53.93927120799981,1.0,Animal_Sea_Solid_Large,-3.0,,,,,,,,,,,
encoding,value,3,9560399,9566412,9564728.0,9564995.0,268.0,268.0,1770.9,1465.9,1920.0,700.0,Animal_Sea_Solid_Large,47.9271719999997,53.93927120799981,1.0,Animal_Sea_Solid_Large,-3.0,,,,,,,,,,,
encoding,value,3,9560399,9566412,9565013.0,9565201.0,189.0,189.0,1891.7,1475.9,1920.0,700.0,Animal_Sea_Solid_Large,47.9271719999997,53.93927120799981,1.0,Animal_Sea_Solid_Large,-3.0,,,,,,,,,,,
encoding,value,3,9560399,9566412,9565399.0,9565420.0,22.0,22.0,1900.8,1569.8,1920.0,700.0,Animal_Sea_Solid_Large,47.9271719999997,53.93927120799981,1.0,Animal_Sea_Solid_Large,-3.0,,,,,,,,,,,
encoding,value,3,9560399,9566412,9565427.0,9566657.0,1231.0,985.0,1902.0,1466.5,1920.0,700.0,Animal_Sea_Solid_Large,47.9271719999997,53.93927120799981,1.0,Animal_Sea_Solid_Large,-3.0,,,,,,,,,,,
encoding,attention,3,9566412,9569430,9566673.0,9566921.0,249.0,249.0,1890.5,1393.4,1920.0,700.0,Animal_Sea_Solid_Large,53.93948529099998,56.95754516599936,1.0,Animal_Sea_Solid_Large,-3.0,-3.0,1.0,1.741276084000674,,,,,,,,
encoding,fixation,4,9569430,9569936,9569706.0,9570311.0,606.0,230.0,1903.3,1083.5,1920.0,1080.0,fixation,56.95773808299964,57.46353141599957,1.0,Object_Sea_Pattern_Small,2.0,,,,,,,,,,,
encoding,image,4,9569936,9570947,9570348.0,9570501.0,154.0,154.0,1924.9,719.2,1920.0,1460.0,Object_Sea_Pattern_Small,57.4636470409996,58.47488754099959,1.0,Object_Sea_Pattern_Small,2.0,,,,,,,,,,,
encoding,image,4,9569936,9570947,9570510.0,9571079.0,570.0,437.0,1929.3,679.0999999999999,1920.0,1460.0,Object_Sea_Pattern_Small,57.4636470409996,58.47488754099959,1.0,Object_Sea_Pattern_Small,2.0,,,,,,,,,,,
encoding,value,4,9570948,9576993,9571278.0,9572260.0,983.0,983.0,1908.5,655.7,1920.0,1460.0,Object_Sea_Pattern_Small,58.47499470799994,64.52056162499957,1.0,Object_Sea_Pattern_Small,2.0,,,,,,,,,,,
encoding,value,4,9570948,9576993,9572267.0,9572600.0,334.0,334.0,1935.4,612.5,1920.0,1460.0,Object_Sea_Pattern_Small,58.47499470799994,64.52056162499957,1.0,Object_Sea_Pattern_Small,2.0,,,,,,,,,,,
encoding,value,4,9570948,9576993,9572620.0,9572996.0,377.0,377.0,1904.6,699.0999999999999,1920.0,1460.0,Object_Sea_Pattern_Small,58.47499470799994,64.52056162499957,1.0,Object_Sea_Pattern_Small,2.0,,,,,,,,,,,
encoding,value,4,9570948,9576993,9573015.0,9573256.0,242.0,242.0,1794.9,784.2,1920.0,1460.0,Object_Sea_Pattern_Small,58.47499470799994,64.52056162499957,1.0,Object_Sea_Pattern_Small,2.0,,,,,,,,,,,
encoding,value,4,9570948,9576993,9573279.0,9573682.0,404.0,404.0,1907.7,704.2,1920.0,1460.0,Object_Sea_Pattern_Small,58.47499470799994,64.52056162499957,1.0,Object_Sea_Pattern_Small,2.0,,,,,,,,,,,
encoding,value,4,9570948,9576993,9573695.0,9574449.0,755.0,755.0,1916.3,629.9000000000001,1920.0,1460.0,Object_Sea_Pattern_Small,58.47499470799994,64.52056162499957,1.0,Object_Sea_Pattern_Small,2.0,,,,,,,,,,,
encoding,value,4,9570948,9576993,9574464.0,9575472.0,1009.0,1009.0,1907.8,707.0,1920.0,1460.0,Object_Sea_Pattern_Small,58.47499470799994,64.52056162499957,1.0,Object_Sea_Pattern_Small,2.0,,,,,,,,,,,
encoding,value,4,9570948,9576993,9575480.0,9575785.0,306.0,306.0,1922.9,719.5999999999999,1920.0,1460.0,Object_Sea_Pattern_Small,58.47499470799994,64.52056162499957,1.0,Object_Sea_Pattern_Small,2.0,,,,,,,,,,,
encoding,value,4,9570948,9576993,9575794.0,9575926.0,133.0,133.0,1926.6,720.2,1920.0,1460.0,Object_Sea_Pattern_Small,58.47499470799994,64.52056162499957,1.0,Object_Sea_Pattern_Small,2.0,,,,,,,,,,,
encoding,value,4,9570948,9576993,9575944.0,9576573.0,630.0,630.0,1925.6,717.0,1920.0,1460.0,Object_Sea_Pattern_Small,58.47499470799994,64.52056162499957,1.0,Object_Sea_Pattern_Small,2.0,,,,,,,,,,,
encoding,value,4,9570948,9576993,9576582.0,9577278.0,697.0,411.0,1921.2,725.0999999999999,1920.0,1460.0,Object_Sea_Pattern_Small,58.47499470799994,64.52056162499957,1.0,Object_Sea_Pattern_Small,2.0,,,,,,,,,,,
encoding,attention,4,9576994,9580006,9577298.0,9577742.0,445.0,445.0,1923.1,545.2,1920.0,1460.0,Object_Sea_Pattern_Small,64.52067520799937,67.5325335409998,1.0,Object_Sea_Pattern_Small,2.0,,,,,,,,,,,
encoding,attention,4,9576994,9580006,9577989.0,9578306.0,318.0,318.0,1899.6,667.9000000000001,1920.0,1460.0,Object_Sea_Pattern_Small,64.52067520799937,67.5325335409998,1.0,Object_Sea_Pattern_Small,2.0,,,,,,,,,,,
encoding,attention,4,9576994,9580006,9578313.0,9578622.0,310.0,310.0,1935.0,691.5,1920.0,1460.0,Object_Sea_Pattern_Small,64.52067520799937,67.5325335409998,1.0,Object_Sea_Pattern_Small,2.0,,,,,,,,,,,
encoding,attention,4,9576994,9580006,9578648.0,9578857.0,210.0,210.0,1896.7,590.5,1920.0,1460.0,Object_Sea_Pattern_Small,64.52067520799937,67.5325335409998,1.0,Object_Sea_Pattern_Small,2.0,,,,,,,,,,,
encoding,fixation,5,9580006,9581011,9580227.0,9581236.0,1010.0,784.0,1893.8,1098.4,1920.0,1080.0,fixation,67.53266654099934,68.53827633299989,1.0,Animal_Land_Solid_Large,8.0,,,,,,,,,,,
encoding,image,5,9581012,9582023,9581275.0,9582306.0,1032.0,748.0,2246.9,1264.8,2249.0,891.0,Animal_Land_Solid_Large,68.53839358299956,69.54980499999965,1.0,Animal_Land_Solid_Large,8.0,,,,,,,,,,,
encoding,value,5,9582023,9588036,9582326.0,9582764.0,439.0,439.0,2233.1,1162.1,2249.0,891.0,Animal_Land_Solid_Large,69.54992024999956,75.56204845799948,1.0,Animal_Land_Solid_Large,8.0,,,,,,,,,,,
encoding,value,5,9582023,9588036,9582964.0,9584458.0,1495.0,1495.0,2258.7,1264.7,2249.0,891.0,Animal_Land_Solid_Large,69.54992024999956,75.56204845799948,1.0,Animal_Land_Solid_Large,8.0,,,,,,,,,,,
encoding,value,5,9582023,9588036,9584478.0,9586201.0,1724.0,1724.0,2243.5,1160.0,2249.0,891.0,Animal_Land_Solid_Large,69.54992024999956,75.56204845799948,1.0,Animal_Land_Solid_Large,8.0,,,,,,,,,,,
encoding,value,5,9582023,9588036,9586213.0,9587157.0,945.0,945.0,2252.1,1246.2,2249.0,891.0,Animal_Land_Solid_Large,69.54992024999956,75.56204845799948,1.0,Animal_Land_Solid_Large,8.0,,,,,,,,,,,
encoding,value,5,9582023,9588036,9587335.0,9588327.0,993.0,701.0,2255.1,1247.2,2249.0,891.0,Animal_Land_Solid_Large,69.54992024999956,75.56204845799948,1.0,Animal_Land_Solid_Large,8.0,,,,,,,,,,,
encoding,attention,5,9588036,9591054,9588347.0,9589081.0,735.0,735.0,2279.2,1151.8,2249.0,891.0,Animal_Land_Solid_Large,75.56217158299933,78.57987679100006,1.0,Animal_Land_Solid_Large,8.0,8.0,1.0,1.6378947080002035,,,,,,,,
encoding,attention,5,9588036,9591054,9589097.0,9589307.0,211.0,211.0,2272.3,1239.2,2249.0,891.0,Animal_Land_Solid_Large,75.56217158299933,78.57987679100006,1.0,Animal_Land_Solid_Large,8.0,8.0,1.0,1.6378947080002035,,,,,,,,
encoding,attention,5,9588036,9591054,9589324.0,9590281.0,958.0,958.0,2290.5,1147.3,2249.0,891.0,Animal_Land_Solid_Large,75.56217158299933,78.57987679100006,1.0,Animal_Land_Solid_Large,8.0,8.0,1.0,1.6378947080002035,,,,,,,,
encoding,attention,5,9588036,9591054,9590289.0,9590439.0,151.0,151.0,2241.7,1154.5,2249.0,891.0,Animal_Land_Solid_Large,75.56217158299933,78.57987679100006,1.0,Animal_Land_Solid_Large,8.0,8.0,1.0,1.6378947080002035,,,,,,,,
encoding,fixation,6,9591054,9591559,9591261.0,9591413.0,153.0,153.0,1986.0,1115.6,2249.0,891.0,Animal_Land_Solid_Large,78.58003229099995,79.0851988329996,1.0,Object_Land_Pattern_Small,-2.0,,,,,,,,,,,
encoding,fixation,6,9591054,9591559,9591425.0,9591841.0,417.0,134.0,1909.4,1078.7,1920.0,1080.0,fixation,78.58003229099995,79.0851988329996,1.0,Object_Land_Pattern_Small,-2.0,,,,,,,,,,,
encoding,image,6,9591559,9592570,9591882.0,9592061.0,180.0,180.0,2224.2,907.0999999999999,2249.0,1269.0,Object_Land_Pattern_Small,79.08540929099945,80.09676124999987,1.0,Object_Land_Pattern_Small,-2.0,,,,,,,,,,,
encoding,image,6,9591559,9592570,9592090.0,9592362.0,273.0,273.0,1908.4,1099.6,1920.0,1080.0,fixation,79.08540929099945,80.09676124999987,1.0,Object_Land_Pattern_Small,-2.0,,,,,,,,,,,
encoding,image,6,9591559,9592570,9592405.0,9592684.0,280.0,165.0,2309.3,1248.2,2249.0,891.0,Animal_Land_Solid_Large,79.08540929099945,80.09676124999987,1.0,Object_Land_Pattern_Small,-2.0,,,,,,,,,,,
encoding,value,6,9592571,9598582,9592726.0,9592923.0,198.0,198.0,2206.3,844.8,2249.0,1269.0,Object_Land_Pattern_Small,80.09687487500014,86.10763808299998,1.0,Object_Land_Pattern_Small,-2.0,,,,,,,,,,,
encoding,value,6,9592571,9598582,9592931.0,9593101.0,171.0,171.0,2221.1,800.0,2249.0,1269.0,Object_Land_Pattern_Small,80.09687487500014,86.10763808299998,1.0,Object_Land_Pattern_Small,-2.0,,,,,,,,,,,
encoding,value,6,9592571,9598582,9593122.0,9593252.0,131.0,131.0,2231.7,920.2,2249.0,1269.0,Object_Land_Pattern_Small,80.09687487500014,86.10763808299998,1.0,Object_Land_Pattern_Small,-2.0,,,,,,,,,,,
encoding,value,6,9592571,9598582,9593418.0,9595536.0,2119.0,2119.0,2217.3,899.2,2249.0,1269.0,Object_Land_Pattern_Small,80.09687487500014,86.10763808299998,1.0,Object_Land_Pattern_Small,-2.0,,,,,,,,,,,
encoding,value,6,9592571,9598582,9595550.0,9595811.0,262.0,262.0,2179.2,915.4000000000001,2249.0,1269.0,Object_Land_Pattern_Small,80.09687487500014,86.10763808299998,1.0,Object_Land_Pattern_Small,-2.0,,,,,,,,,,,
encoding,value,6,9592571,9598582,9595818.0,9596636.0,819.0,819.0,2221.7,909.5,2249.0,1269.0,Object_Land_Pattern_Small,80.09687487500014,86.10763808299998,1.0,Object_Land_Pattern_Small,-2.0,,,,,,,,,,,
encoding,value,6,9592571,9598582,9596653.0,9597335.0,683.0,683.0,2239.2,850.3,2249.0,1269.0,Object_Land_Pattern_Small,80.09687487500014,86.10763808299998,1.0,Object_Land_Pattern_Small,-2.0,,,,,,,,,,,
encoding,value,6,9592571,9598582,9597344.0,9597873.0,530.0,530.0,2198.0,871.7,2249.0,1269.0,Object_Land_Pattern_Small,80.09687487500014,86.10763808299998,1.0,Object_Land_Pattern_Small,-2.0,,,,,,,,,,,
encoding,value,6,9592571,9598582,9597889.0,9598264.0,376.0,376.0,2201.9,805.3,2249.0,1269.0,Object_Land_Pattern_Small,80.09687487500014,86.10763808299998,1.0,Object_Land_Pattern_Small,-2.0,,,,,,,,,,,
encoding,value,6,9592571,9598582,9598281.0,9598650.0,370.0,301.0,2217.8,881.3,2249.0,1269.0,Object_Land_Pattern_Small,80.09687487500014,86.10763808299998,1.0,Object_Land_Pattern_Small,-2.0,,,,,,,,,,,
encoding,attention,6,9598582,9601601,9598658.0,9598856.0,199.0,199.0,2197.9,820.8,2249.0,1269.0,Object_Land_Pattern_Small,86.10776683299991,89.12668674999986,1.0,Object_Land_Pattern_Small,-2.0,-2.0,1.0,1.332200458999978,,,,,,,,
encoding,attention,6,9598582,9601601,9598865.0,9599447.0,583.0,583.0,2187.9,763.9000000000001,2249.0,1269.0,Object_Land_Pattern_Small,86.10776683299991,89.12668674999986,1.0,Object_Land_Pattern_Small,-2.0,-2.0,1.0,1.332200458999978,,,,,,,,
encoding,attention,6,9598582,9601601,9599683.0,9600208.0,526.0,526.0,2201.1,803.2,2249.0,1269.0,Object_Land_Pattern_Small,86.10776683299991,89.12668674999986,1.0,Object_Land_Pattern_Small,-2.0,-2.0,1.0,1.332200458999978,,,,,,,,
encoding,attention,6,9598582,9601601,9600226.0,9600722.0,497.0,497.0,2232.5,857.5,2249.0,1269.0,Object_Land_Pattern_Small,86.10776683299991,89.12668674999986,1.0,Object_Land_Pattern_Small,-2.0,-2.0,1.0,1.332200458999978,,,,,,,,
encoding,attention,6,9598582,9601601,9600731.0,9601293.0,563.0,563.0,2205.4,884.3,2249.0,1269.0,Object_Land_Pattern_Small,86.10776683299991,89.12668674999986,1.0,Object_Land_Pattern_Small,-2.0,-2.0,1.0,1.332200458999978,,,,,,,,
encoding,attention,6,9598582,9601601,9601315.0,9601532.0,218.0,218.0,2100.5,929.8,2249.0,1269.0,Object_Land_Pattern_Small,86.10776683299991,89.12668674999986,1.0,Object_Land_Pattern_Small,-2.0,-2.0,1.0,1.332200458999978,,,,,,,,
encoding,fixation,7,10216592,10217598,10216838.0,10216942.0,105.0,105.0,1873.6,1164.8,1920.0,700.0,Object_Land_Solid_Large,10.768491915998313,11.77419162499973,2.0,Object_Sea_Solid_Small,9.0,,,,,,,,,,,
encoding,fixation,7,10216592,10217598,10217095.0,10217383.0,289.0,289.0,1882.1,1178.4,1920.0,700.0,Object_Land_Solid_Large,10.768491915998313,11.77419162499973,2.0,Object_Sea_Solid_Small,9.0,,,,,,,,,,,
encoding,fixation,7,10216592,10217598,10217406.0,10217818.0,413.0,192.0,1689.5,1287.5,1591.0,891.0,Animal_Sea_Pattern_Small,10.768491915998313,11.77419162499973,2.0,Object_Sea_Solid_Small,9.0,,,,,,,,,,,
encoding,image,7,10217598,10218610,10217861.0,10218747.0,887.0,749.0,2223.6,1275.2,2249.0,891.0,Object_Sea_Solid_Small,11.77430104099949,12.786521207999613,2.0,Object_Sea_Solid_Small,9.0,,,,,,,,,,,
encoding,value,7,10218610,10224623,10218767.0,10219159.0,393.0,393.0,2218.0,1176.4,2249.0,891.0,Object_Sea_Solid_Small,12.786663624998257,18.79872066599819,2.0,Object_Sea_Solid_Small,9.0,,,,,,,,,,,
encoding,value,7,10218610,10224623,10219178.0,10219354.0,177.0,177.0,2218.7,1299.5,2249.0,891.0,Object_Sea_Solid_Small,12.786663624998257,18.79872066599819,2.0,Object_Sea_Solid_Small,9.0,,,,,,,,,,,
encoding,value,7,10218610,10224623,10219507.0,10219534.0,28.0,28.0,2214.8,1349.9,2249.0,891.0,Object_Sea_Solid_Small,12.786663624998257,18.79872066599819,2.0,Object_Sea_Solid_Small,9.0,,,,,,,,,,,
encoding,value,7,10218610,10224623,10219550.0,10222849.0,3300.0,3300.0,2221.2,1270.3,2249.0,891.0,Object_Sea_Solid_Small,12.786663624998257,18.79872066599819,2.0,Object_Sea_Solid_Small,9.0,,,,,,,,,,,
encoding,value,7,10218610,10224623,10223001.0,10223300.0,300.0,300.0,2206.4,1271.0,2249.0,891.0,Object_Sea_Solid_Small,12.786663624998257,18.79872066599819,2.0,Object_Sea_Solid_Small,9.0,,,,,,,,,,,
encoding,value,7,10218610,10224623,10223309.0,10223469.0,161.0,161.0,2206.3,1218.3,2249.0,891.0,Object_Sea_Solid_Small,12.786663624998257,18.79872066599819,2.0,Object_Sea_Solid_Small,9.0,,,,,,,,,,,
encoding,value,7,10218610,10224623,10223480.0,10224507.0,1028.0,1028.0,2216.9,1263.3,2249.0,891.0,Object_Sea_Solid_Small,12.786663624998257,18.79872066599819,2.0,Object_Sea_Solid_Small,9.0,,,,,,,,,,,
encoding,attention,7,10224623,10227642,10224672.0,10224941.0,270.0,270.0,2218.5,1283.8,2249.0,891.0,Object_Sea_Solid_Small,18.79885074999947,21.818343165999977,2.0,Object_Sea_Solid_Small,9.0,9.0,1.0,1.339527166999687,,,,,,,,
encoding,attention,7,10224623,10227642,10224959.0,10226282.0,1324.0,1324.0,2253.6,1175.4,2249.0,891.0,Object_Sea_Solid_Small,18.79885074999947,21.818343165999977,2.0,Object_Sea_Solid_Small,9.0,9.0,1.0,1.339527166999687,,,,,,,,
encoding,fixation,8,10227642,10228147,10228121.0,10228884.0,764.0,26.0,2232.5,1259.4,2249.0,891.0,Object_Sea_Solid_Small,21.818506332998368,22.32348308299879,2.0,Object_Land_Solid_Large,-9.0,,,,,,,,,,,
encoding,image,8,10228148,10229158,10228920.0,10230113.0,1194.0,238.0,1912.5,1431.3,1920.0,700.0,Object_Land_Solid_Large,22.323589874999016,23.33365312499882,2.0,Object_Land_Solid_Large,-9.0,,,,,,,,,,,
encoding,value,8,10229158,10235169,10230279.0,10230471.0,193.0,193.0,1901.8,1456.2,1920.0,700.0,Object_Land_Solid_Large,23.333773832999213,29.34498120799981,2.0,Object_Land_Solid_Large,-9.0,,,,,,,,,,,
encoding,value,8,10229158,10235169,10230492.0,10230879.0,388.0,388.0,1903.7,1339.7,1920.0,700.0,Object_Land_Solid_Large,23.333773832999213,29.34498120799981,2.0,Object_Land_Solid_Large,-9.0,,,,,,,,,,,
encoding,value,8,10229158,10235169,10230901.0,10232456.0,1556.0,1556.0,1902.7,1457.9,1920.0,700.0,Object_Land_Solid_Large,23.333773832999213,29.34498120799981,2.0,Object_Land_Solid_Large,-9.0,,,,,,,,,,,
encoding,value,8,10229158,10235169,10232475.0,10232863.0,389.0,389.0,1898.2,1363.6,1920.0,700.0,Object_Land_Solid_Large,23.333773832999213,29.34498120799981,2.0,Object_Land_Solid_Large,-9.0,,,,,,,,,,,
encoding,value,8,10229158,10235169,10232873.0,10233852.0,980.0,980.0,1901.3,1443.8,1920.0,700.0,Object_Land_Solid_Large,23.333773832999213,29.34498120799981,2.0,Object_Land_Solid_Large,-9.0,,,,,,,,,,,
encoding,value,8,10229158,10235169,10233858.0,10234075.0,218.0,218.0,1896.3,1461.7,1920.0,700.0,Object_Land_Solid_Large,23.333773832999213,29.34498120799981,2.0,Object_Land_Solid_Large,-9.0,,,,,,,,,,,
encoding,value,8,10229158,10235169,10234240.0,10235384.0,1145.0,929.0,1882.2,1468.8,1920.0,700.0,Object_Land_Solid_Large,23.333773832999213,29.34498120799981,2.0,Object_Land_Solid_Large,-9.0,,,,,,,,,,,
encoding,attention,8,10235169,10238186,10235399.0,10235746.0,348.0,348.0,1912.5,1362.4,1920.0,700.0,Object_Land_Solid_Large,29.34510095799851,32.36165616599828,2.0,Object_Land_Solid_Large,-9.0,-9.0,1.0,1.6683135000002949,,,,,,,,
encoding,attention,8,10235169,10238186,10235766.0,10236034.0,269.0,269.0,1914.5,1470.1,1920.0,700.0,Object_Land_Solid_Large,29.34510095799851,32.36165616599828,2.0,Object_Land_Solid_Large,-9.0,-9.0,1.0,1.6683135000002949,,,,,,,,
encoding,attention,8,10235169,10238186,10236052.0,10237064.0,1013.0,1013.0,1935.4,1370.4,1920.0,700.0,Object_Land_Solid_Large,29.34510095799851,32.36165616599828,2.0,Object_Land_Solid_Large,-9.0,-9.0,1.0,1.6683135000002949,,,,,,,,
encoding,fixation,9,10238186,10239441,10238756.0,10238929.0,174.0,174.0,1949.9,1444.4,1920.0,700.0,Object_Land_Solid_Large,32.36181445799957,33.61688574999971,2.0,Animal_Sea_Pattern_Small,-7.0,,,,,,,,,,,
encoding,fixation,9,10238186,10239441,10238971.0,10239581.0,611.0,470.0,1900.2,1082.4,1920.0,1080.0,fixation,32.36181445799957,33.61688574999971,2.0,Animal_Sea_Pattern_Small,-7.0,,,,,,,,,,,
encoding,image,9,10239441,10240453,10239610.0,10240215.0,606.0,606.0,1588.7,1255.7,1591.0,891.0,Animal_Sea_Pattern_Small,33.617000874999576,34.628227749999496,2.0,Animal_Sea_Pattern_Small,-7.0,,,,,,,,,,,
encoding,image,9,10239441,10240453,10240222.0,10240938.0,717.0,231.0,1574.8,1178.1,1591.0,891.0,Animal_Sea_Pattern_Small,33.617000874999576,34.628227749999496,2.0,Animal_Sea_Pattern_Small,-7.0,,,,,,,,,,,
encoding,value,9,10240453,10246465,10240954.0,10241329.0,376.0,376.0,1567.5,1249.5,1591.0,891.0,Animal_Sea_Pattern_Small,34.62834987499991,40.64036179099821,2.0,Animal_Sea_Pattern_Small,-7.0,,,,,,,,,,,
encoding,value,9,10240453,10246465,10241381.0,10241607.0,227.0,227.0,2146.4,1364.1,2249.0,891.0,Object_Sea_Solid_Small,34.62834987499991,40.64036179099821,2.0,Animal_Sea_Pattern_Small,-7.0,,,,,,,,,,,
encoding,value,9,10240453,10246465,10241844.0,10241966.0,123.0,123.0,1821.5,1323.9,1920.0,700.0,Object_Land_Solid_Large,34.62834987499991,40.64036179099821,2.0,Animal_Sea_Pattern_Small,-7.0,,,,,,,,,,,
encoding,value,9,10240453,10246465,10241996.0,10242323.0,328.0,328.0,1586.1,1202.9,1591.0,891.0,Animal_Sea_Pattern_Small,34.62834987499991,40.64036179099821,2.0,Animal_Sea_Pattern_Small,-7.0,,,,,,,,,,,
encoding,value,9,10240453,10246465,10242337.0,10242921.0,585.0,585.0,1579.4,1256.1,1591.0,891.0,Animal_Sea_Pattern_Small,34.62834987499991,40.64036179099821,2.0,Animal_Sea_Pattern_Small,-7.0,,,,,,,,,,,
encoding,value,9,10240453,10246465,10242928.0,10243832.0,905.0,905.0,1598.6,1184.9,1591.0,891.0,Animal_Sea_Pattern_Small,34.62834987499991,40.64036179099821,2.0,Animal_Sea_Pattern_Small,-7.0,,,,,,,,,,,
encoding,value,9,10240453,10246465,10243848.0,10244293.0,446.0,446.0,1606.7,1239.4,1591.0,891.0,Animal_Sea_Pattern_Small,34.62834987499991,40.64036179099821,2.0,Animal_Sea_Pattern_Small,-7.0,,,,,,,,,,,
encoding,value,9,10240453,10246465,10244301.0,10245204.0,904.0,904.0,1582.4,1170.0,1591.0,891.0,Animal_Sea_Pattern_Small,34.62834987499991,40.64036179099821,2.0,Animal_Sea_Pattern_Small,-7.0,,,,,,,,,,,
encoding,value,9,10240453,10246465,10245211.0,10245437.0,227.0,227.0,1556.6,1191.9,1591.0,891.0,Animal_Sea_Pattern_Small,34.62834987499991,40.64036179099821,2.0,Animal_Sea_Pattern_Small,-7.0,,,,,,,,,,,
encoding,value,9,10240453,10246465,10245447.0,10246046.0,600.0,600.0,1579.6,1249.6,1591.0,891.0,Animal_Sea_Pattern_Small,34.62834987499991,40.64036179099821,2.0,Animal_Sea_Pattern_Small,-7.0,,,,,,,,,,,
encoding,value,9,10240453,10246465,10246055.0,10246468.0,414.0,410.0,1567.1,1182.8,1591.0,891.0,Animal_Sea_Pattern_Small,34.62834987499991,40.64036179099821,2.0,Animal_Sea_Pattern_Small,-7.0,,,,,,,,,,,
encoding,attention,9,10246465,10249484,10246481.0,10247220.0,740.0,740.0,1606.7,1225.9,1591.0,891.0,Animal_Sea_Pattern_Small,40.64048354099941,43.65898512499916,2.0,Animal_Sea_Pattern_Small,-7.0,-7.0,1.0,1.1475311669983057,,,,,,,,
encoding,attention,9,10246465,10249484,10247230.0,10248196.0,967.0,967.0,1618.9,1255.5,1591.0,891.0,Animal_Sea_Pattern_Small,40.64048354099941,43.65898512499916,2.0,Animal_Sea_Pattern_Small,-7.0,-7.0,1.0,1.1475311669983057,,,,,,,,
encoding,attention,9,10246465,10249484,10248373.0,10248610.0,238.0,238.0,1964.6,1300.6,1920.0,700.0,Object_Land_Solid_Large,40.64048354099941,43.65898512499916,2.0,Animal_Sea_Pattern_Small,-7.0,-7.0,1.0,1.1475311669983057,,,,,,,,
encoding,attention,9,10246465,10249484,10248636.0,10249004.0,369.0,369.0,2227.5,1311.2,2249.0,891.0,Object_Sea_Solid_Small,40.64048354099941,43.65898512499916,2.0,Animal_Sea_Pattern_Small,-7.0,-7.0,1.0,1.1475311669983057,,,,,,,,
encoding,attention,9,10246465,10249484,10249048.0,10249259.0,212.0,212.0,1665.6,1219.8,1591.0,891.0,Animal_Sea_Pattern_Small,40.64048354099941,43.65898512499916,2.0,Animal_Sea_Pattern_Small,-7.0,-7.0,1.0,1.1475311669983057,,,,,,,,
encoding,fixation,10,10249484,10249989,10249560.0,10250051.0,492.0,429.0,2085.1,1331.0,2249.0,891.0,Object_Sea_Solid_Small,43.65921937499843,44.16423741599829,2.0,Animal_Land_Pattern_Large,1.0,,,,,,,,,,,
encoding,image,10,10249989,10251000,10250075.0,10250277.0,203.0,203.0,1876.0,1304.5,1920.0,700.0,Object_Land_Solid_Large,44.164352457999485,45.17529429099886,2.0,Animal_Land_Pattern_Large,1.0,,,,,,,,,,,
encoding,image,10,10249989,10251000,10250326.0,10251179.0,854.0,674.0,1879.7,682.5,1920.0,1460.0,Animal_Land_Pattern_Large,44.164352457999485,45.17529429099886,2.0,Animal_Land_Pattern_Large,1.0,,,,,,,,,,,
encoding,value,10,10251000,10257012,10251201.0,10251493.0,293.0,293.0,1921.6,521.5999999999999,1920.0,1460.0,Animal_Land_Pattern_Large,45.17541558299854,51.18723633299851,2.0,Animal_Land_Pattern_Large,1.0,,,,,,,,,,,
encoding,value,10,10251000,10257012,10251515.0,10253741.0,2227.0,2227.0,1884.5,677.3,1920.0,1460.0,Animal_Land_Pattern_Large,45.17541558299854,51.18723633299851,2.0,Animal_Land_Pattern_Large,1.0,,,,,,,,,,,
encoding,value,10,10251000,10257012,10253756.0,10254736.0,981.0,981.0,1927.2,522.0,1920.0,1460.0,Animal_Land_Pattern_Large,45.17541558299854,51.18723633299851,2.0,Animal_Land_Pattern_Large,1.0,,,,,,,,,,,
encoding,value,10,10251000,10257012,10254760.0,10255025.0,266.0,266.0,1883.9,634.0999999999999,1920.0,1460.0,Animal_Land_Pattern_Large,45.17541558299854,51.18723633299851,2.0,Animal_Land_Pattern_Large,1.0,,,,,,,,,,,
encoding,value,10,10251000,10257012,10255042.0,10256671.0,1630.0,1630.0,1939.1,502.70000000000005,1920.0,1460.0,Animal_Land_Pattern_Large,45.17541558299854,51.18723633299851,2.0,Animal_Land_Pattern_Large,1.0,,,,,,,,,,,
encoding,value,10,10251000,10257012,10256698.0,10256914.0,217.0,217.0,1897.6,656.8,1920.0,1460.0,Animal_Land_Pattern_Large,45.17541558299854,51.18723633299851,2.0,Animal_Land_Pattern_Large,1.0,,,,,,,,,,,
encoding,attention,10,10257013,10260030,10257097.0,10257271.0,175.0,175.0,1865.2,726.5999999999999,1920.0,1460.0,Animal_Land_Pattern_Large,51.187350665999475,54.20428699999866,2.0,Animal_Land_Pattern_Large,1.0,1.0,1.0,0.8270077500001207,,,,,,,,
encoding,attention,10,10257013,10260030,10257297.0,10258135.0,839.0,839.0,1959.0,504.0999999999999,1920.0,1460.0,Animal_Land_Pattern_Large,51.187350665999475,54.20428699999866,2.0,Animal_Land_Pattern_Large,1.0,1.0,1.0,0.8270077500001207,,,,,,,,
encoding,attention,10,10257013,10260030,10258158.0,10258319.0,162.0,162.0,1894.3,703.4000000000001,1920.0,1460.0,Animal_Land_Pattern_Large,51.187350665999475,54.20428699999866,2.0,Animal_Land_Pattern_Large,1.0,1.0,1.0,0.8270077500001207,,,,,,,,
encoding,attention,10,10257013,10260030,10258371.0,10258859.0,489.0,489.0,2208.9,1235.6,2249.0,891.0,Object_Sea_Solid_Small,51.187350665999475,54.20428699999866,2.0,Animal_Land_Pattern_Large,1.0,1.0,1.0,0.8270077500001207,,,,,,,,
encoding,attention,10,10257013,10260030,10259035.0,10259195.0,161.0,161.0,1968.8,672.0,1920.0,1460.0,Animal_Land_Pattern_Large,51.187350665999475,54.20428699999866,2.0,Animal_Land_Pattern_Large,1.0,1.0,1.0,0.8270077500001207,,,,,,,,
encoding,fixation,11,10260030,10261035,10260208.0,10260346.0,139.0,139.0,1893.6,1156.8,1920.0,700.0,Object_Land_Solid_Large,54.20443695799986,55.20951062499989,2.0,Animal_Sea_Solid_Small,-9.0,,,,,,,,,,,
encoding,fixation,11,10260030,10261035,10260354.0,10260785.0,432.0,432.0,1902.2,1090.7,1920.0,1080.0,fixation,54.20443695799986,55.20951062499989,2.0,Animal_Sea_Solid_Small,-9.0,,,,,,,,,,,
encoding,fixation,11,10260030,10261035,10260985.0,10261228.0,244.0,50.0,1895.7,1071.4,1920.0,1080.0,fixation,54.20443695799986,55.20951062499989,2.0,Animal_Sea_Solid_Small,-9.0,,,,,,,,,,,
encoding,image,11,10261035,10262047,10261269.0,10261422.0,154.0,154.0,2254.3,840.0999999999999,2249.0,1269.0,Animal_Sea_Solid_Small,55.20966695799871,56.22103999999854,2.0,Animal_Sea_Solid_Small,-9.0,,,,,,,,,,,
encoding,image,11,10261035,10262047,10261430.0,10262221.0,792.0,617.0,2245.3,880.0999999999999,2249.0,1269.0,Animal_Sea_Solid_Small,55.20966695799871,56.22103999999854,2.0,Animal_Sea_Solid_Small,-9.0,,,,,,,,,,,
encoding,value,11,10262047,10268058,10262233.0,10262489.0,257.0,257.0,2243.0,829.0999999999999,2249.0,1269.0,Animal_Sea_Solid_Small,56.22115341599965,62.2320756249992,2.0,Animal_Sea_Solid_Small,-9.0,,,,,,,,,,,
encoding,value,11,10262047,10268058,10262505.0,10262664.0,160.0,160.0,2238.1,903.7,2249.0,1269.0,Animal_Sea_Solid_Small,56.22115341599965,62.2320756249992,2.0,Animal_Sea_Solid_Small,-9.0,,,,,,,,,,,
encoding,value,11,10262047,10268058,10262868.0,10263311.0,444.0,444.0,2234.8,931.9000000000001,2249.0,1269.0,Animal_Sea_Solid_Small,56.22115341599965,62.2320756249992,2.0,Animal_Sea_Solid_Small,-9.0,,,,,,,,,,,
encoding,value,11,10262047,10268058,10263357.0,10263596.0,240.0,240.0,2290.6,1301.4,2249.0,891.0,Object_Sea_Solid_Small,56.22115341599965,62.2320756249992,2.0,Animal_Sea_Solid_Small,-9.0,,,,,,,,,,,
encoding,value,11,10262047,10268058,10263839.0,10264121.0,283.0,283.0,2172.0,874.9000000000001,2249.0,1269.0,Animal_Sea_Solid_Small,56.22115341599965,62.2320756249992,2.0,Animal_Sea_Solid_Small,-9.0,,,,,,,,,,,
encoding,value,11,10262047,10268058,10264134.0,10264476.0,343.0,343.0,2231.4,889.7,2249.0,1269.0,Animal_Sea_Solid_Small,56.22115341599965,62.2320756249992,2.0,Animal_Sea_Solid_Small,-9.0,,,,,,,,,,,
encoding,value,11,10262047,10268058,10264490.0,10264760.0,271.0,271.0,2182.8,922.4000000000001,2249.0,1269.0,Animal_Sea_Solid_Small,56.22115341599965,62.2320756249992,2.0,Animal_Sea_Solid_Small,-9.0,,,,,,,,,,,
encoding,value,11,10262047,10268058,10264769.0,10266223.0,1455.0,1455.0,2223.0,912.3,2249.0,1269.0,Animal_Sea_Solid_Small,56.22115341599965,62.2320756249992,2.0,Animal_Sea_Solid_Small,-9.0,,,,,,,,,,,
encoding,value,11,10262047,10268058,10266427.0,10267145.0,719.0,719.0,2196.0,915.0999999999999,2249.0,1269.0,Animal_Sea_Solid_Small,56.22115341599965,62.2320756249992,2.0,Animal_Sea_Solid_Small,-9.0,,,,,,,,,,,
encoding,value,11,10262047,10268058,10267156.0,10267353.0,198.0,198.0,2153.0,936.0,2249.0,1269.0,Animal_Sea_Solid_Small,56.22115341599965,62.2320756249992,2.0,Animal_Sea_Solid_Small,-9.0,,,,,,,,,,,
encoding,value,11,10262047,10268058,10267365.0,10268379.0,1015.0,693.0,2205.7,909.7,2249.0,1269.0,Animal_Sea_Solid_Small,56.22115341599965,62.2320756249992,2.0,Animal_Sea_Solid_Small,-9.0,,,,,,,,,,,
encoding,attention,11,10268058,10271075,10268401.0,10269275.0,875.0,875.0,2181.8,803.3,2249.0,1269.0,Animal_Sea_Solid_Small,62.2322756249996,65.24896229099977,2.0,Animal_Sea_Solid_Small,-9.0,-9.0,1.0,0.9772554999999556,,,,,,,,
encoding,attention,11,10268058,10271075,10269300.0,10270623.0,1324.0,1324.0,2222.4,896.0,2249.0,1269.0,Animal_Sea_Solid_Small,62.2322756249996,65.24896229099977,2.0,Animal_Sea_Solid_Small,-9.0,-9.0,1.0,0.9772554999999556,,,,,,,,
encoding,fixation,12,10271075,10272580,10271342.0,10272857.0,1516.0,1238.0,1911.5,1076.7,1920.0,1080.0,fixation,65.24913579099848,66.75409883299835,2.0,Object_Land_Pattern_Large,2.0,,,,,,,,,,,
encoding,image,12,10272580,10273592,10272893.0,10273759.0,867.0,699.0,1600.6,871.7,1591.0,1269.0,Object_Land_Pattern_Large,66.7542327909996,67.76609658299822,2.0,Object_Land_Pattern_Large,2.0,,,,,,,,,,,
encoding,value,12,10273592,10279605,10273770.0,10274033.0,264.0,264.0,1592.5,787.5999999999999,1591.0,1269.0,Object_Land_Pattern_Large,67.76620999999977,73.77891120799904,2.0,Object_Land_Pattern_Large,2.0,,,,,,,,,,,
encoding,value,12,10273592,10279605,10274049.0,10274792.0,744.0,744.0,1593.3,881.2,1591.0,1269.0,Object_Land_Pattern_Large,67.76620999999977,73.77891120799904,2.0,Object_Land_Pattern_Large,2.0,,,,,,,,,,,
encoding,value,12,10273592,10279605,10275048.0,10275241.0,194.0,194.0,1595.4,836.8,1591.0,1269.0,Object_Land_Pattern_Large,67.76620999999977,73.77891120799904,2.0,Object_Land_Pattern_Large,2.0,,,,,,,,,,,
encoding,value,12,10273592,10279605,10275253.0,10275981.0,729.0,729.0,1591.4,904.5,1591.0,1269.0,Object_Land_Pattern_Large,67.76620999999977,73.77891120799904,2.0,Object_Land_Pattern_Large,2.0,,,,,,,,,,,
encoding,value,12,10273592,10279605,10275990.0,10277241.0,1252.0,1252.0,1616.3,900.0999999999999,1591.0,1269.0,Object_Land_Pattern_Large,67.76620999999977,73.77891120799904,2.0,Object_Land_Pattern_Large,2.0,,,,,,,,,,,
encoding,value,12,10273592,10279605,10277252.0,10277544.0,293.0,293.0,1611.9,827.3,1591.0,1269.0,Object_Land_Pattern_Large,67.76620999999977,73.77891120799904,2.0,Object_Land_Pattern_Large,2.0,,,,,,,,,,,
encoding,value,12,10273592,10279605,10277559.0,10278161.0,603.0,603.0,1572.4,886.8,1591.0,1269.0,Object_Land_Pattern_Large,67.76620999999977,73.77891120799904,2.0,Object_Land_Pattern_Large,2.0,,,,,,,,,,,
encoding,value,12,10273592,10279605,10278171.0,10279754.0,1584.0,1434.0,1569.0,909.0,1591.0,1269.0,Object_Land_Pattern_Large,67.76620999999977,73.77891120799904,2.0,Object_Land_Pattern_Large,2.0,,,,,,,,,,,
encoding,attention,12,10279605,10282623,10279768.0,10279860.0,93.0,93.0,1594.1,840.5,1591.0,1269.0,Object_Land_Pattern_Large,73.77903262499967,76.79678354099997,2.0,Object_Land_Pattern_Large,2.0,2.0,1.0,0.8180639589991188,,,,,,,,
encoding,attention,12,10279605,10282623,10280073.0,10280832.0,760.0,760.0,1619.2,840.5999999999999,1591.0,1269.0,Object_Land_Pattern_Large,73.77903262499967,76.79678354099997,2.0,Object_Land_Pattern_Large,2.0,2.0,1.0,0.8180639589991188,,,,,,,,
encoding,attention,12,10279605,10282623,10280848.0,10281191.0,344.0,344.0,1579.4,899.3,1591.0,1269.0,Object_Land_Pattern_Large,73.77903262499967,76.79678354099997,2.0,Object_Land_Pattern_Large,2.0,2.0,1.0,0.8180639589991188,,,,,,,,
encoding,attention,12,10279605,10282623,10281232.0,10281436.0,205.0,205.0,1943.7,1147.7,1920.0,700.0,Object_Land_Solid_Large,73.77903262499967,76.79678354099997,2.0,Object_Land_Pattern_Large,2.0,2.0,1.0,0.8180639589991188,,,,,,,,
encoding,attention,12,10279605,10282623,10281450.0,10281874.0,425.0,425.0,1903.4,1109.0,1920.0,1080.0,fixation,73.77903262499967,76.79678354099997,2.0,Object_Land_Pattern_Large,2.0,2.0,1.0,0.8180639589991188,,,,,,,,
encoding,attention,12,10279605,10282623,10281912.0,10282169.0,258.0,258.0,1599.6,890.0,1591.0,1269.0,Object_Land_Pattern_Large,73.77903262499967,76.79678354099997,2.0,Object_Land_Pattern_Large,2.0,2.0,1.0,0.8180639589991188,,,,,,,,
encoding,fixation,13,10788521,10789027,10789019.0,10789235.0,217.0,8.0,2019.6,1362.0,1920.0,700.0,Animal_Sea_Pattern_Large,5.145788083000298,5.651977333000104,3.0,Animal_Land_Pattern_Small,-2.0,,,,,,,,,,,
encoding,image,13,10789027,10790038,10789279.0,10790366.0,1088.0,759.0,2248.0,865.3,2249.0,1269.0,Animal_Land_Pattern_Small,5.652113166001072,6.663075708000179,3.0,Animal_Land_Pattern_Small,-2.0,,,,,,,,,,,
encoding,value,13,10790038,10796052,10790383.0,10790583.0,201.0,201.0,2250.7,775.7,2249.0,1269.0,Animal_Land_Pattern_Small,6.663189375000002,12.6765594160006,3.0,Animal_Land_Pattern_Small,-2.0,,,,,,,,,,,
encoding,value,13,10790038,10796052,10790600.0,10790936.0,337.0,337.0,2252.0,874.0,2249.0,1269.0,Animal_Land_Pattern_Small,6.663189375000002,12.6765594160006,3.0,Animal_Land_Pattern_Small,-2.0,,,,,,,,,,,
encoding,value,13,10790038,10796052,10790942.0,10791628.0,687.0,687.0,2261.8,883.0,2249.0,1269.0,Animal_Land_Pattern_Small,6.663189375000002,12.6765594160006,3.0,Animal_Land_Pattern_Small,-2.0,,,,,,,,,,,
encoding,value,13,10790038,10796052,10791824.0,10793190.0,1367.0,1367.0,2252.8,898.0999999999999,2249.0,1269.0,Animal_Land_Pattern_Small,6.663189375000002,12.6765594160006,3.0,Animal_Land_Pattern_Small,-2.0,,,,,,,,,,,
encoding,value,13,10790038,10796052,10793409.0,10795983.0,2575.0,2575.0,2255.5,899.3,2249.0,1269.0,Animal_Land_Pattern_Small,6.663189375000002,12.6765594160006,3.0,Animal_Land_Pattern_Small,-2.0,,,,,,,,,,,
encoding,attention,13,10796052,10799070,10796191.0,10796433.0,243.0,243.0,2257.4,907.7,2249.0,1269.0,Animal_Land_Pattern_Small,12.67667345799964,15.69426250000106,3.0,Animal_Land_Pattern_Small,-2.0,-2.0,1.0,1.9705713340008515,,,,,,,,
encoding,attention,13,10796052,10799070,10796451.0,10796716.0,266.0,266.0,2286.9,791.8,2249.0,1269.0,Animal_Land_Pattern_Small,12.67667345799964,15.69426250000106,3.0,Animal_Land_Pattern_Small,-2.0,-2.0,1.0,1.9705713340008515,,,,,,,,
encoding,attention,13,10796052,10799070,10796726.0,10797017.0,292.0,292.0,2219.2,772.2,2249.0,1269.0,Animal_Land_Pattern_Small,12.67667345799964,15.69426250000106,3.0,Animal_Land_Pattern_Small,-2.0,-2.0,1.0,1.9705713340008515,,,,,,,,
encoding,attention,13,10796052,10799070,10797034.0,10798425.0,1392.0,1392.0,2273.2,886.7,2249.0,1269.0,Animal_Land_Pattern_Small,12.67667345799964,15.69426250000106,3.0,Animal_Land_Pattern_Small,-2.0,-2.0,1.0,1.9705713340008515,,,,,,,,
encoding,attention,13,10796052,10799070,10798442.0,10798635.0,194.0,194.0,2220.5,823.2,2249.0,1269.0,Animal_Land_Pattern_Small,12.67667345799964,15.69426250000106,3.0,Animal_Land_Pattern_Small,-2.0,-2.0,1.0,1.9705713340008515,,,,,,,,
encoding,fixation,14,10799070,10799575,,,,,,,,,none,15.694443583000975,16.199351625000418,3.0,Animal_Land_Solid_Small,7.0,,,,,,,,,,,
encoding,image,14,10799575,10800586,10799616.0,10799889.0,274.0,274.0,1941.9,1113.8,1920.0,1080.0,fixation,16.199462208000114,17.21061166599975,3.0,Animal_Land_Solid_Small,7.0,,,,,,,,,,,
encoding,image,14,10799575,10800586,10799927.0,10801925.0,1999.0,659.0,1629.7,925.9000000000001,1591.0,1269.0,Animal_Land_Solid_Small,16.199462208000114,17.21061166599975,3.0,Animal_Land_Solid_Small,7.0,,,,,,,,,,,
encoding,value,14,10800586,10806599,10801976.0,10802312.0,337.0,337.0,2307.2,977.5,2249.0,1269.0,Animal_Land_Pattern_Small,17.210720875000334,23.222911374999967,3.0,Animal_Land_Solid_Small,7.0,,,,,,,,,,,
encoding,value,14,10800586,10806599,10802362.0,10802828.0,467.0,467.0,1608.0,881.7,1591.0,1269.0,Animal_Land_Solid_Small,17.210720875000334,23.222911374999967,3.0,Animal_Land_Solid_Small,7.0,,,,,,,,,,,
encoding,value,14,10800586,10806599,10803039.0,10803552.0,514.0,514.0,1625.3,938.0999999999999,1591.0,1269.0,Animal_Land_Solid_Small,17.210720875000334,23.222911374999967,3.0,Animal_Land_Solid_Small,7.0,,,,,,,,,,,
encoding,value,14,10800586,10806599,10803602.0,10803931.0,330.0,330.0,2195.9,963.8,2249.0,1269.0,Animal_Land_Pattern_Small,17.210720875000334,23.222911374999967,3.0,Animal_Land_Solid_Small,7.0,,,,,,,,,,,
encoding,value,14,10800586,10806599,10803983.0,10804283.0,301.0,301.0,1589.2,878.2,1591.0,1269.0,Animal_Land_Solid_Small,17.210720875000334,23.222911374999967,3.0,Animal_Land_Solid_Small,7.0,,,,,,,,,,,
encoding,value,14,10800586,10806599,10804325.0,10804627.0,303.0,303.0,2046.1,1025.2,2249.0,1269.0,Animal_Land_Pattern_Small,17.210720875000334,23.222911374999967,3.0,Animal_Land_Solid_Small,7.0,,,,,,,,,,,
encoding,value,14,10800586,10806599,10804659.0,10805364.0,706.0,706.0,1642.2,933.4000000000001,1591.0,1269.0,Animal_Land_Solid_Small,17.210720875000334,23.222911374999967,3.0,Animal_Land_Solid_Small,7.0,,,,,,,,,,,
encoding,value,14,10800586,10806599,10805392.0,10805556.0,165.0,165.0,1955.9,1072.9,1920.0,1080.0,fixation,17.210720875000334,23.222911374999967,3.0,Animal_Land_Solid_Small,7.0,,,,,,,,,,,
encoding,value,14,10800586,10806599,10805589.0,10805731.0,143.0,143.0,1632.5,945.5999999999999,1591.0,1269.0,Animal_Land_Solid_Small,17.210720875000334,23.222911374999967,3.0,Animal_Land_Solid_Small,7.0,,,,,,,,,,,
encoding,value,14,10800586,10806599,10805969.0,10806925.0,957.0,630.0,1611.5,939.9000000000001,1591.0,1269.0,Animal_Land_Solid_Small,17.210720875000334,23.222911374999967,3.0,Animal_Land_Solid_Small,7.0,,,,,,,,,,,
encoding,attention,14,10806599,10809615,10806946.0,10807101.0,156.0,156.0,1639.2,799.8,1591.0,1269.0,Animal_Land_Solid_Small,23.22307554100007,26.23941645800005,3.0,Animal_Land_Solid_Small,7.0,7.0,1.0,1.4588292080006795,,,,,,,,
encoding,attention,14,10806599,10809615,10807109.0,10807315.0,207.0,207.0,1563.9,790.0,1591.0,1269.0,Animal_Land_Solid_Small,23.22307554100007,26.23941645800005,3.0,Animal_Land_Solid_Small,7.0,7.0,1.0,1.4588292080006795,,,,,,,,
encoding,attention,14,10806599,10809615,10807338.0,10808470.0,1133.0,1133.0,1621.4,955.5,1591.0,1269.0,Animal_Land_Solid_Small,23.22307554100007,26.23941645800005,3.0,Animal_Land_Solid_Small,7.0,7.0,1.0,1.4588292080006795,,,,,,,,
encoding,fixation,15,10809615,10810371,10809811.0,10810519.0,709.0,560.0,1917.0,1054.4,1920.0,1080.0,fixation,26.23959108300005,26.99484095800108,3.0,Object_Sea_Pattern_Large,3.0,,,,,,,,,,,
encoding,image,15,10810371,10811382,10810547.0,10810693.0,147.0,147.0,1656.2,1192.7,1591.0,891.0,Object_Sea_Pattern_Large,26.99496250000084,28.00614775000031,3.0,Object_Sea_Pattern_Large,3.0,,,,,,,,,,,
encoding,image,15,10810371,10811382,10810703.0,10811400.0,698.0,679.0,1606.3,1202.0,1591.0,891.0,Object_Sea_Pattern_Large,26.99496250000084,28.00614775000031,3.0,Object_Sea_Pattern_Large,3.0,,,,,,,,,,,
encoding,value,15,10811382,10817394,10811619.0,10811847.0,229.0,229.0,1626.9,1235.2,1591.0,891.0,Object_Sea_Pattern_Large,28.006259625000897,34.01812125000106,3.0,Object_Sea_Pattern_Large,3.0,,,,,,,,,,,
encoding,value,15,10811382,10817394,10811884.0,10812207.0,324.0,324.0,1980.4,1153.0,2249.0,891.0,Object_Sea_Solid_Large,28.006259625000897,34.01812125000106,3.0,Object_Sea_Pattern_Large,3.0,,,,,,,,,,,
encoding,value,15,10811382,10817394,10812235.0,10812405.0,171.0,171.0,1614.6,1197.9,1591.0,891.0,Object_Sea_Pattern_Large,28.006259625000897,34.01812125000106,3.0,Object_Sea_Pattern_Large,3.0,,,,,,,,,,,
encoding,value,15,10811382,10817394,10812414.0,10812974.0,561.0,561.0,1598.0,1147.9,1591.0,891.0,Object_Sea_Pattern_Large,28.006259625000897,34.01812125000106,3.0,Object_Sea_Pattern_Large,3.0,,,,,,,,,,,
encoding,value,15,10811382,10817394,10812982.0,10813843.0,862.0,862.0,1594.2,1203.4,1591.0,891.0,Object_Sea_Pattern_Large,28.006259625000897,34.01812125000106,3.0,Object_Sea_Pattern_Large,3.0,,,,,,,,,,,
encoding,value,15,10811382,10817394,10814052.0,10815712.0,1661.0,1661.0,1600.2,1218.2,1591.0,891.0,Object_Sea_Pattern_Large,28.006259625000897,34.01812125000106,3.0,Object_Sea_Pattern_Large,3.0,,,,,,,,,,,
encoding,value,15,10811382,10817394,10815721.0,10817229.0,1509.0,1509.0,1589.4,1191.7,1591.0,891.0,Object_Sea_Pattern_Large,28.006259625000897,34.01812125000106,3.0,Object_Sea_Pattern_Large,3.0,,,,,,,,,,,
encoding,attention,15,10817395,10820411,10817455.0,10818634.0,1180.0,1180.0,1569.3,1190.2,1591.0,891.0,Object_Sea_Pattern_Large,34.01824920800027,37.034879875000115,3.0,Object_Sea_Pattern_Large,3.0,3.0,1.0,0.6933839580015047,,,,,,,,
encoding,attention,15,10817395,10820411,10818642.0,10819617.0,976.0,976.0,1558.6,1185.1,1591.0,891.0,Object_Sea_Pattern_Large,34.01824920800027,37.034879875000115,3.0,Object_Sea_Pattern_Large,3.0,3.0,1.0,0.6933839580015047,,,,,,,,
encoding,fixation,16,10820411,10821417,10820715.0,10820908.0,194.0,194.0,1891.1,1339.2,1920.0,700.0,Animal_Sea_Pattern_Large,37.035039541000515,38.0403230410011,3.0,Object_Sea_Solid_Large,3.0,,,,,,,,,,,
encoding,fixation,16,10820411,10821417,10820935.0,10821102.0,168.0,168.0,1879.7,1078.8,1920.0,1080.0,fixation,37.035039541000515,38.0403230410011,3.0,Object_Sea_Solid_Large,3.0,,,,,,,,,,,
encoding,fixation,16,10820411,10821417,10821284.0,10821588.0,305.0,133.0,1885.4,1254.8,1920.0,700.0,Animal_Sea_Pattern_Large,37.035039541000515,38.0403230410011,3.0,Object_Sea_Solid_Large,3.0,,,,,,,,,,,
encoding,image,16,10821417,10822428,10821619.0,10822716.0,1098.0,809.0,2216.0,1207.8,2249.0,891.0,Object_Sea_Solid_Large,38.04043224999987,39.05202354100038,3.0,Object_Sea_Solid_Large,3.0,,,,,,,,,,,
encoding,value,16,10822429,10828441,10822734.0,10822967.0,234.0,234.0,2235.0,1160.4,2249.0,891.0,Object_Sea_Solid_Large,39.05217933300082,45.063955040999645,3.0,Object_Sea_Solid_Large,3.0,,,,,,,,,,,
encoding,value,16,10822429,10828441,10822977.0,10823301.0,325.0,325.0,2217.4,1213.8,2249.0,891.0,Object_Sea_Solid_Large,39.05217933300082,45.063955040999645,3.0,Object_Sea_Solid_Large,3.0,,,,,,,,,,,
encoding,value,16,10822429,10828441,10823499.0,10823811.0,313.0,313.0,2190.8,1212.8,2249.0,891.0,Object_Sea_Solid_Large,39.05217933300082,45.063955040999645,3.0,Object_Sea_Solid_Large,3.0,,,,,,,,,,,
encoding,value,16,10822429,10828441,10823821.0,10824124.0,304.0,304.0,2242.6,1212.7,2249.0,891.0,Object_Sea_Solid_Large,39.05217933300082,45.063955040999645,3.0,Object_Sea_Solid_Large,3.0,,,,,,,,,,,
encoding,value,16,10822429,10828441,10824134.0,10824842.0,709.0,709.0,2198.1,1215.5,2249.0,891.0,Object_Sea_Solid_Large,39.05217933300082,45.063955040999645,3.0,Object_Sea_Solid_Large,3.0,,,,,,,,,,,
encoding,value,16,10822429,10828441,10825028.0,10825678.0,651.0,651.0,2214.5,1217.7,2249.0,891.0,Object_Sea_Solid_Large,39.05217933300082,45.063955040999645,3.0,Object_Sea_Solid_Large,3.0,,,,,,,,,,,
encoding,value,16,10822429,10828441,10825690.0,10826054.0,365.0,365.0,2164.4,1221.5,2249.0,891.0,Object_Sea_Solid_Large,39.05217933300082,45.063955040999645,3.0,Object_Sea_Solid_Large,3.0,,,,,,,,,,,
encoding,value,16,10822429,10828441,10826065.0,10826526.0,462.0,462.0,2231.6,1238.7,2249.0,891.0,Object_Sea_Solid_Large,39.05217933300082,45.063955040999645,3.0,Object_Sea_Solid_Large,3.0,,,,,,,,,,,
encoding,value,16,10822429,10828441,10826535.0,10827091.0,557.0,557.0,2199.3,1245.6,2249.0,891.0,Object_Sea_Solid_Large,39.05217933300082,45.063955040999645,3.0,Object_Sea_Solid_Large,3.0,,,,,,,,,,,
encoding,value,16,10822429,10828441,10827115.0,10827370.0,256.0,256.0,2019.9,1231.9,2249.0,891.0,Object_Sea_Solid_Large,39.05217933300082,45.063955040999645,3.0,Object_Sea_Solid_Large,3.0,,,,,,,,,,,
encoding,value,16,10822429,10828441,10827501.0,10827759.0,259.0,259.0,2261.6,1221.2,2249.0,891.0,Object_Sea_Solid_Large,39.05217933300082,45.063955040999645,3.0,Object_Sea_Solid_Large,3.0,,,,,,,,,,,
encoding,value,16,10822429,10828441,10827771.0,10828002.0,232.0,232.0,2210.6,1185.7,2249.0,891.0,Object_Sea_Solid_Large,39.05217933300082,45.063955040999645,3.0,Object_Sea_Solid_Large,3.0,,,,,,,,,,,
encoding,value,16,10822429,10828441,10828013.0,10828649.0,637.0,428.0,2235.9,1225.5,2249.0,891.0,Object_Sea_Solid_Large,39.05217933300082,45.063955040999645,3.0,Object_Sea_Solid_Large,3.0,,,,,,,,,,,
encoding,attention,16,10828441,10831459,10828666.0,10828921.0,256.0,256.0,2196.7,1158.4,2249.0,891.0,Object_Sea_Solid_Large,45.06409770800019,48.082492999999886,3.0,Object_Sea_Solid_Large,3.0,3.0,1.0,0.8324812090013438,,,,,,,,
encoding,attention,16,10828441,10831459,10828932.0,10829201.0,270.0,270.0,2266.2,1144.4,2249.0,891.0,Object_Sea_Solid_Large,45.06409770800019,48.082492999999886,3.0,Object_Sea_Solid_Large,3.0,3.0,1.0,0.8324812090013438,,,,,,,,
encoding,attention,16,10828441,10831459,10829219.0,10829559.0,341.0,341.0,2235.6,1224.9,2249.0,891.0,Object_Sea_Solid_Large,45.06409770800019,48.082492999999886,3.0,Object_Sea_Solid_Large,3.0,3.0,1.0,0.8324812090013438,,,,,,,,
encoding,attention,16,10828441,10831459,10829795.0,10829979.0,185.0,185.0,2169.1,1300.4,2249.0,891.0,Object_Sea_Solid_Large,45.06409770800019,48.082492999999886,3.0,Object_Sea_Solid_Large,3.0,3.0,1.0,0.8324812090013438,,,,,,,,
encoding,attention,16,10828441,10831459,10829987.0,10830652.0,666.0,666.0,2231.8,1231.1,2249.0,891.0,Object_Sea_Solid_Large,45.06409770800019,48.082492999999886,3.0,Object_Sea_Solid_Large,3.0,3.0,1.0,0.8324812090013438,,,,,,,,
encoding,attention,16,10828441,10831459,10830674.0,10830877.0,204.0,204.0,2073.3,1190.4,2249.0,891.0,Object_Sea_Solid_Large,45.06409770800019,48.082492999999886,3.0,Object_Sea_Solid_Large,3.0,3.0,1.0,0.8324812090013438,,,,,,,,
encoding,fixation,17,10831459,10832715,10831478.0,10831771.0,294.0,294.0,2284.4,1233.4,2249.0,891.0,Object_Sea_Solid_Large,48.08264766600041,49.33827454099992,3.0,Object_Land_Solid_Small,-4.0,,,,,,,,,,,
encoding,fixation,17,10831459,10832715,10831800.0,10831915.0,116.0,116.0,1958.1,1105.2,1920.0,1080.0,fixation,48.08264766600041,49.33827454099992,3.0,Object_Land_Solid_Small,-4.0,,,,,,,,,,,
encoding,fixation,17,10831459,10832715,10832082.0,10832542.0,461.0,461.0,1892.7,1088.6,1920.0,1080.0,fixation,48.08264766600041,49.33827454099992,3.0,Object_Land_Solid_Small,-4.0,,,,,,,,,,,
encoding,fixation,17,10831459,10832715,10832581.0,10832898.0,318.0,134.0,2062.3,1348.5,1920.0,700.0,Animal_Sea_Pattern_Large,48.08264766600041,49.33827454099992,3.0,Object_Land_Solid_Small,-4.0,,,,,,,,,,,
encoding,image,17,10832715,10833726,10832936.0,10833079.0,144.0,144.0,1912.0,1112.8,1920.0,1080.0,fixation,49.33838633300002,50.349477166000725,3.0,Object_Land_Solid_Small,-4.0,,,,,,,,,,,
encoding,image,17,10832715,10833726,10833123.0,10833239.0,117.0,117.0,1932.8,596.5999999999999,1920.0,1460.0,Object_Land_Solid_Small,49.33838633300002,50.349477166000725,3.0,Object_Land_Solid_Small,-4.0,,,,,,,,,,,
encoding,image,17,10832715,10833726,10833255.0,10833381.0,127.0,127.0,1931.7,681.9000000000001,1920.0,1460.0,Object_Land_Solid_Small,49.33838633300002,50.349477166000725,3.0,Object_Land_Solid_Small,-4.0,,,,,,,,,,,
encoding,image,17,10832715,10833726,10833680.0,10833919.0,240.0,46.0,1847.2,851.9000000000001,1920.0,1460.0,Object_Land_Solid_Small,49.33838633300002,50.349477166000725,3.0,Object_Land_Solid_Small,-4.0,,,,,,,,,,,
encoding,value,17,10833726,10839738,10833941.0,10834898.0,958.0,958.0,1910.4,717.4000000000001,1920.0,1460.0,Object_Land_Solid_Small,50.349603250000655,56.36069670799952,3.0,Object_Land_Solid_Small,-4.0,,,,,,,,,,,
encoding,value,17,10833726,10839738,10835144.0,10835697.0,554.0,554.0,1916.9,761.3,1920.0,1460.0,Object_Land_Solid_Small,50.349603250000655,56.36069670799952,3.0,Object_Land_Solid_Small,-4.0,,,,,,,,,,,
encoding,value,17,10833726,10839738,10835706.0,10836060.0,355.0,355.0,1894.1,749.2,1920.0,1460.0,Object_Land_Solid_Small,50.349603250000655,56.36069670799952,3.0,Object_Land_Solid_Small,-4.0,,,,,,,,,,,
encoding,value,17,10833726,10839738,10836427.0,10837102.0,676.0,676.0,1911.4,770.7,1920.0,1460.0,Object_Land_Solid_Small,50.349603250000655,56.36069670799952,3.0,Object_Land_Solid_Small,-4.0,,,,,,,,,,,
encoding,value,17,10833726,10839738,10837110.0,10837355.0,246.0,246.0,1946.0,744.2,1920.0,1460.0,Object_Land_Solid_Small,50.349603250000655,56.36069670799952,3.0,Object_Land_Solid_Small,-4.0,,,,,,,,,,,
encoding,value,17,10833726,10839738,10837367.0,10837695.0,329.0,329.0,1870.5,748.0999999999999,1920.0,1460.0,Object_Land_Solid_Small,50.349603250000655,56.36069670799952,3.0,Object_Land_Solid_Small,-4.0,,,,,,,,,,,
encoding,value,17,10833726,10839738,10838009.0,10838734.0,726.0,726.0,1909.7,753.9000000000001,1920.0,1460.0,Object_Land_Solid_Small,50.349603250000655,56.36069670799952,3.0,Object_Land_Solid_Small,-4.0,,,,,,,,,,,
encoding,value,17,10833726,10839738,10838741.0,10839270.0,530.0,530.0,1951.9,748.2,1920.0,1460.0,Object_Land_Solid_Small,50.349603250000655,56.36069670799952,3.0,Object_Land_Solid_Small,-4.0,,,,,,,,,,,
encoding,value,17,10833726,10839738,10839286.0,10839555.0,270.0,270.0,1929.8,673.5999999999999,1920.0,1460.0,Object_Land_Solid_Small,50.349603250000655,56.36069670799952,3.0,Object_Land_Solid_Small,-4.0,,,,,,,,,,,
encoding,value,17,10833726,10839738,10839564.0,10840218.0,655.0,174.0,1920.9,711.3,1920.0,1460.0,Object_Land_Solid_Small,50.349603250000655,56.36069670799952,3.0,Object_Land_Solid_Small,-4.0,,,,,,,,,,,
encoding,attention,17,10839738,10842755,10840488.0,10840577.0,90.0,90.0,1899.0,715.9000000000001,1920.0,1460.0,Object_Land_Solid_Small,56.360821207999834,59.378185499999745,3.0,Object_Land_Solid_Small,-4.0,-4.0,1.0,2.725358290999793,,,,,,,,
encoding,attention,17,10839738,10842755,10840585.0,10841031.0,447.0,447.0,1867.3,664.7,1920.0,1460.0,Object_Land_Solid_Small,56.360821207999834,59.378185499999745,3.0,Object_Land_Solid_Small,-4.0,-4.0,1.0,2.725358290999793,,,,,,,,
encoding,attention,17,10839738,10842755,10841039.0,10842151.0,1113.0,1113.0,1907.7,717.7,1920.0,1460.0,Object_Land_Solid_Small,56.360821207999834,59.378185499999745,3.0,Object_Land_Solid_Small,-4.0,-4.0,1.0,2.725358290999793,,,,,,,,
encoding,attention,17,10839738,10842755,10842164.0,10842210.0,47.0,47.0,1883.1,724.0999999999999,1920.0,1460.0,Object_Land_Solid_Small,56.360821207999834,59.378185499999745,3.0,Object_Land_Solid_Small,-4.0,-4.0,1.0,2.725358290999793,,,,,,,,
encoding,attention,17,10839738,10842755,10842225.0,10842748.0,524.0,524.0,1863.6,628.5,1920.0,1460.0,Object_Land_Solid_Small,56.360821207999834,59.378185499999745,3.0,Object_Land_Solid_Small,-4.0,-4.0,1.0,2.725358290999793,,,,,,,,
encoding,fixation,18,10842756,10843261,10842765.0,10843002.0,238.0,238.0,1897.0,758.2,1920.0,1460.0,Object_Land_Solid_Small,59.37834633300008,59.883382541000174,3.0,Animal_Sea_Pattern_Large,-4.0,,,,,,,,,,,
encoding,fixation,18,10842756,10843261,10843027.0,10843155.0,129.0,129.0,1917.8,1120.4,1920.0,1080.0,fixation,59.37834633300008,59.883382541000174,3.0,Animal_Sea_Pattern_Large,-4.0,,,,,,,,,,,
encoding,image,18,10843261,10844270,10843366.0,10843504.0,139.0,139.0,1939.0,1144.6,1920.0,1080.0,fixation,59.88357941600043,60.89285033300075,3.0,Animal_Sea_Pattern_Large,-4.0,,,,,,,,,,,
encoding,image,18,10843261,10844270,10843560.0,10844517.0,958.0,710.0,1899.2,1426.2,1920.0,700.0,Animal_Sea_Pattern_Large,59.88357941600043,60.89285033300075,3.0,Animal_Sea_Pattern_Large,-4.0,,,,,,,,,,,
encoding,value,18,10844270,10850282,10844536.0,10844717.0,182.0,182.0,1919.4,1338.7,1920.0,700.0,Animal_Sea_Pattern_Large,60.892959124999834,66.90433041600045,3.0,Animal_Sea_Pattern_Large,-4.0,,,,,,,,,,,
encoding,value,18,10844270,10850282,10844893.0,10845211.0,319.0,319.0,1872.5,1430.7,1920.0,700.0,Animal_Sea_Pattern_Large,60.892959124999834,66.90433041600045,3.0,Animal_Sea_Pattern_Large,-4.0,,,,,,,,,,,
encoding,value,18,10844270,10850282,10845229.0,10845513.0,285.0,285.0,1938.3,1342.4,1920.0,700.0,Animal_Sea_Pattern_Large,60.892959124999834,66.90433041600045,3.0,Animal_Sea_Pattern_Large,-4.0,,,,,,,,,,,
encoding,value,18,10844270,10850282,10845531.0,10846567.0,1037.0,1037.0,1915.6,1408.4,1920.0,700.0,Animal_Sea_Pattern_Large,60.892959124999834,66.90433041600045,3.0,Animal_Sea_Pattern_Large,-4.0,,,,,,,,,,,
encoding,value,18,10844270,10850282,10846577.0,10847096.0,520.0,520.0,1890.4,1419.3,1920.0,700.0,Animal_Sea_Pattern_Large,60.892959124999834,66.90433041600045,3.0,Animal_Sea_Pattern_Large,-4.0,,,,,,,,,,,
encoding,value,18,10844270,10850282,10847111.0,10847376.0,266.0,266.0,1924.8,1361.2,1920.0,700.0,Animal_Sea_Pattern_Large,60.892959124999834,66.90433041600045,3.0,Animal_Sea_Pattern_Large,-4.0,,,,,,,,,,,
encoding,value,18,10844270,10850282,10847390.0,10847640.0,251.0,251.0,1887.2,1435.5,1920.0,700.0,Animal_Sea_Pattern_Large,60.892959124999834,66.90433041600045,3.0,Animal_Sea_Pattern_Large,-4.0,,,,,,,,,,,
encoding,value,18,10844270,10850282,10847655.0,10848440.0,786.0,786.0,1912.7,1341.4,1920.0,700.0,Animal_Sea_Pattern_Large,60.892959124999834,66.90433041600045,3.0,Animal_Sea_Pattern_Large,-4.0,,,,,,,,,,,
encoding,value,18,10844270,10850282,10848591.0,10848884.0,294.0,294.0,1897.7,1353.4,1920.0,700.0,Animal_Sea_Pattern_Large,60.892959124999834,66.90433041600045,3.0,Animal_Sea_Pattern_Large,-4.0,,,,,,,,,,,
encoding,value,18,10844270,10850282,10848902.0,10849713.0,812.0,812.0,1868.6,1430.6,1920.0,700.0,Animal_Sea_Pattern_Large,60.892959124999834,66.90433041600045,3.0,Animal_Sea_Pattern_Large,-4.0,,,,,,,,,,,
encoding,value,18,10844270,10850282,10849722.0,10850230.0,509.0,509.0,1895.4,1431.8,1920.0,700.0,Animal_Sea_Pattern_Large,60.892959124999834,66.90433041600045,3.0,Animal_Sea_Pattern_Large,-4.0,,,,,,,,,,,
encoding,value,18,10844270,10850282,10850248.0,10850920.0,673.0,34.0,1902.4,1325.9,1920.0,700.0,Animal_Sea_Pattern_Large,60.892959124999834,66.90433041600045,3.0,Animal_Sea_Pattern_Large,-4.0,,,,,,,,,,,
encoding,attention,18,10850282,10853299,10851098.0,10852031.0,934.0,934.0,1866.5,1329.9,1920.0,700.0,Animal_Sea_Pattern_Large,66.90446537500065,69.92103054099971,3.0,Animal_Sea_Pattern_Large,-4.0,-4.0,1.0,1.40846133299965,,,,,,,,
encoding,attention,18,10850282,10853299,10852038.0,10852590.0,553.0,553.0,1896.5,1335.4,1920.0,700.0,Animal_Sea_Pattern_Large,66.90446537500065,69.92103054099971,3.0,Animal_Sea_Pattern_Large,-4.0,-4.0,1.0,1.40846133299965,,,,,,,,
encoding,attention,18,10850282,10853299,10852599.0,10853057.0,459.0,459.0,1930.4,1322.6,1920.0,700.0,Animal_Sea_Pattern_Large,66.90446537500065,69.92103054099971,3.0,Animal_Sea_Pattern_Large,-4.0,-4.0,1.0,1.40846133299965,,,,,,,,
encoding,attention,18,10850282,10853299,10853064.0,10853282.0,219.0,219.0,1878.2,1325.8,1920.0,700.0,Animal_Sea_Pattern_Large,66.90446537500065,69.92103054099971,3.0,Animal_Sea_Pattern_Large,-4.0,-4.0,1.0,1.40846133299965,,,,,,,,
encoding,fixation,19,11213139,11214394,11213357.0,11213665.0,309.0,309.0,1914.4,1116.2,1920.0,1080.0,fixation,4.5249726670008386,5.780237584000133,4.0,Animal_Land_Solid_Large,-7.0,,,,,,,,,,,
encoding,fixation,19,11213139,11214394,11213832.0,11214275.0,444.0,444.0,1909.3,1333.7,1920.0,700.0,Animal_Sea_Solid_Large,4.5249726670008386,5.780237584000133,4.0,Animal_Land_Solid_Large,-7.0,,,,,,,,,,,
encoding,fixation,19,11213139,11214394,11214291.0,11214565.0,275.0,103.0,2003.4,1366.9,1920.0,700.0,Animal_Sea_Solid_Large,4.5249726670008386,5.780237584000133,4.0,Animal_Land_Solid_Large,-7.0,,,,,,,,,,,
encoding,image,19,11214394,11215407,11214590.0,11215166.0,577.0,577.0,2249.3,1258.8,2249.0,891.0,Animal_Land_Solid_Large,5.7803454589993635,6.792526541999905,4.0,Animal_Land_Solid_Large,-7.0,,,,,,,,,,,
encoding,image,19,11214394,11215407,11215184.0,11215838.0,655.0,223.0,2222.8,1176.8,2249.0,891.0,Animal_Land_Solid_Large,5.7803454589993635,6.792526541999905,4.0,Animal_Land_Solid_Large,-7.0,,,,,,,,,,,
encoding,value,19,11215407,11221421,11216012.0,11217050.0,1039.0,1039.0,2272.1,1260.4,2249.0,891.0,Animal_Land_Solid_Large,6.7927012920008565,12.805942000000869,4.0,Animal_Land_Solid_Large,-7.0,,,,,,,,,,,
encoding,value,19,11215407,11221421,11217070.0,11217259.0,190.0,190.0,2242.2,1201.8,2249.0,891.0,Animal_Land_Solid_Large,6.7927012920008565,12.805942000000869,4.0,Animal_Land_Solid_Large,-7.0,,,,,,,,,,,
encoding,value,19,11215407,11221421,11217269.0,11218783.0,1515.0,1515.0,2262.2,1255.1,2249.0,891.0,Animal_Land_Solid_Large,6.7927012920008565,12.805942000000869,4.0,Animal_Land_Solid_Large,-7.0,,,,,,,,,,,
encoding,value,19,11215407,11221421,11218793.0,11219088.0,296.0,296.0,2240.8,1198.4,2249.0,891.0,Animal_Land_Solid_Large,6.7927012920008565,12.805942000000869,4.0,Animal_Land_Solid_Large,-7.0,,,,,,,,,,,
encoding,value,19,11215407,11221421,11219102.0,11219325.0,224.0,224.0,2261.1,1256.4,2249.0,891.0,Animal_Land_Solid_Large,6.7927012920008565,12.805942000000869,4.0,Animal_Land_Solid_Large,-7.0,,,,,,,,,,,
encoding,value,19,11215407,11221421,11219343.0,11219655.0,313.0,313.0,2238.5,1154.0,2249.0,891.0,Animal_Land_Solid_Large,6.7927012920008565,12.805942000000869,4.0,Animal_Land_Solid_Large,-7.0,,,,,,,,,,,
encoding,value,19,11215407,11221421,11219674.0,11220673.0,1000.0,1000.0,2265.2,1243.2,2249.0,891.0,Animal_Land_Solid_Large,6.7927012920008565,12.805942000000869,4.0,Animal_Land_Solid_Large,-7.0,,,,,,,,,,,
encoding,value,19,11215407,11221421,11220680.0,11220898.0,219.0,219.0,2276.7,1256.5,2249.0,891.0,Animal_Land_Solid_Large,6.7927012920008565,12.805942000000869,4.0,Animal_Land_Solid_Large,-7.0,,,,,,,,,,,
encoding,value,19,11215407,11221421,11221039.0,11222207.0,1169.0,382.0,2277.1,1253.6,2249.0,891.0,Animal_Land_Solid_Large,6.7927012920008565,12.805942000000869,4.0,Animal_Land_Solid_Large,-7.0,,,,,,,,,,,
encoding,attention,19,11221421,11224439,11222225.0,11222634.0,410.0,410.0,2298.2,1149.1,2249.0,891.0,Animal_Land_Solid_Large,12.806061291999868,15.823895292000088,4.0,Animal_Land_Solid_Large,-7.0,-7.0,1.0,1.5725142920000508,,,,,,,,
encoding,attention,19,11221421,11224439,11222645.0,11222923.0,279.0,279.0,2215.2,1138.6,2249.0,891.0,Animal_Land_Solid_Large,12.806061291999868,15.823895292000088,4.0,Animal_Land_Solid_Large,-7.0,-7.0,1.0,1.5725142920000508,,,,,,,,
encoding,attention,19,11221421,11224439,11222940.0,11223544.0,605.0,605.0,2265.9,1256.7,2249.0,891.0,Animal_Land_Solid_Large,12.806061291999868,15.823895292000088,4.0,Animal_Land_Solid_Large,-7.0,-7.0,1.0,1.5725142920000508,,,,,,,,
encoding,attention,19,11221421,11224439,11223563.0,11223830.0,268.0,268.0,2297.6,1170.0,2249.0,891.0,Animal_Land_Solid_Large,12.806061291999868,15.823895292000088,4.0,Animal_Land_Solid_Large,-7.0,-7.0,1.0,1.5725142920000508,,,,,,,,
encoding,attention,19,11221421,11224439,11223851.0,11224207.0,357.0,357.0,2269.5,1267.8,2249.0,891.0,Animal_Land_Solid_Large,12.806061291999868,15.823895292000088,4.0,Animal_Land_Solid_Large,-7.0,-7.0,1.0,1.5725142920000508,,,,,,,,
encoding,fixation,20,11224439,11224944,11224789.0,11225105.0,317.0,155.0,1949.9,1080.5,1920.0,1080.0,fixation,15.82404995899924,16.329329500000313,4.0,Animal_Sea_Solid_Large,5.0,,,,,,,,,,,
encoding,image,20,11224944,11225955,11225146.0,11225352.0,207.0,207.0,1927.2,1409.2,1920.0,700.0,Animal_Sea_Solid_Large,16.32945566700073,17.340680499999507,4.0,Animal_Sea_Solid_Large,5.0,,,,,,,,,,,
encoding,image,20,11224944,11225955,11225362.0,11225605.0,244.0,244.0,1914.9,1451.9,1920.0,700.0,Animal_Sea_Solid_Large,16.32945566700073,17.340680499999507,4.0,Animal_Sea_Solid_Large,5.0,,,,,,,,,,,
encoding,image,20,11224944,11225955,11225612.0,11226059.0,448.0,343.0,1919.9,1479.6,1920.0,700.0,Animal_Sea_Solid_Large,16.32945566700073,17.340680499999507,4.0,Animal_Sea_Solid_Large,5.0,,,,,,,,,,,
encoding,value,20,11225955,11231968,11226081.0,11226503.0,423.0,423.0,1928.5,1325.7,1920.0,700.0,Animal_Sea_Solid_Large,17.34080562500094,23.352776416999404,4.0,Animal_Sea_Solid_Large,5.0,,,,,,,,,,,
encoding,value,20,11225955,11231968,11226525.0,11226903.0,379.0,379.0,1930.5,1447.9,1920.0,700.0,Animal_Sea_Solid_Large,17.34080562500094,23.352776416999404,4.0,Animal_Sea_Solid_Large,5.0,,,,,,,,,,,
encoding,value,20,11225955,11231968,11227065.0,11227386.0,322.0,322.0,1918.1,1435.8,1920.0,700.0,Animal_Sea_Solid_Large,17.34080562500094,23.352776416999404,4.0,Animal_Sea_Solid_Large,5.0,,,,,,,,,,,
encoding,value,20,11225955,11231968,11227394.0,11227742.0,349.0,349.0,1944.5,1450.3,1920.0,700.0,Animal_Sea_Solid_Large,17.34080562500094,23.352776416999404,4.0,Animal_Sea_Solid_Large,5.0,,,,,,,,,,,
encoding,value,20,11225955,11231968,11227761.0,11228012.0,252.0,252.0,1930.8,1346.9,1920.0,700.0,Animal_Sea_Solid_Large,17.34080562500094,23.352776416999404,4.0,Animal_Sea_Solid_Large,5.0,,,,,,,,,,,
encoding,value,20,11225955,11231968,11228031.0,11228627.0,597.0,597.0,1932.9,1453.6,1920.0,700.0,Animal_Sea_Solid_Large,17.34080562500094,23.352776416999404,4.0,Animal_Sea_Solid_Large,5.0,,,,,,,,,,,
encoding,value,20,11225955,11231968,11228645.0,11229197.0,553.0,553.0,1937.3,1352.3,1920.0,700.0,Animal_Sea_Solid_Large,17.34080562500094,23.352776416999404,4.0,Animal_Sea_Solid_Large,5.0,,,,,,,,,,,
encoding,value,20,11225955,11231968,11229215.0,11229819.0,605.0,605.0,1921.0,1469.3,1920.0,700.0,Animal_Sea_Solid_Large,17.34080562500094,23.352776416999404,4.0,Animal_Sea_Solid_Large,5.0,,,,,,,,,,,
encoding,value,20,11225955,11231968,11229840.0,11230292.0,453.0,453.0,1923.2,1348.3,1920.0,700.0,Animal_Sea_Solid_Large,17.34080562500094,23.352776416999404,4.0,Animal_Sea_Solid_Large,5.0,,,,,,,,,,,
encoding,value,20,11225955,11231968,11230457.0,11231144.0,688.0,688.0,1928.5,1302.4,1920.0,700.0,Animal_Sea_Solid_Large,17.34080562500094,23.352776416999404,4.0,Animal_Sea_Solid_Large,5.0,,,,,,,,,,,
encoding,value,20,11225955,11231968,11231163.0,11231348.0,186.0,186.0,2012.9,1361.3,1920.0,700.0,Animal_Sea_Solid_Large,17.34080562500094,23.352776416999404,4.0,Animal_Sea_Solid_Large,5.0,,,,,,,,,,,
encoding,value,20,11225955,11231968,11231362.0,11232662.0,1301.0,606.0,1916.8,1334.3,1920.0,700.0,Animal_Sea_Solid_Large,17.34080562500094,23.352776416999404,4.0,Animal_Sea_Solid_Large,5.0,,,,,,,,,,,
encoding,attention,20,11231968,11234986,11232681.0,11232932.0,252.0,252.0,1920.7,1426.9,1920.0,700.0,Animal_Sea_Solid_Large,23.352933042000583,26.370259958999668,4.0,Animal_Sea_Solid_Large,5.0,5.0,1.0,0.9562892080011808,,,,,,,,
encoding,attention,20,11231968,11234986,11233111.0,11233677.0,567.0,567.0,1907.1,1336.0,1920.0,700.0,Animal_Sea_Solid_Large,23.352933042000583,26.370259958999668,4.0,Animal_Sea_Solid_Large,5.0,5.0,1.0,0.9562892080011808,,,,,,,,
encoding,attention,20,11231968,11234986,11233698.0,11234091.0,394.0,394.0,1904.9,1431.3,1920.0,700.0,Animal_Sea_Solid_Large,23.352933042000583,26.370259958999668,4.0,Animal_Sea_Solid_Large,5.0,5.0,1.0,0.9562892080011808,,,,,,,,
encoding,attention,20,11231968,11234986,11234108.0,11234803.0,696.0,696.0,1881.1,1330.4,1920.0,700.0,Animal_Sea_Solid_Large,23.352933042000583,26.370259958999668,4.0,Animal_Sea_Solid_Large,5.0,5.0,1.0,0.9562892080011808,,,,,,,,
encoding,fixation,21,11234986,11236491,11235500.0,11235942.0,443.0,443.0,1991.8,1365.9,1920.0,700.0,Animal_Sea_Solid_Large,26.370405584000764,27.87550695900063,4.0,Object_Sea_Pattern_Large,6.0,,,,,,,,,,,
encoding,fixation,21,11234986,11236491,11236187.0,11236351.0,165.0,165.0,2117.1,1331.3,2249.0,891.0,Animal_Land_Solid_Large,26.370405584000764,27.87550695900063,4.0,Object_Sea_Pattern_Large,6.0,,,,,,,,,,,
encoding,fixation,21,11234986,11236491,11236384.0,11236648.0,265.0,107.0,1884.9,1074.4,1920.0,1080.0,fixation,26.370405584000764,27.87550695900063,4.0,Object_Sea_Pattern_Large,6.0,,,,,,,,,,,
encoding,image,21,11236491,11237501,11236674.0,11236834.0,161.0,161.0,1653.1,1266.8,1591.0,891.0,Object_Sea_Pattern_Large,27.87564654199923,28.885918166999545,4.0,Object_Sea_Pattern_Large,6.0,,,,,,,,,,,
encoding,image,21,11236491,11237501,11236846.0,11237698.0,853.0,655.0,1592.0,1241.9,1591.0,891.0,Object_Sea_Pattern_Large,27.87564654199923,28.885918166999545,4.0,Object_Sea_Pattern_Large,6.0,,,,,,,,,,,
encoding,value,21,11237501,11243514,11237706.0,11238298.0,593.0,593.0,1582.5,1218.0,1591.0,891.0,Object_Sea_Pattern_Large,28.88602904199979,34.89856900000086,4.0,Object_Sea_Pattern_Large,6.0,,,,,,,,,,,
encoding,value,21,11237501,11243514,11238490.0,11238798.0,309.0,309.0,1571.4,1241.1,1591.0,891.0,Object_Sea_Pattern_Large,28.88602904199979,34.89856900000086,4.0,Object_Sea_Pattern_Large,6.0,,,,,,,,,,,
encoding,value,21,11237501,11243514,11238808.0,11239150.0,343.0,343.0,1593.5,1181.1,1591.0,891.0,Object_Sea_Pattern_Large,28.88602904199979,34.89856900000086,4.0,Object_Sea_Pattern_Large,6.0,,,,,,,,,,,
encoding,value,21,11237501,11243514,11239163.0,11240155.0,993.0,993.0,1582.4,1239.7,1591.0,891.0,Object_Sea_Pattern_Large,28.88602904199979,34.89856900000086,4.0,Object_Sea_Pattern_Large,6.0,,,,,,,,,,,
encoding,value,21,11237501,11243514,11240202.0,11240454.0,253.0,253.0,2177.6,1303.5,2249.0,891.0,Animal_Land_Solid_Large,28.88602904199979,34.89856900000086,4.0,Object_Sea_Pattern_Large,6.0,,,,,,,,,,,
encoding,value,21,11237501,11243514,11240501.0,11240620.0,120.0,120.0,1605.6,1267.4,1591.0,891.0,Object_Sea_Pattern_Large,28.88602904199979,34.89856900000086,4.0,Object_Sea_Pattern_Large,6.0,,,,,,,,,,,
encoding,value,21,11237501,11243514,11240776.0,11241043.0,268.0,268.0,1571.9,1265.6,1591.0,891.0,Object_Sea_Pattern_Large,28.88602904199979,34.89856900000086,4.0,Object_Sea_Pattern_Large,6.0,,,,,,,,,,,
encoding,value,21,11237501,11243514,11241082.0,11241368.0,287.0,287.0,1966.1,1425.7,1920.0,700.0,Animal_Sea_Solid_Large,28.88602904199979,34.89856900000086,4.0,Object_Sea_Pattern_Large,6.0,,,,,,,,,,,
encoding,value,21,11237501,11243514,11241415.0,11242830.0,1416.0,1416.0,1603.2,1256.2,1591.0,891.0,Object_Sea_Pattern_Large,28.88602904199979,34.89856900000086,4.0,Object_Sea_Pattern_Large,6.0,,,,,,,,,,,
encoding,value,21,11237501,11243514,11242839.0,11243351.0,513.0,513.0,1607.8,1255.9,1591.0,891.0,Object_Sea_Pattern_Large,28.88602904199979,34.89856900000086,4.0,Object_Sea_Pattern_Large,6.0,,,,,,,,,,,
encoding,value,21,11237501,11243514,11243391.0,11243705.0,315.0,123.0,1964.2,1395.8,1920.0,700.0,Animal_Sea_Solid_Large,28.88602904199979,34.89856900000086,4.0,Object_Sea_Pattern_Large,6.0,,,,,,,,,,,
encoding,attention,21,11243514,11246533,11243736.0,11244145.0,410.0,410.0,1592.0,1163.6,1591.0,891.0,Object_Sea_Pattern_Large,34.898705334000624,37.91734883400022,4.0,Object_Sea_Pattern_Large,6.0,6.0,1.0,1.8403619159998923,,,,,,,,
encoding,attention,21,11243514,11246533,11244154.0,11244390.0,237.0,237.0,1634.6,1169.2,1591.0,891.0,Object_Sea_Pattern_Large,34.898705334000624,37.91734883400022,4.0,Object_Sea_Pattern_Large,6.0,6.0,1.0,1.8403619159998923,,,,,,,,
encoding,attention,21,11243514,11246533,11244398.0,11244604.0,207.0,207.0,1625.0,1227.8,1591.0,891.0,Object_Sea_Pattern_Large,34.898705334000624,37.91734883400022,4.0,Object_Sea_Pattern_Large,6.0,6.0,1.0,1.8403619159998923,,,,,,,,
encoding,attention,21,11243514,11246533,11244792.0,11245071.0,280.0,280.0,1585.7,1258.1,1591.0,891.0,Object_Sea_Pattern_Large,34.898705334000624,37.91734883400022,4.0,Object_Sea_Pattern_Large,6.0,6.0,1.0,1.8403619159998923,,,,,,,,
encoding,attention,21,11243514,11246533,11245112.0,11245548.0,437.0,437.0,1966.6,1372.9,1920.0,700.0,Animal_Sea_Solid_Large,34.898705334000624,37.91734883400022,4.0,Object_Sea_Pattern_Large,6.0,6.0,1.0,1.8403619159998923,,,,,,,,
encoding,attention,21,11243514,11246533,11245587.0,11245796.0,210.0,210.0,1654.0,1177.0,1591.0,891.0,Object_Sea_Pattern_Large,34.898705334000624,37.91734883400022,4.0,Object_Sea_Pattern_Large,6.0,6.0,1.0,1.8403619159998923,,,,,,,,
encoding,fixation,22,11246533,11247539,11246848.0,11247156.0,309.0,309.0,1913.4,1129.8,1920.0,1080.0,fixation,37.91760087500006,38.92373362500075,4.0,Animal_Land_Solid_Small,1.0,,,,,,,,,,,
encoding,fixation,22,11246533,11247539,11247193.0,11247496.0,304.0,304.0,2058.9,1416.3,1920.0,700.0,Animal_Sea_Solid_Large,37.91760087500006,38.92373362500075,4.0,Animal_Land_Solid_Small,1.0,,,,,,,,,,,
encoding,fixation,22,11246533,11247539,11247523.0,11247700.0,178.0,16.0,1935.4,1232.2,1920.0,700.0,Animal_Sea_Solid_Large,37.91760087500006,38.92373362500075,4.0,Animal_Land_Solid_Small,1.0,,,,,,,,,,,
encoding,image,22,11247539,11248549,11247744.0,11247915.0,172.0,172.0,1656.6,947.0,1591.0,1269.0,Animal_Land_Solid_Small,38.92384866700013,39.93349708400092,4.0,Animal_Land_Solid_Small,1.0,,,,,,,,,,,
encoding,image,22,11247539,11248549,11247924.0,11248713.0,790.0,625.0,1616.9,920.9000000000001,1591.0,1269.0,Animal_Land_Solid_Small,38.92384866700013,39.93349708400092,4.0,Animal_Land_Solid_Small,1.0,,,,,,,,,,,
encoding,value,22,11248549,11254561,11248734.0,11248953.0,220.0,220.0,1591.9,798.0999999999999,1591.0,1269.0,Animal_Land_Solid_Small,39.93362779199924,45.94504779199997,4.0,Animal_Land_Solid_Small,1.0,,,,,,,,,,,
encoding,value,22,11248549,11254561,11248973.0,11249103.0,131.0,131.0,1610.3,931.5999999999999,1591.0,1269.0,Animal_Land_Solid_Small,39.93362779199924,45.94504779199997,4.0,Animal_Land_Solid_Small,1.0,,,,,,,,,,,
encoding,value,22,11248549,11254561,11249297.0,11250923.0,1627.0,1627.0,1621.5,926.8,1591.0,1269.0,Animal_Land_Solid_Small,39.93362779199924,45.94504779199997,4.0,Animal_Land_Solid_Small,1.0,,,,,,,,,,,
encoding,value,22,11248549,11254561,11250965.0,11251349.0,385.0,385.0,1684.2,1249.4,1591.0,891.0,Object_Sea_Pattern_Large,39.93362779199924,45.94504779199997,4.0,Animal_Land_Solid_Small,1.0,,,,,,,,,,,
encoding,value,22,11248549,11254561,11251385.0,11251630.0,246.0,246.0,1605.5,1001.3,1591.0,1269.0,Animal_Land_Solid_Small,39.93362779199924,45.94504779199997,4.0,Animal_Land_Solid_Small,1.0,,,,,,,,,,,
encoding,value,22,11248549,11254561,11251645.0,11252002.0,358.0,358.0,1636.8,934.0,1591.0,1269.0,Animal_Land_Solid_Small,39.93362779199924,45.94504779199997,4.0,Animal_Land_Solid_Small,1.0,,,,,,,,,,,
encoding,value,22,11248549,11254561,11252012.0,11252413.0,402.0,402.0,1624.0,895.5,1591.0,1269.0,Animal_Land_Solid_Small,39.93362779199924,45.94504779199997,4.0,Animal_Land_Solid_Small,1.0,,,,,,,,,,,
encoding,value,22,11248549,11254561,11252434.0,11252770.0,337.0,337.0,1612.9,789.4000000000001,1591.0,1269.0,Animal_Land_Solid_Small,39.93362779199924,45.94504779199997,4.0,Animal_Land_Solid_Small,1.0,,,,,,,,,,,
encoding,value,22,11248549,11254561,11252795.0,11254275.0,1481.0,1481.0,1634.6,922.5,1591.0,1269.0,Animal_Land_Solid_Small,39.93362779199924,45.94504779199997,4.0,Animal_Land_Solid_Small,1.0,,,,,,,,,,,
encoding,value,22,11248549,11254561,11254292.0,11254574.0,283.0,269.0,1598.4,830.7,1591.0,1269.0,Animal_Land_Solid_Small,39.93362779199924,45.94504779199997,4.0,Animal_Land_Solid_Small,1.0,,,,,,,,,,,
encoding,attention,22,11254561,11257572,11254590.0,11254858.0,269.0,269.0,1619.9,945.2,1591.0,1269.0,Animal_Land_Solid_Small,45.94517049999922,48.95627712500027,4.0,Animal_Land_Solid_Small,1.0,,,,,,,,,,,
encoding,attention,22,11254561,11257572,11254887.0,11255172.0,286.0,286.0,1637.3,780.0,1591.0,1269.0,Animal_Land_Solid_Small,45.94517049999922,48.95627712500027,4.0,Animal_Land_Solid_Small,1.0,,,,,,,,,,,
encoding,attention,22,11254561,11257572,11255183.0,11256204.0,1022.0,1022.0,1551.1,806.7,1591.0,1269.0,Animal_Land_Solid_Small,45.94517049999922,48.95627712500027,4.0,Animal_Land_Solid_Small,1.0,,,,,,,,,,,
encoding,attention,22,11254561,11257572,11256463.0,11256747.0,285.0,285.0,1583.8,945.4000000000001,1591.0,1269.0,Animal_Land_Solid_Small,45.94517049999922,48.95627712500027,4.0,Animal_Land_Solid_Small,1.0,,,,,,,,,,,
encoding,fixation,23,11257572,11258828,11258076.0,11258753.0,678.0,678.0,1903.3,1082.1,1920.0,1080.0,fixation,48.95641566700033,50.2118367919993,4.0,Object_Land_Pattern_Small,5.0,,,,,,,,,,,
encoding,fixation,23,11257572,11258828,11258796.0,11259123.0,328.0,32.0,2304.6,1224.9,2249.0,891.0,Animal_Land_Solid_Large,48.95641566700033,50.2118367919993,4.0,Object_Land_Pattern_Small,5.0,,,,,,,,,,,
encoding,image,23,11258828,11259841,11259154.0,11259371.0,218.0,218.0,2009.6,1033.9,2249.0,1269.0,Object_Land_Pattern_Small,50.21195274999991,51.22443295899939,4.0,Object_Land_Pattern_Small,5.0,,,,,,,,,,,
encoding,image,23,11258828,11259841,11259395.0,11259988.0,594.0,446.0,2220.6,920.7,2249.0,1269.0,Object_Land_Pattern_Small,50.21195274999991,51.22443295899939,4.0,Object_Land_Pattern_Small,5.0,,,,,,,,,,,
encoding,value,23,11259841,11265852,11260151.0,11260218.0,68.0,68.0,2208.6,818.0999999999999,2249.0,1269.0,Object_Land_Pattern_Small,51.2245510419998,57.23600562499996,4.0,Object_Land_Pattern_Small,5.0,,,,,,,,,,,
encoding,value,23,11259841,11265852,11260452.0,11260832.0,381.0,381.0,2225.7,905.0,2249.0,1269.0,Object_Land_Pattern_Small,51.2245510419998,57.23600562499996,4.0,Object_Land_Pattern_Small,5.0,,,,,,,,,,,
encoding,value,23,11259841,11265852,11260841.0,11261179.0,339.0,339.0,2238.0,830.5,2249.0,1269.0,Object_Land_Pattern_Small,51.2245510419998,57.23600562499996,4.0,Object_Land_Pattern_Small,5.0,,,,,,,,,,,
encoding,value,23,11259841,11265852,11261193.0,11263781.0,2589.0,2589.0,2232.6,850.4000000000001,2249.0,1269.0,Object_Land_Pattern_Small,51.2245510419998,57.23600562499996,4.0,Object_Land_Pattern_Small,5.0,,,,,,,,,,,
encoding,value,23,11259841,11265852,11263795.0,11264080.0,286.0,286.0,2238.5,866.9000000000001,2249.0,1269.0,Object_Land_Pattern_Small,51.2245510419998,57.23600562499996,4.0,Object_Land_Pattern_Small,5.0,,,,,,,,,,,
encoding,value,23,11259841,11265852,11264090.0,11264628.0,539.0,539.0,2232.1,805.2,2249.0,1269.0,Object_Land_Pattern_Small,51.2245510419998,57.23600562499996,4.0,Object_Land_Pattern_Small,5.0,,,,,,,,,,,
encoding,value,23,11259841,11265852,11264636.0,11265884.0,1249.0,1216.0,2247.0,833.7,2249.0,1269.0,Object_Land_Pattern_Small,51.2245510419998,57.23600562499996,4.0,Object_Land_Pattern_Small,5.0,,,,,,,,,,,
encoding,attention,23,11265853,11268872,11265892.0,11266293.0,402.0,402.0,2234.3,846.2,2249.0,1269.0,Object_Land_Pattern_Small,57.23613291699985,60.25539754199963,4.0,Object_Land_Pattern_Small,5.0,5.0,1.0,0.7339193339994381,,,,,,,,
encoding,attention,23,11265853,11268872,11266304.0,11267327.0,1024.0,1024.0,2191.4,801.4000000000001,2249.0,1269.0,Object_Land_Pattern_Small,57.23613291699985,60.25539754199963,4.0,Object_Land_Pattern_Small,5.0,5.0,1.0,0.7339193339994381,,,,,,,,
encoding,attention,23,11265853,11268872,11267355.0,11267553.0,199.0,199.0,1931.4,1005.4000000000001,1920.0,1460.0,Object_Sea_Pattern_Small,57.23613291699985,60.25539754199963,4.0,Object_Land_Pattern_Small,5.0,5.0,1.0,0.7339193339994381,,,,,,,,
encoding,attention,23,11265853,11268872,11267564.0,11268077.0,514.0,514.0,1911.4,1041.3,1920.0,1080.0,fixation,57.23613291699985,60.25539754199963,4.0,Object_Land_Pattern_Small,5.0,5.0,1.0,0.7339193339994381,,,,,,,,
encoding,fixation,24,11268872,11269378,11269135.0,11269717.0,583.0,243.0,1925.8,1074.6,1920.0,1080.0,fixation,60.25556462500026,60.76132812499963,4.0,Object_Sea_Pattern_Small,-8.0,,,,,,,,,,,
encoding,image,24,11269378,11270390,11269759.0,11270427.0,669.0,631.0,1937.5,657.7,1920.0,1460.0,Object_Sea_Pattern_Small,60.76151299999947,61.77284912499999,4.0,Object_Sea_Pattern_Small,-8.0,,,,,,,,,,,
encoding,value,24,11270390,11276402,11270435.0,11270894.0,460.0,460.0,1925.6,689.4000000000001,1920.0,1460.0,Object_Sea_Pattern_Small,61.772970666999754,67.78458316700016,4.0,Object_Sea_Pattern_Small,-8.0,,,,,,,,,,,
encoding,value,24,11270390,11276402,11270914.0,11271054.0,141.0,141.0,1925.8,568.3,1920.0,1460.0,Object_Sea_Pattern_Small,61.772970666999754,67.78458316700016,4.0,Object_Sea_Pattern_Small,-8.0,,,,,,,,,,,
encoding,value,24,11270390,11276402,11271233.0,11271783.0,551.0,551.0,1916.6,702.9000000000001,1920.0,1460.0,Object_Sea_Pattern_Small,61.772970666999754,67.78458316700016,4.0,Object_Sea_Pattern_Small,-8.0,,,,,,,,,,,
encoding,value,24,11270390,11276402,11271790.0,11272448.0,659.0,659.0,1929.5,681.7,1920.0,1460.0,Object_Sea_Pattern_Small,61.772970666999754,67.78458316700016,4.0,Object_Sea_Pattern_Small,-8.0,,,,,,,,,,,
encoding,value,24,11270390,11276402,11272455.0,11272898.0,444.0,444.0,1924.2,660.2,1920.0,1460.0,Object_Sea_Pattern_Small,61.772970666999754,67.78458316700016,4.0,Object_Sea_Pattern_Small,-8.0,,,,,,,,,,,
encoding,value,24,11270390,11276402,11273144.0,11273497.0,354.0,354.0,1908.9,792.0,1920.0,1460.0,Object_Sea_Pattern_Small,61.772970666999754,67.78458316700016,4.0,Object_Sea_Pattern_Small,-8.0,,,,,,,,,,,
encoding,value,24,11270390,11276402,11273523.0,11273807.0,285.0,285.0,1910.9,639.9000000000001,1920.0,1460.0,Object_Sea_Pattern_Small,61.772970666999754,67.78458316700016,4.0,Object_Sea_Pattern_Small,-8.0,,,,,,,,,,,
encoding,value,24,11270390,11276402,11273831.0,11274109.0,279.0,279.0,1913.3,769.5,1920.0,1460.0,Object_Sea_Pattern_Small,61.772970666999754,67.78458316700016,4.0,Object_Sea_Pattern_Small,-8.0,,,,,,,,,,,
encoding,value,24,11270390,11276402,11274129.0,11274470.0,342.0,342.0,1909.0,656.3,1920.0,1460.0,Object_Sea_Pattern_Small,61.772970666999754,67.78458316700016,4.0,Object_Sea_Pattern_Small,-8.0,,,,,,,,,,,
encoding,value,24,11270390,11276402,11274487.0,11274857.0,371.0,371.0,1918.1,742.8,1920.0,1460.0,Object_Sea_Pattern_Small,61.772970666999754,67.78458316700016,4.0,Object_Sea_Pattern_Small,-8.0,,,,,,,,,,,
encoding,value,24,11270390,11276402,11274878.0,11275702.0,825.0,825.0,1925.4,640.0999999999999,1920.0,1460.0,Object_Sea_Pattern_Small,61.772970666999754,67.78458316700016,4.0,Object_Sea_Pattern_Small,-8.0,,,,,,,,,,,
encoding,value,24,11270390,11276402,11275728.0,11276403.0,676.0,674.0,1925.5,684.7,1920.0,1460.0,Object_Sea_Pattern_Small,61.772970666999754,67.78458316700016,4.0,Object_Sea_Pattern_Small,-8.0,,,,,,,,,,,
encoding,attention,24,11276402,11279419,11276426.0,11276639.0,214.0,214.0,1903.4,750.5999999999999,1920.0,1460.0,Object_Sea_Pattern_Small,67.78470025000024,70.80184591699981,4.0,Object_Sea_Pattern_Small,-8.0,-8.0,1.0,0.6603935420007474,,,,,,,,
encoding,attention,24,11276402,11279419,11276662.0,11277414.0,753.0,753.0,1940.9,638.9000000000001,1920.0,1460.0,Object_Sea_Pattern_Small,67.78470025000024,70.80184591699981,4.0,Object_Sea_Pattern_Small,-8.0,-8.0,1.0,0.6603935420007474,,,,,,,,
encoding,attention,24,11276402,11279419,11277687.0,11277732.0,46.0,46.0,1896.0,1043.8,1920.0,1080.0,fixation,67.78470025000024,70.80184591699981,4.0,Object_Sea_Pattern_Small,-8.0,-8.0,1.0,0.6603935420007474,,,,,,,,
encoding,attention,24,11276402,11279419,11277739.0,11277782.0,44.0,44.0,1894.6,1009.8,1920.0,1460.0,Object_Sea_Pattern_Small,67.78470025000024,70.80184591699981,4.0,Object_Sea_Pattern_Small,-8.0,-8.0,1.0,0.6603935420007474,,,,,,,,
encoding,attention,24,11276402,11279419,11277815.0,11278310.0,496.0,496.0,1914.0,738.3,1920.0,1460.0,Object_Sea_Pattern_Small,67.78470025000024,70.80184591699981,4.0,Object_Sea_Pattern_Small,-8.0,-8.0,1.0,0.6603935420007474,,,,,,,,
encoding,fixation,25,11646608,11647614,11646863.0,11647040.0,178.0,178.0,1955.8,1131.3,1920.0,1080.0,fixation,3.692751667000266,4.698515125000995,5.0,Object_Land_Pattern_Large,9.0,,,,,,,,,,,
encoding,fixation,25,11646608,11647614,11647299.0,11647790.0,492.0,315.0,1914.1,1433.5,1920.0,700.0,Object_Land_Solid_Large,3.692751667000266,4.698515125000995,5.0,Object_Land_Pattern_Large,9.0,,,,,,,,,,,
encoding,image,25,11647614,11648626,11647838.0,11647969.0,132.0,132.0,1692.2,970.3,1591.0,1269.0,Object_Land_Pattern_Large,4.698631750001368,5.710556125000949,5.0,Object_Land_Pattern_Large,9.0,,,,,,,,,,,
encoding,image,25,11647614,11648626,11647987.0,11648576.0,590.0,590.0,1597.6,890.4000000000001,1591.0,1269.0,Object_Land_Pattern_Large,4.698631750001368,5.710556125000949,5.0,Object_Land_Pattern_Large,9.0,,,,,,,,,,,
encoding,value,25,11648626,11654640,11648825.0,11649822.0,998.0,998.0,1600.1,912.5999999999999,1591.0,1269.0,Object_Land_Pattern_Large,5.710667917001047,11.724888333001218,5.0,Object_Land_Pattern_Large,9.0,,,,,,,,,,,
encoding,value,25,11648626,11654640,11650061.0,11650776.0,716.0,716.0,1622.0,945.0999999999999,1591.0,1269.0,Object_Land_Pattern_Large,5.710667917001047,11.724888333001218,5.0,Object_Land_Pattern_Large,9.0,,,,,,,,,,,
encoding,value,25,11648626,11654640,11650798.0,11651074.0,277.0,277.0,1600.9,811.3,1591.0,1269.0,Object_Land_Pattern_Large,5.710667917001047,11.724888333001218,5.0,Object_Land_Pattern_Large,9.0,,,,,,,,,,,
encoding,value,25,11648626,11654640,11651092.0,11651918.0,827.0,827.0,1594.4,921.4000000000001,1591.0,1269.0,Object_Land_Pattern_Large,5.710667917001047,11.724888333001218,5.0,Object_Land_Pattern_Large,9.0,,,,,,,,,,,
encoding,value,25,11648626,11654640,11651925.0,11652002.0,78.0,78.0,1639.9,929.9000000000001,1591.0,1269.0,Object_Land_Pattern_Large,5.710667917001047,11.724888333001218,5.0,Object_Land_Pattern_Large,9.0,,,,,,,,,,,
encoding,value,25,11648626,11654640,11652221.0,11652779.0,559.0,559.0,1591.8,918.0999999999999,1591.0,1269.0,Object_Land_Pattern_Large,5.710667917001047,11.724888333001218,5.0,Object_Land_Pattern_Large,9.0,,,,,,,,,,,
encoding,value,25,11648626,11654640,11653052.0,11654449.0,1398.0,1398.0,1602.5,934.0999999999999,1591.0,1269.0,Object_Land_Pattern_Large,5.710667917001047,11.724888333001218,5.0,Object_Land_Pattern_Large,9.0,,,,,,,,,,,
encoding,value,25,11648626,11654640,11654460.0,11655512.0,1053.0,180.0,1598.5,915.9000000000001,1591.0,1269.0,Object_Land_Pattern_Large,5.710667917001047,11.724888333001218,5.0,Object_Land_Pattern_Large,9.0,,,,,,,,,,,
encoding,attention,25,11654640,11657661,11655535.0,11656758.0,1224.0,1224.0,1596.5,948.2,1591.0,1269.0,Object_Land_Pattern_Large,11.725015625001106,14.745572833000551,5.0,Object_Land_Pattern_Large,9.0,9.0,1.0,0.920855209000365,,,,,,,,
encoding,fixation,26,11657661,11658167,11657730.0,11657871.0,142.0,142.0,1548.9,803.4000000000001,1591.0,1269.0,Object_Land_Pattern_Large,14.745730208000168,15.250903083000594,5.0,Animal_Sea_Pattern_Small,-4.0,,,,,,,,,,,
encoding,fixation,26,11657661,11658167,11657913.0,11658472.0,560.0,254.0,1916.9,1083.9,1920.0,1080.0,fixation,14.745730208000168,15.250903083000594,5.0,Animal_Sea_Pattern_Small,-4.0,,,,,,,,,,,
encoding,image,26,11658167,11659178,11658636.0,11659308.0,673.0,542.0,1612.0,1237.1,1591.0,891.0,Animal_Sea_Pattern_Small,15.251018750001094,16.26222641700042,5.0,Animal_Sea_Pattern_Small,-4.0,,,,,,,,,,,
encoding,value,26,11659178,11665191,11659505.0,11659572.0,68.0,68.0,1583.6,1134.1,1591.0,891.0,Animal_Sea_Pattern_Small,16.262398542001392,22.27531779200035,5.0,Animal_Sea_Pattern_Small,-4.0,,,,,,,,,,,
encoding,value,26,11659178,11665191,11659584.0,11659774.0,191.0,191.0,1591.2,1213.3,1591.0,891.0,Animal_Sea_Pattern_Small,16.262398542001392,22.27531779200035,5.0,Animal_Sea_Pattern_Small,-4.0,,,,,,,,,,,
encoding,value,26,11659178,11665191,11659781.0,11660368.0,588.0,588.0,1607.3,1260.7,1591.0,891.0,Animal_Sea_Pattern_Small,16.262398542001392,22.27531779200035,5.0,Animal_Sea_Pattern_Small,-4.0,,,,,,,,,,,
encoding,value,26,11659178,11665191,11660676.0,11661427.0,752.0,752.0,1585.5,1257.5,1591.0,891.0,Animal_Sea_Pattern_Small,16.262398542001392,22.27531779200035,5.0,Animal_Sea_Pattern_Small,-4.0,,,,,,,,,,,
encoding,value,26,11659178,11665191,11661674.0,11661797.0,124.0,124.0,1629.9,1267.7,1591.0,891.0,Animal_Sea_Pattern_Small,16.262398542001392,22.27531779200035,5.0,Animal_Sea_Pattern_Small,-4.0,,,,,,,,,,,
encoding,value,26,11659178,11665191,11661811.0,11662048.0,238.0,238.0,1602.0,1190.7,1591.0,891.0,Animal_Sea_Pattern_Small,16.262398542001392,22.27531779200035,5.0,Animal_Sea_Pattern_Small,-4.0,,,,,,,,,,,
encoding,value,26,11659178,11665191,11662060.0,11663058.0,999.0,999.0,1597.8,1250.4,1591.0,891.0,Animal_Sea_Pattern_Small,16.262398542001392,22.27531779200035,5.0,Animal_Sea_Pattern_Small,-4.0,,,,,,,,,,,
encoding,value,26,11659178,11665191,11663070.0,11663796.0,727.0,727.0,1608.8,1164.0,1591.0,891.0,Animal_Sea_Pattern_Small,16.262398542001392,22.27531779200035,5.0,Animal_Sea_Pattern_Small,-4.0,,,,,,,,,,,
encoding,value,26,11659178,11665191,11664026.0,11664219.0,194.0,194.0,1588.0,1170.6,1591.0,891.0,Animal_Sea_Pattern_Small,16.262398542001392,22.27531779200035,5.0,Animal_Sea_Pattern_Small,-4.0,,,,,,,,,,,
encoding,value,26,11659178,11665191,11664236.0,11665387.0,1152.0,955.0,1614.8,1240.8,1591.0,891.0,Animal_Sea_Pattern_Small,16.262398542001392,22.27531779200035,5.0,Animal_Sea_Pattern_Small,-4.0,,,,,,,,,,,
encoding,attention,26,11665192,11668212,11665405.0,11666865.0,1461.0,1461.0,1636.4,1159.4,1591.0,891.0,Animal_Sea_Pattern_Small,22.27542720800011,25.29564974999994,5.0,Animal_Sea_Pattern_Small,-4.0,-4.0,1.0,1.4106011249987205,,,,,,,,
encoding,attention,26,11665192,11668212,11667142.0,11667965.0,824.0,824.0,1590.5,1166.6,1591.0,891.0,Animal_Sea_Pattern_Small,22.27542720800011,25.29564974999994,5.0,Animal_Sea_Pattern_Small,-4.0,-4.0,1.0,1.4106011249987205,,,,,,,,
encoding,attention,26,11665192,11668212,11667975.0,11668168.0,194.0,194.0,1673.4,1173.4,1591.0,891.0,Animal_Sea_Pattern_Small,22.27542720800011,25.29564974999994,5.0,Animal_Sea_Pattern_Small,-4.0,-4.0,1.0,1.4106011249987205,,,,,,,,
encoding,fixation,27,11668212,11669467,11668440.0,11668811.0,372.0,372.0,1906.1,1089.1,1920.0,1080.0,fixation,25.295801750000464,26.55085500000132,5.0,Object_Land_Solid_Large,-6.0,,,,,,,,,,,
encoding,fixation,27,11668212,11669467,11668973.0,11669669.0,697.0,494.0,1893.0,1273.5,1920.0,700.0,Object_Land_Solid_Large,25.295801750000464,26.55085500000132,5.0,Object_Land_Solid_Large,-6.0,,,,,,,,,,,
encoding,image,27,11669467,11670478,11669693.0,11670411.0,719.0,719.0,1894.8,1420.2,1920.0,700.0,Object_Land_Solid_Large,26.5509828330014,27.561515583000073,5.0,Object_Land_Solid_Large,-6.0,,,,,,,,,,,
encoding,image,27,11669467,11670478,11670426.0,11671202.0,777.0,52.0,1909.2,1344.3,1920.0,700.0,Object_Land_Solid_Large,26.5509828330014,27.561515583000073,5.0,Object_Land_Solid_Large,-6.0,,,,,,,,,,,
encoding,value,27,11670478,11676490,11671447.0,11671710.0,264.0,264.0,1892.3,1395.8,1920.0,700.0,Object_Land_Solid_Large,27.561634708001293,33.573435792000964,5.0,Object_Land_Solid_Large,-6.0,,,,,,,,,,,
encoding,value,27,11670478,11676490,11671733.0,11672003.0,271.0,271.0,1917.6,1455.3,1920.0,700.0,Object_Land_Solid_Large,27.561634708001293,33.573435792000964,5.0,Object_Land_Solid_Large,-6.0,,,,,,,,,,,
encoding,value,27,11670478,11676490,11672020.0,11672617.0,598.0,598.0,1900.4,1367.0,1920.0,700.0,Object_Land_Solid_Large,27.561634708001293,33.573435792000964,5.0,Object_Land_Solid_Large,-6.0,,,,,,,,,,,
encoding,value,27,11670478,11676490,11672859.0,11673242.0,384.0,384.0,1905.1,1494.2,1920.0,700.0,Object_Land_Solid_Large,27.561634708001293,33.573435792000964,5.0,Object_Land_Solid_Large,-6.0,,,,,,,,,,,
encoding,value,27,11670478,11676490,11673267.0,11673431.0,165.0,165.0,1752.4,1379.6,1920.0,700.0,Object_Land_Solid_Large,27.561634708001293,33.573435792000964,5.0,Object_Land_Solid_Large,-6.0,,,,,,,,,,,
encoding,value,27,11670478,11676490,11673453.0,11673653.0,201.0,201.0,1933.9,1348.1,1920.0,700.0,Object_Land_Solid_Large,27.561634708001293,33.573435792000964,5.0,Object_Land_Solid_Large,-6.0,,,,,,,,,,,
encoding,value,27,11670478,11676490,11673673.0,11673898.0,226.0,226.0,1916.5,1462.9,1920.0,700.0,Object_Land_Solid_Large,27.561634708001293,33.573435792000964,5.0,Object_Land_Solid_Large,-6.0,,,,,,,,,,,
encoding,value,27,11670478,11676490,11674107.0,11674760.0,654.0,654.0,1905.6,1458.1,1920.0,700.0,Object_Land_Solid_Large,27.561634708001293,33.573435792000964,5.0,Object_Land_Solid_Large,-6.0,,,,,,,,,,,
encoding,value,27,11670478,11676490,11674777.0,11675175.0,399.0,399.0,1908.6,1372.2,1920.0,700.0,Object_Land_Solid_Large,27.561634708001293,33.573435792000964,5.0,Object_Land_Solid_Large,-6.0,,,,,,,,,,,
encoding,value,27,11670478,11676490,11675186.0,11675700.0,515.0,515.0,1922.1,1436.0,1920.0,700.0,Object_Land_Solid_Large,27.561634708001293,33.573435792000964,5.0,Object_Land_Solid_Large,-6.0,,,,,,,,,,,
encoding,value,27,11670478,11676490,11675708.0,11676146.0,439.0,439.0,1914.8,1390.3,1920.0,700.0,Object_Land_Solid_Large,27.561634708001293,33.573435792000964,5.0,Object_Land_Solid_Large,-6.0,,,,,,,,,,,
encoding,value,27,11670478,11676490,11676158.0,11676432.0,275.0,275.0,1928.6,1466.2,1920.0,700.0,Object_Land_Solid_Large,27.561634708001293,33.573435792000964,5.0,Object_Land_Solid_Large,-6.0,,,,,,,,,,,
encoding,attention,27,11676490,11679507,11676623.0,11676847.0,225.0,225.0,1929.1,1458.6,1920.0,700.0,Object_Land_Solid_Large,33.573575292000896,36.58999529200082,5.0,Object_Land_Solid_Large,-6.0,-6.0,1.0,1.1737075000000914,,,,,,,,
encoding,attention,27,11676490,11679507,11676867.0,11677965.0,1099.0,1099.0,1954.9,1350.4,1920.0,700.0,Object_Land_Solid_Large,33.573575292000896,36.58999529200082,5.0,Object_Land_Solid_Large,-6.0,-6.0,1.0,1.1737075000000914,,,,,,,,
encoding,attention,27,11676490,11679507,11678187.0,11678650.0,464.0,464.0,1919.7,1412.3,1920.0,700.0,Object_Land_Solid_Large,33.573575292000896,36.58999529200082,5.0,Object_Land_Solid_Large,-6.0,-6.0,1.0,1.1737075000000914,,,,,,,,
encoding,attention,27,11676490,11679507,11678663.0,11679342.0,680.0,680.0,1907.3,1439.3,1920.0,700.0,Object_Land_Solid_Large,33.573575292000896,36.58999529200082,5.0,Object_Land_Solid_Large,-6.0,-6.0,1.0,1.1737075000000914,,,,,,,,
encoding,fixation,28,11679507,11680761,11679629.0,11679796.0,168.0,168.0,1968.5,1414.3,1920.0,700.0,Object_Land_Solid_Large,36.59014254199974,37.84468316700077,5.0,Object_Sea_Solid_Small,-2.0,,,,,,,,,,,
encoding,fixation,28,11679507,11680761,11679829.0,11680420.0,592.0,592.0,2088.1,1158.0,2249.0,891.0,Object_Sea_Solid_Small,36.59014254199974,37.84468316700077,5.0,Object_Sea_Solid_Small,-2.0,,,,,,,,,,,
encoding,fixation,28,11679507,11680761,11680456.0,11680960.0,505.0,305.0,2143.2,1307.1,2249.0,891.0,Object_Sea_Solid_Small,36.59014254199974,37.84468316700077,5.0,Object_Sea_Solid_Small,-2.0,,,,,,,,,,,
encoding,image,28,11680761,11681774,11680981.0,11681307.0,327.0,327.0,2233.9,1251.5,2249.0,891.0,Object_Sea_Solid_Small,37.844790417000695,38.85687108300044,5.0,Object_Sea_Solid_Small,-2.0,,,,,,,,,,,
encoding,image,28,11680761,11681774,11681577.0,11681994.0,418.0,197.0,2231.9,1274.4,2249.0,891.0,Object_Sea_Solid_Small,37.844790417000695,38.85687108300044,5.0,Object_Sea_Solid_Small,-2.0,,,,,,,,,,,
encoding,value,28,11681774,11687785,11682005.0,11682224.0,220.0,220.0,2235.9,1186.4,2249.0,891.0,Object_Sea_Solid_Small,38.85700179200103,44.868091874999664,5.0,Object_Sea_Solid_Small,-2.0,,,,,,,,,,,
encoding,value,28,11681774,11687785,11682237.0,11682945.0,709.0,709.0,2246.3,1238.2,2249.0,891.0,Object_Sea_Solid_Small,38.85700179200103,44.868091874999664,5.0,Object_Sea_Solid_Small,-2.0,,,,,,,,,,,
encoding,value,28,11681774,11687785,11682963.0,11683947.0,985.0,985.0,2229.7,1169.5,2249.0,891.0,Object_Sea_Solid_Small,38.85700179200103,44.868091874999664,5.0,Object_Sea_Solid_Small,-2.0,,,,,,,,,,,
encoding,value,28,11681774,11687785,11684128.0,11684333.0,206.0,206.0,2240.6,1234.6,2249.0,891.0,Object_Sea_Solid_Small,38.85700179200103,44.868091874999664,5.0,Object_Sea_Solid_Small,-2.0,,,,,,,,,,,
encoding,value,28,11681774,11687785,11684343.0,11685491.0,1149.0,1149.0,2226.0,1235.6,2249.0,891.0,Object_Sea_Solid_Small,38.85700179200103,44.868091874999664,5.0,Object_Sea_Solid_Small,-2.0,,,,,,,,,,,
encoding,value,28,11681774,11687785,11685499.0,11686051.0,553.0,553.0,2234.7,1250.1,2249.0,891.0,Object_Sea_Solid_Small,38.85700179200103,44.868091874999664,5.0,Object_Sea_Solid_Small,-2.0,,,,,,,,,,,
encoding,value,28,11681774,11687785,11686255.0,11688043.0,1789.0,1530.0,2241.2,1256.4,2249.0,891.0,Object_Sea_Solid_Small,38.85700179200103,44.868091874999664,5.0,Object_Sea_Solid_Small,-2.0,,,,,,,,,,,
encoding,attention,28,11687785,11690802,11688054.0,11688143.0,90.0,90.0,2236.7,1207.3,2249.0,891.0,Object_Sea_Solid_Small,44.868272292000256,47.884572292001394,5.0,Object_Sea_Solid_Small,-2.0,-2.0,1.0,0.8840918749992852,,,,,,,,
encoding,attention,28,11687785,11690802,11688337.0,11688420.0,84.0,84.0,2240.8,1211.4,2249.0,891.0,Object_Sea_Solid_Small,44.868272292000256,47.884572292001394,5.0,Object_Sea_Solid_Small,-2.0,-2.0,1.0,0.8840918749992852,,,,,,,,
encoding,attention,28,11687785,11690802,11688431.0,11688969.0,539.0,539.0,2186.6,1180.3,2249.0,891.0,Object_Sea_Solid_Small,44.868272292000256,47.884572292001394,5.0,Object_Sea_Solid_Small,-2.0,-2.0,1.0,0.8840918749992852,,,,,,,,
encoding,attention,28,11687785,11690802,11689229.0,11689330.0,102.0,102.0,2236.5,1329.7,2249.0,891.0,Object_Sea_Solid_Small,44.868272292000256,47.884572292001394,5.0,Object_Sea_Solid_Small,-2.0,-2.0,1.0,0.8840918749992852,,,,,,,,
encoding,attention,28,11687785,11690802,11689339.0,11690235.0,897.0,897.0,2253.0,1275.5,2249.0,891.0,Object_Sea_Solid_Small,44.868272292000256,47.884572292001394,5.0,Object_Sea_Solid_Small,-2.0,-2.0,1.0,0.8840918749992852,,,,,,,,
encoding,fixation,29,11690802,11692058,11691481.0,11691760.0,280.0,280.0,2037.8,1248.7,2249.0,891.0,Object_Sea_Solid_Small,47.88473250000061,49.14045120800074,5.0,Animal_Land_Pattern_Large,-7.0,,,,,,,,,,,
encoding,fixation,29,11690802,11692058,11691790.0,11692353.0,564.0,268.0,1827.8,1166.7,1591.0,891.0,Animal_Sea_Pattern_Small,47.88473250000061,49.14045120800074,5.0,Animal_Land_Pattern_Large,-7.0,,,,,,,,,,,
encoding,image,29,11692058,11693069,11692395.0,11693242.0,848.0,674.0,1895.0,720.2,1920.0,1460.0,Animal_Land_Pattern_Large,49.14058720800131,50.15209479199984,5.0,Animal_Land_Pattern_Large,-7.0,,,,,,,,,,,
encoding,value,29,11693069,11699081,11693266.0,11693477.0,212.0,212.0,1915.6,542.5999999999999,1920.0,1460.0,Animal_Land_Pattern_Large,50.15221595799994,56.163333250000505,5.0,Animal_Land_Pattern_Large,-7.0,,,,,,,,,,,
encoding,value,29,11693069,11699081,11693500.0,11693662.0,163.0,163.0,1889.0,673.4000000000001,1920.0,1460.0,Animal_Land_Pattern_Large,50.15221595799994,56.163333250000505,5.0,Animal_Land_Pattern_Large,-7.0,,,,,,,,,,,
