phase,event,onset,offset,trial_number,game,image,outcome,choice,correct,rt,letter,match,response,option,true_value,true_position,recalled_position,
encoding,fixation,23.30230824999944,24.564792125000167,1,1,Object_Sea_Pattern_Large,-2,,,,,,,,,,,
encoding,image,24.564918707999823,25.582944332999432,1,1,Object_Sea_Pattern_Large,-2,,,,,,,,,,,
encoding,value,25.583060250000017,31.597720624999965,1,1,Object_Sea_Pattern_Large,-2,,,,,,,,,,,
encoding,attention,31.597831790999408,34.616156416000194,1,1,Object_Sea_Pattern_Large,-2,-2,1,1.6267369999995935,,,,,,,,
encoding,fixation,34.616329499999665,35.37146620800013,2,1,Animal_Land_Solid_Small,2,,,,,,,,,,,
encoding,image,35.371588040999995,36.382299375,2,1,Animal_Land_Solid_Small,2,,,,,,,,,,,
encoding,value,36.382431874999384,42.393934916000035,2,1,Animal_Land_Solid_Small,2,,,,,,,,,,,
encoding,attention,42.39406187499935,45.410957665999376,2,1,Animal_Land_Solid_Small,2,+2,1,2.669976291999774,,,,,,,,
encoding,fixation,45.41111279100005,46.91593299999931,3,1,Animal_Sea_Solid_Large,-3,,,,,,,,,,,
encoding,image,46.91605016599988,47.927060625000195,3,1,Animal_Sea_Solid_Large,-3,,,,,,,,,,,
encoding,value,47.9271719999997,53.93927120799981,3,1,Animal_Sea_Solid_Large,-3,,,,,,,,,,,
encoding,attention,53.93948529099998,56.95754516599936,3,1,Animal_Sea_Solid_Large,-3,-3,1,1.741276084000674,,,,,,,,
encoding,fixation,56.95773808299964,57.46353141599957,4,1,Object_Sea_Pattern_Small,2,,,,,,,,,,,
encoding,image,57.463647040999604,58.47488754099959,4,1,Object_Sea_Pattern_Small,2,,,,,,,,,,,
encoding,value,58.47499470799994,64.52056162499957,4,1,Object_Sea_Pattern_Small,2,,,,,,,,,,,
encoding,attention,64.52067520799937,67.5325335409998,4,1,Object_Sea_Pattern_Small,2,None,None,None,,,,,,,,
encoding,fixation,67.53266654099934,68.53827633299989,5,1,Animal_Land_Solid_Large,8,,,,,,,,,,,
encoding,image,68.53839358299956,69.54980499999965,5,1,Animal_Land_Solid_Large,8,,,,,,,,,,,
encoding,value,69.54992024999956,75.56204845799948,5,1,Animal_Land_Solid_Large,8,,,,,,,,,,,
encoding,attention,75.56217158299933,78.57987679100006,5,1,Animal_Land_Solid_Large,8,+8,1,1.6378947080002035,,,,,,,,
encoding,fixation,78.58003229099995,79.0851988329996,6,1,Object_Land_Pattern_Small,-2,,,,,,,,,,,
encoding,image,79.08540929099945,80.09676124999987,6,1,Object_Land_Pattern_Small,-2,,,,,,,,,,,
encoding,value,80.09687487500014,86.10763808299998,6,1,Object_Land_Pattern_Small,-2,,,,,,,,,,,
encoding,attention,86.10776683299991,89.12668674999986,6,1,Object_Land_Pattern_Small,-2,-2,1,1.3322004589999779,,,,,,,,
n-back,,,,1,1,,,,0,None,C,True,None,,,,,
n-back,,,,2,1,,,,0,None,B,True,None,,,,,
n-back,,,,3,1,,,,1,None,Z,False,None,,,,,
n-back,,,,4,1,,,,1,None,V,False,None,,,,,
n-back,,,,5,1,,,,1,None,N,False,None,,,,,
n-back,,,,6,1,,,,0,None,V,True,None,,,,,
n-back,,,,7,1,,,,1,None,C,False,None,,,,,
n-back,,,,8,1,,,,1,1.0245017500001268,V,True,1,,,,,
n-back,,,,9,1,,,,1,None,B,False,None,,,,,
n-back,,,,10,1,,,,1,None,X,False,None,,,,,
n-back,,,,11,1,,,,1,0.9047942919996785,B,True,1,,,,,
n-back,,,,12,1,,,,1,None,B,False,None,,,,,
n-back,,,,13,1,,,,1,None,Z,False,None,,,,,
n-back,,,,14,1,,,,0,None,B,True,None,,,,,
n-back,,,,15,1,,,,1,None,V,False,None,,,,,
n-back,,,,16,1,,,,0,1.2639073330001338,Z,False,1,,,,,
n-back,,,,17,1,,,,1,None,Z,False,None,,,,,
n-back,,,,18,1,,,,0,None,Z,True,None,,,,,
n-back,,,,19,1,,,,1,None,B,False,None,,,,,
n-back,,,,20,1,,,,1,1.0255502910003997,Z,True,1,,,,,
n-back,,,,21,1,,,,1,1.4520013749997815,B,True,1,,,,,
n-back,,,,22,1,,,,1,None,C,False,None,,,,,
n-back,,,,23,1,,,,1,None,N,False,None,,,,,
n-back,,,,24,1,,,,1,None,Z,False,None,,,,,
n-back,,,,25,1,,,,1,None,B,False,None,,,,,
n-back,,,,26,1,,,,1,None,N,False,None,,,,,
n-back,,,,27,1,,,,1,None,C,False,None,,,,,
n-back,,,,28,1,,,,1,None,B,False,None,,,,,
n-back,,,,29,1,,,,0,None,C,True,None,,,,,
n-back,,,,30,1,,,,1,None,Z,False,None,,,,,
choice,fixation,194.36437983299948,195.87078199999996,1,1,,,,,,,,,Pattern,,,,
choice,option,195.88120633299968,197.00282408299972,1,1,,,,,,,,,Pattern,,,,
choice,choice,197.00295099999948,271.26627404099963,1,1,,,2,1,73.2519602909997,,,,Pattern,,,,
choice,fixation,271.26638187499975,272.02135333299975,2,1,,,,,,,,,Animal,,,,
choice,option,272.0313164579993,273.05921108299935,2,1,,,,,,,,,Animal,,,,
choice,choice,273.0593316659997,278.9478796659996,2,1,,,1,1,4.878595875000428,,,,Animal,,,,
choice,fixation,278.9480327909996,280.2029149159998,3,1,,,,,,,,,Sea,,,,
choice,option,280.2116810409998,281.2385224159998,3,1,,,,,,,,,Sea,,,,
choice,choice,281.2386292909996,305.9308482079996,3,1,,,1,0,23.681443165999553,,,,Sea,,,,
choice,fixation,305.9309890409995,306.68610245799937,4,1,,,,,,,,,Large,,,,
choice,option,306.695266875,307.72224416599965,4,1,,,,,,,,,Large,,,,
choice,choice,307.7224422499994,316.05683425000007,4,1,,,1,1,7.324483708000116,,,,Large,,,,
choice,fixation,316.0569841249999,316.8119600829996,5,1,,,,,,,,,Solid,,,,
choice,option,316.8212317079997,317.8474549579996,5,1,,,,,,,,,Solid,,,,
choice,choice,317.84757595799965,344.91616070799955,5,1,,,1,1,26.058002167000268,,,,Solid,,,,
choice,fixation,344.9162947499999,346.42116799999985,6,1,,,,,,,,,Object,,,,
choice,option,346.43073370799993,347.45905833300003,6,1,,,,,,,,,Object,,,,
choice,choice,347.45918666599937,379.566274666,6,1,,,1,0,31.096307832999628,,,,Object,,,,
choice,fixation,379.566398166,380.82126104100007,7,1,,,,,,,,,Land,,,,
choice,option,380.8301566250002,381.8587322499998,7,1,,,,,,,,,Land,,,,
choice,choice,381.858848375,386.9969691659999,7,1,,,2,0,4.1287572080000245,,,,Land,,,,
choice,fixation,386.99708966599974,387.7521028329993,8,1,,,,,,,,,Small,,,,
choice,option,387.7614972909996,388.7879311659999,8,1,,,,,,,,,Small,,,,
choice,choice,388.78804241599937,397.4263944579998,8,1,,,2,0,7.628127874999336,,,,Small,,,,
memory,free_recall,454.4071887909995,478.21258891599973,0,1,,,,,,,,,,,,,
memory,value_recall,539.305536291,546.8935818330001,1,1,Animal_Land_Solid_Small,,,,7.584098833000098,,,,,2,,,
memory,value_recall,547.938284625,557.1646469579991,2,1,Object_Sea_Pattern_Large,,,,9.22309870799927,,,,,-2,,,
memory,value_recall,558.9606837499996,562.9647200830004,3,1,Animal_Land_Solid_Large,,,,4.000054833000831,,,,,8,,,
memory,value_recall,564.7602548329996,567.8765827080006,4,1,Object_Land_Pattern_Small,,,,3.1122624999989057,,,,,-2,,,
memory,value_recall,569.4229429579991,581.493466124999,5,1,Animal_Sea_Solid_Large,,,,12.06645354200009,,,,,-3,,,
memory,value_recall,583.542841208,588.7470329160005,6,1,Object_Sea_Pattern_Small,,,,5.200097584000105,,,,,2,,,
memory,spatial_recall,614.2587203330004,623.1297267909995,6,1,Object_Sea_Pattern_Small,,,1,8.8669492909994,,,,,,"[0, -380]","[0, -380]",
memory,spatial_recall,624.695753,634.2273376249996,6,1,Animal_Land_Solid_Small,,,1,9.527652374999889,,,,,,"[-329, -190]","[-329, -190]",
memory,spatial_recall,635.5580059160002,641.7768168330003,6,1,Object_Sea_Pattern_Large,,,1,6.214802500000587,,,,,,"[-329, 190]","[-329, 190]",
memory,spatial_recall,643.3466757909991,647.2796520829997,6,1,Animal_Sea_Solid_Large,,,1,3.9287114160015335,,,,,,"[0, 380]","[0, 380]",
memory,spatial_recall,649.3472347080005,658.0269490409992,6,1,Animal_Land_Solid_Large,,,1,8.675676749999184,,,,,,"[329, 189]","[329, 189]",
memory,spatial_recall,659.8447643750005,663.8628191249991,6,1,Object_Land_Pattern_Small,,,1,4.014126624999335,,,,,,"[329, -190]","[329, -190]",
encoding,fixation,10.768491915998311,11.77419162499973,7,2,Object_Sea_Solid_Small,9,,,,,,,,,,,
encoding,image,11.77430104099949,12.786521207999613,7,2,Object_Sea_Solid_Small,9,,,,,,,,,,,
encoding,value,12.786663624998255,18.79872066599819,7,2,Object_Sea_Solid_Small,9,,,,,,,,,,,
encoding,attention,18.798850749999474,21.818343165999977,7,2,Object_Sea_Solid_Small,9,+9,1,1.3395271669996873,,,,,,,,
encoding,fixation,21.818506332998368,22.32348308299879,8,2,Object_Land_Solid_Large,-9,,,,,,,,,,,
encoding,image,22.323589874999016,23.33365312499882,8,2,Object_Land_Solid_Large,-9,,,,,,,,,,,
encoding,value,23.333773832999213,29.34498120799981,8,2,Object_Land_Solid_Large,-9,,,,,,,,,,,
encoding,attention,29.34510095799851,32.36165616599828,8,2,Object_Land_Solid_Large,-9,-9,1,1.6683135000002949,,,,,,,,
encoding,fixation,32.36181445799957,33.61688574999971,9,2,Animal_Sea_Pattern_Small,-7,,,,,,,,,,,
encoding,image,33.617000874999576,34.628227749999496,9,2,Animal_Sea_Pattern_Small,-7,,,,,,,,,,,
encoding,value,34.62834987499991,40.64036179099821,9,2,Animal_Sea_Pattern_Small,-7,,,,,,,,,,,
encoding,attention,40.64048354099941,43.65898512499916,9,2,Animal_Sea_Pattern_Small,-7,-7,1,1.1475311669983057,,,,,,,,
encoding,fixation,43.65921937499843,44.16423741599829,10,2,Animal_Land_Pattern_Large,1,,,,,,,,,,,
encoding,image,44.164352457999485,45.17529429099886,10,2,Animal_Land_Pattern_Large,1,,,,,,,,,,,
encoding,value,45.17541558299854,51.18723633299851,10,2,Animal_Land_Pattern_Large,1,,,,,,,,,,,
encoding,attention,51.187350665999475,54.20428699999866,10,2,Animal_Land_Pattern_Large,1,+1,1,0.8270077500001207,,,,,,,,
encoding,fixation,54.20443695799986,55.20951062499989,11,2,Animal_Sea_Solid_Small,-9,,,,,,,,,,,
encoding,image,55.20966695799871,56.22103999999854,11,2,Animal_Sea_Solid_Small,-9,,,,,,,,,,,
encoding,value,56.22115341599965,62.2320756249992,11,2,Animal_Sea_Solid_Small,-9,,,,,,,,,,,
encoding,attention,62.2322756249996,65.24896229099977,11,2,Animal_Sea_Solid_Small,-9,-9,1,0.9772554999999556,,,,,,,,
encoding,fixation,65.24913579099848,66.75409883299835,12,2,Object_Land_Pattern_Large,2,,,,,,,,,,,
encoding,image,66.7542327909996,67.76609658299822,12,2,Object_Land_Pattern_Large,2,,,,,,,,,,,
encoding,value,67.76620999999977,73.77891120799904,12,2,Object_Land_Pattern_Large,2,,,,,,,,,,,
encoding,attention,73.77903262499967,76.79678354099997,12,2,Object_Land_Pattern_Large,2,+2,1,0.8180639589991188,,,,,,,,
n-back,,,,31,2,,,,0,None,N,True,None,,,,,
n-back,,,,32,2,,,,1,None,N,False,None,,,,,
n-back,,,,33,2,,,,1,0.8431107920005161,N,True,1,,,,,
n-back,,,,34,2,,,,1,None,B,False,None,,,,,
n-back,,,,35,2,,,,1,0.6352672500015615,N,True,1,,,,,
n-back,,,,36,2,,,,1,None,X,False,None,,,,,
n-back,,,,37,2,,,,1,0.7203703750001296,N,True,1,,,,,
n-back,,,,38,2,,,,0,1.3607329999995272,B,False,1,,,,,
n-back,,,,39,2,,,,1,None,Z,False,None,,,,,
n-back,,,,40,2,,,,1,None,N,False,None,,,,,
n-back,,,,41,2,,,,0,None,Z,True,None,,,,,
n-back,,,,42,2,,,,0,0.16905266600042523,B,False,1,,,,,
n-back,,,,43,2,,,,1,None,X,False,None,,,,,
n-back,,,,44,2,,,,1,0.6060761670014472,B,True,1,,,,,
n-back,,,,45,2,,,,1,None,C,False,None,,,,,
n-back,,,,46,2,,,,1,None,Z,False,None,,,,,
n-back,,,,47,2,,,,1,None,N,False,None,,,,,
n-back,,,,48,2,,,,1,1.0008402499988733,Z,True,1,,,,,
n-back,,,,49,2,,,,0,None,N,True,None,,,,,
n-back,,,,50,2,,,,1,None,B,False,None,,,,,
n-back,,,,51,2,,,,1,None,C,False,None,,,,,
n-back,,,,52,2,,,,1,None,V,False,None,,,,,
n-back,,,,53,2,,,,1,0.8635539579991018,C,True,1,,,,,
n-back,,,,54,2,,,,1,None,B,False,None,,,,,
n-back,,,,55,2,,,,1,None,V,False,None,,,,,
n-back,,,,56,2,,,,1,None,C,False,None,,,,,
n-back,,,,57,2,,,,1,None,B,False,None,,,,,
n-back,,,,58,2,,,,1,0.6525659580001957,C,True,1,,,,,
n-back,,,,59,2,,,,1,None,N,False,None,,,,,
n-back,,,,60,2,,,,1,None,N,False,None,,,,,
choice,fixation,143.873734625,145.1289400409987,9,2,,,,,,,,,Solid,,,,
choice,option,145.1379417499993,146.16465299999982,9,2,,,,,,,,,Solid,,,,
choice,choice,146.16477799999848,202.62943091599846,9,2,,,2,1,55.45277358400017,,,,Solid,,,,
choice,fixation,202.62955749999855,203.38512583299962,10,2,,,,,,,,,Object,,,,
choice,option,203.39425308299906,204.4210472499999,10,2,,,,,,,,,Object,,,,
choice,choice,204.42116116599937,281.3214067079989,10,2,,,2,0,75.88732958400033,,,,Object,,,,
choice,fixation,281.3215332079999,282.57668233299955,11,2,,,,,,,,,Large,,,,
choice,option,282.58554495799945,283.61220483299985,11,2,,,,,,,,,Large,,,,
choice,choice,283.6123208329991,288.695501582999,11,2,,,2,1,4.069804374999876,,,,Large,,,,
choice,fixation,288.69561899999826,289.9506179159998,12,2,,,,,,,,,Small,,,,
choice,option,289.95948424999915,290.98725408299833,12,2,,,,,,,,,Small,,,,
choice,choice,290.98737541599985,304.96092383299947,12,2,,,1,0,12.962613458001215,,,,Small,,,,
choice,fixation,304.96108837499924,305.4661547079995,13,2,,,,,,,,,Sea,,,,
choice,option,305.47464479099835,306.5006365829995,13,2,,,,,,,,,Sea,,,,
choice,choice,306.5007854999985,348.0328506249989,13,2,,,2,1,40.52024150000034,,,,Sea,,,,
choice,fixation,348.03298574999826,348.7879812079991,14,2,,,,,,,,,Animal,,,,
choice,option,348.7975746659995,349.8242921659985,14,2,,,,,,,,,Animal,,,,
choice,choice,349.8244832909986,355.80808229099966,14,2,,,2,1,4.972981332999552,,,,Animal,,,,
choice,fixation,355.8083092499983,357.0637379159998,15,2,,,,,,,,,Pattern,,,,
choice,option,357.07308958299836,358.09951399999954,15,2,,,,,,,,,Pattern,,,,
choice,choice,358.09963737499857,376.20907695799906,15,2,,,1,0,17.098829584001578,,,,Pattern,,,,
choice,fixation,376.2092269999994,377.7142567079991,16,2,,,,,,,,,Land,,,,
choice,option,377.7230944159983,378.7493501659992,16,2,,,,,,,,,Land,,,,
choice,choice,378.7494681249991,385.89527079099935,16,2,,,2,1,6.136110750001535,,,,Land,,,,
memory,free_recall,448.025789583,465.1132233749995,6,2,,,,,,,,,,,,,
memory,value_recall,493.32501545799823,498.2342054159999,7,2,Animal_Land_Pattern_Large,,,,4.905113165999865,,,,,1,,,
memory,value_recall,500.2796185829993,507.1706089999989,8,2,Animal_Sea_Solid_Small,,,,6.885137167000721,,,,,-9,,,
memory,value_recall,508.71734204099994,512.2647347909988,9,2,Object_Land_Pattern_Large,,,,3.5431003749999945,,,,,2,,,
memory,value_recall,513.3114242079992,521.2211884579992,10,2,Animal_Sea_Pattern_Small,,,,7.907072625001092,,,,,-7,,,
memory,value_recall,522.2705810829993,527.194173165999,11,2,Object_Land_Solid_Large,,,,4.921214166999562,,,,,-9,,,
memory,value_recall,528.2406002909993,532.4085292079999,12,2,Object_Sea_Solid_Small,,,,4.16544312500082,,,,,9,,,
memory,spatial_recall,539.6981945829993,543.4397662909996,12,2,Object_Sea_Solid_Small,,,1,3.739074499999333,,,,,,"[329, 189]","[329, 189]",
memory,spatial_recall,544.7586194579999,549.6737597079991,12,2,Animal_Land_Pattern_Large,,,1,4.910875375000614,,,,,,"[0, -380]","[0, -380]",
memory,spatial_recall,550.737543457999,552.8910473749984,12,2,Animal_Sea_Solid_Small,,,1,2.1510550000002695,,,,,,"[329, -190]","[329, -190]",
memory,spatial_recall,553.9573300829998,555.6749364579991,12,2,Object_Land_Pattern_Large,,,1,1.7134192909998092,,,,,,"[-329, -190]","[-329, -190]",
memory,spatial_recall,557.241915749999,559.7070152079996,12,2,Animal_Sea_Pattern_Small,,,1,2.4611538330009353,,,,,,"[-329, 190]","[-329, 190]",
memory,spatial_recall,560.7701575409992,562.5223226249982,12,2,Object_Land_Solid_Large,,,1,1.749704957999711,,,,,,"[0, 380]","[0, 380]",
encoding,fixation,5.145788083000298,5.651977333000104,13,3,Animal_Land_Pattern_Small,-2,,,,,,,,,,,
encoding,image,5.652113166001072,6.663075708000179,13,3,Animal_Land_Pattern_Small,-2,,,,,,,,,,,
encoding,value,6.663189375000002,12.6765594160006,13,3,Animal_Land_Pattern_Small,-2,,,,,,,,,,,
encoding,attention,12.676673457999641,15.69426250000106,13,3,Animal_Land_Pattern_Small,-2,-2,1,1.9705713340008515,,,,,,,,
encoding,fixation,15.694443583000975,16.199351625000418,14,3,Animal_Land_Solid_Small,7,,,,,,,,,,,
encoding,image,16.199462208000114,17.21061166599975,14,3,Animal_Land_Solid_Small,7,,,,,,,,,,,
encoding,value,17.210720875000334,23.222911374999967,14,3,Animal_Land_Solid_Small,7,,,,,,,,,,,
encoding,attention,23.22307554100007,26.23941645800005,14,3,Animal_Land_Solid_Small,7,+7,1,1.4588292080006795,,,,,,,,
encoding,fixation,26.23959108300005,26.994840958001078,15,3,Object_Sea_Pattern_Large,3,,,,,,,,,,,
encoding,image,26.994962500000838,28.00614775000031,15,3,Object_Sea_Pattern_Large,3,,,,,,,,,,,
encoding,value,28.006259625000894,34.01812125000106,15,3,Object_Sea_Pattern_Large,3,,,,,,,,,,,
encoding,attention,34.01824920800027,37.034879875000115,15,3,Object_Sea_Pattern_Large,3,+3,1,0.6933839580015047,,,,,,,,
encoding,fixation,37.035039541000515,38.0403230410011,16,3,Object_Sea_Solid_Large,3,,,,,,,,,,,
encoding,image,38.04043224999987,39.05202354100038,16,3,Object_Sea_Solid_Large,3,,,,,,,,,,,
encoding,value,39.05217933300082,45.063955040999645,16,3,Object_Sea_Solid_Large,3,,,,,,,,,,,
encoding,attention,45.06409770800019,48.082492999999886,16,3,Object_Sea_Solid_Large,3,+3,1,0.8324812090013438,,,,,,,,
encoding,fixation,48.08264766600041,49.33827454099992,17,3,Object_Land_Solid_Small,-4,,,,,,,,,,,
encoding,image,49.33838633300002,50.349477166000725,17,3,Object_Land_Solid_Small,-4,,,,,,,,,,,
encoding,value,50.349603250000655,56.36069670799952,17,3,Object_Land_Solid_Small,-4,,,,,,,,,,,
encoding,attention,56.360821207999834,59.378185499999745,17,3,Object_Land_Solid_Small,-4,-4,1,2.725358290999793,,,,,,,,
encoding,fixation,59.37834633300008,59.883382541000174,18,3,Animal_Sea_Pattern_Large,-4,,,,,,,,,,,
encoding,image,59.88357941600043,60.89285033300075,18,3,Animal_Sea_Pattern_Large,-4,,,,,,,,,,,
encoding,value,60.892959124999834,66.90433041600045,18,3,Animal_Sea_Pattern_Large,-4,,,,,,,,,,,
encoding,attention,66.90446537500065,69.92103054099971,18,3,Animal_Sea_Pattern_Large,-4,-4,1,1.40846133299965,,,,,,,,
n-back,,,,61,3,,,,1,None,Z,False,None,,,,,
n-back,,,,62,3,,,,0,None,N,True,None,,,,,
n-back,,,,63,3,,,,1,None,V,False,None,,,,,
n-back,,,,64,3,,,,1,0.6687868330009223,N,True,1,,,,,
n-back,,,,65,3,,,,1,1.0131433329988795,V,True,1,,,,,
n-back,,,,66,3,,,,1,None,B,False,None,,,,,
n-back,,,,67,3,,,,1,None,N,False,None,,,,,
n-back,,,,68,3,,,,1,None,X,False,None,,,,,
n-back,,,,69,3,,,,1,0.48630695899919374,N,True,1,,,,,
n-back,,,,70,3,,,,1,None,C,False,None,,,,,
n-back,,,,71,3,,,,1,None,C,False,None,,,,,
n-back,,,,72,3,,,,1,None,N,False,None,,,,,
n-back,,,,73,3,,,,1,None,N,False,None,,,,,
n-back,,,,74,3,,,,1,0.6171833339994919,N,True,1,,,,,
n-back,,,,75,3,,,,1,0.9395722919998661,N,True,1,,,,,
n-back,,,,76,3,,,,1,0.9304687919993739,N,True,1,,,,,
n-back,,,,77,3,,,,1,None,B,False,None,,,,,
n-back,,,,78,3,,,,1,None,B,False,None,,,,,
n-back,,,,79,3,,,,1,None,V,False,None,,,,,
n-back,,,,80,3,,,,1,0.7620767919997888,B,True,1,,,,,
n-back,,,,81,3,,,,1,None,Z,False,None,,,,,
n-back,,,,82,3,,,,1,None,N,False,None,,,,,
n-back,,,,83,3,,,,1,None,V,False,None,,,,,
n-back,,,,84,3,,,,1,None,V,False,None,,,,,
n-back,,,,85,3,,,,1,None,C,False,None,,,,,
n-back,,,,86,3,,,,1,None,C,False,None,,,,,
n-back,,,,87,3,,,,1,0.5858782909999718,C,True,1,,,,,
n-back,,,,88,3,,,,1,None,Z,False,None,,,,,
n-back,,,,89,3,,,,1,None,V,False,None,,,,,
n-back,,,,90,3,,,,0,None,Z,True,None,,,,,
choice,fixation,134.67880524999964,135.43349754100018,17,3,,,,,,,,,Animal,,,,
choice,option,135.44238512499942,136.46692441599953,17,3,,,,,,,,,Animal,,,,
choice,choice,136.46703508300016,159.64563358300074,17,3,,,1,1,22.16444945799958,,,,Animal,,,,
choice,fixation,159.6457725830005,161.1507195409995,18,3,,,,,,,,,Large,,,,
choice,option,161.15962391600078,162.1864305830004,18,3,,,,,,,,,Large,,,,
choice,choice,162.18654929100012,178.03266108299977,18,3,,,2,0,14.832747417000064,,,,Large,,,,
choice,fixation,178.03281108299961,179.53824458300005,19,3,,,,,,,,,Solid,,,,
choice,option,179.54784383300102,180.57329475000006,19,3,,,,,,,,,Solid,,,,
choice,choice,180.57342237500052,215.12846787499984,19,3,,,1,1,33.54439554199962,,,,Solid,,,,
choice,fixation,215.12859874999958,215.63445437500013,20,3,,,,,,,,,Land,,,,
choice,option,215.64269979100027,216.668711833001,20,3,,,,,,,,,Land,,,,
choice,choice,216.66890545800015,228.08988183300062,20,3,,,1,1,10.41013991699947,,,,Land,,,,
choice,fixation,228.0900324159993,229.34445374999996,21,3,,,,,,,,,Sea,,,,
choice,option,229.3528847079997,230.3802776249995,21,3,,,,,,,,,Sea,,,,
choice,choice,230.38039062499956,250.75397499999963,21,3,,,1,1,19.362813042000198,,,,Sea,,,,
choice,fixation,250.75410570799977,251.5092013329995,22,3,,,,,,,,,Object,,,,
choice,option,251.51917979100108,252.54557137499978,22,3,,,,,,,,,Object,,,,
choice,choice,252.54568958299933,264.55298587499965,22,3,,,1,1,10.99522641600015,,,,Object,,,,
choice,fixation,264.5531504160008,265.0603161660001,23,3,,,,,,,,,Small,,,,
choice,option,265.0692037909994,266.095138916,23,3,,,,,,,,,Small,,,,
choice,choice,266.09527524999976,275.07355720799933,23,3,,,2,0,7.968165874999613,,,,Small,,,,
choice,fixation,275.07368920800036,276.0785969160006,24,3,,,,,,,,,Pattern,,,,
choice,option,276.0882276249995,277.1151974160002,24,3,,,,,,,,,Pattern,,,,
choice,choice,277.1153266660003,292.69878841600075,24,3,,,1,0,14.572941792001075,,,,Pattern,,,,
memory,free_recall,304.67536850000033,322.22640220799985,12,3,,,,,,,,,,,,,
memory,value_recall,327.6807184999998,339.04485600000044,13,3,Object_Land_Solid_Small,,,,11.359847707999506,,,,,-4,,,
memory,value_recall,341.0936018329994,345.34767162500066,14,3,Animal_Land_Pattern_Small,,,,4.249999416000719,,,,,-2,,,
memory,value_recall,347.3932698330009,358.51516991599965,15,3,Animal_Sea_Pattern_Large,,,,11.117839167000056,,,,,-4,,,
memory,value_recall,359.81210691600063,363.4820254999995,16,3,Object_Sea_Pattern_Large,,,,3.6659077500007697,,,,,3,,,
memory,value_recall,365.5286070000002,371.61961433299984,17,3,Object_Sea_Solid_Large,,,,6.086932082998828,,,,,3,,,
memory,value_recall,373.16743091600074,379.90652062499976,18,3,Animal_Land_Solid_Small,,,,6.7344962089991895,,,,,7,,,
memory,spatial_recall,384.93947350000053,388.34911487499994,18,3,Object_Sea_Solid_Large,,,1,3.4064822090003872,,,,,,"[329, 189]","[329, 189]",
memory,spatial_recall,389.4129049160001,392.7140631250004,18,3,Animal_Land_Pattern_Small,,,1,3.297288458001276,,,,,,"[329, -190]","[329, -190]",
memory,spatial_recall,394.52986133299964,397.3738378750004,18,3,Object_Sea_Pattern_Large,,,1,2.839939540999694,,,,,,"[-329, 190]","[-329, 190]",
memory,spatial_recall,398.6760664579997,400.4097969579998,18,3,Animal_Sea_Pattern_Large,,,1,1.729572416999872,,,,,,"[0, 380]","[0, 380]",
memory,spatial_recall,401.96562825,403.9781734999997,18,3,Object_Land_Solid_Small,,,1,2.0085623750001105,,,,,,"[0, -380]","[0, -380]",
memory,spatial_recall,406.03250433299945,409.4140349579993,18,3,Animal_Land_Solid_Small,,,1,3.3773385000004055,,,,,,"[-329, -190]","[-329, -190]",
encoding,fixation,4.5249726670008386,5.780237584000133,19,4,Animal_Land_Solid_Large,-7,,,,,,,,,,,
encoding,image,5.7803454589993635,6.792526541999905,19,4,Animal_Land_Solid_Large,-7,,,,,,,,,,,
encoding,value,6.7927012920008565,12.805942000000869,19,4,Animal_Land_Solid_Large,-7,,,,,,,,,,,
encoding,attention,12.806061291999868,15.823895292000088,19,4,Animal_Land_Solid_Large,-7,-7,1,1.5725142920000508,,,,,,,,
encoding,fixation,15.82404995899924,16.329329500000313,20,4,Animal_Sea_Solid_Large,5,,,,,,,,,,,
encoding,image,16.32945566700073,17.340680499999507,20,4,Animal_Sea_Solid_Large,5,,,,,,,,,,,
encoding,value,17.34080562500094,23.352776416999404,20,4,Animal_Sea_Solid_Large,5,,,,,,,,,,,
encoding,attention,23.352933042000586,26.370259958999668,20,4,Animal_Sea_Solid_Large,5,+5,1,0.9562892080011807,,,,,,,,
encoding,fixation,26.370405584000764,27.87550695900063,21,4,Object_Sea_Pattern_Large,6,,,,,,,,,,,
encoding,image,27.87564654199923,28.885918166999545,21,4,Object_Sea_Pattern_Large,6,,,,,,,,,,,
encoding,value,28.88602904199979,34.89856900000086,21,4,Object_Sea_Pattern_Large,6,,,,,,,,,,,
encoding,attention,34.898705334000624,37.91734883400022,21,4,Object_Sea_Pattern_Large,6,+6,1,1.8403619159998925,,,,,,,,
encoding,fixation,37.91760087500006,38.92373362500075,22,4,Animal_Land_Solid_Small,1,,,,,,,,,,,
encoding,image,38.92384866700013,39.93349708400092,22,4,Animal_Land_Solid_Small,1,,,,,,,,,,,
encoding,value,39.93362779199924,45.94504779199997,22,4,Animal_Land_Solid_Small,1,,,,,,,,,,,
encoding,attention,45.94517049999922,48.95627712500027,22,4,Animal_Land_Solid_Small,1,None,None,None,,,,,,,,
encoding,fixation,48.95641566700033,50.2118367919993,23,4,Object_Land_Pattern_Small,5,,,,,,,,,,,
encoding,image,50.21195274999991,51.22443295899939,23,4,Object_Land_Pattern_Small,5,,,,,,,,,,,
encoding,value,51.2245510419998,57.23600562499996,23,4,Object_Land_Pattern_Small,5,,,,,,,,,,,
encoding,attention,57.23613291699985,60.25539754199963,23,4,Object_Land_Pattern_Small,5,+5,1,0.7339193339994381,,,,,,,,
encoding,fixation,60.25556462500026,60.761328124999636,24,4,Object_Sea_Pattern_Small,-8,,,,,,,,,,,
encoding,image,60.76151299999947,61.77284912499999,24,4,Object_Sea_Pattern_Small,-8,,,,,,,,,,,
encoding,value,61.772970666999754,67.78458316700016,24,4,Object_Sea_Pattern_Small,-8,,,,,,,,,,,
encoding,attention,67.78470025000024,70.80184591699981,24,4,Object_Sea_Pattern_Small,-8,-8,1,0.6603935420007474,,,,,,,,
n-back,,,,91,4,,,,0,None,X,True,None,,,,,
n-back,,,,92,4,,,,1,None,N,False,None,,,,,
n-back,,,,93,4,,,,1,None,Z,False,None,,,,,
n-back,,,,94,4,,,,1,0.5922030830006406,N,True,1,,,,,
n-back,,,,95,4,,,,1,None,N,False,None,,,,,
n-back,,,,96,4,,,,1,0.47917758299990965,N,True,1,,,,,
n-back,,,,97,4,,,,1,None,C,False,None,,,,,
n-back,,,,98,4,,,,1,None,X,False,None,,,,,
n-back,,,,99,4,,,,0,0.705899958998998,N,False,1,,,,,
n-back,,,,100,4,,,,1,None,B,False,None,,,,,
n-back,,,,101,4,,,,1,None,Z,False,None,,,,,
n-back,,,,102,4,,,,1,0.5257615000009537,B,True,1,,,,,
n-back,,,,103,4,,,,1,None,V,False,None,,,,,
n-back,,,,104,4,,,,1,None,V,False,None,,,,,
n-back,,,,105,4,,,,1,0.41346033300033014,V,True,1,,,,,
n-back,,,,106,4,,,,1,None,Z,False,None,,,,,
n-back,,,,107,4,,,,1,None,N,False,None,,,,,
n-back,,,,108,4,,,,1,None,C,False,None,,,,,
n-back,,,,109,4,,,,1,None,X,False,None,,,,,
n-back,,,,110,4,,,,1,0.7266564169985941,C,True,1,,,,,
n-back,,,,111,4,,,,0,None,X,True,None,,,,,
n-back,,,,112,4,,,,1,0.9469691249996686,C,True,1,,,,,
n-back,,,,113,4,,,,1,None,V,False,None,,,,,
n-back,,,,114,4,,,,1,None,V,False,None,,,,,
n-back,,,,115,4,,,,1,None,C,False,None,,,,,
n-back,,,,116,4,,,,1,None,X,False,None,,,,,
n-back,,,,117,4,,,,0,None,C,True,None,,,,,
n-back,,,,118,4,,,,0,None,X,True,None,,,,,
n-back,,,,119,4,,,,1,None,V,False,None,,,,,
n-back,,,,120,4,,,,1,None,C,False,None,,,,,
choice,fixation,132.94621616699987,133.95146854199993,25,4,,,,,,,,,Sea,,,,
choice,option,133.9595909590007,134.98900833399966,25,4,,,,,,,,,Sea,,,,
choice,choice,134.9891956249994,187.88657145899924,25,4,,,1,1,51.885494083000594,,,,Sea,,,,
choice,fixation,187.88673641700007,189.3917299170007,26,4,,,,,,,,,Animal,,,,
choice,option,189.40144362499996,190.4285483750009,26,4,,,,,,,,,Animal,,,,
choice,choice,190.42873712499932,202.0533306670004,26,4,,,1,0,10.613836250000531,,,,Animal,,,,
choice,fixation,202.05345212499924,203.30834441700063,27,4,,,,,,,,,Land,,,,
choice,option,203.3173945840008,204.34447283400004,27,4,,,,,,,,,Land,,,,
choice,choice,204.34458770899982,215.3568039590009,27,4,,,2,1,10.001785208000001,,,,Land,,,,
choice,fixation,215.35693549999996,216.6117524170004,28,4,,,,,,,,,Small,,,,
choice,option,216.62092116699932,217.6469417089993,28,4,,,,,,,,,Small,,,,
choice,choice,217.6470699170004,246.95725175000007,28,4,,,2,1,28.2983666250002,,,,Small,,,,
choice,fixation,246.9573873749996,248.46240279199992,29,4,,,,,,,,,Object,,,,
choice,option,248.4720594169994,249.49865641699944,29,4,,,,,,,,,Object,,,,
choice,choice,249.4987698749992,259.12682524999946,29,4,,,2,0,8.615466375000324,,,,Object,,,,
choice,fixation,259.12696433400015,260.63200283399965,30,4,,,,,,,,,Pattern,,,,
choice,option,260.641551875,261.66803379200064,30,4,,,,,,,,,Pattern,,,,
choice,choice,261.6682097920002,277.53217116700034,30,4,,,2,0,14.852552791999187,,,,Pattern,,,,
choice,fixation,277.5323297089999,278.2896248340003,31,4,,,,,,,,,Large,,,,
choice,option,278.29921724999986,279.3255277499993,31,4,,,,,,,,,Large,,,,
choice,choice,279.325645375,295.53997220900055,31,4,,,1,1,15.202893083000163,,,,Large,,,,
choice,fixation,295.5401022500009,296.79496624999956,32,4,,,,,,,,,Solid,,,,
choice,option,296.80425504199957,297.8322401669993,32,4,,,,,,,,,Solid,,,,
choice,choice,297.8323643340009,310.5569367499993,32,4,,,1,0,11.71126033300061,,,,Solid,,,,
memory,free_recall,319.9740198340005,337.47343399999954,18,4,,,,,,,,,,,,,
memory,value_recall,341.21869558400067,346.39096741700087,19,4,Animal_Land_Solid_Large,,,,5.168206042000747,,,,,-7,,,
memory,value_recall,347.9357707090003,355.2240514589994,20,4,Object_Sea_Pattern_Large,,,,7.284101792000001,,,,,6,,,
memory,value_recall,356.7690847920003,362.7110718750009,21,4,Object_Sea_Pattern_Small,,,,5.937604165999801,,,,,-8,,,
memory,value_recall,364.75672725000004,369.1262799169999,22,4,Animal_Land_Solid_Small,,,,4.365455916999053,,,,,1,,,
memory,value_recall,370.1730829169992,374.50952179200067,23,4,Animal_Sea_Solid_Large,,,,4.333134250000512,,,,,5,,,
memory,value_recall,376.3060078340004,383.1828165000006,24,4,Object_Land_Pattern_Small,,,,6.872690124999281,,,,,5,,,
memory,spatial_recall,388.3014254589998,390.5396166249993,24,4,Object_Sea_Pattern_Small,,,1,2.2341804999996384,,,,,,"[0, -380]","[0, -380]",
memory,spatial_recall,391.59742333400027,395.19522629200037,24,4,Animal_Land_Solid_Small,,,1,3.595222334000937,,,,,,"[-329, -190]","[-329, -190]",
memory,spatial_recall,396.25859387499986,397.2765372089998,24,4,Object_Land_Pattern_Small,,,1,1.0147217080011615,,,,,,"[329, -190]","[329, -190]",
memory,spatial_recall,399.34390229199926,403.97777845900055,24,4,Animal_Sea_Solid_Large,,,1,4.629950540998834,,,,,,"[0, 380]","[0, 380]",
memory,spatial_recall,406.0445076670003,407.92687149999983,24,4,Animal_Land_Solid_Large,,,1,1.8784284579996893,,,,,,"[329, 189]","[329, 189]",
memory,spatial_recall,409.24164470899996,413.10969979199945,24,4,Object_Sea_Pattern_Large,,,1,3.8640337079996243,,,,,,"[-329, 190]","[-329, 190]",
encoding,fixation,3.692751667000266,4.698515125000995,25,5,Object_Land_Pattern_Large,9,,,,,,,,,,,
encoding,image,4.698631750001368,5.710556125000949,25,5,Object_Land_Pattern_Large,9,,,,,,,,,,,
encoding,value,5.710667917001047,11.724888333001218,25,5,Object_Land_Pattern_Large,9,,,,,,,,,,,
encoding,attention,11.725015625001106,14.745572833000551,25,5,Object_Land_Pattern_Large,9,+9,1,0.920855209000365,,,,,,,,
encoding,fixation,14.745730208000168,15.250903083000594,26,5,Animal_Sea_Pattern_Small,-4,,,,,,,,,,,
encoding,image,15.251018750001094,16.26222641700042,26,5,Animal_Sea_Pattern_Small,-4,,,,,,,,,,,
encoding,value,16.262398542001392,22.27531779200035,26,5,Animal_Sea_Pattern_Small,-4,,,,,,,,,,,
encoding,attention,22.27542720800011,25.29564974999994,26,5,Animal_Sea_Pattern_Small,-4,-4,1,1.4106011249987205,,,,,,,,
encoding,fixation,25.295801750000464,26.55085500000132,27,5,Object_Land_Solid_Large,-6,,,,,,,,,,,
encoding,image,26.5509828330014,27.561515583000073,27,5,Object_Land_Solid_Large,-6,,,,,,,,,,,
encoding,value,27.561634708001293,33.573435792000964,27,5,Object_Land_Solid_Large,-6,,,,,,,,,,,
encoding,attention,33.573575292000896,36.58999529200082,27,5,Object_Land_Solid_Large,-6,-6,1,1.1737075000000914,,,,,,,,
encoding,fixation,36.59014254199974,37.84468316700077,28,5,Object_Sea_Solid_Small,-2,,,,,,,,,,,
encoding,image,37.844790417000695,38.85687108300044,28,5,Object_Sea_Solid_Small,-2,,,,,,,,,,,
encoding,value,38.85700179200103,44.868091874999664,28,5,Object_Sea_Solid_Small,-2,,,,,,,,,,,
encoding,attention,44.868272292000256,47.884572292001394,28,5,Object_Sea_Solid_Small,-2,-2,1,0.8840918749992852,,,,,,,,
encoding,fixation,47.88473250000061,49.14045120800074,29,5,Animal_Land_Pattern_Large,-7,,,,,,,,,,,
encoding,image,49.14058720800131,50.15209479199984,29,5,Animal_Land_Pattern_Large,-7,,,,,,,,,,,
encoding,value,50.15221595799994,56.163333250000505,29,5,Animal_Land_Pattern_Large,-7,,,,,,,,,,,
encoding,attention,56.16345016699961,59.18016275000082,29,5,Animal_Land_Pattern_Large,-7,-7,1,0.6166921660005755,,,,,,,,
encoding,fixation,59.18032049999965,60.18557037500068,30,5,Animal_Sea_Solid_Small,9,,,,,,,,,,,
encoding,image,60.18570937500044,61.19653437499983,30,5,Animal_Sea_Solid_Small,9,,,,,,,,,,,
encoding,value,61.19668745800118,67.2082652500012,30,5,Animal_Sea_Solid_Small,9,,,,,,,,,,,
encoding,attention,67.2084059580011,70.22544716700031,30,5,Animal_Sea_Solid_Small,9,+9,1,1.793123542000103,,,,,,,,
n-back,,,,121,5,,,,0,None,C,True,None,,,,,
n-back,,,,122,5,,,,0,None,N,True,None,,,,,
n-back,,,,123,5,,,,1,None,N,False,None,,,,,
n-back,,,,124,5,,,,1,0.9079894999995304,N,True,1,,,,,
n-back,,,,125,5,,,,1,None,B,False,None,,,,,
n-back,,,,126,5,,,,1,None,X,False,None,,,,,
n-back,,,,127,5,,,,1,0.7639542910001182,B,True,1,,,,,
n-back,,,,128,5,,,,1,None,Z,False,None,,,,,
n-back,,,,129,5,,,,1,1.2555287499999395,B,True,1,,,,,
n-back,,,,130,5,,,,1,None,X,False,None,,,,,
n-back,,,,131,5,,,,1,None,V,False,None,,,,,
n-back,,,,132,5,,,,1,None,N,False,None,,,,,
n-back,,,,133,5,,,,0,1.167077625001184,Z,False,1,,,,,
n-back,,,,134,5,,,,1,None,C,False,None,,,,,
n-back,,,,135,5,,,,1,0.4194461660008528,Z,True,1,,,,,
n-back,,,,136,5,,,,1,None,N,False,None,,,,,
n-back,,,,137,5,,,,1,0.7570960840002954,Z,True,1,,,,,
n-back,,,,138,5,,,,1,None,C,False,None,,,,,
n-back,,,,139,5,,,,1,None,N,False,None,,,,,
n-back,,,,140,5,,,,1,None,V,False,None,,,,,
n-back,,,,141,5,,,,1,None,B,False,None,,,,,
n-back,,,,142,5,,,,1,None,B,False,None,,,,,
n-back,,,,143,5,,,,1,0.48109316599948215,B,True,1,,,,,
n-back,,,,144,5,,,,1,None,N,False,None,,,,,
n-back,,,,145,5,,,,1,None,N,False,None,,,,,
n-back,,,,146,5,,,,1,None,Z,False,None,,,,,
n-back,,,,147,5,,,,0,None,N,True,None,,,,,
n-back,,,,148,5,,,,1,None,V,False,None,,,,,
n-back,,,,149,5,,,,1,0.6837784580002335,N,True,1,,,,,
n-back,,,,150,5,,,,1,None,Z,False,None,,,,,
choice,fixation,133.44457087500086,134.19913779200033,33,5,,,,,,,,,Object,,,,
choice,option,134.20789695799976,135.23245229200074,33,5,,,,,,,,,Object,,,,
choice,choice,135.23259233300087,139.8808505830002,33,5,,,1,1,3.6384112080013438,,,,Object,,,,
choice,fixation,139.88108637500045,141.38629712500006,34,5,,,,,,,,,Pattern,,,,
choice,option,141.39562179200038,142.421279958,34,5,,,,,,,,,Pattern,,,,
choice,choice,142.4214620420007,152.81910554200113,34,5,,,2,1,9.387209374999657,,,,Pattern,,,,
choice,fixation,152.8192433330005,153.8240955000001,35,5,,,,,,,,,Small,,,,
choice,option,153.8334302080002,154.86093274999985,35,5,,,,,,,,,Small,,,,
choice,choice,154.86105233300077,178.65987045800102,35,5,,,2,0,22.788022499998988,,,,Small,,,,
choice,fixation,178.66000254200117,179.16499408300115,36,5,,,,,,,,,Land,,,,
choice,option,179.17348191699966,180.20039416700092,36,5,,,,,,,,,Land,,,,
choice,choice,180.2005135420004,184.97835108300023,36,5,,,1,0,3.7667772919994604,,,,Land,,,,
choice,fixation,184.9784803750008,185.98343733300135,37,5,,,,,,,,,Animal,,,,
choice,option,185.99300700000094,187.01962687500054,37,5,,,,,,,,,Animal,,,,
choice,choice,187.01974970800075,216.84599450000132,37,5,,,1,0,28.81564462499955,,,,Animal,,,,
choice,fixation,216.84612587500123,217.8511417919999,38,5,,,,,,,,,Sea,,,,
choice,option,217.85967762499968,218.88598212500074,38,5,,,,,,,,,Sea,,,,
choice,choice,218.88610658300058,227.2027989170001,38,5,,,2,0,7.306493209000109,,,,Sea,,,,
choice,fixation,227.20296233299996,228.4579301670001,39,5,,,,,,,,,Large,,,,
choice,option,228.46670133299995,229.4932253750012,39,5,,,,,,,,,Large,,,,
choice,choice,229.49334216700117,232.40198387500095,39,5,,,1,0,1.89895924999837,,,,Large,,,,
choice,fixation,232.40212416699978,233.90757804200075,40,5,,,,,,,,,Solid,,,,
choice,option,233.91685020800105,234.94254291700054,40,5,,,,,,,,,Solid,,,,
choice,choice,234.94267045800007,251.6269105829997,40,5,,,2,0,15.673673999999664,,,,Solid,,,,
memory,free_recall,263.18891908300066,292.37282420799966,24,5,,,,,,,,,,,,,
memory,value_recall,295.59659141700104,300.24015487500037,25,5,Animal_Land_Pattern_Large,,,,4.638925332999861,,,,,-7,,,
memory,value_recall,301.5353492080012,306.6275209579999,26,5,Object_Land_Solid_Large,,,,5.086387457999081,,,,,-6,,,
memory,value_recall,307.67245679200096,311.15789204199973,27,5,Object_Sea_Solid_Small,,,,3.4829170840002917,,,,,-2,,,
memory,value_recall,312.9538221670009,322.6847180830009,28,5,Animal_Sea_Solid_Small,,,,9.726839874998404,,,,,9,,,
memory,value_recall,324.73280333300136,327.4127706670006,29,5,Object_Land_Pattern_Large,,,,2.675831582999308,,,,,9,,,
memory,value_recall,329.2080591670001,335.11702262499966,30,5,Animal_Sea_Pattern_Small,,,,5.9050270000007,,,,,-4,,,
memory,spatial_recall,339.7024000420006,343.81214179200106,30,5,Animal_Sea_Pattern_Small,,,1,4.105353124999965,,,,,,"[-329, 190]","[-329, 190]",
memory,spatial_recall,345.8743645000013,350.49602270800096,30,5,Object_Land_Solid_Large,,,1,4.617611374998887,,,,,,"[0, 380]","[0, 380]",
memory,spatial_recall,352.30314974999965,355.4431779580009,30,5,Object_Sea_Solid_Small,,,1,3.136028749999241,,,,,,"[329, 189]","[329, 189]",
memory,spatial_recall,357.0092062500007,360.37823262500024,30,5,Animal_Sea_Solid_Small,,,1,3.3650473750003584,,,,,,"[329, -190]","[329, -190]",
memory,spatial_recall,361.69667483299963,362.8967508330006,30,5,Object_Land_Pattern_Large,,,1,1.1961183749990596,,,,,,"[-329, -190]","[-329, -190]",
memory,spatial_recall,364.7095402920004,366.8116301250011,30,5,Animal_Land_Pattern_Large,,,1,2.098109584001577,,,,,,"[0, -380]","[0, -380]",
encoding,fixation,3.5545387500005745,5.061677333000262,31,6,Animal_Land_Solid_Small,2,,,,,,,,,,,
encoding,image,5.061819999998988,6.078120083000613,31,6,Animal_Land_Solid_Small,2,,,,,,,,,,,
encoding,value,6.078225625000414,12.095279249999294,31,6,Animal_Land_Solid_Small,2,,,,,,,,,,,
encoding,attention,12.095415665999099,15.115504166000392,31,6,Animal_Land_Solid_Small,2,+2,1,0.9231299170005514,,,,,,,,
encoding,fixation,15.115658749999056,16.120718374999342,32,6,Object_Sea_Solid_Large,3,,,,,,,,,,,
encoding,image,16.120842082998934,17.132537749999756,32,6,Object_Sea_Solid_Large,3,,,,,,,,,,,
encoding,value,17.132659999999305,23.144995999999082,32,6,Object_Sea_Solid_Large,3,,,,,,,,,,,
encoding,attention,23.145120625000345,26.1639460410006,32,6,Object_Sea_Solid_Large,3,+3,1,1.170980791999682,,,,,,,,
encoding,fixation,26.164095791000364,27.16973287499968,33,6,Animal_Land_Pattern_Small,1,,,,,,,,,,,
encoding,image,27.169848583000203,28.180131957999038,33,6,Animal_Land_Pattern_Small,1,,,,,,,,,,,
encoding,value,28.18024504099958,34.1941512909998,33,6,Animal_Land_Pattern_Small,1,,,,,,,,,,,
encoding,attention,34.1943095000006,37.21070024999972,33,6,Animal_Land_Pattern_Small,1,+1,1,0.8044336250004562,,,,,,,,
encoding,fixation,37.21085579099963,37.96613320799952,34,6,Object_Land_Solid_Small,-9,,,,,,,,,,,
encoding,image,37.96621849999974,38.97744679099924,34,6,Object_Land_Solid_Small,-9,,,,,,,,,,,
encoding,value,38.97759112499989,44.98942725000052,34,6,Object_Land_Solid_Small,-9,,,,,,,,,,,
encoding,attention,44.989548290999664,48.0066269580002,34,6,Object_Land_Solid_Small,-9,-9,1,0.9533185410000442,,,,,,,,
encoding,fixation,48.00677983300011,48.76215899999988,35,6,Animal_Sea_Pattern_Large,-9,,,,,,,,,,,
encoding,image,48.76227791599922,49.772441749999416,35,6,Animal_Sea_Pattern_Large,-9,,,,,,,,,,,
encoding,value,49.77261379099946,55.7829896660005,35,6,Animal_Sea_Pattern_Large,-9,,,,,,,,,,,
encoding,attention,55.783131582998976,58.79946112499965,35,6,Animal_Sea_Pattern_Large,-9,-9,1,1.0002873749999708,,,,,,,,
encoding,fixation,58.79960779099929,59.553992875000404,36,6,Object_Sea_Pattern_Large,7,,,,,,,,,,,
encoding,image,59.55421050000041,60.56592187500064,36,6,Object_Sea_Pattern_Large,7,,,,,,,,,,,
encoding,value,60.566091874999984,66.57789687500008,36,6,Object_Sea_Pattern_Large,7,,,,,,,,,,,
encoding,attention,66.57802408299904,69.59498308299953,36,6,Object_Sea_Pattern_Large,7,+7,1,0.4912860830008867,,,,,,,,
n-back,,,,151,6,,,,1,None,X,False,None,,,,,
n-back,,,,152,6,,,,0,None,X,True,None,,,,,
n-back,,,,153,6,,,,1,0.41607979199943657,X,True,1,,,,,
n-back,,,,154,6,,,,1,None,N,False,None,,,,,
n-back,,,,155,6,,,,1,0.9078122079990862,X,True,1,,,,,
n-back,,,,156,6,,,,1,None,C,False,None,,,,,
n-back,,,,157,6,,,,1,0.6821840419997898,X,True,1,,,,,
n-back,,,,158,6,,,,0,None,C,True,None,,,,,
n-back,,,,159,6,,,,0,None,X,True,None,,,,,
n-back,,,,160,6,,,,1,None,V,False,None,,,,,
n-back,,,,161,6,,,,1,None,C,False,None,,,,,
n-back,,,,162,6,,,,1,None,Z,False,None,,,,,
n-back,,,,163,6,,,,1,None,Z,False,None,,,,,
n-back,,,,164,6,,,,1,None,B,False,None,,,,,
n-back,,,,165,6,,,,1,None,V,False,None,,,,,
n-back,,,,166,6,,,,1,1.3937282080005389,B,True,1,,,,,
n-back,,,,167,6,,,,1,None,Z,False,None,,,,,
n-back,,,,168,6,,,,1,None,X,False,None,,,,,
n-back,,,,169,6,,,,1,0.4572226660002343,Z,True,1,,,,,
n-back,,,,170,6,,,,1,None,B,False,None,,,,,
n-back,,,,171,6,,,,1,None,X,False,None,,,,,
n-back,,,,172,6,,,,1,None,V,False,None,,,,,
n-back,,,,173,6,,,,0,0.9242777090003074,B,False,1,,,,,
n-back,,,,174,6,,,,1,None,X,False,None,,,,,
n-back,,,,175,6,,,,1,None,C,False,None,,,,,
n-back,,,,176,6,,,,0,None,X,True,None,,,,,
n-back,,,,177,6,,,,1,0.49628087500059337,C,True,1,,,,,
n-back,,,,178,6,,,,1,None,N,False,None,,,,,
n-back,,,,179,6,,,,1,None,X,False,None,,,,,
n-back,,,,180,6,,,,1,None,V,False,None,,,,,
choice,fixation,130.1148164999995,131.11982591599917,41,6,,,,,,,,,Large,,,,
choice,option,131.12865695800065,132.15487137499986,41,6,,,,,,,,,Large,,,,
choice,choice,132.15498062500046,157.40140337499906,41,6,,,1,1,24.23490504199981,,,,Large,,,,
choice,fixation,157.4015500000005,158.15678787499928,42,6,,,,,,,,,Solid,,,,
choice,option,158.1668732500002,159.1937624580005,42,6,,,,,,,,,Solid,,,,
choice,choice,159.1938882079994,165.48054587499973,42,6,,,2,1,5.277160499999809,,,,Solid,,,,
choice,fixation,165.48068674999922,166.9855470829989,43,6,,,,,,,,,Object,,,,
choice,option,166.99467324999932,168.02066670800014,43,6,,,,,,,,,Object,,,,
choice,choice,168.02077887499945,199.74384995800028,43,6,,,2,0,30.71141554099995,,,,Object,,,,
choice,fixation,199.74398875000043,201.24895804100015,44,6,,,,,,,,,Pattern,,,,
choice,option,201.2580692499996,202.28397108299941,44,6,,,,,,,,,Pattern,,,,
choice,choice,202.28409341599945,217.0233412079997,44,6,,,2,1,13.72891887500009,,,,Pattern,,,,
choice,fixation,217.02349074999984,217.77852499999972,45,6,,,,,,,,,Land,,,,
choice,option,217.7872696659997,218.8133244159999,45,6,,,,,,,,,Land,,,,
choice,choice,218.81344187499963,244.60129429100016,45,6,,,2,1,24.776591374999043,,,,Land,,,,
choice,fixation,244.60142995800015,246.1065077080002,46,6,,,,,,,,,Small,,,,
choice,option,246.11590166600035,247.1427783750005,46,6,,,,,,,,,Small,,,,
choice,choice,247.14289891599947,255.61007533299926,46,6,,,2,1,7.455234458000632,,,,Small,,,,
choice,fixation,255.61020850000023,256.1152097079994,47,6,,,,,,,,,Sea,,,,
choice,option,256.1239504999994,257.1500982079997,47,6,,,,,,,,,Sea,,,,
choice,choice,257.1502166249993,270.93191995800044,47,6,,,2,0,12.770917249999911,,,,Sea,,,,
choice,fixation,270.9320472500003,272.18726375000006,48,6,,,,,,,,,Animal,,,,
choice,option,272.19646091600043,273.22309658300037,48,6,,,,,,,,,Animal,,,,
choice,choice,273.22320820799905,304.0323607499995,48,6,,,2,1,29.798626166999384,,,,Animal,,,,
memory,free_recall,312.2173130409992,331.6186135829994,30,6,,,,,,,,,,,,,
memory,value_recall,335.345697666,340.509382582999,31,6,Animal_Land_Pattern_Small,,,,5.159595249999256,,,,,1,,,
memory,value_recall,342.3058092909996,346.23516650000056,32,6,Object_Sea_Pattern_Large,,,,3.9252993330010213,,,,,7,,,
memory,value_recall,348.27961912499995,350.5625679999994,33,6,Object_Sea_Solid_Large,,,,2.2788175839996256,,,,,3,,,
memory,value_recall,351.85846829100046,354.10787279099895,34,6,Animal_Sea_Pattern_Large,,,,2.245111457999883,,,,,-9,,,
memory,value_recall,355.4025031660003,357.3301413749996,35,6,Object_Land_Solid_Small,,,,1.9207642500005022,,,,,-9,,,
memory,value_recall,358.87709987500057,364.9550545000002,36,6,Animal_Land_Solid_Small,,,,6.073968082999272,,,,,2,,,
memory,spatial_recall,368.38004983300016,371.2442221250003,36,6,Object_Sea_Solid_Large,,,1,2.859809124998719,,,,,,"[329, 189]","[329, 189]",
memory,spatial_recall,372.3029150829989,374.01366858300025,36,6,Object_Sea_Pattern_Large,,,1,1.7061125420004828,,,,,,"[-329, 190]","[-329, 190]",
memory,spatial_recall,375.3296241659991,376.9974486249994,36,6,Object_Land_Solid_Small,,,1,1.6639128750011878,,,,,,"[0, -380]","[0, -380]",
memory,spatial_recall,379.0638643330003,380.9648162909998,36,6,Animal_Land_Pattern_Small,,,1,1.896556249999776,,,,,,"[329, -190]","[329, -190]",
memory,spatial_recall,382.7790968749996,386.14438495799914,36,6,Animal_Land_Solid_Small,,,1,3.3610552919999463,,,,,,"[-329, -190]","[-329, -190]",
memory,spatial_recall,387.20524549999936,389.6642177909998,36,6,Animal_Sea_Pattern_Large,,,1,2.454844124998999,,,,,,"[0, 380]","[0, 380]",
encoding,fixation,4.34922912500042,5.60550670900011,37,7,Object_Sea_Pattern_Small,6,,,,,,,,,,,
encoding,image,5.605618084000525,6.61799741699906,37,7,Object_Sea_Pattern_Small,6,,,,,,,,,,,
encoding,value,6.618137542000113,12.631541583999933,37,7,Object_Sea_Pattern_Small,6,,,,,,,,,,,
encoding,attention,12.63166533399999,15.64942499999961,37,7,Object_Sea_Pattern_Small,6,+6,1,0.6726747079992492,,,,,,,,
encoding,fixation,15.649582124999142,16.654800374999468,38,7,Animal_Sea_Pattern_Small,-1,,,,,,,,,,,
encoding,image,16.654977166999743,17.66727070900015,38,7,Animal_Sea_Pattern_Small,-1,,,,,,,,,,,
encoding,value,17.667388292000396,23.680062834000637,38,7,Animal_Sea_Pattern_Small,-1,,,,,,,,,,,
encoding,attention,23.680194500000653,26.69777541700023,38,7,Animal_Sea_Pattern_Small,-1,-1,1,0.7605820419994416,,,,,,,,
encoding,fixation,26.697955874999025,27.203158541999073,39,7,Object_Land_Pattern_Large,-1,,,,,,,,,,,
encoding,image,27.203262125000037,28.214641709000716,39,7,Object_Land_Pattern_Large,-1,,,,,,,,,,,
encoding,value,28.214755958999376,34.23033704199952,39,7,Object_Land_Pattern_Large,-1,,,,,,,,,,,
encoding,attention,34.230460000000676,37.249832292000065,39,7,Object_Land_Pattern_Large,-1,-1,1,0.7047777089992451,,,,,,,,
encoding,fixation,37.25006291699901,38.75537191699914,40,7,Animal_Sea_Solid_Small,-3,,,,,,,,,,,
encoding,image,38.75552945900017,39.766873500000656,40,7,Animal_Sea_Solid_Small,-3,,,,,,,,,,,
encoding,value,39.76706012499926,45.77939666699967,40,7,Animal_Sea_Solid_Small,-3,,,,,,,,,,,
encoding,attention,45.779514084000766,48.796651459000714,40,7,Animal_Sea_Solid_Small,-3,-3,1,0.6773128339991672,,,,,,,,
encoding,fixation,48.79680791700048,49.80196362499919,41,7,Object_Land_Solid_Large,-4,,,,,,,,,,,
encoding,image,49.80206499999986,50.81210041700069,41,7,Object_Land_Solid_Large,-4,,,,,,,,,,,
encoding,value,50.812306874999194,56.823682750000444,41,7,Object_Land_Solid_Large,-4,,,,,,,,,,,
encoding,attention,56.82381295899904,59.83978324999953,41,7,Object_Land_Solid_Large,-4,-4,1,0.8663486250006827,,,,,,,,
encoding,fixation,59.83995420899919,60.84568562499953,42,7,Animal_Land_Solid_Large,9,,,,,,,,,,,
encoding,image,60.84582816699913,61.8576465419992,42,7,Animal_Land_Solid_Large,9,,,,,,,,,,,
encoding,value,61.85776937499941,67.86939783399976,42,7,Animal_Land_Solid_Large,9,,,,,,,,,,,
encoding,attention,67.86951591700017,70.88631591699959,42,7,Animal_Land_Solid_Large,9,+9,1,0.5803434159988683,,,,,,,,
n-back,,,,181,7,,,,1,None,C,False,None,,,,,
n-back,,,,182,7,,,,1,None,V,False,None,,,,,
n-back,,,,183,7,,,,1,None,B,False,None,,,,,
n-back,,,,184,7,,,,1,None,C,False,None,,,,,
n-back,,,,185,7,,,,1,0.553324958000303,B,True,1,,,,,
n-back,,,,186,7,,,,1,None,N,False,None,,,,,
n-back,,,,187,7,,,,1,None,N,False,None,,,,,
n-back,,,,188,7,,,,1,None,C,False,None,,,,,
n-back,,,,189,7,,,,1,0.5855808329997672,N,True,1,,,,,
n-back,,,,190,7,,,,1,0.7557799999995041,C,True,1,,,,,
n-back,,,,191,7,,,,1,None,C,False,None,,,,,
n-back,,,,192,7,,,,1,0.5050735830009216,C,True,1,,,,,
n-back,,,,193,7,,,,1,None,X,False,None,,,,,
n-back,,,,194,7,,,,1,None,Z,False,None,,,,,
n-back,,,,195,7,,,,1,0.6502156249989639,X,True,1,,,,,
n-back,,,,196,7,,,,0,None,Z,True,None,,,,,
n-back,,,,197,7,,,,1,0.8365028340012941,X,True,1,,,,,
n-back,,,,198,7,,,,1,None,C,False,None,,,,,
n-back,,,,199,7,,,,1,None,Z,False,None,,,,,
n-back,,,,200,7,,,,1,None,N,False,None,,,,,
n-back,,,,201,7,,,,1,None,C,False,None,,,,,
n-back,,,,202,7,,,,1,None,X,False,None,,,,,
n-back,,,,203,7,,,,1,None,N,False,None,,,,,
n-back,,,,204,7,,,,1,None,B,False,None,,,,,
n-back,,,,205,7,,,,1,None,B,False,None,,,,,
n-back,,,,206,7,,,,1,0.6911176669982524,B,True,1,,,,,
n-back,,,,207,7,,,,1,None,Z,False,None,,,,,
n-back,,,,208,7,,,,1,None,Z,False,None,,,,,
n-back,,,,209,7,,,,1,0.492073707999225,Z,True,1,,,,,
n-back,,,,210,7,,,,1,1.0062421250004263,Z,True,1,,,,,
choice,fixation,131.2309058339997,132.48567529200045,49,7,,,,,,,,,Small,,,,
choice,option,132.494747834,133.52166662499985,49,7,,,,,,,,,Small,,,,
choice,choice,133.521866916999,147.12358175000008,49,7,,,2,0,12.58745799999997,,,,Small,,,,
choice,fixation,147.1237207920003,148.62989912500052,50,7,,,,,,,,,Pattern,,,,
choice,option,148.6388300840008,149.66454483400048,50,7,,,,,,,,,Pattern,,,,
choice,choice,149.6646657500005,165.04496083400045,50,7,,,2,0,14.368854124999416,,,,Pattern,,,,
choice,fixation,165.0450824590007,166.299919916999,51,7,,,,,,,,,Solid,,,,
choice,option,166.30930408399945,167.33491312499973,51,7,,,,,,,,,Solid,,,,
choice,choice,167.33502579199921,189.21869158399932,51,7,,,2,0,20.872824084000968,,,,Solid,,,,
choice,fixation,189.21883841700037,189.72381558400048,52,7,,,,,,,,,Land,,,,
choice,option,189.73264824999933,190.759832583999,52,7,,,,,,,,,Land,,,,
choice,choice,190.75994733399966,208.15059487500002,52,7,,,1,1,16.38004125000043,,,,Land,,,,
choice,fixation,208.15072733399938,208.65595370899973,53,7,,,,,,,,,Sea,,,,
choice,option,208.66447079200043,209.69042545899902,53,7,,,,,,,,,Sea,,,,
choice,choice,209.6905702919994,229.50276679200033,53,7,,,2,0,18.80155920800098,,,,Sea,,,,
choice,fixation,229.50289545899977,230.00803687500047,54,7,,,,,,,,,Animal,,,,
choice,option,230.01731579199986,231.04460879199905,54,7,,,,,,,,,Animal,,,,
choice,choice,231.04473070899985,243.82740591699985,54,7,,,1,1,11.771973499999149,,,,Animal,,,,
choice,fixation,243.82752979199904,245.33262916700005,55,7,,,,,,,,,Object,,,,
choice,option,245.34197083400068,246.36859133399957,55,7,,,,,,,,,Object,,,,
choice,choice,246.36872308400052,255.6309805839992,55,7,,,2,0,8.248313916999905,,,,Object,,,,
choice,fixation,255.6311158339995,256.38599366699964,56,7,,,,,,,,,Large,,,,
choice,option,256.3950976670003,257.42217616699963,56,7,,,,,,,,,Large,,,,
choice,choice,257.4222931250006,275.7708332919992,56,7,,,2,0,17.334064582999417,,,,Large,,,,
memory,free_recall,284.30945420900025,310.4374313339995,36,7,,,,,,,,,,,,,
memory,value_recall,315.8984820839996,322.88447275,37,7,Object_Land_Solid_Large,,,,6.981867417000103,,,,,-4,,,
memory,value_recall,324.93190374999904,328.6374879590003,38,7,Animal_Land_Solid_Large,,,,3.7014608339995902,,,,,9,,,
memory,value_recall,330.6827104589993,340.20559383399996,39,7,Animal_Sea_Solid_Small,,,,9.517801624999265,,,,,-3,,,
memory,value_recall,341.50425662499947,352.37971595899944,40,7,Object_Sea_Pattern_Small,,,,10.871368666999842,,,,,6,,,
memory,value_recall,354.4257386249992,358.9160461669999,41,7,Object_Land_Pattern_Large,,,,4.486125291999997,,,,,-1,,,
memory,value_recall,360.96164420899913,366.9818187919991,42,7,Animal_Sea_Pattern_Small,,,,6.016022958001486,,,,,-1,,,
memory,spatial_recall,369.1232747089998,370.8676917089997,42,7,Animal_Land_Solid_Large,,,1,1.7402987919995212,,,,,,"[329, 189]","[329, 189]",
memory,spatial_recall,371.9335550420001,373.9661485840006,42,7,Object_Sea_Pattern_Small,,,1,2.030224583000745,,,,,,"[0, -380]","[0, -380]",
memory,spatial_recall,375.5309026670002,380.65112362500076,42,7,Object_Land_Solid_Large,,,1,5.1163163330002135,,,,,,"[0, 380]","[0, 380]",
memory,spatial_recall,381.71782712499953,385.3660485420005,42,7,Object_Land_Pattern_Large,,,1,3.645526374999463,,,,,,"[-329, -190]","[-329, -190]",
memory,spatial_recall,386.9326482920005,392.00138912500006,42,7,Animal_Sea_Solid_Small,,,1,5.064901874999123,,,,,,"[329, -190]","[329, -190]",
memory,spatial_recall,393.3160022920001,396.46239929200055,42,7,Animal_Sea_Pattern_Small,,,1,3.142538333999255,,,,,,"[-329, 190]","[-329, 190]",
