phase,event,onset,offset,trial_number,game,image,outcome,choice,correct,rt,letter,match,response,option,true_value,true_position,recalled_position,
encoding,fixation,14.90624787507113,15.916600208031014,1,1,Object_Land_Pattern_Small,9,,,,,,,,,,,
encoding,image,15.916725750081241,16.9367173750652,1,1,Object_Land_Pattern_Small,9,,,,,,,,,,,
encoding,value,16.936822333023883,22.953815833083354,1,1,Object_Land_Pattern_Small,9,,,,,,,,,,,
encoding,attention,22.953932958072983,25.974952000076883,1,1,Object_Land_Pattern_Small,9,+9,1,0.8973556250566617,,,,,,,,
encoding,fixation,25.975105292047374,27.230474875075743,2,1,Animal_Sea_Pattern_Small,-6,,,,,,,,,,,
encoding,image,27.230638707987964,28.24232016701717,2,1,Animal_Sea_Pattern_Small,-6,,,,,,,,,,,
encoding,value,28.242421042057686,34.253648333018646,2,1,Animal_Sea_Pattern_Small,-6,,,,,,,,,,,
encoding,attention,34.25377504201606,37.27469433308579,2,1,Animal_Sea_Pattern_Small,-6,-6,1,0.6460412080632523,,,,,,,,
encoding,fixation,37.27483716700226,38.53011620801408,3,1,Object_Sea_Solid_Large,2,,,,,,,,,,,
encoding,image,38.5302806670079,39.54185879207216,3,1,Object_Sea_Solid_Large,2,,,,,,,,,,,
encoding,value,39.54199754202273,45.553920042002574,3,1,Object_Sea_Solid_Large,2,,,,,,,,,,,
encoding,attention,45.55404258298222,48.57510845805518,3,1,Object_Sea_Solid_Large,2,+2,1,1.2074923750478774,,,,,,,,
encoding,fixation,48.575251792091876,49.08021604199894,4,1,Object_Land_Pattern_Large,-2,,,,,,,,,,,
encoding,image,49.080323000089265,50.09237529209349,4,1,Object_Land_Pattern_Large,-2,,,,,,,,,,,
encoding,value,50.092484833090566,56.104922124999575,4,1,Object_Land_Pattern_Large,-2,,,,,,,,,,,
encoding,attention,56.10504375002347,59.12464416702278,4,1,Object_Land_Pattern_Large,-2,-2,1,0.6327755420934409,,,,,,,,
encoding,fixation,59.12479495804291,60.13132329203654,5,1,Animal_Land_Solid_Small,-9,,,,,,,,,,,
encoding,image,60.13144095800817,61.143810583045706,5,1,Animal_Land_Solid_Small,-9,,,,,,,,,,,
encoding,value,61.14392091706395,67.15448554197792,5,1,Animal_Land_Solid_Small,-9,,,,,,,,,,,
encoding,attention,67.15460300003178,70.23511604208034,5,1,Animal_Land_Solid_Small,-9,-9,1,0.6123150000348687,,,,,,,,
encoding,fixation,70.23527062498033,71.49109350005165,6,1,Animal_Sea_Solid_Large,2,,,,,,,,,,,
encoding,image,71.49119783309288,72.50485100003425,6,1,Animal_Sea_Solid_Large,2,,,,,,,,,,,
encoding,value,72.50494162505493,78.5206141670933,6,1,Animal_Sea_Solid_Large,2,,,,,,,,,,,
encoding,attention,78.52072120807134,81.53845154203009,6,1,Animal_Sea_Solid_Large,2,+2,1,0.8212403749348596,,,,,,,,
n-back,,,,1,1,,,,1,None,Z,False,None,,,,,
n-back,,,,2,1,,,,0,None,N,True,None,,,,,
n-back,,,,3,1,,,,1,None,B,False,None,,,,,
n-back,,,,4,1,,,,1,None,V,False,None,,,,,
n-back,,,,5,1,,,,1,None,X,False,None,,,,,
n-back,,,,6,1,,,,1,None,Z,False,None,,,,,
n-back,,,,7,1,,,,1,None,B,False,None,,,,,
n-back,,,,8,1,,,,1,None,N,False,None,,,,,
n-back,,,,9,1,,,,1,0.6116993330651894,B,True,1,,,,,
n-back,,,,10,1,,,,1,None,Z,False,None,,,,,
n-back,,,,11,1,,,,0,None,B,True,None,,,,,
n-back,,,,12,1,,,,1,None,B,False,None,,,,,
n-back,,,,13,1,,,,1,None,Z,False,None,,,,,
n-back,,,,14,1,,,,1,None,C,False,None,,,,,
n-back,,,,15,1,,,,0,None,Z,True,None,,,,,
n-back,,,,16,1,,,,1,None,V,False,None,,,,,
n-back,,,,17,1,,,,1,None,B,False,None,,,,,
n-back,,,,18,1,,,,0,None,V,True,None,,,,,
n-back,,,,19,1,,,,0,None,B,True,None,,,,,
n-back,,,,20,1,,,,0,None,V,True,None,,,,,
n-back,,,,21,1,,,,1,None,Z,False,None,,,,,
n-back,,,,22,1,,,,1,None,Z,False,None,,,,,
n-back,,,,23,1,,,,1,1.078913916950114,Z,True,1,,,,,
n-back,,,,24,1,,,,1,None,X,False,None,,,,,
n-back,,,,25,1,,,,0,None,Z,True,None,,,,,
n-back,,,,26,1,,,,1,None,N,False,None,,,,,
n-back,,,,27,1,,,,1,None,B,False,None,,,,,
n-back,,,,28,1,,,,1,None,Z,False,None,,,,,
n-back,,,,29,1,,,,1,0.9277490420499817,B,True,1,,,,,
n-back,,,,30,1,,,,1,None,V,False,None,,,,,
choice,fixation,175.53852870804258,176.79473241697997,1,1,,,,,,,,,Large,,,,
choice,option,176.80390104209073,177.93704829202034,1,1,,,,,,,,,Large,,,,
choice,choice,177.93718133307993,196.01014037500136,1,1,,,1,1,17.061374499928206,,,,Large,,,,
choice,fixation,196.0102710829815,197.51557370799128,2,1,,,,,,,,,Solid,,,,
choice,option,197.52507766708732,198.55403154203668,2,1,,,,,,,,,Solid,,,,
choice,choice,198.55415312503465,211.16207150008995,2,1,,,2,1,11.59739508293569,,,,Solid,,,,
choice,fixation,211.1622058750363,211.66729691706132,3,1,,,,,,,,,Land,,,,
choice,option,211.67670499999076,212.70336304209195,3,1,,,,,,,,,Land,,,,
choice,choice,212.70348179200664,219.5118474169867,3,1,,,2,1,5.798858999973163,,,,Land,,,,
choice,fixation,219.51197029207833,220.51689895801246,4,1,,,,,,,,,Sea,,,,
choice,option,220.52551762503572,221.55411383300088,4,1,,,,,,,,,Sea,,,,
choice,choice,221.55424233304802,231.82618320803158,4,1,,,1,0,9.262546250014566,,,,Sea,,,,
choice,fixation,231.82630645798054,233.08183908299543,5,1,,,,,,,,,Animal,,,,
choice,option,233.09151391708292,234.11956983304117,5,1,,,,,,,,,Animal,,,,
choice,choice,234.1196746249916,245.34430558304302,5,1,,,1,0,10.21451983298175,,,,Animal,,,,
choice,fixation,245.34451262501534,246.59955554199405,6,1,,,,,,,,,Pattern,,,,
choice,option,246.60923445806839,247.63682608306408,6,1,,,,,,,,,Pattern,,,,
choice,choice,247.63694887503516,261.2117937920848,6,1,,,2,0,12.563829999999143,,,,Pattern,,,,
choice,fixation,261.21193062502425,262.71729208307806,7,1,,,,,,,,,Object,,,,
choice,option,262.7270717920037,263.75432016700506,7,1,,,,,,,,,Object,,,,
choice,choice,263.754437042051,274.56551033305004,7,1,,,1,1,9.80157733289525,,,,Object,,,,
choice,fixation,274.5656557499897,275.5707780000521,8,1,,,,,,,,,Small,,,,
choice,option,275.57966158306226,276.60606625000946,8,1,,,,,,,,,Small,,,,
choice,choice,276.6061851250706,281.7413330420386,8,1,,,1,0,4.125786749995314,,,,Small,,,,
memory,free_recall,333.0038082919782,374.00206495798193,0,1,,,,,,,,,,,,,
memory,value_recall,418.3251128330594,427.49069779203273,1,1,Object_Land_Pattern_Large,,,,9.161385958082974,,,,,-2,,,
memory,value_recall,428.7878765000496,438.6513961250894,2,1,Object_Sea_Solid_Large,,,,9.859527791966684,,,,,2,,,
memory,value_recall,440.19898233306594,448.85729766706936,3,1,Animal_Sea_Pattern_Small,,,,8.653588957968168,,,,,-6,,,
memory,value_recall,450.4035490420647,462.3763380830642,4,1,Animal_Sea_Solid_Large,,,,11.968689000001177,,,,,2,,,
memory,value_recall,463.423458125093,469.4528055420378,5,1,Animal_Land_Solid_Small,,,,6.025864124996588,,,,,-9,,,
memory,value_recall,470.99898533301894,481.57620941707864,6,1,Object_Land_Pattern_Small,,,,10.573083958006464,,,,,9,,,
memory,spatial_recall,502.03764375008177,505.53878637508024,6,1,Object_Land_Pattern_Large,,,1,3.4968461249955,,,,,,"[-329, -190]","[-329, -190]",
memory,spatial_recall,507.0970214580884,509.128819958074,6,1,Object_Land_Pattern_Small,,,1,2.0253327500540763,,,,,,"[0, -380]","[0, -380]",
memory,spatial_recall,510.4407436250476,512.4757590830559,6,1,Animal_Land_Solid_Small,,,1,2.0310347919585183,,,,,,"[-329, 190]","[-329, 190]",
memory,spatial_recall,513.7825592079898,516.1452367500169,6,1,Animal_Sea_Pattern_Small,,,1,2.358650124981068,,,,,,"[0, 380]","[0, 380]",
memory,spatial_recall,517.459436000092,518.9219755830709,6,1,Object_Sea_Solid_Large,,,1,1.458501624991186,,,,,,"[329, 189]","[329, 189]",
memory,spatial_recall,520.7295584169915,522.292242083,6,1,Animal_Sea_Solid_Large,,,1,1.557087125023827,,,,,,"[329, -190]","[329, -190]",
encoding,fixation,14.061180666089058,15.067399708088487,7,2,Animal_Sea_Pattern_Small,7,,,,,,,,,,,
encoding,image,15.067509416025132,16.07921229104977,7,2,Animal_Sea_Pattern_Small,7,,,,,,,,,,,
encoding,value,16.079328250023536,22.0951210410567,7,2,Animal_Sea_Pattern_Small,7,,,,,,,,,,,
encoding,attention,22.09524179098662,25.114508458063938,7,2,Animal_Sea_Pattern_Small,7,+7,1,0.7446038749767467,,,,,,,,
encoding,fixation,25.11470945808105,26.121026666020043,8,2,Object_Land_Solid_Small,-2,,,,,,,,,,,
encoding,image,26.12114929105155,27.13310287508648,8,2,Object_Land_Solid_Small,-2,,,,,,,,,,,
encoding,value,27.133207165985368,33.14600083301775,8,2,Object_Land_Solid_Small,-2,,,,,,,,,,,
encoding,attention,33.14612183300778,36.165338000049815,8,2,Object_Land_Solid_Small,-2,-2,1,0.6845798749709502,,,,,,,,
encoding,fixation,36.16548841597978,37.170898833079264,9,2,Object_Sea_Pattern_Large,9,,,,,,,,,,,
encoding,image,37.17100258299615,38.18138575006742,9,2,Object_Sea_Pattern_Large,9,,,,,,,,,,,
encoding,value,38.1814957910683,44.19343566603493,9,2,Object_Sea_Pattern_Large,9,,,,,,,,,,,
encoding,attention,44.19356158305891,47.21106616605539,9,2,Object_Sea_Pattern_Large,9,+9,1,0.8447619579965249,,,,,,,,
encoding,fixation,47.21121304098051,47.71648675005417,10,2,Object_Sea_Solid_Small,-4,,,,,,,,,,,
encoding,image,47.71659704099875,48.72708058299031,10,2,Object_Sea_Solid_Small,-4,,,,,,,,,,,
encoding,value,48.72722508304287,54.73820025008172,10,2,Object_Sea_Solid_Small,-4,,,,,,,,,,,
encoding,attention,54.73841025005095,57.754756750073284,10,2,Object_Sea_Solid_Small,-4,-4,1,1.060623792000115,,,,,,,,
encoding,fixation,57.75489258300513,59.01121995807625,11,2,Animal_Land_Solid_Large,9,,,,,,,,,,,
encoding,image,59.0113218750339,60.02334695798345,11,2,Animal_Land_Solid_Large,9,,,,,,,,,,,
encoding,value,60.02349220798351,66.03529975004494,11,2,Animal_Land_Solid_Large,9,,,,,,,,,,,
encoding,attention,66.03542233305052,69.0535708750831,11,2,Animal_Land_Solid_Large,9,+9,1,0.8666615419788286,,,,,,,,
encoding,fixation,69.05375395808369,70.06154608307406,12,2,Animal_Land_Pattern_Large,-9,,,,,,,,,,,
encoding,image,70.06169308302924,71.07260441605467,12,2,Animal_Land_Pattern_Large,-9,,,,,,,,,,,
encoding,value,71.07271162502002,77.08369574998505,12,2,Animal_Land_Pattern_Large,-9,,,,,,,,,,,
encoding,attention,77.08380437502638,80.10070829105098,12,2,Animal_Land_Pattern_Large,-9,-9,1,0.6056401669047773,,,,,,,,
n-back,,,,31,2,,,,1,None,Z,False,None,,,,,
n-back,,,,32,2,,,,1,None,X,False,None,,,,,
n-back,,,,33,2,,,,1,None,B,False,None,,,,,
n-back,,,,34,2,,,,1,None,C,False,None,,,,,
n-back,,,,35,2,,,,1,0.863713875063695,B,True,1,,,,,
n-back,,,,36,2,,,,1,None,B,False,None,,,,,
n-back,,,,37,2,,,,1,None,C,False,None,,,,,
n-back,,,,38,2,,,,1,None,Z,False,None,,,,,
n-back,,,,39,2,,,,1,0.5093948330031708,C,True,1,,,,,
n-back,,,,40,2,,,,1,0.9492783750174567,Z,True,1,,,,,
n-back,,,,41,2,,,,1,1.0687148749129847,C,True,1,,,,,
n-back,,,,42,2,,,,1,None,V,False,None,,,,,
n-back,,,,43,2,,,,1,0.9337329580448568,C,True,1,,,,,
n-back,,,,44,2,,,,1,None,Z,False,None,,,,,
n-back,,,,45,2,,,,1,None,V,False,None,,,,,
n-back,,,,46,2,,,,1,None,B,False,None,,,,,
n-back,,,,47,2,,,,1,0.44284104194957763,V,True,1,,,,,
n-back,,,,48,2,,,,1,0.8287867500912398,B,True,1,,,,,
n-back,,,,49,2,,,,1,None,X,False,None,,,,,
n-back,,,,50,2,,,,1,None,N,False,None,,,,,
n-back,,,,51,2,,,,1,0.5416865410516039,X,True,1,,,,,
n-back,,,,52,2,,,,0,0.7346697499742731,Z,False,1,,,,,
n-back,,,,53,2,,,,1,None,V,False,None,,,,,
n-back,,,,54,2,,,,1,None,B,False,None,,,,,
n-back,,,,55,2,,,,1,None,N,False,None,,,,,
n-back,,,,56,2,,,,1,None,V,False,None,,,,,
n-back,,,,57,2,,,,0,None,N,True,None,,,,,
n-back,,,,58,2,,,,1,0.8470644999761134,V,True,1,,,,,
n-back,,,,59,2,,,,1,None,B,False,None,,,,,
n-back,,,,60,2,,,,1,None,B,False,None,,,,,
choice,fixation,157.4668215410784,158.22127254109364,9,2,,,,,,,,,Object,,,,
choice,option,158.23070016608108,159.2571569160791,9,2,,,,,,,,,Object,,,,
choice,choice,159.25727945799008,168.53043612500187,9,2,,,1,1,8.263018541969359,,,,Object,,,,
choice,fixation,168.5305641660234,170.0356000000611,10,2,,,,,,,,,Animal,,,,
choice,option,170.0450277500786,171.07195816608146,10,2,,,,,,,,,Animal,,,,
choice,choice,171.07207737502176,185.3144990830915,10,2,,,1,1,13.231185916927643,,,,Animal,,,,
choice,fixation,185.31461833301,185.81992862501647,11,2,,,,,,,,,Large,,,,
choice,option,185.8288797910791,186.85540091607254,11,2,,,,,,,,,Large,,,,
choice,choice,186.8555659999838,191.4102398750838,11,2,,,2,0,3.544901166926138,,,,Large,,,,
choice,fixation,191.41035658307374,192.16540962504223,12,2,,,,,,,,,Sea,,,,
choice,option,192.17391550005414,193.2008014160674,12,2,,,,,,,,,Sea,,,,
choice,choice,193.2009043750586,198.17003933305386,12,2,,,1,1,3.959107083035633,,,,Sea,,,,
choice,fixation,198.1701873750426,199.67733295809012,13,2,,,,,,,,,Land,,,,
choice,option,199.68595266598277,200.7125029580202,13,2,,,,,,,,,Land,,,,
choice,choice,200.71260733308736,205.45094875001814,13,2,,,2,1,3.7283804579637945,,,,Land,,,,
choice,fixation,205.45107499998994,206.70627920806874,14,2,,,,,,,,,Pattern,,,,
choice,option,206.71565712499432,207.7426925000036,14,2,,,,,,,,,Pattern,,,,
choice,choice,207.74280037498102,211.0814455000218,14,2,,,2,0,2.3288253750652075,,,,Pattern,,,,
choice,fixation,211.081586791086,211.83649458305445,15,2,,,,,,,,,Small,,,,
choice,option,211.84575675008819,212.87190483300947,15,2,,,,,,,,,Small,,,,
choice,choice,212.87201866600662,219.50676420808304,15,2,,,1,1,5.6248422500211746,,,,Small,,,,
choice,fixation,219.50689754099585,220.01190241600852,16,2,,,,,,,,,Solid,,,,
choice,option,220.0210123329889,221.0473468330456,16,2,,,,,,,,,Solid,,,,
choice,choice,221.04745583306067,226.25005187501665,16,2,,,2,0,4.193187957978807,,,,Solid,,,,
memory,free_recall,245.07510162505787,274.0036752499873,6,2,,,,,,,,,,,,,
memory,value_recall,288.69062133308034,293.1254892080324,7,2,Object_Land_Solid_Small,,,,4.4305093749426305,,,,,-2,,,
memory,value_recall,294.1738929580897,307.0054202909814,8,2,Animal_Land_Solid_Large,,,,12.82829812495038,,,,,9,,,
memory,value_recall,308.30347737506963,316.78821612498723,9,2,Object_Sea_Pattern_Large,,,,8.480719042010605,,,,,9,,,
memory,value_recall,318.0863133330131,324.83754520805087,10,2,Object_Sea_Solid_Small,,,,6.747120167012326,,,,,-4,,,
memory,value_recall,326.13420833298005,338.65246020804625,11,2,Animal_Sea_Pattern_Small,,,,12.51399241690524,,,,,7,,,
memory,value_recall,340.2020188330207,350.0054165000329,12,2,Animal_Land_Pattern_Large,,,,9.799169707926922,,,,,-9,,,
memory,spatial_recall,362.3444110410055,365.5127876250772,12,2,Object_Land_Solid_Small,,,1,3.1644042499829084,,,,,,"[329, 189]","[329, 189]",
memory,spatial_recall,367.32238812500145,369.9865923750913,12,2,Animal_Land_Pattern_Large,,,1,2.6597587500000373,,,,,,"[329, -190]","[329, -190]",
memory,spatial_recall,371.7965853330679,373.5494451660197,12,2,Object_Sea_Solid_Small,,,1,1.7489128329325467,,,,,,"[-329, 190]","[-329, 190]",
memory,spatial_recall,375.60727537504863,377.4295643750811,12,2,Object_Sea_Pattern_Large,,,1,1.8183470419608057,,,,,,"[-329, -190]","[-329, -190]",
memory,spatial_recall,379.4861609580694,381.22955495805945,12,2,Animal_Sea_Pattern_Small,,,1,1.7363973329775035,,,,,,"[0, 380]","[0, 380]",
memory,spatial_recall,382.53656808298547,384.4461030000821,12,2,Animal_Land_Solid_Large,,,1,1.9022470830241218,,,,,,"[0, -380]","[0, -380]",
encoding,fixation,7.299088208004832,8.555366832995787,13,3,Animal_Land_Pattern_Small,-6,,,,,,,,,,,
encoding,image,8.555471167084761,9.566619666991755,13,3,Animal_Land_Pattern_Small,-6,,,,,,,,,,,
encoding,value,9.566732000093907,15.580093333031982,13,3,Animal_Land_Pattern_Small,-6,,,,,,,,,,,
encoding,attention,15.58023800002411,18.598571333102882,13,3,Animal_Land_Pattern_Small,-6,-6,1,0.8334614590276033,,,,,,,,
encoding,fixation,18.598712167004123,19.603757917066105,14,3,Object_Land_Solid_Large,1,,,,,,,,,,,
encoding,image,19.603864708100446,20.61461633304134,14,3,Object_Land_Solid_Large,1,,,,,,,,,,,
encoding,value,20.614723375067115,26.627072625095025,14,3,Object_Land_Solid_Large,1,,,,,,,,,,,
encoding,attention,26.627197167021222,29.64600662502926,14,3,Object_Land_Solid_Large,1,+1,1,0.7811365419765934,,,,,,,,
encoding,fixation,29.64619154203683,30.151801375090145,15,3,Animal_Sea_Solid_Small,9,,,,,,,,,,,
encoding,image,30.151958708069287,31.162795167067088,15,3,Animal_Sea_Solid_Small,9,,,,,,,,,,,
encoding,value,31.162969500059262,37.176569500006735,15,3,Animal_Sea_Solid_Small,9,,,,,,,,,,,
encoding,attention,37.17668370809406,40.193486875039525,15,3,Animal_Sea_Solid_Small,9,+9,1,0.6576754580019042,,,,,,,,
encoding,fixation,40.19373408309184,40.6989050420234,16,3,Animal_Sea_Pattern_Large,-5,,,,,,,,,,,
encoding,image,40.699004083056934,41.71030966704711,16,3,Animal_Sea_Pattern_Large,-5,,,,,,,,,,,
encoding,value,41.71049575007055,47.72139208309818,16,3,Animal_Sea_Pattern_Large,-5,,,,,,,,,,,
encoding,attention,47.72150066704489,50.738486000103876,16,3,Animal_Sea_Pattern_Large,-5,-5,1,0.7168974159285426,,,,,,,,
encoding,fixation,50.738640125025995,51.24470204208046,17,3,Object_Land_Pattern_Large,2,,,,,,,,,,,
encoding,image,51.24481425003614,52.25677745800931,17,3,Object_Land_Pattern_Large,2,,,,,,,,,,,
encoding,value,52.25692400010303,58.2700756250415,17,3,Object_Land_Pattern_Large,2,,,,,,,,,,,
encoding,attention,58.270186167093925,61.28827612509485,17,3,Object_Land_Pattern_Large,2,+2,1,0.7513602499384433,,,,,,,,
encoding,fixation,61.288420416996814,62.543602833058685,18,3,Object_Sea_Solid_Small,-9,,,,,,,,,,,
encoding,image,62.54371850006282,63.554628125042655,18,3,Object_Sea_Solid_Small,-9,,,,,,,,,,,
encoding,value,63.55473600002006,69.56611108302604,18,3,Object_Sea_Solid_Small,-9,,,,,,,,,,,
encoding,attention,69.56623291701544,72.58627525006887,18,3,Object_Sea_Solid_Small,-9,-9,1,0.6251189169706777,,,,,,,,
n-back,,,,61,3,,,,1,None,C,False,None,,,,,
n-back,,,,62,3,,,,1,None,V,False,None,,,,,
n-back,,,,63,3,,,,1,0.5081847499823198,C,True,1,,,,,
n-back,,,,64,3,,,,1,0.7571657079970464,V,True,1,,,,,
n-back,,,,65,3,,,,1,None,Z,False,None,,,,,
n-back,,,,66,3,,,,1,0.3679006249876693,V,True,1,,,,,
n-back,,,,67,3,,,,1,0.46184749994426966,Z,True,1,,,,,
n-back,,,,68,3,,,,1,None,N,False,None,,,,,
n-back,,,,69,3,,,,1,None,V,False,None,,,,,
n-back,,,,70,3,,,,1,None,V,False,None,,,,,
n-back,,,,71,3,,,,1,None,C,False,None,,,,,
n-back,,,,72,3,,,,1,None,C,False,None,,,,,
n-back,,,,73,3,,,,1,None,N,False,None,,,,,
n-back,,,,74,3,,,,1,None,N,False,None,,,,,
n-back,,,,75,3,,,,1,None,B,False,None,,,,,
n-back,,,,76,3,,,,1,None,C,False,None,,,,,
n-back,,,,77,3,,,,1,None,C,False,None,,,,,
n-back,,,,78,3,,,,1,0.6301576250698417,C,True,1,,,,,
n-back,,,,79,3,,,,1,None,V,False,None,,,,,
n-back,,,,80,3,,,,1,0.5561101250350475,C,True,1,,,,,
n-back,,,,81,3,,,,1,None,Z,False,None,,,,,
n-back,,,,82,3,,,,1,1.0124012499582022,C,True,1,,,,,
n-back,,,,83,3,,,,1,None,B,False,None,,,,,
n-back,,,,84,3,,,,0,0.8654346249531955,Z,False,1,,,,,
n-back,,,,85,3,,,,1,None,N,False,None,,,,,
n-back,,,,86,3,,,,0,None,Z,True,None,,,,,
n-back,,,,87,3,,,,0,None,N,True,None,,,,,
n-back,,,,88,3,,,,0,None,Z,True,None,,,,,
n-back,,,,89,3,,,,1,None,X,False,None,,,,,
n-back,,,,90,3,,,,1,None,B,False,None,,,,,
choice,fixation,147.69892954209354,148.45253762509674,17,3,,,,,,,,,Large,,,,
choice,option,148.46109187509865,149.48747608310077,17,3,,,,,,,,,Large,,,,
choice,choice,149.48758587508928,165.29921850003302,17,3,,,2,1,14.799060790915973,,,,Large,,,,
choice,fixation,165.29936725005973,166.30426250002347,18,3,,,,,,,,,Pattern,,,,
choice,option,166.31360175006557,167.3403484170558,18,3,,,,,,,,,Pattern,,,,
choice,choice,167.3404662500834,177.56945825007278,18,3,,,2,1,9.21863016707357,,,,Pattern,,,,
choice,fixation,177.56967525009532,178.07698120805435,19,3,,,,,,,,,Small,,,,
choice,option,178.08603920799214,179.11211491702124,19,3,,,,,,,,,Small,,,,
choice,choice,179.11221558309626,185.455180625082,19,3,,,1,0,5.332911125035025,,,,Small,,,,
choice,fixation,185.4553647080902,185.9604301250074,20,3,,,,,,,,,Animal,,,,
choice,option,185.9695884580724,186.99624862510245,20,3,,,,,,,,,Animal,,,,
choice,choice,186.99636308301706,193.12814337504096,20,3,,,2,1,5.121796749997884,,,,Animal,,,,
choice,fixation,193.12827966699842,194.38347254204564,21,3,,,,,,,,,Sea,,,,
choice,option,194.39216325001325,195.4186027920805,21,3,,,,,,,,,Sea,,,,
choice,choice,195.4187310000416,205.28315845807083,21,3,,,1,0,8.853318625013344,,,,Sea,,,,
choice,fixation,205.28333679202478,205.78835083299782,22,3,,,,,,,,,Object,,,,
choice,option,205.79794520803262,206.826356625068,22,3,,,,,,,,,Object,,,,
choice,choice,206.82645541708916,210.393017583061,22,3,,,2,1,2.5558241669787094,,,,Object,,,,
choice,fixation,210.39319908304606,211.64820979209617,23,3,,,,,,,,,Solid,,,,
choice,option,211.65839804208372,212.6845797500573,23,3,,,,,,,,,Solid,,,,
choice,choice,212.6846931250766,215.79851708305068,23,3,,,1,1,2.1039848329965025,,,,Solid,,,,
choice,fixation,215.7986312500434,216.8031728330534,24,3,,,,,,,,,Land,,,,
choice,option,216.81176420801785,217.83811758307274,24,3,,,,,,,,,Land,,,,
choice,choice,217.8382374580251,226.95321458310355,24,3,,,1,0,8.104735458968207,,,,Land,,,,
memory,free_recall,242.2422114580404,293.03530487499665,12,3,,,,,,,,,,,,,
memory,value_recall,298.9977967500454,310.1785066250013,13,3,Object_Land_Pattern_Large,,,,11.176718416973017,,,,,2,,,
memory,value_recall,311.4778340830235,325.76360691699665,14,3,Object_Land_Solid_Large,,,,14.2817721250467,,,,,1,,,
memory,value_recall,327.81079316709656,338.7304961250629,15,3,Object_Sea_Solid_Small,,,,10.91551049996633,,,,,-9,,,
memory,value_recall,340.2797585420776,363.3469291670481,16,3,Animal_Land_Pattern_Small,,,,23.063009415986016,,,,,-6,,,
memory,value_recall,364.3940471250098,370.41238250001334,17,3,Animal_Sea_Pattern_Large,,,,6.015016959048808,,,,,-5,,,
memory,value_recall,371.4608201250667,387.2007268330781,18,3,Animal_Sea_Solid_Small,,,,15.737311291974038,,,,,9,,,
memory,spatial_recall,393.672941292054,395.4956466250587,18,3,Object_Land_Pattern_Large,,,1,1.818563959095627,,,,,,"[-329, -190]","[-329, -190]",
memory,spatial_recall,396.80085445800796,397.97000475006644,18,3,Object_Sea_Solid_Small,,,1,1.1651606670347974,,,,,,"[-329, 190]","[-329, 190]",
memory,spatial_recall,399.01960554206744,401.0120298330439,18,3,Animal_Sea_Solid_Small,,,0,1.9893803340382874,,,,,,"[0, -380]","[0, 380]",
memory,spatial_recall,402.8182770831045,404.20244641706813,18,3,Animal_Land_Pattern_Small,,,1,1.3802626669639722,,,,,,"[0, 380]","[0, 380]",
memory,spatial_recall,406.26402270805556,407.74890641705133,18,3,Object_Land_Solid_Large,,,1,1.480884375050664,,,,,,"[329, -190]","[329, -190]",
memory,spatial_recall,409.55378529208247,412.4019104579929,18,3,Animal_Sea_Pattern_Large,,,1,2.843475207919255,,,,,,"[329, 189]","[329, 189]",
encoding,fixation,3.9823819999583066,4.488427332951687,19,4,Object_Land_Pattern_Small,-2,,,,,,,,,,,
encoding,image,4.488539999932982,5.501050291932188,19,4,Object_Land_Pattern_Small,-2,,,,,,,,,,,
encoding,value,5.501169582945295,11.514805249986239,19,4,Object_Land_Pattern_Small,-2,,,,,,,,,,,
encoding,attention,11.51491604198236,14.534410874941386,19,4,Object_Land_Pattern_Small,-2,-2,1,0.9026439159642905,,,,,,,,
encoding,fixation,14.534586958005093,15.040624041925184,20,4,Animal_Land_Solid_Small,8,,,,,,,,,,,
encoding,image,15.04076829191763,16.051782082999125,20,4,Animal_Land_Solid_Small,8,,,,,,,,,,,
encoding,value,16.051913124974817,22.064321500016376,20,4,Animal_Land_Solid_Small,8,,,,,,,,,,,
encoding,attention,22.064447082928382,25.084923499962315,20,4,Animal_Land_Solid_Small,8,+8,1,0.7043746249983087,,,,,,,,
encoding,fixation,25.08506754192058,26.59032908291556,21,4,Object_Sea_Pattern_Large,8,,,,,,,,,,,
encoding,image,26.590434957994148,27.60168799990788,21,4,Object_Sea_Pattern_Large,8,,,,,,,,,,,
encoding,value,27.601797292008996,33.6132440000074,21,4,Object_Sea_Pattern_Large,8,,,,,,,,,,,
encoding,attention,33.61335495801177,36.63066304195672,21,4,Object_Sea_Pattern_Large,8,+8,1,0.8073152499273419,,,,,,,,
encoding,fixation,36.63085066701751,38.1361228749156,22,4,Object_Sea_Solid_Large,8,,,,,,,,,,,
encoding,image,38.13624808297027,39.14777141693048,22,4,Object_Sea_Solid_Large,8,,,,,,,,,,,
encoding,value,39.147883041994646,45.15955729200505,22,4,Object_Sea_Solid_Large,8,,,,,,,,,,,
encoding,attention,45.1596764579881,48.17791333294008,22,4,Object_Sea_Solid_Large,8,+8,1,0.6253628339618444,,,,,,,,
encoding,fixation,48.17807083297521,49.18336858297698,23,4,Animal_Sea_Solid_Large,-9,,,,,,,,,,,
encoding,image,49.1834796249168,50.19634824991226,23,4,Animal_Sea_Solid_Large,-9,,,,,,,,,,,
encoding,value,50.196458707912825,56.20796404196881,23,4,Animal_Sea_Solid_Large,-9,,,,,,,,,,,
encoding,attention,56.20813983294647,59.227028791909106,23,4,Animal_Sea_Solid_Large,-9,-9,1,0.7691168750170618,,,,,,,,
encoding,fixation,59.22716974990908,59.732276708004065,24,4,Animal_Land_Pattern_Small,-1,,,,,,,,,,,
encoding,image,59.7323870830005,60.74318587500602,24,4,Animal_Land_Pattern_Small,-1,,,,,,,,,,,
encoding,value,60.74331379192881,66.75498054199852,24,4,Animal_Land_Pattern_Small,-1,,,,,,,,,,,
encoding,attention,66.75508687493857,69.77176662499551,24,4,Animal_Land_Pattern_Small,-1,-1,1,0.4984442919958383,,,,,,,,
n-back,,,,91,4,,,,0,None,X,True,None,,,,,
n-back,,,,92,4,,,,1,None,V,False,None,,,,,
n-back,,,,93,4,,,,1,0.6571359999943525,X,True,1,,,,,
n-back,,,,94,4,,,,1,None,Z,False,None,,,,,
n-back,,,,95,4,,,,1,None,C,False,None,,,,,
n-back,,,,96,4,,,,1,None,C,False,None,,,,,
n-back,,,,97,4,,,,1,None,V,False,None,,,,,
n-back,,,,98,4,,,,1,None,N,False,None,,,,,
n-back,,,,99,4,,,,1,None,Z,False,None,,,,,
n-back,,,,100,4,,,,1,None,X,False,None,,,,,
n-back,,,,101,4,,,,1,0.9075946250231937,Z,True,1,,,,,
n-back,,,,102,4,,,,0,0.9000508330063894,N,False,1,,,,,
n-back,,,,103,4,,,,0,None,Z,True,None,,,,,
n-back,,,,104,4,,,,1,None,Z,False,None,,,,,
n-back,,,,105,4,,,,1,None,X,False,None,,,,,
n-back,,,,106,4,,,,1,0.4402370420284569,Z,True,1,,,,,
n-back,,,,107,4,,,,1,None,B,False,None,,,,,
n-back,,,,108,4,,,,0,None,Z,True,None,,,,,
n-back,,,,109,4,,,,1,None,C,False,None,,,,,
n-back,,,,110,4,,,,0,1.2360010410193354,X,False,1,,,,,
n-back,,,,111,4,,,,1,0.857461915933527,C,True,1,,,,,
n-back,,,,112,4,,,,0,None,X,True,None,,,,,
n-back,,,,113,4,,,,1,None,Z,False,None,,,,,
n-back,,,,114,4,,,,1,None,C,False,None,,,,,
n-back,,,,115,4,,,,1,None,C,False,None,,,,,
n-back,,,,116,4,,,,1,0.701115500065498,C,True,1,,,,,
n-back,,,,117,4,,,,1,None,N,False,None,,,,,
n-back,,,,118,4,,,,1,None,X,False,None,,,,,
n-back,,,,119,4,,,,1,None,C,False,None,,,,,
n-back,,,,120,4,,,,1,0.5635540829971433,X,True,1,,,,,
choice,fixation,141.2801218329696,142.5337779999245,25,4,,,,,,,,,Small,,,,
choice,option,142.54269708297215,143.57009366701823,25,4,,,,,,,,,Small,,,,
choice,choice,143.5702065419173,172.3751366250217,25,4,,,1,1,27.793586874962784,,,,Small,,,,
choice,fixation,172.375278124935,173.88046841695905,26,4,,,,,,,,,Object,,,,
choice,option,173.88975224993192,174.91679649997968,26,4,,,,,,,,,Object,,,,
choice,choice,174.91692383296322,183.67694062495138,26,4,,,1,1,7.750342375016771,,,,Object,,,,
choice,fixation,183.6770982919261,185.1820762079442,27,4,,,,,,,,,Pattern,,,,
choice,option,185.19190212502144,186.21876541699748,27,4,,,,,,,,,Pattern,,,,
choice,choice,186.21887333295308,196.9883990829112,27,4,,,1,1,9.758651499985717,,,,Pattern,,,,
choice,fixation,196.98851945798378,198.24738658301067,28,4,,,,,,,,,Animal,,,,
choice,option,198.2573902499862,199.28514966694638,28,4,,,,,,,,,Animal,,,,
choice,choice,199.2852597499732,203.2371963749174,28,4,,,1,0,2.942238457966596,,,,Animal,,,,
choice,fixation,203.23734729201533,203.99261987500358,29,4,,,,,,,,,Land,,,,
choice,option,204.00165508291684,205.0278804579284,29,4,,,,,,,,,Land,,,,
choice,choice,205.02800354198553,208.66371724999044,29,4,,,2,0,2.623783832998015,,,,Land,,,,
choice,fixation,208.66384129191283,209.91922499996144,30,4,,,,,,,,,Large,,,,
choice,option,209.928845666931,210.9550638749497,30,4,,,,,,,,,Large,,,,
choice,choice,210.95519120793324,213.2864142919425,30,4,,,1,1,1.3211824999889359,,,,Large,,,,
choice,fixation,213.28655520791654,214.79155095794704,31,4,,,,,,,,,Solid,,,,
choice,option,214.8013029169524,215.8278498329455,31,4,,,,,,,,,Solid,,,,
choice,choice,215.82795674994122,219.60559141694102,31,4,,,1,1,2.7678005419438705,,,,Solid,,,,
choice,fixation,219.6057182919467,220.11344024993014,32,4,,,,,,,,,Sea,,,,
choice,option,220.12143374991138,221.14767049998045,32,4,,,,,,,,,Sea,,,,
choice,choice,221.14779533294495,225.3669401250081,32,4,,,2,0,3.2095094590913504,,,,Sea,,,,
memory,free_recall,237.9830623329617,278.03124404198024,18,4,,,,,,,,,,,,,
memory,value_recall,286.63015695801005,290.80558970791753,19,4,Animal_Land_Solid_Small,,,,4.17120425007306,,,,,8,,,
memory,value_recall,291.8558179999236,301.4869322499726,20,4,Object_Sea_Solid_Large,,,,9.62603504199069,,,,,8,,,
memory,value_recall,303.2828805419849,305.2555191249121,21,4,Object_Sea_Pattern_Large,,,,1.9680945409927517,,,,,8,,,
memory,value_recall,307.3018410420045,310.7434146249434,22,4,Animal_Sea_Solid_Large,,,,3.437436749925837,,,,,-9,,,
memory,value_recall,312.03978912497405,316.45620141690597,23,4,Object_Land_Pattern_Small,,,,4.410844500060193,,,,,-2,,,
memory,value_recall,318.00311141693965,322.8227229579352,24,4,Animal_Land_Pattern_Small,,,,4.815250540967099,,,,,-1,,,
memory,spatial_recall,328.3968391669914,330.1348937919829,24,4,Animal_Sea_Solid_Large,,,1,1.7339894999749959,,,,,,"[329, -190]","[329, -190]",
memory,spatial_recall,331.9471552919131,333.90144491696265,24,4,Object_Land_Pattern_Small,,,1,1.9503621250623837,,,,,,"[0, -380]","[0, -380]",
memory,spatial_recall,335.9565695829224,337.23478579195216,24,4,Animal_Land_Solid_Small,,,1,1.272108708973974,,,,,,"[-329, 190]","[-329, 190]",
memory,spatial_recall,338.5371378749842,340.9852467079181,24,4,Object_Sea_Pattern_Large,,,1,2.4441181659931317,,,,,,"[-329, -190]","[-329, -190]",
memory,spatial_recall,342.0421717079589,343.9387588329846,24,4,Object_Sea_Solid_Large,,,1,1.8934155829483643,,,,,,"[329, 189]","[329, 189]",
memory,spatial_recall,345.5027462079888,347.2712280419655,24,4,Animal_Land_Pattern_Small,,,1,1.7645548330619931,,,,,,"[0, 380]","[0, 380]",
encoding,fixation,8.780046541942284,9.536294625024311,25,5,Object_Sea_Solid_Small,-8,,,,,,,,,,,
encoding,image,9.536404124926776,10.54737375001423,25,5,Object_Sea_Solid_Small,-8,,,,,,,,,,,
encoding,value,10.547557541984133,16.560031458968297,25,5,Object_Sea_Solid_Small,-8,,,,,,,,,,,
encoding,attention,16.560196958947927,19.577194166951813,25,5,Object_Sea_Solid_Small,-8,-8,1,0.5841076669748873,,,,,,,,
encoding,fixation,19.57734454202,21.082466625026427,26,5,Object_Sea_Pattern_Large,1,,,,,,,,,,,
encoding,image,21.082583209034055,22.093996208976023,26,5,Object_Sea_Pattern_Large,1,,,,,,,,,,,
encoding,value,22.09411091695074,28.105900584021583,26,5,Object_Sea_Pattern_Large,1,,,,,,,,,,,
encoding,attention,28.10602733399719,31.126249874942005,26,5,Object_Sea_Pattern_Large,1,+1,1,0.6140179999638349,,,,,,,,
encoding,fixation,31.126401250017807,31.6314158749301,27,5,Animal_Sea_Pattern_Small,1,,,,,,,,,,,
encoding,image,31.631596666993573,32.64290745893959,27,5,Animal_Sea_Pattern_Small,1,,,,,,,,,,,
encoding,value,32.64301208395045,38.65516600001138,27,5,Animal_Sea_Pattern_Small,1,,,,,,,,,,,
encoding,attention,38.65528420894407,41.67297091695946,27,5,Animal_Sea_Pattern_Small,1,+1,1,1.1113072079606354,,,,,,,,
encoding,fixation,41.67316866701003,43.17817320895847,28,5,Animal_Land_Solid_Large,3,,,,,,,,,,,
encoding,image,43.17828420898877,44.19010345893912,28,5,Animal_Land_Solid_Large,3,,,,,,,,,,,
encoding,value,44.19022758398205,50.202392583945766,28,5,Animal_Land_Solid_Large,3,,,,,,,,,,,
encoding,attention,50.20249599998351,53.22124645893928,28,5,Animal_Land_Solid_Large,3,+3,1,0.628170375013724,,,,,,,,
encoding,fixation,53.22140233393293,54.72648399998434,29,5,Animal_Land_Pattern_Large,-8,,,,,,,,,,,
encoding,image,54.72657512500882,55.74002037500031,29,5,Animal_Land_Pattern_Large,-8,,,,,,,,,,,
encoding,value,55.740125334006734,61.75160295900423,29,5,Animal_Land_Pattern_Large,-8,,,,,,,,,,,
encoding,attention,61.75172283395659,64.76966200000606,29,5,Animal_Land_Pattern_Large,-8,-8,1,0.736119749955833,,,,,,,,
encoding,fixation,64.76982175000012,66.27494466700591,30,5,Object_Land_Solid_Small,8,,,,,,,,,,,
encoding,image,66.27506649994757,67.28583345899824,30,5,Object_Land_Solid_Small,8,,,,,,,,,,,
encoding,value,67.28594966698438,73.29714887496084,30,5,Object_Land_Solid_Small,8,,,,,,,,,,,
encoding,attention,73.29727616696618,76.31438708398491,30,5,Object_Land_Solid_Small,8,+8,1,0.7037866659229621,,,,,,,,
n-back,,,,121,5,,,,1,None,B,False,None,,,,,
n-back,,,,122,5,,,,1,None,V,False,None,,,,,
n-back,,,,123,5,,,,1,None,X,False,None,,,,,
n-back,,,,124,5,,,,1,0.7624536249786615,V,True,1,,,,,
n-back,,,,125,5,,,,1,None,N,False,None,,,,,
n-back,,,,126,5,,,,1,None,N,False,None,,,,,
n-back,,,,127,5,,,,1,0.4916293330024928,N,True,1,,,,,
n-back,,,,128,5,,,,1,None,Z,False,None,,,,,
n-back,,,,129,5,,,,1,None,X,False,None,,,,,
n-back,,,,130,5,,,,1,None,C,False,None,,,,,
n-back,,,,131,5,,,,1,0.4228420840809122,X,True,1,,,,,
n-back,,,,132,5,,,,1,0.7940128749469295,C,True,1,,,,,
n-back,,,,133,5,,,,0,1.085848124930635,C,False,1,,,,,
n-back,,,,134,5,,,,1,0.5693246660521254,C,True,1,,,,,
n-back,,,,135,5,,,,1,0.565211792010814,C,True,1,,,,,
n-back,,,,136,5,,,,1,0.5174113749526441,C,True,1,,,,,
n-back,,,,137,5,,,,1,None,V,False,None,,,,,
n-back,,,,138,5,,,,1,0.38929950003512204,C,True,1,,,,,
n-back,,,,139,5,,,,1,None,X,False,None,,,,,
n-back,,,,140,5,,,,1,None,X,False,None,,,,,
n-back,,,,141,5,,,,1,None,B,False,None,,,,,
n-back,,,,142,5,,,,1,None,V,False,None,,,,,
n-back,,,,143,5,,,,1,None,X,False,None,,,,,
n-back,,,,144,5,,,,1,None,X,False,None,,,,,
n-back,,,,145,5,,,,1,0.5289934169268236,X,True,1,,,,,
n-back,,,,146,5,,,,1,0.6984058340312913,X,True,1,,,,,
n-back,,,,147,5,,,,1,None,N,False,None,,,,,
n-back,,,,148,5,,,,1,None,V,False,None,,,,,
n-back,,,,149,5,,,,1,None,V,False,None,,,,,
n-back,,,,150,5,,,,1,None,C,False,None,,,,,
choice,fixation,143.78872670896817,145.04225908394437,33,5,,,,,,,,,Animal,,,,
choice,option,145.05155899992678,146.0785941670183,33,5,,,,,,,,,Animal,,,,
choice,choice,146.07871420902666,152.9063493339345,33,5,,,1,0,5.817767458036542,,,,Animal,,,,
choice,fixation,152.9064867499983,153.66144845902454,34,5,,,,,,,,,Solid,,,,
choice,option,153.67128570901696,154.69839729194064,34,5,,,,,,,,,Solid,,,,
choice,choice,154.6985105839558,159.0974059170112,34,5,,,2,0,3.3863691249862313,,,,Solid,,,,
choice,fixation,159.0975268339971,160.602359124925,35,5,,,,,,,,,Large,,,,
choice,option,160.61067774996627,161.63956308399793,35,5,,,,,,,,,Large,,,,
choice,choice,161.63967462501023,171.37891158403363,35,5,,,1,0,8.72902087494731,,,,Large,,,,
choice,fixation,171.3790353339864,172.3844090839848,36,5,,,,,,,,,Pattern,,,,
choice,option,172.39366933400743,173.42283270903863,36,5,,,,,,,,,Pattern,,,,
choice,choice,173.42298249993473,185.5238572920207,36,5,,,1,0,11.088605249999091,,,,Pattern,,,,
choice,fixation,185.52397495904006,186.52883095899597,37,5,,,,,,,,,Small,,,,
choice,option,186.53800037503242,187.5640562089393,37,5,,,,,,,,,Small,,,,
choice,choice,187.56418124993797,191.57613333396148,37,5,,,1,1,3.002176292007789,,,,Small,,,,
choice,fixation,191.57625883398578,192.33115566696506,38,5,,,,,,,,,Land,,,,
choice,option,192.33982116694096,193.36541754193604,38,5,,,,,,,,,Land,,,,
choice,choice,193.3655632500304,195.89023954200093,38,5,,,2,0,1.5133001669310033,,,,Land,,,,
choice,fixation,195.89036199997645,196.89620149997063,39,5,,,,,,,,,Sea,,,,
choice,option,196.9047522089677,197.93118983402383,39,5,,,,,,,,,Sea,,,,
choice,choice,197.93129516695626,199.28058462496847,39,5,,,1,0,0.3390906659187749,,,,Sea,,,,
choice,fixation,199.28071366692893,200.28580087493174,40,5,,,,,,,,,Object,,,,
choice,option,200.29520220903214,201.3229037920246,40,5,,,,,,,,,Object,,,,
choice,choice,201.3230542499805,208.42746137501672,40,5,,,1,1,6.094280375051312,,,,Object,,,,
memory,free_recall,222.67580058402382,256.86024908395484,24,5,,,,,,,,,,,,,
memory,value_recall,260.7253441249486,266.59691004198976,25,5,Animal_Land_Pattern_Large,,,,5.867561541963369,,,,,-8,,,
memory,value_recall,267.8924451669445,271.45863133401144,26,5,Object_Sea_Pattern_Large,,,,3.5621457080123946,,,,,1,,,
memory,value_recall,273.004511334002,277.99687966692727,27,5,Animal_Land_Solid_Large,,,,4.988348834100179,,,,,3,,,
memory,value_recall,279.54231779195834,283.42172491701785,28,5,Animal_Sea_Pattern_Small,,,,3.875455249915831,,,,,1,,,
memory,value_recall,284.716613000026,289.1462342919549,29,5,Object_Land_Solid_Small,,,,4.42289066594094,,,,,8,,,
memory,value_recall,290.9429126250325,294.2376429999713,30,5,Object_Sea_Solid_Small,,,,3.2904775419738144,,,,,-8,,,
memory,spatial_recall,300.0348381670192,301.57618604192976,30,5,Object_Sea_Solid_Small,,,1,1.5367503749439493,,,,,,"[-329, 190]","[-329, 190]",
memory,spatial_recall,303.1361088339472,305.262028374942,30,5,Object_Land_Solid_Small,,,1,2.1211602919502184,,,,,,"[329, 189]","[329, 189]",
memory,spatial_recall,306.5683494589757,307.4987373750191,30,5,Animal_Land_Solid_Large,,,1,0.925969084026292,,,,,,"[0, -380]","[0, -380]",
memory,spatial_recall,309.30016374995466,310.3582354169339,30,5,Animal_Land_Pattern_Large,,,1,1.0539488329086453,,,,,,"[329, -190]","[329, -190]",
memory,spatial_recall,311.9011551250005,313.37822362501174,30,5,Object_Sea_Pattern_Large,,,1,1.4730331250466406,,,,,,"[-329, -190]","[-329, -190]",
memory,spatial_recall,315.4365962499287,316.75811633397825,30,5,Animal_Sea_Pattern_Small,,,1,1.3175347909564152,,,,,,"[0, 380]","[0, 380]",
encoding,fixation,4.994096833048388,6.000350542017259,31,6,Animal_Sea_Solid_Small,7,,,,,,,,,,,
encoding,image,6.000479583046399,7.012288124999031,31,6,Animal_Sea_Solid_Small,7,,,,,,,,,,,
encoding,value,7.012409292045049,13.025198874995112,31,6,Animal_Sea_Solid_Small,7,,,,,,,,,,,
encoding,attention,13.025374667020515,16.043220082996413,31,6,Animal_Sea_Solid_Small,7,+7,1,0.7741964579327032,,,,,,,,
encoding,fixation,16.043418708024547,16.799626082996838,32,6,Object_Land_Solid_Large,-2,,,,,,,,,,,
encoding,image,16.799732416984625,17.811840875074267,32,6,Object_Land_Solid_Large,-2,,,,,,,,,,,
encoding,value,17.81195554207079,23.823731458047405,32,6,Object_Land_Solid_Large,-2,,,,,,,,,,,
encoding,attention,23.823841167031787,26.840457124984823,32,6,Object_Land_Solid_Large,-2,-2,1,0.6811028339434415,,,,,,,,
encoding,fixation,26.840630458085798,27.345443958067335,33,6,Object_Sea_Pattern_Small,-2,,,,,,,,,,,
encoding,image,27.345560000045225,28.356871333089657,33,6,Object_Sea_Pattern_Small,-2,,,,,,,,,,,
encoding,value,28.356984375044703,34.369087792001665,33,6,Object_Sea_Pattern_Small,-2,,,,,,,,,,,
encoding,attention,34.36920358298812,37.38593591703102,33,6,Object_Sea_Pattern_Small,-2,-2,1,0.5652848329627886,,,,,,,,
encoding,fixation,37.38608504203148,37.89161370799411,34,6,Animal_Land_Solid_Small,-4,,,,,,,,,,,
encoding,image,37.89171562506817,38.90280583302956,34,6,Animal_Land_Solid_Small,-4,,,,,,,,,,,
encoding,value,38.902915458078496,44.91424770804588,34,6,Animal_Land_Solid_Small,-4,,,,,,,,,,,
encoding,attention,44.91435800003819,47.932443832978606,34,6,Animal_Land_Solid_Small,-4,-4,1,1.4193511250196025,,,,,,,,
encoding,fixation,47.93259141698945,49.187901375000365,35,6,Animal_Sea_Pattern_Large,-1,,,,,,,,,,,
encoding,image,49.188007374992594,50.19832037505694,35,6,Animal_Sea_Pattern_Large,-1,,,,,,,,,,,
encoding,value,50.198433791985735,56.211207000073045,35,6,Animal_Sea_Pattern_Large,-1,,,,,,,,,,,
encoding,attention,56.2113681670744,59.228105125017464,35,6,Animal_Sea_Pattern_Large,-1,-1,1,0.8940956250298768,,,,,,,,
encoding,fixation,59.228263042052276,60.233304875087924,36,6,Object_Land_Pattern_Large,9,,,,,,,,,,,
encoding,image,60.23342375003267,61.24497662507929,36,6,Object_Land_Pattern_Large,9,,,,,,,,,,,
encoding,value,61.245095167076215,67.25848341698293,36,6,Object_Land_Pattern_Large,9,,,,,,,,,,,
encoding,attention,67.25859733298421,70.2763149579987,36,6,Object_Land_Pattern_Large,9,+9,1,0.6761056669056416,,,,,,,,
n-back,,,,151,6,,,,1,None,N,False,None,,,,,
n-back,,,,152,6,,,,0,None,N,True,None,,,,,
n-back,,,,153,6,,,,1,0.4246776249492541,N,True,1,,,,,
n-back,,,,154,6,,,,1,None,C,False,None,,,,,
n-back,,,,155,6,,,,1,None,C,False,None,,,,,
n-back,,,,156,6,,,,1,None,Z,False,None,,,,,
n-back,,,,157,6,,,,1,0.4700329159386456,C,True,1,,,,,
n-back,,,,158,6,,,,1,None,B,False,None,,,,,
n-back,,,,159,6,,,,1,None,N,False,None,,,,,
n-back,,,,160,6,,,,1,0.3682440419215709,B,True,1,,,,,
n-back,,,,161,6,,,,1,0.7922853750642389,N,True,1,,,,,
n-back,,,,162,6,,,,1,None,X,False,None,,,,,
n-back,,,,163,6,,,,1,None,B,False,None,,,,,
n-back,,,,164,6,,,,1,None,C,False,None,,,,,
n-back,,,,165,6,,,,1,None,V,False,None,,,,,
n-back,,,,166,6,,,,1,None,Z,False,None,,,,,
n-back,,,,167,6,,,,1,None,Z,False,None,,,,,
n-back,,,,168,6,,,,1,None,N,False,None,,,,,
n-back,,,,169,6,,,,1,None,C,False,None,,,,,
n-back,,,,170,6,,,,1,None,C,False,None,,,,,
n-back,,,,171,6,,,,1,None,X,False,None,,,,,
n-back,,,,172,6,,,,1,0.5175083340145648,C,True,1,,,,,
n-back,,,,173,6,,,,0,None,X,True,None,,,,,
n-back,,,,174,6,,,,1,None,Z,False,None,,,,,
n-back,,,,175,6,,,,1,None,B,False,None,,,,,
n-back,,,,176,6,,,,1,None,V,False,None,,,,,
n-back,,,,177,6,,,,1,0.49708724999800324,B,True,1,,,,,
n-back,,,,178,6,,,,1,0.7861280419165269,V,True,1,,,,,
n-back,,,,179,6,,,,1,None,Z,False,None,,,,,
n-back,,,,180,6,,,,1,1.186015708022751,V,True,1,,,,,
choice,fixation,140.83483670803253,142.33904341701418,41,6,,,,,,,,,Pattern,,,,
choice,option,142.34795112500433,143.37487758300267,41,6,,,,,,,,,Pattern,,,,
choice,choice,143.3749852500623,156.22712079202756,41,6,,,1,1,11.841390916029923,,,,Pattern,,,,
choice,fixation,156.22724479204044,156.73234754207078,42,6,,,,,,,,,Object,,,,
choice,option,156.74187704198994,157.767895707977,42,6,,,,,,,,,Object,,,,
choice,choice,157.7680059170816,168.32173516706098,42,6,,,1,1,9.543337457929738,,,,Object,,,,
choice,fixation,168.3218563750852,169.3293736249907,43,6,,,,,,,,,Large,,,,
choice,option,169.33813024999108,170.3642617079895,43,6,,,,,,,,,Large,,,,
choice,choice,170.36446100007743,174.8356919999933,43,6,,,1,1,3.449237124994397,,,,Large,,,,
choice,fixation,174.83581337507349,176.09090041706804,44,6,,,,,,,,,Solid,,,,
choice,option,176.10060891706962,177.12762987508904,44,6,,,,,,,,,Solid,,,,
choice,choice,177.12774737505242,184.64933654200286,44,6,,,2,0,6.51148970797658,,,,Solid,,,,
choice,fixation,184.64946495799813,185.65455216704868,45,6,,,,,,,,,Small,,,,
choice,option,185.6636772500351,186.68993958306964,45,6,,,,,,,,,Small,,,,
choice,choice,186.69004316697828,189.59985033306293,45,6,,,1,1,1.9002250829944387,,,,Small,,,,
choice,fixation,189.59997879201546,190.60594841698185,46,6,,,,,,,,,Animal,,,,
choice,option,190.61523550003767,191.64179370808415,46,6,,,,,,,,,Animal,,,,
choice,choice,191.64191704208497,199.76200200000312,46,6,,,1,1,7.10898508306127,,,,Animal,,,,
choice,fixation,199.7621390830027,200.2670419580536,47,6,,,,,,,,,Land,,,,
choice,option,200.27582550002262,201.30147183302324,47,6,,,,,,,,,Land,,,,
choice,choice,201.30157637502998,203.05038183298893,47,6,,,1,1,0.7394562499830499,,,,Land,,,,
choice,fixation,203.05050054204185,204.05535479204264,48,6,,,,,,,,,Sea,,,,
choice,option,204.06410491699353,205.09007091703825,48,6,,,,,,,,,Sea,,,,
choice,choice,205.09019337501377,208.40179366699886,48,6,,,1,1,2.301542624947615,,,,Sea,,,,
memory,free_recall,217.42657058301847,226.26819350000005,30,6,,,,,,,,,,,,,
memory,value_recall,234.30534512503073,238.88270762504544,31,6,Object_Land_Solid_Large,,,,4.57188549998682,,,,,-2,,,
memory,value_recall,240.9292417500401,245.71025420806836,32,6,Animal_Land_Solid_Small,,,,4.776860000099987,,,,,-4,,,
memory,value_recall,247.50523983302992,252.14864095801022,33,6,Animal_Sea_Pattern_Large,,,,4.637400459032506,,,,,-1,,,
memory,value_recall,254.19378083304036,258.9107230830705,34,6,Object_Land_Pattern_Large,,,,4.712488916004077,,,,,9,,,
memory,value_recall,260.9570645830827,267.2941027500201,35,6,Object_Sea_Pattern_Small,,,,6.3327448749914765,,,,,-2,,,
memory,value_recall,268.59137095802,272.22660587506834,36,6,Animal_Sea_Solid_Small,,,,3.6309030409902334,,,,,7,,,
memory,spatial_recall,277.4677730000112,279.7533687920077,36,6,Object_Land_Solid_Large,,,1,2.282342292019166,,,,,,"[329, -190]","[329, -190]",
memory,spatial_recall,281.067873083055,282.07110941701103,36,6,Animal_Sea_Solid_Small,,,1,0.9989746659994125,,,,,,"[0, -380]","[0, -380]",
memory,spatial_recall,283.6169942080742,284.8156937920721,36,6,Animal_Sea_Pattern_Large,,,1,1.1946771249640733,,,,,,"[329, 189]","[329, 189]",
memory,spatial_recall,286.8821022079792,291.27146854205057,36,6,Animal_Land_Solid_Small,,,1,4.385331040946767,,,,,,"[-329, 190]","[-329, 190]",
memory,spatial_recall,292.5822365829954,293.8860750000458,36,6,Object_Sea_Pattern_Small,,,1,1.2993963749613613,,,,,,"[0, 380]","[0, 380]",
memory,spatial_recall,294.9498190829763,295.7832877080655,36,6,Object_Land_Pattern_Large,,,1,0.8291019160533324,,,,,,"[-329, -190]","[-329, -190]",
encoding,fixation,5.187189083080739,6.442853833083063,37,7,Object_Sea_Pattern_Large,2,,,,,,,,,,,
encoding,image,6.442972416989505,7.455110667040572,37,7,Object_Sea_Pattern_Large,2,,,,,,,,,,,
encoding,value,7.45521795807872,13.467993083060719,37,7,Object_Sea_Pattern_Large,2,,,,,,,,,,,
encoding,attention,13.468099042074755,16.4850212080637,37,7,Object_Sea_Pattern_Large,2,+2,1,0.7723156670108438,,,,,,,,
encoding,fixation,16.485227000084706,17.240910166990943,38,7,Animal_Land_Solid_Small,-4,,,,,,,,,,,
encoding,image,17.24105850001797,18.25088216701988,38,7,Animal_Land_Solid_Small,-4,,,,,,,,,,,
encoding,value,18.250987542094663,24.26262104208581,38,7,Animal_Land_Solid_Small,-4,,,,,,,,,,,
encoding,attention,24.262752333073877,27.279360666987486,38,7,Animal_Land_Solid_Small,-4,-4,1,0.9458701249677688,,,,,,,,
encoding,fixation,27.27959020808339,28.28490462503396,39,7,Animal_Land_Pattern_Small,6,,,,,,,,,,,
encoding,image,28.285019583068788,29.296025542076677,39,7,Animal_Land_Pattern_Small,6,,,,,,,,,,,
encoding,value,29.296197333023883,35.3085871670628,39,7,Animal_Land_Pattern_Small,6,,,,,,,,,,,
encoding,attention,35.30873995798174,38.32732733304147,39,7,Animal_Land_Pattern_Small,6,+6,1,0.4976318330736831,,,,,,,,
encoding,fixation,38.32746825006325,39.83271154202521,40,7,Object_Sea_Solid_Large,2,,,,,,,,,,,
encoding,image,39.83282212505583,40.84647741704248,40,7,Object_Sea_Solid_Large,2,,,,,,,,,,,
encoding,value,40.84657504200004,46.858305000001565,40,7,Object_Sea_Solid_Large,2,,,,,,,,,,,
encoding,attention,46.858424750040285,49.87625920807477,40,7,Object_Sea_Solid_Large,2,+2,1,0.5479200419504195,,,,,,,,
encoding,fixation,49.8764150000643,50.63156962499488,41,7,Object_Land_Pattern_Small,-6,,,,,,,,,,,
encoding,image,50.63167500006966,51.6432146250736,41,7,Object_Land_Pattern_Small,-6,,,,,,,,,,,
encoding,value,51.64333133306354,57.654995167045854,41,7,Object_Land_Pattern_Small,-6,,,,,,,,,,,
encoding,attention,57.65511091705412,60.673448082990944,41,7,Object_Land_Pattern_Small,-6,-6,1,0.6148845000425354,,,,,,,,
encoding,fixation,60.67359083308838,61.428965000086464,42,7,Animal_Sea_Solid_Large,-6,,,,,,,,,,,
encoding,image,61.42911233298946,62.44080133305397,42,7,Animal_Sea_Solid_Large,-6,,,,,,,,,,,
encoding,value,62.440929000033066,68.45226687507238,42,7,Animal_Sea_Solid_Large,-6,,,,,,,,,,,
encoding,attention,68.452378417016,71.47186570800841,42,7,Animal_Sea_Solid_Large,-6,-6,1,1.4583372080232948,,,,,,,,
n-back,,,,181,7,,,,0,None,Z,True,None,,,,,
n-back,,,,182,7,,,,1,None,C,False,None,,,,,
n-back,,,,183,7,,,,1,None,B,False,None,,,,,
n-back,,,,184,7,,,,1,None,X,False,None,,,,,
n-back,,,,185,7,,,,1,None,C,False,None,,,,,
n-back,,,,186,7,,,,1,0.685267792083323,X,True,1,,,,,
n-back,,,,187,7,,,,1,None,V,False,None,,,,,
n-back,,,,188,7,,,,1,0.4305619999067858,X,True,1,,,,,
n-back,,,,189,7,,,,1,0.6713012079708278,V,True,1,,,,,
n-back,,,,190,7,,,,1,None,Z,False,None,,,,,
n-back,,,,191,7,,,,1,0.3942871670005843,V,True,1,,,,,
n-back,,,,192,7,,,,1,1.0575174590339884,Z,True,1,,,,,
n-back,,,,193,7,,,,1,None,N,False,None,,,,,
n-back,,,,194,7,,,,1,None,X,False,None,,,,,
n-back,,,,195,7,,,,1,None,B,False,None,,,,,
n-back,,,,196,7,,,,1,None,Z,False,None,,,,,
n-back,,,,197,7,,,,1,0.5841966250445694,B,True,1,,,,,
n-back,,,,198,7,,,,0,None,Z,True,None,,,,,
n-back,,,,199,7,,,,1,None,V,False,None,,,,,
n-back,,,,200,7,,,,1,None,C,False,None,,,,,
n-back,,,,201,7,,,,1,0.7460395829984918,V,True,1,,,,,
n-back,,,,202,7,,,,1,None,N,False,None,,,,,
n-back,,,,203,7,,,,1,None,Z,False,None,,,,,
n-back,,,,204,7,,,,1,None,X,False,None,,,,,
n-back,,,,205,7,,,,1,None,C,False,None,,,,,
n-back,,,,206,7,,,,1,None,N,False,None,,,,,
n-back,,,,207,7,,,,1,None,Z,False,None,,,,,
n-back,,,,208,7,,,,1,0.7854945829603821,N,True,1,,,,,
n-back,,,,209,7,,,,1,None,B,False,None,,,,,
n-back,,,,210,7,,,,0,0.471654332941398,Z,False,1,,,,,
choice,fixation,139.07059395802207,139.823976707994,49,7,,,,,,,,,Large,,,,
choice,option,139.83317870798055,140.86216408305336,49,7,,,,,,,,,Large,,,,
choice,choice,140.8622718330007,176.08451841701753,49,7,,,2,1,34.21143274998758,,,,Large,,,,
choice,fixation,176.08470654208213,177.08992554200813,50,7,,,,,,,,,Sea,,,,
choice,option,177.09886995807756,178.12891050009057,50,7,,,,,,,,,Sea,,,,
choice,choice,178.12901241704822,185.60239025007468,50,7,,,1,0,6.463133207987994,,,,Sea,,,,
choice,fixation,185.6025073750643,186.60756229201797,51,7,,,,,,,,,Land,,,,
choice,option,186.6162215420045,187.64317316701636,51,7,,,,,,,,,Land,,,,
choice,choice,187.6433375000488,193.14321137499064,51,7,,,2,1,4.490006416104734,,,,Land,,,,
choice,fixation,193.1433807500871,194.6485719170887,52,7,,,,,,,,,Small,,,,
choice,option,194.6577910829801,195.68424595799297,52,7,,,,,,,,,Small,,,,
choice,choice,195.68436658300925,201.56139037501998,52,7,,,2,1,4.867151082959026,,,,Small,,,,
choice,fixation,201.56152600003406,202.0664863330312,53,7,,,,,,,,,Object,,,,
choice,option,202.07587912504096,203.10174716706388,53,7,,,,,,,,,Object,,,,
choice,choice,203.10186391707975,209.14594966708682,53,7,,,2,1,5.03235462505836,,,,Object,,,,
choice,fixation,209.14608320803382,210.4010070830118,54,7,,,,,,,,,Solid,,,,
choice,option,210.41030237509403,211.436538708047,54,7,,,,,,,,,Solid,,,,
choice,choice,211.43669383309316,216.54418125003576,54,7,,,1,0,4.096318208030425,,,,Solid,,,,
choice,fixation,216.54438545799349,217.0496259580832,55,7,,,,,,,,,Animal,,,,
choice,option,217.05922416702379,218.085935292067,55,7,,,,,,,,,Animal,,,,
choice,choice,218.08603070804384,224.0896812500432,55,7,,,2,1,4.993668624898419,,,,Animal,,,,
choice,fixation,224.0898009170778,224.59603958309162,56,7,,,,,,,,,Pattern,,,,
choice,option,224.60515499999747,225.63119637500495,56,7,,,,,,,,,Pattern,,,,
choice,choice,225.63130350003485,228.31355679198168,56,7,,,1,1,1.671948999981396,,,,Pattern,,,,
memory,free_recall,239.28221583308186,258.54719579208177,36,7,,,,,,,,,,,,,
memory,value_recall,269.16935637500137,273.98104083305225,37,7,Animal_Land_Solid_Small,,,,4.807407374959439,,,,,-4,,,
memory,value_recall,275.02796787500847,281.84341149998363,38,7,Object_Sea_Solid_Large,,,,6.8120395839214325,,,,,2,,,
memory,value_recall,282.89040700008627,286.5954791250406,39,7,Animal_Land_Pattern_Small,,,,3.701555833918974,,,,,6,,,
memory,value_recall,288.20428541698493,290.2311500420328,40,7,Object_Land_Pattern_Small,,,,2.0227576249744743,,,,,-6,,,
memory,value_recall,292.02714237500913,295.8773499580566,41,7,Object_Sea_Pattern_Large,,,,3.8460361659526825,,,,,2,,,
memory,value_recall,297.17219583305996,298.67619608307723,42,7,Animal_Sea_Solid_Large,,,,1.4973779160063714,,,,,-6,,,
memory,spatial_recall,304.52940829203,306.0681775000412,42,7,Object_Land_Pattern_Small,,,1,1.5345501250121742,,,,,,"[0, -380]","[0, -380]",
memory,spatial_recall,308.12952254200354,309.58287133299746,42,7,Animal_Land_Pattern_Small,,,1,1.4496033750474453,,,,,,"[0, 380]","[0, 380]",
memory,spatial_recall,311.3909441670403,312.738123291987,42,7,Object_Sea_Solid_Large,,,1,1.3419362499844283,,,,,,"[329, 189]","[329, 189]",
memory,spatial_recall,314.2990428330377,315.70118358300533,42,7,Object_Sea_Pattern_Large,,,1,1.398193332948722,,,,,,"[-329, -190]","[-329, -190]",
memory,spatial_recall,316.9974327920936,320.60092750005424,42,7,Animal_Land_Solid_Small,,,1,3.598478415980935,,,,,,"[-329, 190]","[-329, 190]",
memory,spatial_recall,321.9074705420062,323.9175885000732,42,7,Animal_Sea_Solid_Large,,,1,2.0053385000210255,,,,,,"[329, -190]","[329, -190]",
