phase,event,trial_number,eyetracker_onset,eyetracker_offset,fix_start,fix_end,fix_duration_full,fix_duration_bounded,fix_x,fix_y,roi_x,roi_y,roi_content,onset,offset,game,image,outcome,choice,correct,rt,letter,match,response,option,true_value,true_position,recalled_position,Unnamed: 18
encoding,fixation,1,9700662,9701672,9700713.0,9700931.0,219.0,219.0,1830.3,1116.7,1591.0,891.0,Animal_Land_Solid_Small,14.90624787507113,15.916600208031014,1.0,Object_Land_Pattern_Small,9.0,,,,,,,,,,,
encoding,fixation,1,9700662,9701672,9700949.0,9701126.0,178.0,178.0,1907.6,1067.4,1920.0,1080.0,fixation,14.90624787507113,15.916600208031014,1.0,Object_Land_Pattern_Small,9.0,,,,,,,,,,,
encoding,fixation,1,9700662,9701672,9701307.0,9701543.0,237.0,237.0,1869.1,1116.6,1920.0,1080.0,fixation,14.90624787507113,15.916600208031014,1.0,Object_Land_Pattern_Small,9.0,,,,,,,,,,,
encoding,fixation,1,9700662,9701672,9701562.0,9701894.0,333.0,110.0,1754.0,1115.1,1591.0,891.0,Animal_Land_Solid_Small,14.90624787507113,15.916600208031014,1.0,Object_Land_Pattern_Small,9.0,,,,,,,,,,,
encoding,image,1,9701672,9702692,9701918.0,9702032.0,115.0,115.0,1917.7,1054.2,1920.0,1080.0,fixation,15.91672575008124,16.9367173750652,1.0,Object_Land_Pattern_Small,9.0,,,,,,,,,,,
encoding,image,1,9701672,9702692,9702082.0,9702317.0,236.0,236.0,1900.2,660.0999999999999,1920.0,1460.0,Object_Land_Pattern_Small,15.91672575008124,16.9367173750652,1.0,Object_Land_Pattern_Small,9.0,,,,,,,,,,,
encoding,image,1,9701672,9702692,9702514.0,9702949.0,436.0,178.0,1872.8,604.0,1920.0,1460.0,Object_Land_Pattern_Small,15.91672575008124,16.9367173750652,1.0,Object_Land_Pattern_Small,9.0,,,,,,,,,,,
encoding,value,1,9702692,9708710,9702958.0,9703155.0,198.0,198.0,1895.4,567.4000000000001,1920.0,1460.0,Object_Land_Pattern_Small,16.936822333023883,22.95381583308335,1.0,Object_Land_Pattern_Small,9.0,,,,,,,,,,,
encoding,value,1,9702692,9708710,9703427.0,9706172.0,2746.0,2746.0,1883.4,577.0999999999999,1920.0,1460.0,Object_Land_Pattern_Small,16.936822333023883,22.95381583308335,1.0,Object_Land_Pattern_Small,9.0,,,,,,,,,,,
encoding,value,1,9702692,9708710,9706369.0,9706794.0,426.0,426.0,1882.9,613.9000000000001,1920.0,1460.0,Object_Land_Pattern_Small,16.936822333023883,22.95381583308335,1.0,Object_Land_Pattern_Small,9.0,,,,,,,,,,,
encoding,value,1,9702692,9708710,9707031.0,9707222.0,192.0,192.0,1875.1,616.5,1920.0,1460.0,Object_Land_Pattern_Small,16.936822333023883,22.95381583308335,1.0,Object_Land_Pattern_Small,9.0,,,,,,,,,,,
encoding,value,1,9702692,9708710,9707243.0,9707314.0,72.0,72.0,1863.8,657.2,1920.0,1460.0,Object_Land_Pattern_Small,16.936822333023883,22.95381583308335,1.0,Object_Land_Pattern_Small,9.0,,,,,,,,,,,
encoding,value,1,9702692,9708710,9707551.0,9707675.0,125.0,125.0,1880.8,596.5,1920.0,1460.0,Object_Land_Pattern_Small,16.936822333023883,22.95381583308335,1.0,Object_Land_Pattern_Small,9.0,,,,,,,,,,,
encoding,value,1,9702692,9708710,9707697.0,9707853.0,157.0,157.0,1855.8,658.9000000000001,1920.0,1460.0,Object_Land_Pattern_Small,16.936822333023883,22.95381583308335,1.0,Object_Land_Pattern_Small,9.0,,,,,,,,,,,
encoding,value,1,9702692,9708710,9708092.0,9708366.0,275.0,275.0,1869.5,592.8,1920.0,1460.0,Object_Land_Pattern_Small,16.936822333023883,22.95381583308335,1.0,Object_Land_Pattern_Small,9.0,,,,,,,,,,,
encoding,value,1,9702692,9708710,9708633.0,9709198.0,566.0,77.0,1891.5,570.2,1920.0,1460.0,Object_Land_Pattern_Small,16.936822333023883,22.95381583308335,1.0,Object_Land_Pattern_Small,9.0,,,,,,,,,,,
encoding,attention,1,9708710,9711731,9709215.0,9709926.0,712.0,712.0,1853.2,562.7,1920.0,1460.0,Object_Land_Pattern_Small,22.953932958072983,25.974952000076883,1.0,Object_Land_Pattern_Small,9.0,9.0,1.0,0.8973556250566617,,,,,,,,
encoding,attention,1,9708710,9711731,9710182.0,9710624.0,443.0,443.0,1864.4,602.8,1920.0,1460.0,Object_Land_Pattern_Small,22.953932958072983,25.974952000076883,1.0,Object_Land_Pattern_Small,9.0,9.0,1.0,0.8973556250566617,,,,,,,,
encoding,attention,1,9708710,9711731,9710642.0,9710887.0,246.0,246.0,1896.1,645.3,1920.0,1460.0,Object_Land_Pattern_Small,22.953932958072983,25.974952000076883,1.0,Object_Land_Pattern_Small,9.0,9.0,1.0,0.8973556250566617,,,,,,,,
encoding,attention,1,9708710,9711731,9710901.0,9711427.0,527.0,527.0,1857.0,609.8,1920.0,1460.0,Object_Land_Pattern_Small,22.953932958072983,25.974952000076883,1.0,Object_Land_Pattern_Small,9.0,9.0,1.0,0.8973556250566617,,,,,,,,
encoding,fixation,2,9711731,9712987,9712047.0,9713281.0,1235.0,940.0,1901.9,1039.4,1920.0,1080.0,fixation,25.975105292047378,27.230474875075743,1.0,Animal_Sea_Pattern_Small,-6.0,,,,,,,,,,,
encoding,image,2,9712987,9713998,9713311.0,9713473.0,163.0,163.0,1913.2,1317.7,1920.0,700.0,Animal_Sea_Pattern_Small,27.230638707987964,28.24232016701717,1.0,Animal_Sea_Pattern_Small,-6.0,,,,,,,,,,,
encoding,image,2,9712987,9713998,9713489.0,9713732.0,244.0,244.0,1906.9,1387.6,1920.0,700.0,Animal_Sea_Pattern_Small,27.230638707987964,28.24232016701717,1.0,Animal_Sea_Pattern_Small,-6.0,,,,,,,,,,,
encoding,image,2,9712987,9713998,9713931.0,9714185.0,255.0,67.0,1930.2,1419.5,1920.0,700.0,Animal_Sea_Pattern_Small,27.230638707987964,28.24232016701717,1.0,Animal_Sea_Pattern_Small,-6.0,,,,,,,,,,,
encoding,value,2,9713998,9720010,9714196.0,9714731.0,536.0,536.0,1913.7,1353.8,1920.0,700.0,Animal_Sea_Pattern_Small,28.24242104205769,34.253648333018646,1.0,Animal_Sea_Pattern_Small,-6.0,,,,,,,,,,,
encoding,value,2,9713998,9720010,9714912.0,9715318.0,407.0,407.0,1908.1,1337.4,1920.0,700.0,Animal_Sea_Pattern_Small,28.24242104205769,34.253648333018646,1.0,Animal_Sea_Pattern_Small,-6.0,,,,,,,,,,,
encoding,value,2,9713998,9720010,9715542.0,9715891.0,350.0,350.0,1908.5,1329.1,1920.0,700.0,Animal_Sea_Pattern_Small,28.24242104205769,34.253648333018646,1.0,Animal_Sea_Pattern_Small,-6.0,,,,,,,,,,,
encoding,value,2,9713998,9720010,9716108.0,9716568.0,461.0,461.0,1909.2,1341.3,1920.0,700.0,Animal_Sea_Pattern_Small,28.24242104205769,34.253648333018646,1.0,Animal_Sea_Pattern_Small,-6.0,,,,,,,,,,,
encoding,value,2,9713998,9720010,9716804.0,9716931.0,128.0,128.0,1902.8,1279.7,1920.0,700.0,Animal_Sea_Pattern_Small,28.24242104205769,34.253648333018646,1.0,Animal_Sea_Pattern_Small,-6.0,,,,,,,,,,,
encoding,value,2,9713998,9720010,9716948.0,9717280.0,333.0,333.0,1907.5,1315.4,1920.0,700.0,Animal_Sea_Pattern_Small,28.24242104205769,34.253648333018646,1.0,Animal_Sea_Pattern_Small,-6.0,,,,,,,,,,,
encoding,value,2,9713998,9720010,9717293.0,9717498.0,206.0,206.0,1900.4,1363.2,1920.0,700.0,Animal_Sea_Pattern_Small,28.24242104205769,34.253648333018646,1.0,Animal_Sea_Pattern_Small,-6.0,,,,,,,,,,,
encoding,value,2,9713998,9720010,9717697.0,9717922.0,226.0,226.0,1911.0,1363.9,1920.0,700.0,Animal_Sea_Pattern_Small,28.24242104205769,34.253648333018646,1.0,Animal_Sea_Pattern_Small,-6.0,,,,,,,,,,,
encoding,value,2,9713998,9720010,9717940.0,9718305.0,366.0,366.0,1902.9,1408.8,1920.0,700.0,Animal_Sea_Pattern_Small,28.24242104205769,34.253648333018646,1.0,Animal_Sea_Pattern_Small,-6.0,,,,,,,,,,,
encoding,value,2,9713998,9720010,9718327.0,9718743.0,417.0,417.0,1895.3,1348.2,1920.0,700.0,Animal_Sea_Pattern_Small,28.24242104205769,34.253648333018646,1.0,Animal_Sea_Pattern_Small,-6.0,,,,,,,,,,,
encoding,value,2,9713998,9720010,9718945.0,9719123.0,179.0,179.0,1913.3,1337.8,1920.0,700.0,Animal_Sea_Pattern_Small,28.24242104205769,34.253648333018646,1.0,Animal_Sea_Pattern_Small,-6.0,,,,,,,,,,,
encoding,value,2,9713998,9720010,9719139.0,9720516.0,1378.0,871.0,1889.5,1337.1,1920.0,700.0,Animal_Sea_Pattern_Small,28.24242104205769,34.253648333018646,1.0,Animal_Sea_Pattern_Small,-6.0,,,,,,,,,,,
encoding,attention,2,9720010,9723031,9720526.0,9721080.0,555.0,555.0,1933.0,1330.0,1920.0,700.0,Animal_Sea_Pattern_Small,34.25377504201606,37.27469433308579,1.0,Animal_Sea_Pattern_Small,-6.0,-6.0,1.0,0.6460412080632523,,,,,,,,
encoding,attention,2,9720010,9723031,9721300.0,9721453.0,154.0,154.0,1888.1,1391.6,1920.0,700.0,Animal_Sea_Pattern_Small,34.25377504201606,37.27469433308579,1.0,Animal_Sea_Pattern_Small,-6.0,-6.0,1.0,0.6460412080632523,,,,,,,,
encoding,attention,2,9720010,9723031,9721461.0,9722041.0,581.0,581.0,1869.4,1337.8,1920.0,700.0,Animal_Sea_Pattern_Small,34.25377504201606,37.27469433308579,1.0,Animal_Sea_Pattern_Small,-6.0,-6.0,1.0,0.6460412080632523,,,,,,,,
encoding,attention,2,9720010,9723031,9722266.0,9722497.0,232.0,232.0,1903.4,1306.6,1920.0,700.0,Animal_Sea_Pattern_Small,34.25377504201606,37.27469433308579,1.0,Animal_Sea_Pattern_Small,-6.0,-6.0,1.0,0.6460412080632523,,,,,,,,
encoding,attention,2,9720010,9723031,9722752.0,9722903.0,152.0,152.0,1873.4,985.5999999999999,1920.0,1460.0,Object_Land_Pattern_Small,34.25377504201606,37.27469433308579,1.0,Animal_Sea_Pattern_Small,-6.0,-6.0,1.0,0.6460412080632523,,,,,,,,
encoding,fixation,3,9723031,9724287,9723144.0,9723424.0,281.0,281.0,1911.4,1122.6,1920.0,1080.0,fixation,37.27483716700226,38.53011620801408,1.0,Object_Sea_Solid_Large,2.0,,,,,,,,,,,
encoding,fixation,3,9723031,9724287,9723651.0,9723890.0,240.0,240.0,1891.8,1290.0,1920.0,700.0,Animal_Sea_Pattern_Small,37.27483716700226,38.53011620801408,1.0,Object_Sea_Solid_Large,2.0,,,,,,,,,,,
encoding,fixation,3,9723031,9724287,9724131.0,9724326.0,196.0,156.0,1888.0,1281.4,1920.0,700.0,Animal_Sea_Pattern_Small,37.27483716700226,38.53011620801408,1.0,Object_Sea_Solid_Large,2.0,,,,,,,,,,,
encoding,image,3,9724287,9725299,9724373.0,9724469.0,97.0,97.0,1900.9,974.5999999999999,1920.0,1460.0,Object_Land_Pattern_Small,38.5302806670079,39.54185879207216,1.0,Object_Sea_Solid_Large,2.0,,,,,,,,,,,
encoding,image,3,9724287,9725299,9724661.0,9724929.0,269.0,269.0,2203.4,1235.9,2249.0,891.0,Object_Sea_Solid_Large,38.5302806670079,39.54185879207216,1.0,Object_Sea_Solid_Large,2.0,,,,,,,,,,,
encoding,image,3,9724287,9725299,9725162.0,9725314.0,153.0,137.0,2220.7,1170.5,2249.0,891.0,Object_Sea_Solid_Large,38.5302806670079,39.54185879207216,1.0,Object_Sea_Solid_Large,2.0,,,,,,,,,,,
encoding,value,3,9725299,9731311,9725341.0,9725530.0,190.0,190.0,2172.3,1197.9,2249.0,891.0,Object_Sea_Solid_Large,39.54199754202273,45.553920042002574,1.0,Object_Sea_Solid_Large,2.0,,,,,,,,,,,
encoding,value,3,9725299,9731311,9725552.0,9725829.0,278.0,278.0,2223.5,1153.9,2249.0,891.0,Object_Sea_Solid_Large,39.54199754202273,45.553920042002574,1.0,Object_Sea_Solid_Large,2.0,,,,,,,,,,,
encoding,value,3,9725299,9731311,9726085.0,9726267.0,183.0,183.0,2215.5,1156.3,2249.0,891.0,Object_Sea_Solid_Large,39.54199754202273,45.553920042002574,1.0,Object_Sea_Solid_Large,2.0,,,,,,,,,,,
encoding,value,3,9725299,9731311,9726522.0,9726879.0,358.0,358.0,2219.5,1156.7,2249.0,891.0,Object_Sea_Solid_Large,39.54199754202273,45.553920042002574,1.0,Object_Sea_Solid_Large,2.0,,,,,,,,,,,
encoding,value,3,9725299,9731311,9727130.0,9727398.0,269.0,269.0,2193.3,1187.0,2249.0,891.0,Object_Sea_Solid_Large,39.54199754202273,45.553920042002574,1.0,Object_Sea_Solid_Large,2.0,,,,,,,,,,,
encoding,value,3,9725299,9731311,9727649.0,9727849.0,201.0,201.0,2223.3,1162.4,2249.0,891.0,Object_Sea_Solid_Large,39.54199754202273,45.553920042002574,1.0,Object_Sea_Solid_Large,2.0,,,,,,,,,,,
encoding,value,3,9725299,9731311,9728087.0,9728233.0,147.0,147.0,2224.6,1191.3,2249.0,891.0,Object_Sea_Solid_Large,39.54199754202273,45.553920042002574,1.0,Object_Sea_Solid_Large,2.0,,,,,,,,,,,
encoding,value,3,9725299,9731311,9728256.0,9728420.0,165.0,165.0,2154.5,1184.2,2249.0,891.0,Object_Sea_Solid_Large,39.54199754202273,45.553920042002574,1.0,Object_Sea_Solid_Large,2.0,,,,,,,,,,,
encoding,value,3,9725299,9731311,9728440.0,9728595.0,156.0,156.0,2223.0,1132.3,2249.0,891.0,Object_Sea_Solid_Large,39.54199754202273,45.553920042002574,1.0,Object_Sea_Solid_Large,2.0,,,,,,,,,,,
encoding,value,3,9725299,9731311,9728614.0,9728807.0,194.0,194.0,2197.1,1173.1,2249.0,891.0,Object_Sea_Solid_Large,39.54199754202273,45.553920042002574,1.0,Object_Sea_Solid_Large,2.0,,,,,,,,,,,
encoding,value,3,9725299,9731311,9728819.0,9729008.0,190.0,190.0,2230.8,1156.6,2249.0,891.0,Object_Sea_Solid_Large,39.54199754202273,45.553920042002574,1.0,Object_Sea_Solid_Large,2.0,,,,,,,,,,,
encoding,value,3,9725299,9731311,9729025.0,9729326.0,302.0,302.0,2202.5,1182.7,2249.0,891.0,Object_Sea_Solid_Large,39.54199754202273,45.553920042002574,1.0,Object_Sea_Solid_Large,2.0,,,,,,,,,,,
encoding,value,3,9725299,9731311,9729392.0,9729633.0,242.0,242.0,2224.6,1151.7,2249.0,891.0,Object_Sea_Solid_Large,39.54199754202273,45.553920042002574,1.0,Object_Sea_Solid_Large,2.0,,,,,,,,,,,
encoding,value,3,9725299,9731311,9729651.0,9730259.0,609.0,609.0,2208.9,1138.8,2249.0,891.0,Object_Sea_Solid_Large,39.54199754202273,45.553920042002574,1.0,Object_Sea_Solid_Large,2.0,,,,,,,,,,,
encoding,value,3,9725299,9731311,9730274.0,9730733.0,460.0,460.0,2209.5,1149.1,2249.0,891.0,Object_Sea_Solid_Large,39.54199754202273,45.553920042002574,1.0,Object_Sea_Solid_Large,2.0,,,,,,,,,,,
encoding,value,3,9725299,9731311,9730742.0,9731057.0,316.0,316.0,2199.2,1153.1,2249.0,891.0,Object_Sea_Solid_Large,39.54199754202273,45.553920042002574,1.0,Object_Sea_Solid_Large,2.0,,,,,,,,,,,
encoding,value,3,9725299,9731311,9731254.0,9731679.0,426.0,57.0,2196.0,1159.5,2249.0,891.0,Object_Sea_Solid_Large,39.54199754202273,45.553920042002574,1.0,Object_Sea_Solid_Large,2.0,,,,,,,,,,,
encoding,attention,3,9731311,9734332,9731695.0,9732077.0,383.0,383.0,2255.8,1154.3,2249.0,891.0,Object_Sea_Solid_Large,45.55404258298222,48.57510845805518,1.0,Object_Sea_Solid_Large,2.0,2.0,1.0,1.2074923750478774,,,,,,,,
encoding,attention,3,9731311,9734332,9732107.0,9732807.0,701.0,701.0,2163.3,1144.8,2249.0,891.0,Object_Sea_Solid_Large,45.55404258298222,48.57510845805518,1.0,Object_Sea_Solid_Large,2.0,2.0,1.0,1.2074923750478774,,,,,,,,
encoding,attention,3,9731311,9734332,9733044.0,9733293.0,250.0,250.0,2170.1,1192.9,2249.0,891.0,Object_Sea_Solid_Large,45.55404258298222,48.57510845805518,1.0,Object_Sea_Solid_Large,2.0,2.0,1.0,1.2074923750478774,,,,,,,,
encoding,fixation,4,9734332,9734837,9734587.0,9735088.0,502.0,250.0,1914.4,1068.7,1920.0,1080.0,fixation,48.57525179209187,49.08021604199894,1.0,Object_Land_Pattern_Large,-2.0,,,,,,,,,,,
encoding,image,4,9734837,9735850,9735125.0,9735543.0,419.0,419.0,1610.4,921.2,1591.0,1269.0,Object_Land_Pattern_Large,49.080323000089265,50.09237529209349,1.0,Object_Land_Pattern_Large,-2.0,,,,,,,,,,,
encoding,image,4,9734837,9735850,9735575.0,9736097.0,523.0,275.0,1896.0,1036.7,1920.0,1080.0,fixation,49.080323000089265,50.09237529209349,1.0,Object_Land_Pattern_Large,-2.0,,,,,,,,,,,
encoding,value,4,9735850,9741862,9736141.0,9736444.0,304.0,304.0,1574.1,809.0999999999999,1591.0,1269.0,Object_Land_Pattern_Large,50.092484833090566,56.104922124999575,1.0,Object_Land_Pattern_Large,-2.0,,,,,,,,,,,
encoding,value,4,9735850,9741862,9736706.0,9737433.0,728.0,728.0,1579.0,856.0999999999999,1591.0,1269.0,Object_Land_Pattern_Large,50.092484833090566,56.104922124999575,1.0,Object_Land_Pattern_Large,-2.0,,,,,,,,,,,
encoding,value,4,9735850,9741862,9737734.0,9738001.0,268.0,268.0,1600.3,854.0,1591.0,1269.0,Object_Land_Pattern_Large,50.092484833090566,56.104922124999575,1.0,Object_Land_Pattern_Large,-2.0,,,,,,,,,,,
encoding,value,4,9735850,9741862,9738290.0,9738584.0,295.0,295.0,1601.1,822.5,1591.0,1269.0,Object_Land_Pattern_Large,50.092484833090566,56.104922124999575,1.0,Object_Land_Pattern_Large,-2.0,,,,,,,,,,,
encoding,value,4,9735850,9741862,9738601.0,9738745.0,145.0,145.0,1635.8,877.3,1591.0,1269.0,Object_Land_Pattern_Large,50.092484833090566,56.104922124999575,1.0,Object_Land_Pattern_Large,-2.0,,,,,,,,,,,
encoding,value,4,9735850,9741862,9738993.0,9739215.0,223.0,223.0,1734.8,956.8,1591.0,1269.0,Object_Land_Pattern_Large,50.092484833090566,56.104922124999575,1.0,Object_Land_Pattern_Large,-2.0,,,,,,,,,,,
encoding,value,4,9735850,9741862,9739237.0,9739405.0,169.0,169.0,1879.6,1008.5,1920.0,1460.0,Object_Land_Pattern_Small,50.092484833090566,56.104922124999575,1.0,Object_Land_Pattern_Large,-2.0,,,,,,,,,,,
encoding,value,4,9735850,9741862,9739675.0,9739798.0,124.0,124.0,1631.6,861.8,1591.0,1269.0,Object_Land_Pattern_Large,50.092484833090566,56.104922124999575,1.0,Object_Land_Pattern_Large,-2.0,,,,,,,,,,,
encoding,value,4,9735850,9741862,9739812.0,9740022.0,211.0,211.0,1579.0,812.7,1591.0,1269.0,Object_Land_Pattern_Large,50.092484833090566,56.104922124999575,1.0,Object_Land_Pattern_Large,-2.0,,,,,,,,,,,
encoding,value,4,9735850,9741862,9740284.0,9740555.0,272.0,272.0,1597.7,821.9000000000001,1591.0,1269.0,Object_Land_Pattern_Large,50.092484833090566,56.104922124999575,1.0,Object_Land_Pattern_Large,-2.0,,,,,,,,,,,
encoding,value,4,9735850,9741862,9740826.0,9741130.0,305.0,305.0,1583.9,849.0,1591.0,1269.0,Object_Land_Pattern_Large,50.092484833090566,56.104922124999575,1.0,Object_Land_Pattern_Large,-2.0,,,,,,,,,,,
encoding,value,4,9735850,9741862,9741138.0,9742144.0,1007.0,724.0,1569.2,795.2,1591.0,1269.0,Object_Land_Pattern_Large,50.092484833090566,56.104922124999575,1.0,Object_Land_Pattern_Large,-2.0,,,,,,,,,,,
encoding,attention,4,9741862,9744882,9742151.0,9742455.0,305.0,305.0,1534.5,789.7,1591.0,1269.0,Object_Land_Pattern_Large,56.10504375002347,59.12464416702278,1.0,Object_Land_Pattern_Large,-2.0,-2.0,1.0,0.6327755420934409,,,,,,,,
encoding,attention,4,9741862,9744882,9742473.0,9742852.0,380.0,380.0,1614.8,784.9000000000001,1591.0,1269.0,Object_Land_Pattern_Large,56.10504375002347,59.12464416702278,1.0,Object_Land_Pattern_Large,-2.0,-2.0,1.0,0.6327755420934409,,,,,,,,
encoding,attention,4,9741862,9744882,9743155.0,9743634.0,480.0,480.0,1571.1,848.5999999999999,1591.0,1269.0,Object_Land_Pattern_Large,56.10504375002347,59.12464416702278,1.0,Object_Land_Pattern_Large,-2.0,-2.0,1.0,0.6327755420934409,,,,,,,,
encoding,attention,4,9741862,9744882,9743650.0,9743838.0,189.0,189.0,1619.1,779.3,1591.0,1269.0,Object_Land_Pattern_Large,56.10504375002347,59.12464416702278,1.0,Object_Land_Pattern_Large,-2.0,-2.0,1.0,0.6327755420934409,,,,,,,,
encoding,attention,4,9741862,9744882,9744207.0,9744421.0,215.0,215.0,1642.4,858.4000000000001,1591.0,1269.0,Object_Land_Pattern_Large,56.10504375002347,59.12464416702278,1.0,Object_Land_Pattern_Large,-2.0,-2.0,1.0,0.6327755420934409,,,,,,,,
encoding,fixation,5,9744882,9745889,9745211.0,9745338.0,128.0,128.0,1818.2,1005.7,1591.0,1269.0,Object_Land_Pattern_Large,59.12479495804291,60.13132329203654,1.0,Animal_Land_Solid_Small,-9.0,,,,,,,,,,,
encoding,fixation,5,9744882,9745889,9745360.0,9745514.0,155.0,155.0,1933.8,1046.5,1920.0,1080.0,fixation,59.12479495804291,60.13132329203654,1.0,Animal_Land_Solid_Small,-9.0,,,,,,,,,,,
encoding,fixation,5,9744882,9745889,9745758.0,9745976.0,219.0,131.0,1896.9,1085.5,1920.0,1080.0,fixation,59.12479495804291,60.13132329203654,1.0,Animal_Land_Solid_Small,-9.0,,,,,,,,,,,
encoding,image,5,9745889,9746901,9745984.0,9746148.0,165.0,165.0,1906.2,1053.8,1920.0,1080.0,fixation,60.13144095800817,61.143810583045706,1.0,Animal_Land_Solid_Small,-9.0,,,,,,,,,,,
encoding,image,5,9745889,9746901,9746185.0,9746496.0,312.0,312.0,1630.6,1231.8,1591.0,891.0,Animal_Land_Solid_Small,60.13144095800817,61.143810583045706,1.0,Animal_Land_Solid_Small,-9.0,,,,,,,,,,,
encoding,image,5,9745889,9746901,9746779.0,9747025.0,247.0,122.0,1640.0,1205.7,1591.0,891.0,Animal_Land_Solid_Small,60.13144095800817,61.143810583045706,1.0,Animal_Land_Solid_Small,-9.0,,,,,,,,,,,
encoding,value,5,9746901,9752912,9747038.0,9747389.0,352.0,352.0,1593.2,1177.2,1591.0,891.0,Animal_Land_Solid_Small,61.14392091706395,67.15448554197792,1.0,Animal_Land_Solid_Small,-9.0,,,,,,,,,,,
encoding,value,5,9746901,9752912,9747699.0,9748094.0,396.0,396.0,1592.1,1142.5,1591.0,891.0,Animal_Land_Solid_Small,61.14392091706395,67.15448554197792,1.0,Animal_Land_Solid_Small,-9.0,,,,,,,,,,,
encoding,value,5,9746901,9752912,9748380.0,9748593.0,214.0,214.0,1599.3,1184.5,1591.0,891.0,Animal_Land_Solid_Small,61.14392091706395,67.15448554197792,1.0,Animal_Land_Solid_Small,-9.0,,,,,,,,,,,
encoding,value,5,9746901,9752912,9748867.0,9749118.0,252.0,252.0,1581.9,1145.0,1591.0,891.0,Animal_Land_Solid_Small,61.14392091706395,67.15448554197792,1.0,Animal_Land_Solid_Small,-9.0,,,,,,,,,,,
encoding,value,5,9746901,9752912,9749400.0,9749716.0,317.0,317.0,1569.7,1136.9,1591.0,891.0,Animal_Land_Solid_Small,61.14392091706395,67.15448554197792,1.0,Animal_Land_Solid_Small,-9.0,,,,,,,,,,,
encoding,value,5,9746901,9752912,9749984.0,9750963.0,980.0,980.0,1574.1,1154.4,1591.0,891.0,Animal_Land_Solid_Small,61.14392091706395,67.15448554197792,1.0,Animal_Land_Solid_Small,-9.0,,,,,,,,,,,
encoding,value,5,9746901,9752912,9750970.0,9751294.0,325.0,325.0,1565.9,1138.0,1591.0,891.0,Animal_Land_Solid_Small,61.14392091706395,67.15448554197792,1.0,Animal_Land_Solid_Small,-9.0,,,,,,,,,,,
encoding,value,5,9746901,9752912,9751301.0,9751481.0,181.0,181.0,1599.6,1143.6,1591.0,891.0,Animal_Land_Solid_Small,61.14392091706395,67.15448554197792,1.0,Animal_Land_Solid_Small,-9.0,,,,,,,,,,,
encoding,value,5,9746901,9752912,9751496.0,9752455.0,960.0,960.0,1573.8,1145.9,1591.0,891.0,Animal_Land_Solid_Small,61.14392091706395,67.15448554197792,1.0,Animal_Land_Solid_Small,-9.0,,,,,,,,,,,
encoding,value,5,9746901,9752912,9752462.0,9753297.0,836.0,450.0,1576.1,1141.0,1591.0,891.0,Animal_Land_Solid_Small,61.14392091706395,67.15448554197792,1.0,Animal_Land_Solid_Small,-9.0,,,,,,,,,,,
encoding,attention,5,9752912,9755993,9753523.0,9753903.0,381.0,381.0,1614.0,1151.0,1591.0,891.0,Animal_Land_Solid_Small,67.15460300003178,70.23511604208034,1.0,Animal_Land_Solid_Small,-9.0,-9.0,1.0,0.6123150000348687,,,,,,,,
encoding,attention,5,9752912,9755993,9754184.0,9754411.0,228.0,228.0,1601.3,1167.4,1591.0,891.0,Animal_Land_Solid_Small,67.15460300003178,70.23511604208034,1.0,Animal_Land_Solid_Small,-9.0,-9.0,1.0,0.6123150000348687,,,,,,,,
encoding,attention,5,9752912,9755993,9754420.0,9754573.0,154.0,154.0,1633.0,1136.1,1591.0,891.0,Animal_Land_Solid_Small,67.15460300003178,70.23511604208034,1.0,Animal_Land_Solid_Small,-9.0,-9.0,1.0,0.6123150000348687,,,,,,,,
encoding,attention,5,9752912,9755993,9754871.0,9755016.0,146.0,146.0,1660.7,1115.5,1591.0,891.0,Animal_Land_Solid_Small,67.15460300003178,70.23511604208034,1.0,Animal_Land_Solid_Small,-9.0,-9.0,1.0,0.6123150000348687,,,,,,,,
encoding,attention,5,9752912,9755993,9755431.0,9755602.0,172.0,172.0,1679.1,1135.9,1591.0,891.0,Animal_Land_Solid_Small,67.15460300003178,70.23511604208034,1.0,Animal_Land_Solid_Small,-9.0,-9.0,1.0,0.6123150000348687,,,,,,,,
encoding,fixation,6,9755993,9757249,9756321.0,9756453.0,133.0,133.0,1623.2,1170.1,1591.0,891.0,Animal_Land_Solid_Small,70.23527062498033,71.49109350005165,1.0,Animal_Sea_Solid_Large,2.0,,,,,,,,,,,
encoding,fixation,6,9755993,9757249,9756702.0,9757188.0,487.0,487.0,1876.9,1061.9,1920.0,1080.0,fixation,70.23527062498033,71.49109350005165,1.0,Animal_Sea_Solid_Large,2.0,,,,,,,,,,,
encoding,image,6,9757249,9758263,9757439.0,9757572.0,134.0,134.0,1872.8,1078.3,1920.0,1080.0,fixation,71.49119783309288,72.50485100003425,1.0,Animal_Sea_Solid_Large,2.0,,,,,,,,,,,
encoding,image,6,9757249,9758263,9757602.0,9757749.0,148.0,148.0,2116.5,953.9000000000001,2249.0,1269.0,Animal_Sea_Solid_Large,71.49119783309288,72.50485100003425,1.0,Animal_Sea_Solid_Large,2.0,,,,,,,,,,,
encoding,image,6,9757249,9758263,9757771.0,9757944.0,174.0,174.0,2197.5,881.3,2249.0,1269.0,Animal_Sea_Solid_Large,71.49119783309288,72.50485100003425,1.0,Animal_Sea_Solid_Large,2.0,,,,,,,,,,,
encoding,image,6,9757249,9758263,9758207.0,9758785.0,579.0,56.0,2175.5,806.0,2249.0,1269.0,Animal_Sea_Solid_Large,71.49119783309288,72.50485100003425,1.0,Animal_Sea_Solid_Large,2.0,,,,,,,,,,,
encoding,value,6,9758263,9764279,9758792.0,9759167.0,376.0,376.0,2203.5,759.9000000000001,2249.0,1269.0,Animal_Sea_Solid_Large,72.50494162505493,78.5206141670933,1.0,Animal_Sea_Solid_Large,2.0,,,,,,,,,,,
encoding,value,6,9758263,9764279,9759425.0,9759582.0,158.0,158.0,2207.5,802.0,2249.0,1269.0,Animal_Sea_Solid_Large,72.50494162505493,78.5206141670933,1.0,Animal_Sea_Solid_Large,2.0,,,,,,,,,,,
encoding,value,6,9758263,9764279,9759848.0,9763331.0,3484.0,3484.0,2224.6,748.2,2249.0,1269.0,Animal_Sea_Solid_Large,72.50494162505493,78.5206141670933,1.0,Animal_Sea_Solid_Large,2.0,,,,,,,,,,,
encoding,value,6,9758263,9764279,9763348.0,9763511.0,164.0,164.0,2210.5,767.3,2249.0,1269.0,Animal_Sea_Solid_Large,72.50494162505493,78.5206141670933,1.0,Animal_Sea_Solid_Large,2.0,,,,,,,,,,,
encoding,value,6,9758263,9764279,9763518.0,9764868.0,1351.0,761.0,2229.0,756.0,2249.0,1269.0,Animal_Sea_Solid_Large,72.50494162505493,78.5206141670933,1.0,Animal_Sea_Solid_Large,2.0,,,,,,,,,,,
encoding,attention,6,9764279,9767297,9765081.0,9765483.0,403.0,403.0,2250.0,775.4000000000001,2249.0,1269.0,Animal_Sea_Solid_Large,78.52072120807134,81.53845154203009,1.0,Animal_Sea_Solid_Large,2.0,2.0,1.0,0.8212403749348596,,,,,,,,
encoding,attention,6,9764279,9767297,9765759.0,9766149.0,391.0,391.0,2192.9,844.3,2249.0,1269.0,Animal_Sea_Solid_Large,78.52072120807134,81.53845154203009,1.0,Animal_Sea_Solid_Large,2.0,2.0,1.0,0.8212403749348596,,,,,,,,
encoding,attention,6,9764279,9767297,9766185.0,9766435.0,251.0,251.0,1871.1,922.9000000000001,1920.0,1460.0,Object_Land_Pattern_Small,78.52072120807134,81.53845154203009,1.0,Animal_Sea_Solid_Large,2.0,2.0,1.0,0.8212403749348596,,,,,,,,
encoding,attention,6,9764279,9767297,9766665.0,9766944.0,280.0,280.0,1782.5,1109.2,1591.0,891.0,Animal_Land_Solid_Small,78.52072120807134,81.53845154203009,1.0,Animal_Sea_Solid_Large,2.0,2.0,1.0,0.8212403749348596,,,,,,,,
encoding,attention,6,9764279,9767297,9766970.0,9767110.0,141.0,141.0,1914.2,1039.3,1920.0,1080.0,fixation,78.52072120807134,81.53845154203009,1.0,Animal_Sea_Solid_Large,2.0,2.0,1.0,0.8212403749348596,,,,,,,,
encoding,fixation,7,10248950,10249956,10248958.0,10249313.0,356.0,356.0,1952.7,1031.0,1920.0,1080.0,fixation,14.061180666089058,15.067399708088487,2.0,Animal_Sea_Pattern_Small,7.0,,,,,,,,,,,
encoding,fixation,7,10248950,10249956,10249516.0,10249673.0,158.0,158.0,1811.1,1104.2,1591.0,891.0,Object_Sea_Solid_Small,14.061180666089058,15.067399708088487,2.0,Animal_Sea_Pattern_Small,7.0,,,,,,,,,,,
encoding,fixation,7,10248950,10249956,10249694.0,10249859.0,166.0,166.0,1923.7,1041.7,1920.0,1080.0,fixation,14.061180666089058,15.067399708088487,2.0,Animal_Sea_Pattern_Small,7.0,,,,,,,,,,,
encoding,image,7,10249956,10250968,10250074.0,10250284.0,211.0,211.0,1920.8,1111.0,1920.0,1080.0,fixation,15.067509416025132,16.07921229104977,2.0,Animal_Sea_Pattern_Small,7.0,,,,,,,,,,,
encoding,image,7,10249956,10250968,10250324.0,10250627.0,304.0,304.0,1892.7,1338.5,1920.0,700.0,Animal_Sea_Pattern_Small,15.067509416025132,16.07921229104977,2.0,Animal_Sea_Pattern_Small,7.0,,,,,,,,,,,
encoding,image,7,10249956,10250968,10250643.0,10250834.0,192.0,192.0,1930.6,1249.4,1920.0,700.0,Animal_Sea_Pattern_Small,15.067509416025132,16.07921229104977,2.0,Animal_Sea_Pattern_Small,7.0,,,,,,,,,,,
encoding,image,7,10249956,10250968,10250848.0,10251011.0,164.0,120.0,1893.4,1254.5,1920.0,700.0,Animal_Sea_Pattern_Small,15.067509416025132,16.07921229104977,2.0,Animal_Sea_Pattern_Small,7.0,,,,,,,,,,,
encoding,value,7,10250968,10256984,10251204.0,10251441.0,238.0,238.0,1905.5,1279.2,1920.0,700.0,Animal_Sea_Pattern_Small,16.079328250023536,22.0951210410567,2.0,Animal_Sea_Pattern_Small,7.0,,,,,,,,,,,
encoding,value,7,10250968,10256984,10251667.0,10252036.0,370.0,370.0,1915.9,1277.9,1920.0,700.0,Animal_Sea_Pattern_Small,16.079328250023536,22.0951210410567,2.0,Animal_Sea_Pattern_Small,7.0,,,,,,,,,,,
encoding,value,7,10250968,10256984,10252051.0,10252416.0,366.0,366.0,1901.4,1302.4,1920.0,700.0,Animal_Sea_Pattern_Small,16.079328250023536,22.0951210410567,2.0,Animal_Sea_Pattern_Small,7.0,,,,,,,,,,,
encoding,value,7,10250968,10256984,10252618.0,10252941.0,324.0,324.0,1901.2,1279.6,1920.0,700.0,Animal_Sea_Pattern_Small,16.079328250023536,22.0951210410567,2.0,Animal_Sea_Pattern_Small,7.0,,,,,,,,,,,
encoding,value,7,10250968,10256984,10253130.0,10253677.0,548.0,548.0,1894.9,1303.0,1920.0,700.0,Animal_Sea_Pattern_Small,16.079328250023536,22.0951210410567,2.0,Animal_Sea_Pattern_Small,7.0,,,,,,,,,,,
encoding,value,7,10250968,10256984,10253885.0,10254513.0,629.0,629.0,1884.7,1299.3,1920.0,700.0,Animal_Sea_Pattern_Small,16.079328250023536,22.0951210410567,2.0,Animal_Sea_Pattern_Small,7.0,,,,,,,,,,,
encoding,value,7,10250968,10256984,10254529.0,10255097.0,569.0,569.0,1885.7,1288.2,1920.0,700.0,Animal_Sea_Pattern_Small,16.079328250023536,22.0951210410567,2.0,Animal_Sea_Pattern_Small,7.0,,,,,,,,,,,
encoding,value,7,10250968,10256984,10255106.0,10255371.0,266.0,266.0,1874.8,1303.8,1920.0,700.0,Animal_Sea_Pattern_Small,16.079328250023536,22.0951210410567,2.0,Animal_Sea_Pattern_Small,7.0,,,,,,,,,,,
encoding,value,7,10250968,10256984,10255556.0,10255726.0,171.0,171.0,1898.3,1289.6,1920.0,700.0,Animal_Sea_Pattern_Small,16.079328250023536,22.0951210410567,2.0,Animal_Sea_Pattern_Small,7.0,,,,,,,,,,,
encoding,value,7,10250968,10256984,10255746.0,10255892.0,147.0,147.0,1861.9,1310.6,1920.0,700.0,Animal_Sea_Pattern_Small,16.079328250023536,22.0951210410567,2.0,Animal_Sea_Pattern_Small,7.0,,,,,,,,,,,
encoding,value,7,10250968,10256984,10255904.0,10256067.0,164.0,164.0,1914.8,1304.0,1920.0,700.0,Animal_Sea_Pattern_Small,16.079328250023536,22.0951210410567,2.0,Animal_Sea_Pattern_Small,7.0,,,,,,,,,,,
encoding,value,7,10250968,10256984,10256082.0,10256325.0,244.0,244.0,1881.9,1364.0,1920.0,700.0,Animal_Sea_Pattern_Small,16.079328250023536,22.0951210410567,2.0,Animal_Sea_Pattern_Small,7.0,,,,,,,,,,,
encoding,value,7,10250968,10256984,10256341.0,10256548.0,208.0,208.0,1897.4,1284.1,1920.0,700.0,Animal_Sea_Pattern_Small,16.079328250023536,22.0951210410567,2.0,Animal_Sea_Pattern_Small,7.0,,,,,,,,,,,
encoding,value,7,10250968,10256984,10256557.0,10257523.0,967.0,427.0,1902.5,1310.4,1920.0,700.0,Animal_Sea_Pattern_Small,16.079328250023536,22.0951210410567,2.0,Animal_Sea_Pattern_Small,7.0,,,,,,,,,,,
encoding,attention,7,10256984,10260004,10257531.0,10257975.0,445.0,445.0,1851.2,1302.4,1920.0,700.0,Animal_Sea_Pattern_Small,22.09524179098662,25.114508458063938,2.0,Animal_Sea_Pattern_Small,7.0,7.0,1.0,0.7446038749767467,,,,,,,,
encoding,attention,7,10256984,10260004,10258205.0,10258468.0,264.0,264.0,1875.4,1385.6,1920.0,700.0,Animal_Sea_Pattern_Small,22.09524179098662,25.114508458063938,2.0,Animal_Sea_Pattern_Small,7.0,7.0,1.0,0.7446038749767467,,,,,,,,
encoding,attention,7,10256984,10260004,10258479.0,10258601.0,123.0,123.0,1885.9,1325.4,1920.0,700.0,Animal_Sea_Pattern_Small,22.09524179098662,25.114508458063938,2.0,Animal_Sea_Pattern_Small,7.0,7.0,1.0,0.7446038749767467,,,,,,,,
encoding,attention,7,10256984,10260004,10258832.0,10259042.0,211.0,211.0,1884.2,1339.4,1920.0,700.0,Animal_Sea_Pattern_Small,22.09524179098662,25.114508458063938,2.0,Animal_Sea_Pattern_Small,7.0,7.0,1.0,0.7446038749767467,,,,,,,,
encoding,attention,7,10256984,10260004,10259253.0,10259448.0,196.0,196.0,1863.2,1332.4,1920.0,700.0,Animal_Sea_Pattern_Small,22.09524179098662,25.114508458063938,2.0,Animal_Sea_Pattern_Small,7.0,7.0,1.0,0.7446038749767467,,,,,,,,
encoding,attention,7,10256984,10260004,10259649.0,10259811.0,163.0,163.0,1887.7,1346.5,1920.0,700.0,Animal_Sea_Pattern_Small,22.09524179098662,25.114508458063938,2.0,Animal_Sea_Pattern_Small,7.0,7.0,1.0,0.7446038749767467,,,,,,,,
encoding,fixation,8,10260004,10261010,10260016.0,10260248.0,233.0,233.0,1857.6,1321.3,1920.0,700.0,Animal_Sea_Pattern_Small,25.11470945808105,26.121026666020043,2.0,Object_Land_Solid_Small,-2.0,,,,,,,,,,,
encoding,fixation,8,10260004,10261010,10260455.0,10260563.0,109.0,109.0,1911.7,1105.0,1920.0,1080.0,fixation,25.11470945808105,26.121026666020043,2.0,Object_Land_Solid_Small,-2.0,,,,,,,,,,,
encoding,fixation,8,10260004,10261010,10260578.0,10260727.0,150.0,150.0,1883.0,1028.0,1920.0,1080.0,fixation,25.11470945808105,26.121026666020043,2.0,Object_Land_Solid_Small,-2.0,,,,,,,,,,,
encoding,fixation,8,10260004,10261010,10260953.0,10261102.0,150.0,57.0,1856.0,1063.1,1920.0,1080.0,fixation,25.11470945808105,26.121026666020043,2.0,Object_Land_Solid_Small,-2.0,,,,,,,,,,,
encoding,image,8,10261011,10262022,10261114.0,10261277.0,164.0,164.0,1887.0,1024.8,1920.0,1080.0,fixation,26.12114929105155,27.13310287508648,2.0,Object_Land_Solid_Small,-2.0,,,,,,,,,,,
encoding,image,8,10261011,10262022,10261312.0,10261638.0,327.0,327.0,2187.6,1162.5,2249.0,891.0,Object_Land_Solid_Small,26.12114929105155,27.13310287508648,2.0,Object_Land_Solid_Small,-2.0,,,,,,,,,,,
encoding,image,8,10261011,10262022,10261861.0,10262213.0,353.0,161.0,2212.9,1185.5,2249.0,891.0,Object_Land_Solid_Small,26.12114929105155,27.13310287508648,2.0,Object_Land_Solid_Small,-2.0,,,,,,,,,,,
encoding,value,8,10262023,10268036,10262230.0,10262597.0,368.0,368.0,2201.1,1119.0,2249.0,891.0,Object_Land_Solid_Small,27.133207165985368,33.14600083301775,2.0,Object_Land_Solid_Small,-2.0,,,,,,,,,,,
encoding,value,8,10262023,10268036,10262834.0,10263053.0,220.0,220.0,2198.2,1126.1,2249.0,891.0,Object_Land_Solid_Small,27.133207165985368,33.14600083301775,2.0,Object_Land_Solid_Small,-2.0,,,,,,,,,,,
encoding,value,8,10262023,10268036,10263296.0,10263469.0,174.0,174.0,2185.8,1128.3,2249.0,891.0,Object_Land_Solid_Small,27.133207165985368,33.14600083301775,2.0,Object_Land_Solid_Small,-2.0,,,,,,,,,,,
encoding,value,8,10262023,10268036,10263719.0,10263923.0,205.0,205.0,2230.5,1173.8,2249.0,891.0,Object_Land_Solid_Small,27.133207165985368,33.14600083301775,2.0,Object_Land_Solid_Small,-2.0,,,,,,,,,,,
encoding,value,8,10262023,10268036,10264158.0,10264553.0,396.0,396.0,2186.2,1141.0,2249.0,891.0,Object_Land_Solid_Small,27.133207165985368,33.14600083301775,2.0,Object_Land_Solid_Small,-2.0,,,,,,,,,,,
encoding,value,8,10262023,10268036,10264569.0,10264842.0,274.0,274.0,2200.6,1193.6,2249.0,891.0,Object_Land_Solid_Small,27.133207165985368,33.14600083301775,2.0,Object_Land_Solid_Small,-2.0,,,,,,,,,,,
encoding,value,8,10262023,10268036,10265050.0,10265243.0,194.0,194.0,2187.6,1174.5,2249.0,891.0,Object_Land_Solid_Small,27.133207165985368,33.14600083301775,2.0,Object_Land_Solid_Small,-2.0,,,,,,,,,,,
encoding,value,8,10262023,10268036,10265255.0,10265775.0,521.0,521.0,2169.9,1201.5,2249.0,891.0,Object_Land_Solid_Small,27.133207165985368,33.14600083301775,2.0,Object_Land_Solid_Small,-2.0,,,,,,,,,,,
encoding,value,8,10262023,10268036,10265788.0,10266323.0,536.0,536.0,2191.5,1152.1,2249.0,891.0,Object_Land_Solid_Small,27.133207165985368,33.14600083301775,2.0,Object_Land_Solid_Small,-2.0,,,,,,,,,,,
encoding,value,8,10262023,10268036,10266332.0,10267340.0,1009.0,1009.0,2220.0,1121.8,2249.0,891.0,Object_Land_Solid_Small,27.133207165985368,33.14600083301775,2.0,Object_Land_Solid_Small,-2.0,,,,,,,,,,,
encoding,value,8,10262023,10268036,10267356.0,10268380.0,1025.0,680.0,2218.5,1122.8,2249.0,891.0,Object_Land_Solid_Small,27.133207165985368,33.14600083301775,2.0,Object_Land_Solid_Small,-2.0,,,,,,,,,,,
encoding,attention,8,10268036,10271055,10268390.0,10268978.0,589.0,589.0,2269.8,1127.5,2249.0,891.0,Object_Land_Solid_Small,33.14612183300778,36.165338000049815,2.0,Object_Land_Solid_Small,-2.0,-2.0,1.0,0.6845798749709502,,,,,,,,
encoding,attention,8,10268036,10271055,10269188.0,10269588.0,401.0,401.0,2192.9,1188.7,2249.0,891.0,Object_Land_Solid_Small,33.14612183300778,36.165338000049815,2.0,Object_Land_Solid_Small,-2.0,-2.0,1.0,0.6845798749709502,,,,,,,,
encoding,attention,8,10268036,10271055,10269833.0,10269994.0,162.0,162.0,2212.0,1195.5,2249.0,891.0,Object_Land_Solid_Small,33.14612183300778,36.165338000049815,2.0,Object_Land_Solid_Small,-2.0,-2.0,1.0,0.6845798749709502,,,,,,,,
encoding,attention,8,10268036,10271055,10270001.0,10270069.0,69.0,69.0,2176.2,1151.3,2249.0,891.0,Object_Land_Solid_Small,33.14612183300778,36.165338000049815,2.0,Object_Land_Solid_Small,-2.0,-2.0,1.0,0.6845798749709502,,,,,,,,
encoding,attention,8,10268036,10271055,10270467.0,10270630.0,164.0,164.0,1776.7,1363.0,1920.0,700.0,Animal_Sea_Pattern_Small,33.14612183300778,36.165338000049815,2.0,Object_Land_Solid_Small,-2.0,-2.0,1.0,0.6845798749709502,,,,,,,,
encoding,attention,8,10268036,10271055,10270822.0,10271043.0,222.0,222.0,1760.1,1424.8,1920.0,700.0,Animal_Sea_Pattern_Small,33.14612183300778,36.165338000049815,2.0,Object_Land_Solid_Small,-2.0,-2.0,1.0,0.6845798749709502,,,,,,,,
encoding,fixation,9,10271055,10272061,10271296.0,10271444.0,149.0,149.0,2141.5,1186.5,2249.0,891.0,Object_Land_Solid_Small,36.16548841597978,37.170898833079264,2.0,Object_Sea_Pattern_Large,9.0,,,,,,,,,,,
encoding,fixation,9,10271055,10272061,10271895.0,10271984.0,90.0,90.0,1786.7,1189.3,1591.0,891.0,Object_Sea_Solid_Small,36.16548841597978,37.170898833079264,2.0,Object_Sea_Pattern_Large,9.0,,,,,,,,,,,
encoding,image,9,10272061,10273071,10272241.0,10272410.0,170.0,170.0,1883.1,1090.3,1920.0,1080.0,fixation,37.17100258299615,38.18138575006742,2.0,Object_Sea_Pattern_Large,9.0,,,,,,,,,,,
encoding,image,9,10272061,10273071,10272462.0,10272807.0,346.0,346.0,1570.4,832.5,1591.0,1269.0,Object_Sea_Pattern_Large,37.17100258299615,38.18138575006742,2.0,Object_Sea_Pattern_Large,9.0,,,,,,,,,,,
encoding,value,9,10273071,10279084,10273097.0,10273297.0,201.0,201.0,1603.9,867.4000000000001,1591.0,1269.0,Object_Sea_Pattern_Large,38.1814957910683,44.19343566603493,2.0,Object_Sea_Pattern_Large,9.0,,,,,,,,,,,
encoding,value,9,10273071,10279084,10273310.0,10273881.0,572.0,572.0,1582.5,792.5999999999999,1591.0,1269.0,Object_Sea_Pattern_Large,38.1814957910683,44.19343566603493,2.0,Object_Sea_Pattern_Large,9.0,,,,,,,,,,,
encoding,value,9,10273071,10279084,10274174.0,10274850.0,677.0,677.0,1576.8,789.8,1591.0,1269.0,Object_Sea_Pattern_Large,38.1814957910683,44.19343566603493,2.0,Object_Sea_Pattern_Large,9.0,,,,,,,,,,,
encoding,value,9,10273071,10279084,10275126.0,10275522.0,397.0,397.0,1572.9,868.4000000000001,1591.0,1269.0,Object_Sea_Pattern_Large,38.1814957910683,44.19343566603493,2.0,Object_Sea_Pattern_Large,9.0,,,,,,,,,,,
encoding,value,9,10273071,10279084,10275816.0,10276440.0,625.0,625.0,1578.7,804.5999999999999,1591.0,1269.0,Object_Sea_Pattern_Large,38.1814957910683,44.19343566603493,2.0,Object_Sea_Pattern_Large,9.0,,,,,,,,,,,
encoding,value,9,10273071,10279084,10276704.0,10276839.0,136.0,136.0,1581.7,813.0999999999999,1591.0,1269.0,Object_Sea_Pattern_Large,38.1814957910683,44.19343566603493,2.0,Object_Sea_Pattern_Large,9.0,,,,,,,,,,,
encoding,value,9,10273071,10279084,10276845.0,10278251.0,1407.0,1407.0,1572.6,775.0999999999999,1591.0,1269.0,Object_Sea_Pattern_Large,38.1814957910683,44.19343566603493,2.0,Object_Sea_Pattern_Large,9.0,,,,,,,,,,,
encoding,value,9,10273071,10279084,10278260.0,10278506.0,247.0,247.0,1581.1,813.5,1591.0,1269.0,Object_Sea_Pattern_Large,38.1814957910683,44.19343566603493,2.0,Object_Sea_Pattern_Large,9.0,,,,,,,,,,,
encoding,value,9,10273071,10279084,10278522.0,10278755.0,234.0,234.0,1579.8,737.9000000000001,1591.0,1269.0,Object_Sea_Pattern_Large,38.1814957910683,44.19343566603493,2.0,Object_Sea_Pattern_Large,9.0,,,,,,,,,,,
encoding,value,9,10273071,10279084,10278764.0,10278987.0,224.0,224.0,1577.9,773.2,1591.0,1269.0,Object_Sea_Pattern_Large,38.1814957910683,44.19343566603493,2.0,Object_Sea_Pattern_Large,9.0,,,,,,,,,,,
encoding,value,9,10273071,10279084,10278998.0,10279328.0,331.0,86.0,1571.9,809.8,1591.0,1269.0,Object_Sea_Pattern_Large,38.1814957910683,44.19343566603493,2.0,Object_Sea_Pattern_Large,9.0,,,,,,,,,,,
encoding,attention,9,10279084,10282101,10279340.0,10279443.0,104.0,104.0,1548.1,762.5,1591.0,1269.0,Object_Sea_Pattern_Large,44.19356158305891,47.21106616605539,2.0,Object_Sea_Pattern_Large,9.0,9.0,1.0,0.8447619579965249,,,,,,,,
encoding,attention,9,10279084,10282101,10279672.0,10280199.0,528.0,528.0,1607.9,766.0999999999999,1591.0,1269.0,Object_Sea_Pattern_Large,44.19356158305891,47.21106616605539,2.0,Object_Sea_Pattern_Large,9.0,9.0,1.0,0.8447619579965249,,,,,,,,
encoding,attention,9,10279084,10282101,10280503.0,10280697.0,195.0,195.0,1575.2,878.0,1591.0,1269.0,Object_Sea_Pattern_Large,44.19356158305891,47.21106616605539,2.0,Object_Sea_Pattern_Large,9.0,9.0,1.0,0.8447619579965249,,,,,,,,
encoding,attention,9,10279084,10282101,10280982.0,10281159.0,178.0,178.0,1603.3,866.3,1591.0,1269.0,Object_Sea_Pattern_Large,44.19356158305891,47.21106616605539,2.0,Object_Sea_Pattern_Large,9.0,9.0,1.0,0.8447619579965249,,,,,,,,
encoding,attention,9,10279084,10282101,10281431.0,10281711.0,281.0,281.0,1593.5,840.3,1591.0,1269.0,Object_Sea_Pattern_Large,44.19356158305891,47.21106616605539,2.0,Object_Sea_Pattern_Large,9.0,9.0,1.0,0.8447619579965249,,,,,,,,
encoding,attention,9,10279084,10282101,10281956.0,10282061.0,106.0,106.0,1855.5,1079.8,1920.0,1080.0,fixation,44.19356158305891,47.21106616605539,2.0,Object_Sea_Pattern_Large,9.0,9.0,1.0,0.8447619579965249,,,,,,,,
encoding,fixation,10,10282102,10282607,10282357.0,10282648.0,292.0,250.0,1909.1,1014.9000000000001,1920.0,1080.0,fixation,47.21121304098051,47.71648675005417,2.0,Object_Sea_Solid_Small,-4.0,,,,,,,,,,,
encoding,image,10,10282607,10283618,10282906.0,10283009.0,104.0,104.0,1906.6,1055.2,1920.0,1080.0,fixation,47.71659704099875,48.72708058299031,2.0,Object_Sea_Solid_Small,-4.0,,,,,,,,,,,
encoding,image,10,10282607,10283618,10283046.0,10283561.0,516.0,516.0,1596.8,1219.7,1591.0,891.0,Object_Sea_Solid_Small,47.71659704099875,48.72708058299031,2.0,Object_Sea_Solid_Small,-4.0,,,,,,,,,,,
encoding,image,10,10282607,10283618,10283577.0,10283751.0,175.0,41.0,1599.9,1147.7,1591.0,891.0,Object_Sea_Solid_Small,47.71659704099875,48.72708058299031,2.0,Object_Sea_Solid_Small,-4.0,,,,,,,,,,,
encoding,value,10,10283618,10289629,10284004.0,10284266.0,263.0,263.0,1565.0,1182.0,1591.0,891.0,Object_Sea_Solid_Small,48.72722508304287,54.73820025008172,2.0,Object_Sea_Solid_Small,-4.0,,,,,,,,,,,
encoding,value,10,10283618,10289629,10284279.0,10284730.0,452.0,452.0,1562.9,1207.3,1591.0,891.0,Object_Sea_Solid_Small,48.72722508304287,54.73820025008172,2.0,Object_Sea_Solid_Small,-4.0,,,,,,,,,,,
encoding,value,10,10283618,10289629,10284745.0,10284768.0,24.0,24.0,1556.2,1185.2,1591.0,891.0,Object_Sea_Solid_Small,48.72722508304287,54.73820025008172,2.0,Object_Sea_Solid_Small,-4.0,,,,,,,,,,,
encoding,value,10,10283618,10289629,10285022.0,10285208.0,187.0,187.0,1569.4,1165.2,1591.0,891.0,Object_Sea_Solid_Small,48.72722508304287,54.73820025008172,2.0,Object_Sea_Solid_Small,-4.0,,,,,,,,,,,
encoding,value,10,10283618,10289629,10285226.0,10285453.0,228.0,228.0,1569.0,1212.1,1591.0,891.0,Object_Sea_Solid_Small,48.72722508304287,54.73820025008172,2.0,Object_Sea_Solid_Small,-4.0,,,,,,,,,,,
encoding,value,10,10283618,10289629,10285733.0,10285869.0,137.0,137.0,1565.7,1165.0,1591.0,891.0,Object_Sea_Solid_Small,48.72722508304287,54.73820025008172,2.0,Object_Sea_Solid_Small,-4.0,,,,,,,,,,,
encoding,value,10,10283618,10289629,10285888.0,10286132.0,245.0,245.0,1570.7,1217.2,1591.0,891.0,Object_Sea_Solid_Small,48.72722508304287,54.73820025008172,2.0,Object_Sea_Solid_Small,-4.0,,,,,,,,,,,
encoding,value,10,10283618,10289629,10286148.0,10286955.0,808.0,808.0,1570.5,1135.6,1591.0,891.0,Object_Sea_Solid_Small,48.72722508304287,54.73820025008172,2.0,Object_Sea_Solid_Small,-4.0,,,,,,,,,,,
encoding,value,10,10283618,10289629,10287191.0,10287371.0,181.0,181.0,1574.6,1148.1,1591.0,891.0,Object_Sea_Solid_Small,48.72722508304287,54.73820025008172,2.0,Object_Sea_Solid_Small,-4.0,,,,,,,,,,,
encoding,value,10,10283618,10289629,10287384.0,10287705.0,322.0,322.0,1557.3,1167.7,1591.0,891.0,Object_Sea_Solid_Small,48.72722508304287,54.73820025008172,2.0,Object_Sea_Solid_Small,-4.0,,,,,,,,,,,
encoding,value,10,10283618,10289629,10287716.0,10287944.0,229.0,229.0,1581.0,1209.6,1591.0,891.0,Object_Sea_Solid_Small,48.72722508304287,54.73820025008172,2.0,Object_Sea_Solid_Small,-4.0,,,,,,,,,,,
encoding,value,10,10283618,10289629,10288197.0,10288405.0,209.0,209.0,1583.1,1147.8,1591.0,891.0,Object_Sea_Solid_Small,48.72722508304287,54.73820025008172,2.0,Object_Sea_Solid_Small,-4.0,,,,,,,,,,,
encoding,value,10,10283618,10289629,10288660.0,10288894.0,235.0,235.0,1639.0,1168.0,1591.0,891.0,Object_Sea_Solid_Small,48.72722508304287,54.73820025008172,2.0,Object_Sea_Solid_Small,-4.0,,,,,,,,,,,
encoding,value,10,10283618,10289629,10289169.0,10289809.0,641.0,460.0,1567.9,1128.5,1591.0,891.0,Object_Sea_Solid_Small,48.72722508304287,54.73820025008172,2.0,Object_Sea_Solid_Small,-4.0,,,,,,,,,,,
encoding,attention,10,10289629,10292646,10290049.0,10290177.0,129.0,129.0,1581.8,1142.2,1591.0,891.0,Object_Sea_Solid_Small,54.73841025005095,57.75475675007328,2.0,Object_Sea_Solid_Small,-4.0,-4.0,1.0,1.060623792000115,,,,,,,,
encoding,attention,10,10289629,10292646,10290190.0,10290652.0,463.0,463.0,1534.3,1125.5,1591.0,891.0,Object_Sea_Solid_Small,54.73841025005095,57.75475675007328,2.0,Object_Sea_Solid_Small,-4.0,-4.0,1.0,1.060623792000115,,,,,,,,
encoding,attention,10,10289629,10292646,10290671.0,10291014.0,344.0,344.0,1617.9,1116.3,1591.0,891.0,Object_Sea_Solid_Small,54.73841025005095,57.75475675007328,2.0,Object_Sea_Solid_Small,-4.0,-4.0,1.0,1.060623792000115,,,,,,,,
encoding,attention,10,10289629,10292646,10291266.0,10291414.0,149.0,149.0,1611.0,1201.1,1591.0,891.0,Object_Sea_Solid_Small,54.73841025005095,57.75475675007328,2.0,Object_Sea_Solid_Small,-4.0,-4.0,1.0,1.060623792000115,,,,,,,,
encoding,attention,10,10289629,10292646,10291675.0,10291844.0,170.0,170.0,1721.1,1156.1,1591.0,891.0,Object_Sea_Solid_Small,54.73841025005095,57.75475675007328,2.0,Object_Sea_Solid_Small,-4.0,-4.0,1.0,1.060623792000115,,,,,,,,
encoding,attention,10,10289629,10292646,10292124.0,10292356.0,233.0,233.0,1561.9,1101.6,1591.0,891.0,Object_Sea_Solid_Small,54.73841025005095,57.75475675007328,2.0,Object_Sea_Solid_Small,-4.0,-4.0,1.0,1.060623792000115,,,,,,,,
encoding,fixation,11,10292646,10293902,10292984.0,10293036.0,53.0,53.0,1890.9,1045.2,1920.0,1080.0,fixation,57.75489258300513,59.01121995807625,2.0,Animal_Land_Solid_Large,9.0,,,,,,,,,,,
encoding,fixation,11,10292646,10293902,10293308.0,10293554.0,247.0,247.0,1856.2,1044.9,1591.0,1269.0,Object_Sea_Pattern_Large,57.75489258300513,59.01121995807625,2.0,Animal_Land_Solid_Large,9.0,,,,,,,,,,,
encoding,fixation,11,10292646,10293902,10293563.0,10293771.0,209.0,209.0,1898.8,1025.3,1920.0,1080.0,fixation,57.75489258300513,59.01121995807625,2.0,Animal_Land_Solid_Large,9.0,,,,,,,,,,,
encoding,image,11,10293902,10294914,10294041.0,10294201.0,161.0,161.0,1841.1,1057.4,1591.0,1269.0,Object_Sea_Pattern_Large,59.0113218750339,60.02334695798345,2.0,Animal_Land_Solid_Large,9.0,,,,,,,,,,,
encoding,image,11,10293902,10294914,10294249.0,10294585.0,337.0,337.0,1880.9,705.5999999999999,1920.0,1460.0,Animal_Land_Solid_Large,59.0113218750339,60.02334695798345,2.0,Animal_Land_Solid_Large,9.0,,,,,,,,,,,
encoding,image,11,10293902,10294914,10294880.0,10295115.0,236.0,34.0,1891.8,701.8,1920.0,1460.0,Animal_Land_Solid_Large,59.0113218750339,60.02334695798345,2.0,Animal_Land_Solid_Large,9.0,,,,,,,,,,,
encoding,value,11,10294914,10300926,10295134.0,10295617.0,484.0,484.0,1883.0,579.4000000000001,1920.0,1460.0,Animal_Land_Solid_Large,60.02349220798351,66.03529975004494,2.0,Animal_Land_Solid_Large,9.0,,,,,,,,,,,
encoding,value,11,10294914,10300926,10295899.0,10296519.0,621.0,621.0,1870.6,691.0999999999999,1920.0,1460.0,Animal_Land_Solid_Large,60.02349220798351,66.03529975004494,2.0,Animal_Land_Solid_Large,9.0,,,,,,,,,,,
encoding,value,11,10294914,10300926,10296827.0,10297213.0,387.0,387.0,1908.3,706.5,1920.0,1460.0,Animal_Land_Solid_Large,60.02349220798351,66.03529975004494,2.0,Animal_Land_Solid_Large,9.0,,,,,,,,,,,
encoding,value,11,10294914,10300926,10297227.0,10297649.0,423.0,423.0,1886.3,642.7,1920.0,1460.0,Animal_Land_Solid_Large,60.02349220798351,66.03529975004494,2.0,Animal_Land_Solid_Large,9.0,,,,,,,,,,,
encoding,value,11,10294914,10300926,10297660.0,10297988.0,329.0,329.0,1859.4,611.5,1920.0,1460.0,Animal_Land_Solid_Large,60.02349220798351,66.03529975004494,2.0,Animal_Land_Solid_Large,9.0,,,,,,,,,,,
encoding,value,11,10294914,10300926,10297996.0,10300277.0,2282.0,2282.0,1864.1,582.5,1920.0,1460.0,Animal_Land_Solid_Large,60.02349220798351,66.03529975004494,2.0,Animal_Land_Solid_Large,9.0,,,,,,,,,,,
encoding,value,11,10294914,10300926,10300506.0,10301010.0,505.0,420.0,1868.2,586.0,1920.0,1460.0,Animal_Land_Solid_Large,60.02349220798351,66.03529975004494,2.0,Animal_Land_Solid_Large,9.0,,,,,,,,,,,
encoding,attention,11,10300927,10303945,10301020.0,10301204.0,185.0,185.0,1884.5,618.0999999999999,1920.0,1460.0,Animal_Land_Solid_Large,66.03542233305052,69.0535708750831,2.0,Animal_Land_Solid_Large,9.0,9.0,1.0,0.8666615419788286,,,,,,,,
encoding,attention,11,10300927,10303945,10301218.0,10302042.0,825.0,825.0,1861.6,565.9000000000001,1920.0,1460.0,Animal_Land_Solid_Large,66.03542233305052,69.0535708750831,2.0,Animal_Land_Solid_Large,9.0,9.0,1.0,0.8666615419788286,,,,,,,,
encoding,attention,11,10300927,10303945,10302222.0,10302361.0,140.0,140.0,1920.9,1179.8,1920.0,700.0,Animal_Sea_Pattern_Small,66.03542233305052,69.0535708750831,2.0,Animal_Land_Solid_Large,9.0,9.0,1.0,0.8666615419788286,,,,,,,,
encoding,attention,11,10300927,10303945,10302380.0,10302521.0,142.0,142.0,1909.2,1079.8,1920.0,1080.0,fixation,66.03542233305052,69.0535708750831,2.0,Animal_Land_Solid_Large,9.0,9.0,1.0,0.8666615419788286,,,,,,,,
encoding,fixation,12,10303945,10304953,,,,,,,,,none,69.05375395808369,70.06154608307406,2.0,Animal_Land_Pattern_Large,-9.0,,,,,,,,,,,
encoding,image,12,10304953,10305964,10305209.0,10305387.0,179.0,179.0,2180.7,882.3,2249.0,1269.0,Animal_Land_Pattern_Large,70.06169308302924,71.07260441605467,2.0,Animal_Land_Pattern_Large,-9.0,,,,,,,,,,,
encoding,image,12,10304953,10305964,10305649.0,10305881.0,233.0,233.0,2187.7,826.0999999999999,2249.0,1269.0,Animal_Land_Pattern_Large,70.06169308302924,71.07260441605467,2.0,Animal_Land_Pattern_Large,-9.0,,,,,,,,,,,
encoding,value,12,10305964,10311975,10306205.0,10306375.0,171.0,171.0,2138.3,815.4000000000001,2249.0,1269.0,Animal_Land_Pattern_Large,71.07271162502002,77.08369574998505,2.0,Animal_Land_Pattern_Large,-9.0,,,,,,,,,,,
encoding,value,12,10305964,10311975,10306393.0,10306734.0,342.0,342.0,2236.9,747.5,2249.0,1269.0,Animal_Land_Pattern_Large,71.07271162502002,77.08369574998505,2.0,Animal_Land_Pattern_Large,-9.0,,,,,,,,,,,
encoding,value,12,10305964,10311975,10307016.0,10307278.0,263.0,263.0,2202.8,819.2,2249.0,1269.0,Animal_Land_Pattern_Large,71.07271162502002,77.08369574998505,2.0,Animal_Land_Pattern_Large,-9.0,,,,,,,,,,,
encoding,value,12,10305964,10311975,10307291.0,10307909.0,619.0,619.0,2192.0,851.4000000000001,2249.0,1269.0,Animal_Land_Pattern_Large,71.07271162502002,77.08369574998505,2.0,Animal_Land_Pattern_Large,-9.0,,,,,,,,,,,
encoding,value,12,10305964,10311975,10308179.0,10308420.0,242.0,242.0,2164.4,748.5999999999999,2249.0,1269.0,Animal_Land_Pattern_Large,71.07271162502002,77.08369574998505,2.0,Animal_Land_Pattern_Large,-9.0,,,,,,,,,,,
encoding,value,12,10305964,10311975,10308433.0,10309178.0,746.0,746.0,2208.4,750.9000000000001,2249.0,1269.0,Animal_Land_Pattern_Large,71.07271162502002,77.08369574998505,2.0,Animal_Land_Pattern_Large,-9.0,,,,,,,,,,,
encoding,value,12,10305964,10311975,10309197.0,10309606.0,410.0,410.0,2163.9,800.2,2249.0,1269.0,Animal_Land_Pattern_Large,71.07271162502002,77.08369574998505,2.0,Animal_Land_Pattern_Large,-9.0,,,,,,,,,,,
encoding,value,12,10305964,10311975,10309619.0,10310484.0,866.0,866.0,2187.3,845.0,2249.0,1269.0,Animal_Land_Pattern_Large,71.07271162502002,77.08369574998505,2.0,Animal_Land_Pattern_Large,-9.0,,,,,,,,,,,
encoding,value,12,10305964,10311975,10310501.0,10310690.0,190.0,190.0,2201.6,777.0999999999999,2249.0,1269.0,Animal_Land_Pattern_Large,71.07271162502002,77.08369574998505,2.0,Animal_Land_Pattern_Large,-9.0,,,,,,,,,,,
encoding,value,12,10305964,10311975,10310702.0,10312323.0,1622.0,1273.0,2219.8,732.9000000000001,2249.0,1269.0,Animal_Land_Pattern_Large,71.07271162502002,77.08369574998505,2.0,Animal_Land_Pattern_Large,-9.0,,,,,,,,,,,
encoding,attention,12,10311975,10314992,10312533.0,10312821.0,289.0,289.0,2244.7,742.5,2249.0,1269.0,Animal_Land_Pattern_Large,77.08380437502638,80.10070829105098,2.0,Animal_Land_Pattern_Large,-9.0,-9.0,1.0,0.6056401669047773,,,,,,,,
encoding,attention,12,10311975,10314992,10313012.0,10313367.0,356.0,356.0,1904.8,1054.9,1920.0,1080.0,fixation,77.08380437502638,80.10070829105098,2.0,Animal_Land_Pattern_Large,-9.0,-9.0,1.0,0.6056401669047773,,,,,,,,
encoding,attention,12,10311975,10314992,10313617.0,10313885.0,269.0,269.0,1890.8,1039.7,1920.0,1080.0,fixation,77.08380437502638,80.10070829105098,2.0,Animal_Land_Pattern_Large,-9.0,-9.0,1.0,0.6056401669047773,,,,,,,,
encoding,attention,12,10311975,10314992,10314123.0,10314289.0,167.0,167.0,1941.9,1016.5,1920.0,1080.0,fixation,77.08380437502638,80.10070829105098,2.0,Animal_Land_Pattern_Large,-9.0,-9.0,1.0,0.6056401669047773,,,,,,,,
encoding,fixation,13,10642239,10643495,10642279.0,10642497.0,219.0,219.0,1937.2,830.9000000000001,1920.0,1460.0,Animal_Sea_Solid_Small,7.299088208004832,8.555366832995787,3.0,Animal_Land_Pattern_Small,-6.0,,,,,,,,,,,
encoding,fixation,13,10642239,10643495,10642529.0,10642804.0,276.0,276.0,1871.0,1096.2,1920.0,1080.0,fixation,7.299088208004832,8.555366832995787,3.0,Animal_Land_Pattern_Small,-6.0,,,,,,,,,,,
encoding,fixation,13,10642239,10643495,10643106.0,10643235.0,130.0,130.0,1810.3,1036.5,1591.0,1269.0,Object_Land_Pattern_Large,7.299088208004832,8.555366832995787,3.0,Animal_Land_Pattern_Small,-6.0,,,,,,,,,,,
encoding,fixation,13,10642239,10643495,10643254.0,10643662.0,409.0,241.0,1897.9,1039.6,1920.0,1080.0,fixation,7.299088208004832,8.555366832995787,3.0,Animal_Land_Pattern_Small,-6.0,,,,,,,,,,,
encoding,image,13,10643495,10644507,10643701.0,10643823.0,123.0,123.0,1904.1,1302.8,1920.0,700.0,Animal_Land_Pattern_Small,8.555471167084761,9.566619666991755,3.0,Animal_Land_Pattern_Small,-6.0,,,,,,,,,,,
encoding,image,13,10643495,10644507,10643845.0,10644662.0,818.0,662.0,1897.7,1387.6,1920.0,700.0,Animal_Land_Pattern_Small,8.555471167084761,9.566619666991755,3.0,Animal_Land_Pattern_Small,-6.0,,,,,,,,,,,
encoding,value,13,10644507,10650521,10644683.0,10644882.0,200.0,200.0,1892.7,1285.7,1920.0,700.0,Animal_Land_Pattern_Small,9.566732000093907,15.580093333031982,3.0,Animal_Land_Pattern_Small,-6.0,,,,,,,,,,,
encoding,value,13,10644507,10650521,10645118.0,10645579.0,462.0,462.0,1905.1,1315.1,1920.0,700.0,Animal_Land_Pattern_Small,9.566732000093907,15.580093333031982,3.0,Animal_Land_Pattern_Small,-6.0,,,,,,,,,,,
encoding,value,13,10644507,10650521,10645586.0,10645838.0,253.0,253.0,1893.3,1271.2,1920.0,700.0,Animal_Land_Pattern_Small,9.566732000093907,15.580093333031982,3.0,Animal_Land_Pattern_Small,-6.0,,,,,,,,,,,
encoding,value,13,10644507,10650521,10645857.0,10646048.0,192.0,192.0,1896.2,1350.2,1920.0,700.0,Animal_Land_Pattern_Small,9.566732000093907,15.580093333031982,3.0,Animal_Land_Pattern_Small,-6.0,,,,,,,,,,,
encoding,value,13,10644507,10650521,10646064.0,10646735.0,672.0,672.0,1882.5,1272.2,1920.0,700.0,Animal_Land_Pattern_Small,9.566732000093907,15.580093333031982,3.0,Animal_Land_Pattern_Small,-6.0,,,,,,,,,,,
encoding,value,13,10644507,10650521,10646753.0,10647582.0,830.0,830.0,1887.3,1289.6,1920.0,700.0,Animal_Land_Pattern_Small,9.566732000093907,15.580093333031982,3.0,Animal_Land_Pattern_Small,-6.0,,,,,,,,,,,
encoding,value,13,10644507,10650521,10647768.0,10650931.0,3164.0,2753.0,1890.2,1287.7,1920.0,700.0,Animal_Land_Pattern_Small,9.566732000093907,15.580093333031982,3.0,Animal_Land_Pattern_Small,-6.0,,,,,,,,,,,
encoding,attention,13,10650521,10653539,10651161.0,10651755.0,595.0,595.0,1954.7,1292.0,1920.0,700.0,Animal_Land_Pattern_Small,15.58023800002411,18.59857133310288,3.0,Animal_Land_Pattern_Small,-6.0,-6.0,1.0,0.8334614590276033,,,,,,,,
encoding,attention,13,10650521,10653539,10651999.0,10652177.0,179.0,179.0,1894.6,1142.6,1920.0,1080.0,fixation,15.58023800002411,18.59857133310288,3.0,Animal_Land_Pattern_Small,-6.0,-6.0,1.0,0.8334614590276033,,,,,,,,
encoding,attention,13,10650521,10653539,10652203.0,10652461.0,259.0,259.0,1915.1,1285.2,1920.0,700.0,Animal_Land_Pattern_Small,15.58023800002411,18.59857133310288,3.0,Animal_Land_Pattern_Small,-6.0,-6.0,1.0,0.8334614590276033,,,,,,,,
encoding,attention,13,10650521,10653539,10652493.0,10652662.0,170.0,170.0,1893.0,1062.1,1920.0,1080.0,fixation,15.58023800002411,18.59857133310288,3.0,Animal_Land_Pattern_Small,-6.0,-6.0,1.0,0.8334614590276033,,,,,,,,
encoding,fixation,14,10653539,10654544,,,,,,,,,none,18.598712167004123,19.603757917066105,3.0,Object_Land_Solid_Large,1.0,,,,,,,,,,,
encoding,image,14,10654544,10655555,10654842.0,10654982.0,141.0,141.0,2146.8,892.9000000000001,2249.0,1269.0,Object_Land_Solid_Large,19.60386470810045,20.61461633304134,3.0,Object_Land_Solid_Large,1.0,,,,,,,,,,,
encoding,image,14,10654544,10655555,10654995.0,10655117.0,123.0,123.0,2227.2,836.0999999999999,2249.0,1269.0,Object_Land_Solid_Large,19.60386470810045,20.61461633304134,3.0,Object_Land_Solid_Large,1.0,,,,,,,,,,,
encoding,image,14,10654544,10655555,10655386.0,10655610.0,225.0,169.0,2201.9,846.0,2249.0,1269.0,Object_Land_Solid_Large,19.60386470810045,20.61461633304134,3.0,Object_Land_Solid_Large,1.0,,,,,,,,,,,
encoding,value,14,10655555,10661568,10655850.0,10656181.0,332.0,332.0,2171.7,836.0,2249.0,1269.0,Object_Land_Solid_Large,20.614723375067115,26.627072625095025,3.0,Object_Land_Solid_Large,1.0,,,,,,,,,,,
encoding,value,14,10655555,10661568,10656442.0,10656911.0,470.0,470.0,2208.3,740.4000000000001,2249.0,1269.0,Object_Land_Solid_Large,20.614723375067115,26.627072625095025,3.0,Object_Land_Solid_Large,1.0,,,,,,,,,,,
encoding,value,14,10655555,10661568,10656926.0,10657416.0,491.0,491.0,2177.2,772.5,2249.0,1269.0,Object_Land_Solid_Large,20.614723375067115,26.627072625095025,3.0,Object_Land_Solid_Large,1.0,,,,,,,,,,,
encoding,value,14,10655555,10661568,10657427.0,10657701.0,275.0,275.0,2221.4,727.5,2249.0,1269.0,Object_Land_Solid_Large,20.614723375067115,26.627072625095025,3.0,Object_Land_Solid_Large,1.0,,,,,,,,,,,
encoding,value,14,10655555,10661568,10657972.0,10658293.0,322.0,322.0,2209.2,743.5,2249.0,1269.0,Object_Land_Solid_Large,20.614723375067115,26.627072625095025,3.0,Object_Land_Solid_Large,1.0,,,,,,,,,,,
encoding,value,14,10655555,10661568,10658528.0,10659202.0,675.0,675.0,2202.3,748.0,2249.0,1269.0,Object_Land_Solid_Large,20.614723375067115,26.627072625095025,3.0,Object_Land_Solid_Large,1.0,,,,,,,,,,,
encoding,value,14,10655555,10661568,10659409.0,10659671.0,263.0,263.0,2208.7,766.0999999999999,2249.0,1269.0,Object_Land_Solid_Large,20.614723375067115,26.627072625095025,3.0,Object_Land_Solid_Large,1.0,,,,,,,,,,,
encoding,value,14,10655555,10661568,10659680.0,10660102.0,423.0,423.0,2181.7,772.0999999999999,2249.0,1269.0,Object_Land_Solid_Large,20.614723375067115,26.627072625095025,3.0,Object_Land_Solid_Large,1.0,,,,,,,,,,,
encoding,value,14,10655555,10661568,10660113.0,10661603.0,1491.0,1455.0,2225.6,766.2,2249.0,1269.0,Object_Land_Solid_Large,20.614723375067115,26.627072625095025,3.0,Object_Land_Solid_Large,1.0,,,,,,,,,,,
encoding,attention,14,10661568,10664587,10661619.0,10662094.0,476.0,476.0,2201.9,768.0,2249.0,1269.0,Object_Land_Solid_Large,26.627197167021222,29.64600662502926,3.0,Object_Land_Solid_Large,1.0,1.0,1.0,0.7811365419765934,,,,,,,,
encoding,attention,14,10661568,10664587,10662287.0,10662622.0,336.0,336.0,2193.0,779.0,2249.0,1269.0,Object_Land_Solid_Large,26.627197167021222,29.64600662502926,3.0,Object_Land_Solid_Large,1.0,1.0,1.0,0.7811365419765934,,,,,,,,
encoding,attention,14,10661568,10664587,10662815.0,10663212.0,398.0,398.0,1813.5,1279.3,1920.0,700.0,Animal_Land_Pattern_Small,26.627197167021222,29.64600662502926,3.0,Object_Land_Solid_Large,1.0,1.0,1.0,0.7811365419765934,,,,,,,,
encoding,attention,14,10661568,10664587,10663403.0,10663742.0,340.0,340.0,1837.6,1403.8,1920.0,700.0,Animal_Land_Pattern_Small,26.627197167021222,29.64600662502926,3.0,Object_Land_Solid_Large,1.0,1.0,1.0,0.7811365419765934,,,,,,,,
encoding,attention,14,10661568,10664587,10663942.0,10664073.0,132.0,132.0,1779.6,1375.4,1920.0,700.0,Animal_Land_Pattern_Small,26.627197167021222,29.64600662502926,3.0,Object_Land_Solid_Large,1.0,1.0,1.0,0.7811365419765934,,,,,,,,
encoding,attention,14,10661568,10664587,10664297.0,10664461.0,165.0,165.0,1879.3,1240.0,1920.0,700.0,Animal_Land_Pattern_Small,26.627197167021222,29.64600662502926,3.0,Object_Land_Solid_Large,1.0,1.0,1.0,0.7811365419765934,,,,,,,,
encoding,fixation,15,10664587,10665093,10664788.0,10664944.0,157.0,157.0,2195.3,834.8,2249.0,1269.0,Object_Land_Solid_Large,29.64619154203683,30.151801375090145,3.0,Animal_Sea_Solid_Small,9.0,,,,,,,,,,,
encoding,fixation,15,10664587,10665093,10664992.0,10665293.0,302.0,101.0,1856.7,1105.7,1920.0,1080.0,fixation,29.64619154203683,30.151801375090145,3.0,Animal_Sea_Solid_Small,9.0,,,,,,,,,,,
encoding,image,15,10665093,10666104,10665527.0,10665670.0,144.0,144.0,1901.9,752.0999999999999,1920.0,1460.0,Animal_Sea_Solid_Small,30.151958708069287,31.162795167067088,3.0,Animal_Sea_Solid_Small,9.0,,,,,,,,,,,
encoding,image,15,10665093,10666104,10665692.0,10665891.0,200.0,200.0,1894.9,673.5,1920.0,1460.0,Animal_Sea_Solid_Small,30.151958708069287,31.162795167067088,3.0,Animal_Sea_Solid_Small,9.0,,,,,,,,,,,
encoding,value,15,10666104,10672118,10666138.0,10666327.0,190.0,190.0,1893.9,856.8,1920.0,1460.0,Animal_Sea_Solid_Small,31.162969500059265,37.176569500006735,3.0,Animal_Sea_Solid_Small,9.0,,,,,,,,,,,
encoding,value,15,10666104,10672118,10666367.0,10666829.0,463.0,463.0,1888.4,588.0,1920.0,1460.0,Animal_Sea_Solid_Small,31.162969500059265,37.176569500006735,3.0,Animal_Sea_Solid_Small,9.0,,,,,,,,,,,
encoding,value,15,10666104,10672118,10667104.0,10667280.0,177.0,177.0,1908.1,658.5,1920.0,1460.0,Animal_Sea_Solid_Small,31.162969500059265,37.176569500006735,3.0,Animal_Sea_Solid_Small,9.0,,,,,,,,,,,
encoding,value,15,10666104,10672118,10667290.0,10667994.0,705.0,705.0,1893.1,670.8,1920.0,1460.0,Animal_Sea_Solid_Small,31.162969500059265,37.176569500006735,3.0,Animal_Sea_Solid_Small,9.0,,,,,,,,,,,
encoding,value,15,10666104,10672118,10668013.0,10668266.0,254.0,254.0,1893.4,565.0999999999999,1920.0,1460.0,Animal_Sea_Solid_Small,31.162969500059265,37.176569500006735,3.0,Animal_Sea_Solid_Small,9.0,,,,,,,,,,,
encoding,value,15,10666104,10672118,10668552.0,10668748.0,197.0,197.0,1893.2,633.8,1920.0,1460.0,Animal_Sea_Solid_Small,31.162969500059265,37.176569500006735,3.0,Animal_Sea_Solid_Small,9.0,,,,,,,,,,,
encoding,value,15,10666104,10672118,10668767.0,10669231.0,465.0,465.0,1891.9,698.7,1920.0,1460.0,Animal_Sea_Solid_Small,31.162969500059265,37.176569500006735,3.0,Animal_Sea_Solid_Small,9.0,,,,,,,,,,,
encoding,value,15,10666104,10672118,10669251.0,10669416.0,166.0,166.0,1872.6,785.3,1920.0,1460.0,Animal_Sea_Solid_Small,31.162969500059265,37.176569500006735,3.0,Animal_Sea_Solid_Small,9.0,,,,,,,,,,,
encoding,value,15,10666104,10672118,10669434.0,10670323.0,890.0,890.0,1880.7,679.9000000000001,1920.0,1460.0,Animal_Sea_Solid_Small,31.162969500059265,37.176569500006735,3.0,Animal_Sea_Solid_Small,9.0,,,,,,,,,,,
encoding,value,15,10666104,10672118,10670330.0,10670700.0,371.0,371.0,1898.9,676.0,1920.0,1460.0,Animal_Sea_Solid_Small,31.162969500059265,37.176569500006735,3.0,Animal_Sea_Solid_Small,9.0,,,,,,,,,,,
encoding,value,15,10666104,10672118,10670946.0,10671272.0,327.0,327.0,1873.6,695.5999999999999,1920.0,1460.0,Animal_Sea_Solid_Small,31.162969500059265,37.176569500006735,3.0,Animal_Sea_Solid_Small,9.0,,,,,,,,,,,
encoding,value,15,10666104,10672118,10671284.0,10671458.0,175.0,175.0,1903.0,631.9000000000001,1920.0,1460.0,Animal_Sea_Solid_Small,31.162969500059265,37.176569500006735,3.0,Animal_Sea_Solid_Small,9.0,,,,,,,,,,,
encoding,value,15,10666104,10672118,10671470.0,10672243.0,774.0,648.0,1881.2,582.0,1920.0,1460.0,Animal_Sea_Solid_Small,31.162969500059265,37.176569500006735,3.0,Animal_Sea_Solid_Small,9.0,,,,,,,,,,,
encoding,attention,15,10672118,10675135,10672253.0,10672446.0,194.0,194.0,1872.9,605.3,1920.0,1460.0,Animal_Sea_Solid_Small,37.17668370809406,40.193486875039525,3.0,Animal_Sea_Solid_Small,9.0,9.0,1.0,0.6576754580019042,,,,,,,,
encoding,attention,15,10672118,10675135,10672453.0,10673064.0,612.0,612.0,1865.1,572.2,1920.0,1460.0,Animal_Sea_Solid_Small,37.17668370809406,40.193486875039525,3.0,Animal_Sea_Solid_Small,9.0,9.0,1.0,0.6576754580019042,,,,,,,,
encoding,attention,15,10672118,10675135,10673342.0,10673460.0,119.0,119.0,1879.3,883.0999999999999,1920.0,1460.0,Animal_Sea_Solid_Small,37.17668370809406,40.193486875039525,3.0,Animal_Sea_Solid_Small,9.0,9.0,1.0,0.6576754580019042,,,,,,,,
encoding,attention,15,10672118,10675135,10673670.0,10673902.0,233.0,233.0,1884.8,1233.7,1920.0,700.0,Animal_Land_Pattern_Small,37.17668370809406,40.193486875039525,3.0,Animal_Sea_Solid_Small,9.0,9.0,1.0,0.6576754580019042,,,,,,,,
encoding,attention,15,10672118,10675135,10674161.0,10674283.0,123.0,123.0,1942.3,1110.8,1920.0,1080.0,fixation,37.17668370809406,40.193486875039525,3.0,Animal_Sea_Solid_Small,9.0,9.0,1.0,0.6576754580019042,,,,,,,,
encoding,attention,15,10672118,10675135,10674555.0,10674702.0,148.0,148.0,1939.7,891.8,1920.0,1460.0,Animal_Sea_Solid_Small,37.17668370809406,40.193486875039525,3.0,Animal_Sea_Solid_Small,9.0,9.0,1.0,0.6576754580019042,,,,,,,,
encoding,fixation,16,10675135,10675640,10675472.0,10675645.0,174.0,168.0,1860.1,717.3,1920.0,1460.0,Animal_Sea_Solid_Small,40.19373408309184,40.6989050420234,3.0,Animal_Sea_Pattern_Large,-5.0,,,,,,,,,,,
encoding,image,16,10675640,10676652,10675692.0,10675874.0,183.0,183.0,1887.9,1062.5,1920.0,1080.0,fixation,40.699004083056934,41.71030966704711,3.0,Animal_Sea_Pattern_Large,-5.0,,,,,,,,,,,
encoding,image,16,10675640,10676652,10676104.0,10676379.0,276.0,276.0,2194.4,1259.7,2249.0,891.0,Animal_Sea_Pattern_Large,40.699004083056934,41.71030966704711,3.0,Animal_Sea_Pattern_Large,-5.0,,,,,,,,,,,
encoding,image,16,10675640,10676652,10676636.0,10676848.0,213.0,16.0,2158.8,1212.8,2249.0,891.0,Animal_Sea_Pattern_Large,40.699004083056934,41.71030966704711,3.0,Animal_Sea_Pattern_Large,-5.0,,,,,,,,,,,
encoding,value,16,10676652,10682663,10676869.0,10677194.0,326.0,326.0,2215.2,1169.0,2249.0,891.0,Animal_Sea_Pattern_Large,41.71049575007055,47.72139208309818,3.0,Animal_Sea_Pattern_Large,-5.0,,,,,,,,,,,
encoding,value,16,10676652,10682663,10677693.0,10678128.0,436.0,436.0,2230.0,1196.8,2249.0,891.0,Animal_Sea_Pattern_Large,41.71049575007055,47.72139208309818,3.0,Animal_Sea_Pattern_Large,-5.0,,,,,,,,,,,
encoding,value,16,10676652,10682663,10678148.0,10678426.0,279.0,279.0,2182.2,1236.7,2249.0,891.0,Animal_Sea_Pattern_Large,41.71049575007055,47.72139208309818,3.0,Animal_Sea_Pattern_Large,-5.0,,,,,,,,,,,
encoding,value,16,10676652,10682663,10678668.0,10678865.0,198.0,198.0,2192.0,1197.6,2249.0,891.0,Animal_Sea_Pattern_Large,41.71049575007055,47.72139208309818,3.0,Animal_Sea_Pattern_Large,-5.0,,,,,,,,,,,
encoding,value,16,10676652,10682663,10678877.0,10679336.0,460.0,460.0,2208.6,1228.1,2249.0,891.0,Animal_Sea_Pattern_Large,41.71049575007055,47.72139208309818,3.0,Animal_Sea_Pattern_Large,-5.0,,,,,,,,,,,
encoding,value,16,10676652,10682663,10679563.0,10679810.0,248.0,248.0,2217.1,1207.4,2249.0,891.0,Animal_Sea_Pattern_Large,41.71049575007055,47.72139208309818,3.0,Animal_Sea_Pattern_Large,-5.0,,,,,,,,,,,
encoding,value,16,10676652,10682663,10679821.0,10680185.0,365.0,365.0,2198.2,1237.2,2249.0,891.0,Animal_Sea_Pattern_Large,41.71049575007055,47.72139208309818,3.0,Animal_Sea_Pattern_Large,-5.0,,,,,,,,,,,
encoding,value,16,10676652,10682663,10680202.0,10680382.0,181.0,181.0,2206.4,1084.4,2249.0,891.0,Animal_Sea_Pattern_Large,41.71049575007055,47.72139208309818,3.0,Animal_Sea_Pattern_Large,-5.0,,,,,,,,,,,
encoding,value,16,10676652,10682663,10680395.0,10680584.0,190.0,190.0,2212.4,1144.3,2249.0,891.0,Animal_Sea_Pattern_Large,41.71049575007055,47.72139208309818,3.0,Animal_Sea_Pattern_Large,-5.0,,,,,,,,,,,
encoding,value,16,10676652,10682663,10680604.0,10680776.0,173.0,173.0,2148.7,1159.8,2249.0,891.0,Animal_Sea_Pattern_Large,41.71049575007055,47.72139208309818,3.0,Animal_Sea_Pattern_Large,-5.0,,,,,,,,,,,
encoding,value,16,10676652,10682663,10680793.0,10680955.0,163.0,163.0,2216.2,1128.1,2249.0,891.0,Animal_Sea_Pattern_Large,41.71049575007055,47.72139208309818,3.0,Animal_Sea_Pattern_Large,-5.0,,,,,,,,,,,
encoding,value,16,10676652,10682663,10680974.0,10681218.0,245.0,245.0,2153.5,1164.2,2249.0,891.0,Animal_Sea_Pattern_Large,41.71049575007055,47.72139208309818,3.0,Animal_Sea_Pattern_Large,-5.0,,,,,,,,,,,
encoding,value,16,10676652,10682663,10681240.0,10681461.0,222.0,222.0,2105.1,1142.9,2249.0,891.0,Animal_Sea_Pattern_Large,41.71049575007055,47.72139208309818,3.0,Animal_Sea_Pattern_Large,-5.0,,,,,,,,,,,
encoding,value,16,10676652,10682663,10681484.0,10681763.0,280.0,280.0,1938.5,1069.8,1920.0,1080.0,fixation,41.71049575007055,47.72139208309818,3.0,Animal_Sea_Pattern_Large,-5.0,,,,,,,,,,,
encoding,value,16,10676652,10682663,10681937.0,10682111.0,175.0,175.0,2176.0,1133.0,2249.0,891.0,Animal_Sea_Pattern_Large,41.71049575007055,47.72139208309818,3.0,Animal_Sea_Pattern_Large,-5.0,,,,,,,,,,,
encoding,value,16,10676652,10682663,10682132.0,10682304.0,173.0,173.0,2060.7,1137.3,2249.0,891.0,Animal_Sea_Pattern_Large,41.71049575007055,47.72139208309818,3.0,Animal_Sea_Pattern_Large,-5.0,,,,,,,,,,,
encoding,value,16,10676652,10682663,10682334.0,10682561.0,228.0,228.0,1937.7,1113.3,1920.0,1080.0,fixation,41.71049575007055,47.72139208309818,3.0,Animal_Sea_Pattern_Large,-5.0,,,,,,,,,,,
encoding,value,16,10676652,10682663,10682599.0,10683655.0,1057.0,64.0,2177.5,1139.5,2249.0,891.0,Animal_Sea_Pattern_Large,41.71049575007055,47.72139208309818,3.0,Animal_Sea_Pattern_Large,-5.0,,,,,,,,,,,
encoding,attention,16,10682663,10685680,10683894.0,10684229.0,336.0,336.0,2073.1,1197.1,2249.0,891.0,Animal_Sea_Pattern_Large,47.72150066704489,50.73848600010387,3.0,Animal_Sea_Pattern_Large,-5.0,-5.0,1.0,0.7168974159285426,,,,,,,,
encoding,attention,16,10682663,10685680,10684249.0,10684394.0,146.0,146.0,2183.7,1197.0,2249.0,891.0,Animal_Sea_Pattern_Large,47.72150066704489,50.73848600010387,3.0,Animal_Sea_Pattern_Large,-5.0,-5.0,1.0,0.7168974159285426,,,,,,,,
encoding,attention,16,10682663,10685680,10684663.0,10685085.0,423.0,423.0,2070.2,1121.5,2249.0,891.0,Animal_Sea_Pattern_Large,47.72150066704489,50.73848600010387,3.0,Animal_Sea_Pattern_Large,-5.0,-5.0,1.0,0.7168974159285426,,,,,,,,
encoding,fixation,17,10685680,10686187,10685955.0,10686166.0,212.0,212.0,2188.7,1223.5,2249.0,891.0,Animal_Sea_Pattern_Large,50.738640125025995,51.24470204208046,3.0,Object_Land_Pattern_Large,2.0,,,,,,,,,,,
encoding,image,17,10686187,10687199,10686207.0,10686381.0,175.0,175.0,1862.5,1074.8,1920.0,1080.0,fixation,51.24481425003614,52.25677745800931,3.0,Object_Land_Pattern_Large,2.0,,,,,,,,,,,
encoding,image,17,10686187,10687199,10686421.0,10686774.0,354.0,354.0,1594.4,886.7,1591.0,1269.0,Object_Land_Pattern_Large,51.24481425003614,52.25677745800931,3.0,Object_Land_Pattern_Large,2.0,,,,,,,,,,,
encoding,image,17,10686187,10687199,10687073.0,10687352.0,280.0,126.0,1605.1,904.5999999999999,1591.0,1269.0,Object_Land_Pattern_Large,51.24481425003614,52.25677745800931,3.0,Object_Land_Pattern_Large,2.0,,,,,,,,,,,
encoding,value,17,10687199,10693212,10687670.0,10688381.0,712.0,712.0,1595.0,773.9000000000001,1591.0,1269.0,Object_Land_Pattern_Large,52.25692400010303,58.2700756250415,3.0,Object_Land_Pattern_Large,2.0,,,,,,,,,,,
encoding,value,17,10687199,10693212,10688401.0,10688855.0,455.0,455.0,1585.2,848.0,1591.0,1269.0,Object_Land_Pattern_Large,52.25692400010303,58.2700756250415,3.0,Object_Land_Pattern_Large,2.0,,,,,,,,,,,
encoding,value,17,10687199,10693212,10689129.0,10689497.0,369.0,369.0,1620.4,840.5999999999999,1591.0,1269.0,Object_Land_Pattern_Large,52.25692400010303,58.2700756250415,3.0,Object_Land_Pattern_Large,2.0,,,,,,,,,,,
encoding,value,17,10687199,10693212,10689508.0,10690167.0,660.0,660.0,1587.7,857.2,1591.0,1269.0,Object_Land_Pattern_Large,52.25692400010303,58.2700756250415,3.0,Object_Land_Pattern_Large,2.0,,,,,,,,,,,
encoding,value,17,10687199,10693212,10690450.0,10690656.0,207.0,207.0,1595.9,811.5,1591.0,1269.0,Object_Land_Pattern_Large,52.25692400010303,58.2700756250415,3.0,Object_Land_Pattern_Large,2.0,,,,,,,,,,,
encoding,value,17,10687199,10693212,10690668.0,10691319.0,652.0,652.0,1583.3,847.0999999999999,1591.0,1269.0,Object_Land_Pattern_Large,52.25692400010303,58.2700756250415,3.0,Object_Land_Pattern_Large,2.0,,,,,,,,,,,
encoding,value,17,10687199,10693212,10691620.0,10691872.0,253.0,253.0,1589.6,866.5,1591.0,1269.0,Object_Land_Pattern_Large,52.25692400010303,58.2700756250415,3.0,Object_Land_Pattern_Large,2.0,,,,,,,,,,,
encoding,value,17,10687199,10693212,10691890.0,10692342.0,453.0,453.0,1557.4,857.0,1591.0,1269.0,Object_Land_Pattern_Large,52.25692400010303,58.2700756250415,3.0,Object_Land_Pattern_Large,2.0,,,,,,,,,,,
encoding,value,17,10687199,10693212,10692359.0,10692520.0,162.0,162.0,1602.2,793.5999999999999,1591.0,1269.0,Object_Land_Pattern_Large,52.25692400010303,58.2700756250415,3.0,Object_Land_Pattern_Large,2.0,,,,,,,,,,,
encoding,value,17,10687199,10693212,10692541.0,10692814.0,274.0,274.0,1547.8,845.5999999999999,1591.0,1269.0,Object_Land_Pattern_Large,52.25692400010303,58.2700756250415,3.0,Object_Land_Pattern_Large,2.0,,,,,,,,,,,
encoding,value,17,10687199,10693212,10692829.0,10693009.0,181.0,181.0,1603.9,808.9000000000001,1591.0,1269.0,Object_Land_Pattern_Large,52.25692400010303,58.2700756250415,3.0,Object_Land_Pattern_Large,2.0,,,,,,,,,,,
encoding,value,17,10687199,10693212,10693016.0,10693297.0,282.0,196.0,1581.8,778.5999999999999,1591.0,1269.0,Object_Land_Pattern_Large,52.25692400010303,58.2700756250415,3.0,Object_Land_Pattern_Large,2.0,,,,,,,,,,,
encoding,attention,17,10693212,10696231,10693307.0,10693482.0,176.0,176.0,1590.0,836.0999999999999,1591.0,1269.0,Object_Land_Pattern_Large,58.270186167093925,61.28827612509485,3.0,Object_Land_Pattern_Large,2.0,2.0,1.0,0.7513602499384433,,,,,,,,
encoding,attention,17,10693212,10696231,10693495.0,10693785.0,291.0,291.0,1555.3,781.0999999999999,1591.0,1269.0,Object_Land_Pattern_Large,58.270186167093925,61.28827612509485,3.0,Object_Land_Pattern_Large,2.0,2.0,1.0,0.7513602499384433,,,,,,,,
encoding,attention,17,10693212,10696231,10693802.0,10694224.0,423.0,423.0,1632.6,778.4000000000001,1591.0,1269.0,Object_Land_Pattern_Large,58.270186167093925,61.28827612509485,3.0,Object_Land_Pattern_Large,2.0,2.0,1.0,0.7513602499384433,,,,,,,,
encoding,attention,17,10693212,10696231,10694522.0,10694818.0,297.0,297.0,1648.3,857.5,1591.0,1269.0,Object_Land_Pattern_Large,58.270186167093925,61.28827612509485,3.0,Object_Land_Pattern_Large,2.0,2.0,1.0,0.7513602499384433,,,,,,,,
encoding,attention,17,10693212,10696231,10695087.0,10695291.0,205.0,205.0,1531.8,916.8,1591.0,1269.0,Object_Land_Pattern_Large,58.270186167093925,61.28827612509485,3.0,Object_Land_Pattern_Large,2.0,2.0,1.0,0.7513602499384433,,,,,,,,
encoding,fixation,18,10696231,10697486,10696340.0,10696509.0,170.0,170.0,1682.3,899.2,1591.0,1269.0,Object_Land_Pattern_Large,61.288420416996814,62.543602833058685,3.0,Object_Sea_Solid_Small,-9.0,,,,,,,,,,,
encoding,fixation,18,10696231,10697486,10696539.0,10696603.0,65.0,65.0,1886.7,1039.5,1920.0,1080.0,fixation,61.288420416996814,62.543602833058685,3.0,Object_Sea_Solid_Small,-9.0,,,,,,,,,,,
encoding,fixation,18,10696231,10697486,10696860.0,10696929.0,70.0,70.0,1910.7,1113.4,1920.0,1080.0,fixation,61.288420416996814,62.543602833058685,3.0,Object_Sea_Solid_Small,-9.0,,,,,,,,,,,
encoding,fixation,18,10696231,10697486,10697191.0,10697670.0,480.0,295.0,1903.5,1051.7,1920.0,1080.0,fixation,61.288420416996814,62.543602833058685,3.0,Object_Sea_Solid_Small,-9.0,,,,,,,,,,,
encoding,image,18,10697486,10698497,10697714.0,10698089.0,376.0,376.0,1597.9,1226.7,1591.0,891.0,Object_Sea_Solid_Small,62.54371850006282,63.554628125042655,3.0,Object_Sea_Solid_Small,-9.0,,,,,,,,,,,
encoding,image,18,10697486,10698497,10698357.0,10698480.0,124.0,124.0,1645.7,1230.1,1591.0,891.0,Object_Sea_Solid_Small,62.54371850006282,63.554628125042655,3.0,Object_Sea_Solid_Small,-9.0,,,,,,,,,,,
encoding,value,18,10698497,10704509,10698730.0,10698931.0,202.0,202.0,1786.7,1180.0,1591.0,891.0,Object_Sea_Solid_Small,63.55473600002006,69.56611108302604,3.0,Object_Sea_Solid_Small,-9.0,,,,,,,,,,,
encoding,value,18,10698497,10704509,10698954.0,10699110.0,157.0,157.0,1888.2,1088.3,1920.0,1080.0,fixation,63.55473600002006,69.56611108302604,3.0,Object_Sea_Solid_Small,-9.0,,,,,,,,,,,
encoding,value,18,10698497,10704509,10699140.0,10699415.0,276.0,276.0,1580.5,1152.0,1591.0,891.0,Object_Sea_Solid_Small,63.55473600002006,69.56611108302604,3.0,Object_Sea_Solid_Small,-9.0,,,,,,,,,,,
encoding,value,18,10698497,10704509,10699946.0,10700100.0,155.0,155.0,1639.3,1171.7,1591.0,891.0,Object_Sea_Solid_Small,63.55473600002006,69.56611108302604,3.0,Object_Sea_Solid_Small,-9.0,,,,,,,,,,,
encoding,value,18,10698497,10704509,10700119.0,10700155.0,37.0,37.0,1591.0,1151.6,1591.0,891.0,Object_Sea_Solid_Small,63.55473600002006,69.56611108302604,3.0,Object_Sea_Solid_Small,-9.0,,,,,,,,,,,
encoding,value,18,10698497,10704509,10700429.0,10700605.0,177.0,177.0,1653.8,1149.9,1591.0,891.0,Object_Sea_Solid_Small,63.55473600002006,69.56611108302604,3.0,Object_Sea_Solid_Small,-9.0,,,,,,,,,,,
encoding,value,18,10698497,10704509,10700837.0,10701059.0,223.0,223.0,1580.3,1196.9,1591.0,891.0,Object_Sea_Solid_Small,63.55473600002006,69.56611108302604,3.0,Object_Sea_Solid_Small,-9.0,,,,,,,,,,,
encoding,value,18,10698497,10704509,10701302.0,10701515.0,214.0,214.0,1574.3,1161.0,1591.0,891.0,Object_Sea_Solid_Small,63.55473600002006,69.56611108302604,3.0,Object_Sea_Solid_Small,-9.0,,,,,,,,,,,
encoding,value,18,10698497,10704509,10701526.0,10701706.0,181.0,181.0,1606.3,1119.8,1591.0,891.0,Object_Sea_Solid_Small,63.55473600002006,69.56611108302604,3.0,Object_Sea_Solid_Small,-9.0,,,,,,,,,,,
encoding,value,18,10698497,10704509,10701712.0,10702048.0,337.0,337.0,1589.9,1126.3,1591.0,891.0,Object_Sea_Solid_Small,63.55473600002006,69.56611108302604,3.0,Object_Sea_Solid_Small,-9.0,,,,,,,,,,,
encoding,value,18,10698497,10704509,10702063.0,10703971.0,1909.0,1909.0,1576.1,1143.0,1591.0,891.0,Object_Sea_Solid_Small,63.55473600002006,69.56611108302604,3.0,Object_Sea_Solid_Small,-9.0,,,,,,,,,,,
encoding,value,18,10698497,10704509,10704194.0,10704406.0,213.0,213.0,1589.4,1162.3,1591.0,891.0,Object_Sea_Solid_Small,63.55473600002006,69.56611108302604,3.0,Object_Sea_Solid_Small,-9.0,,,,,,,,,,,
encoding,value,18,10698497,10704509,10704413.0,10705371.0,959.0,96.0,1551.0,1151.5,1591.0,891.0,Object_Sea_Solid_Small,63.55473600002006,69.56611108302604,3.0,Object_Sea_Solid_Small,-9.0,,,,,,,,,,,
encoding,attention,18,10704509,10707529,10705665.0,10705861.0,197.0,197.0,1396.5,1266.0,1591.0,891.0,Object_Sea_Solid_Small,69.56623291701544,72.58627525006887,3.0,Object_Sea_Solid_Small,-9.0,-9.0,1.0,0.6251189169706777,,,,,,,,
encoding,attention,18,10704509,10707529,10705890.0,10706223.0,334.0,334.0,1579.6,1169.9,1591.0,891.0,Object_Sea_Solid_Small,69.56623291701544,72.58627525006887,3.0,Object_Sea_Solid_Small,-9.0,-9.0,1.0,0.6251189169706777,,,,,,,,
encoding,attention,18,10704509,10707529,10706451.0,10706602.0,152.0,152.0,1583.5,1163.5,1591.0,891.0,Object_Sea_Solid_Small,69.56623291701544,72.58627525006887,3.0,Object_Sea_Solid_Small,-9.0,-9.0,1.0,0.6251189169706777,,,,,,,,
encoding,attention,18,10704509,10707529,10706621.0,10706797.0,177.0,177.0,1541.5,1141.5,1591.0,891.0,Object_Sea_Solid_Small,69.56623291701544,72.58627525006887,3.0,Object_Sea_Solid_Small,-9.0,-9.0,1.0,0.6251189169706777,,,,,,,,
encoding,attention,18,10704509,10707529,10707067.0,10707212.0,146.0,146.0,1592.2,1160.3,1591.0,891.0,Object_Sea_Solid_Small,69.56623291701544,72.58627525006887,3.0,Object_Sea_Solid_Small,-9.0,-9.0,1.0,0.6251189169706777,,,,,,,,
encoding,attention,18,10704509,10707529,10707234.0,10707496.0,263.0,263.0,1545.0,1173.8,1591.0,891.0,Object_Sea_Solid_Small,69.56623291701544,72.58627525006887,3.0,Object_Sea_Solid_Small,-9.0,-9.0,1.0,0.6251189169706777,,,,,,,,
encoding,fixation,19,11069288,11069794,11069529.0,11069669.0,141.0,141.0,1887.4,1095.5,1920.0,1080.0,fixation,3.9823819999583066,4.488427332951687,4.0,Object_Land_Pattern_Small,-2.0,,,,,,,,,,,
encoding,image,19,11069794,11070807,11069892.0,11069987.0,96.0,96.0,1833.8,1231.3,1920.0,700.0,Animal_Land_Pattern_Small,4.488539999932982,5.501050291932188,4.0,Object_Land_Pattern_Small,-2.0,,,,,,,,,,,
encoding,image,19,11069794,11070807,11070238.0,11070330.0,93.0,93.0,1874.1,810.3,1920.0,1460.0,Object_Land_Pattern_Small,4.488539999932982,5.501050291932188,4.0,Object_Land_Pattern_Small,-2.0,,,,,,,,,,,
encoding,image,19,11069794,11070807,11070350.0,11070703.0,354.0,354.0,1878.6,690.7,1920.0,1460.0,Object_Land_Pattern_Small,4.488539999932982,5.501050291932188,4.0,Object_Land_Pattern_Small,-2.0,,,,,,,,,,,
encoding,image,19,11069794,11070807,11070716.0,11071012.0,297.0,91.0,1875.0,628.5,1920.0,1460.0,Object_Land_Pattern_Small,4.488539999932982,5.501050291932188,4.0,Object_Land_Pattern_Small,-2.0,,,,,,,,,,,
encoding,value,19,11070807,11076821,11071026.0,11071279.0,254.0,254.0,1895.7,572.2,1920.0,1460.0,Object_Land_Pattern_Small,5.501169582945295,11.51480524998624,4.0,Object_Land_Pattern_Small,-2.0,,,,,,,,,,,
encoding,value,19,11070807,11076821,11071555.0,11073321.0,1767.0,1767.0,1897.6,605.5,1920.0,1460.0,Object_Land_Pattern_Small,5.501169582945295,11.51480524998624,4.0,Object_Land_Pattern_Small,-2.0,,,,,,,,,,,
encoding,value,19,11070807,11076821,11073328.0,11073526.0,199.0,199.0,1862.3,578.4000000000001,1920.0,1460.0,Object_Land_Pattern_Small,5.501169582945295,11.51480524998624,4.0,Object_Land_Pattern_Small,-2.0,,,,,,,,,,,
encoding,value,19,11070807,11076821,11073775.0,11073918.0,144.0,144.0,1883.8,631.5999999999999,1920.0,1460.0,Object_Land_Pattern_Small,5.501169582945295,11.51480524998624,4.0,Object_Land_Pattern_Small,-2.0,,,,,,,,,,,
encoding,value,19,11070807,11076821,11073933.0,11074205.0,273.0,273.0,1884.5,661.2,1920.0,1460.0,Object_Land_Pattern_Small,5.501169582945295,11.51480524998624,4.0,Object_Land_Pattern_Small,-2.0,,,,,,,,,,,
encoding,value,19,11070807,11076821,11074218.0,11074432.0,215.0,215.0,1877.2,599.7,1920.0,1460.0,Object_Land_Pattern_Small,5.501169582945295,11.51480524998624,4.0,Object_Land_Pattern_Small,-2.0,,,,,,,,,,,
encoding,value,19,11070807,11076821,11074450.0,11075099.0,650.0,650.0,1873.7,660.9000000000001,1920.0,1460.0,Object_Land_Pattern_Small,5.501169582945295,11.51480524998624,4.0,Object_Land_Pattern_Small,-2.0,,,,,,,,,,,
encoding,value,19,11070807,11076821,11075310.0,11076861.0,1552.0,1511.0,1880.0,625.4000000000001,1920.0,1460.0,Object_Land_Pattern_Small,5.501169582945295,11.51480524998624,4.0,Object_Land_Pattern_Small,-2.0,,,,,,,,,,,
encoding,attention,19,11076821,11079841,11077138.0,11077262.0,125.0,125.0,1904.3,689.9000000000001,1920.0,1460.0,Object_Land_Pattern_Small,11.51491604198236,14.534410874941386,4.0,Object_Land_Pattern_Small,-2.0,-2.0,1.0,0.9026439159642904,,,,,,,,
encoding,attention,19,11076821,11079841,11077268.0,11077985.0,718.0,718.0,1855.6,610.0,1920.0,1460.0,Object_Land_Pattern_Small,11.51491604198236,14.534410874941386,4.0,Object_Land_Pattern_Small,-2.0,-2.0,1.0,0.9026439159642904,,,,,,,,
encoding,attention,19,11076821,11079841,11078301.0,11078512.0,212.0,212.0,1889.5,1180.8,1920.0,700.0,Animal_Land_Pattern_Small,11.51491604198236,14.534410874941386,4.0,Object_Land_Pattern_Small,-2.0,-2.0,1.0,0.9026439159642904,,,,,,,,
encoding,attention,19,11076821,11079841,11078533.0,11078660.0,128.0,128.0,1837.9,1098.6,1591.0,891.0,Animal_Land_Solid_Small,11.51491604198236,14.534410874941386,4.0,Object_Land_Pattern_Small,-2.0,-2.0,1.0,0.9026439159642904,,,,,,,,
encoding,attention,19,11076821,11079841,11078887.0,11079117.0,231.0,231.0,1839.6,1149.1,1591.0,891.0,Animal_Land_Solid_Small,11.51491604198236,14.534410874941386,4.0,Object_Land_Pattern_Small,-2.0,-2.0,1.0,0.9026439159642904,,,,,,,,
encoding,attention,19,11076821,11079841,11079369.0,11079561.0,193.0,193.0,1713.5,1094.5,1591.0,891.0,Animal_Land_Solid_Small,11.51491604198236,14.534410874941386,4.0,Object_Land_Pattern_Small,-2.0,-2.0,1.0,0.9026439159642904,,,,,,,,
encoding,fixation,20,11079841,11080347,,,,,,,,,none,14.534586958005091,15.040624041925184,4.0,Animal_Land_Solid_Small,8.0,,,,,,,,,,,
encoding,image,20,11080347,11081358,11080633.0,11080753.0,121.0,121.0,1820.1,1154.0,1591.0,891.0,Animal_Land_Solid_Small,15.04076829191763,16.051782082999125,4.0,Animal_Land_Solid_Small,8.0,,,,,,,,,,,
encoding,image,20,11080347,11081358,11080791.0,11081339.0,549.0,549.0,1607.1,1212.7,1591.0,891.0,Animal_Land_Solid_Small,15.04076829191763,16.051782082999125,4.0,Animal_Land_Solid_Small,8.0,,,,,,,,,,,
encoding,value,20,11081358,11087371,11081563.0,11081731.0,169.0,169.0,1626.5,1143.4,1591.0,891.0,Animal_Land_Solid_Small,16.051913124974817,22.064321500016376,4.0,Animal_Land_Solid_Small,8.0,,,,,,,,,,,
encoding,value,20,11081358,11087371,11081741.0,11082137.0,397.0,397.0,1580.6,1129.6,1591.0,891.0,Animal_Land_Solid_Small,16.051913124974817,22.064321500016376,4.0,Animal_Land_Solid_Small,8.0,,,,,,,,,,,
encoding,value,20,11081358,11087371,11082407.0,11084899.0,2493.0,2493.0,1592.8,1154.4,1591.0,891.0,Animal_Land_Solid_Small,16.051913124974817,22.064321500016376,4.0,Animal_Land_Solid_Small,8.0,,,,,,,,,,,
encoding,value,20,11081358,11087371,11084908.0,11085051.0,144.0,144.0,1621.8,1200.5,1591.0,891.0,Animal_Land_Solid_Small,16.051913124974817,22.064321500016376,4.0,Animal_Land_Solid_Small,8.0,,,,,,,,,,,
encoding,value,20,11081358,11087371,11085067.0,11085707.0,641.0,641.0,1572.8,1168.6,1591.0,891.0,Animal_Land_Solid_Small,16.051913124974817,22.064321500016376,4.0,Animal_Land_Solid_Small,8.0,,,,,,,,,,,
encoding,value,20,11081358,11087371,11085715.0,11085880.0,166.0,166.0,1563.9,1163.9,1591.0,891.0,Animal_Land_Solid_Small,16.051913124974817,22.064321500016376,4.0,Animal_Land_Solid_Small,8.0,,,,,,,,,,,
encoding,value,20,11081358,11087371,11086104.0,11088006.0,1903.0,1267.0,1583.2,1145.7,1591.0,891.0,Animal_Land_Solid_Small,16.051913124974817,22.064321500016376,4.0,Animal_Land_Solid_Small,8.0,,,,,,,,,,,
encoding,attention,20,11087371,11090392,11088019.0,11088366.0,348.0,348.0,1642.1,1141.6,1591.0,891.0,Animal_Land_Solid_Small,22.064447082928385,25.084923499962315,4.0,Animal_Land_Solid_Small,8.0,8.0,1.0,0.7043746249983087,,,,,,,,
encoding,attention,20,11087371,11090392,11088629.0,11088800.0,172.0,172.0,1620.9,1242.5,1591.0,891.0,Animal_Land_Solid_Small,22.064447082928385,25.084923499962315,4.0,Animal_Land_Solid_Small,8.0,8.0,1.0,0.7043746249983087,,,,,,,,
encoding,attention,20,11087371,11090392,11089059.0,11089230.0,172.0,172.0,1601.5,1188.7,1591.0,891.0,Animal_Land_Solid_Small,22.064447082928385,25.084923499962315,4.0,Animal_Land_Solid_Small,8.0,8.0,1.0,0.7043746249983087,,,,,,,,
encoding,attention,20,11087371,11090392,11089483.0,11089573.0,91.0,91.0,1728.9,1262.4,1591.0,891.0,Animal_Land_Solid_Small,22.064447082928385,25.084923499962315,4.0,Animal_Land_Solid_Small,8.0,8.0,1.0,0.7043746249983087,,,,,,,,
encoding,attention,20,11087371,11090392,11089828.0,11090109.0,282.0,282.0,1583.5,1202.4,1591.0,891.0,Animal_Land_Solid_Small,22.064447082928385,25.084923499962315,4.0,Animal_Land_Solid_Small,8.0,8.0,1.0,0.7043746249983087,,,,,,,,
encoding,fixation,21,11090392,11091897,11090833.0,11091429.0,597.0,597.0,1882.2,1037.1,1920.0,1080.0,fixation,25.08506754192058,26.59032908291556,4.0,Object_Sea_Pattern_Large,8.0,,,,,,,,,,,
encoding,fixation,21,11090392,11091897,11091436.0,11091624.0,189.0,189.0,1911.8,1027.6,1920.0,1080.0,fixation,25.08506754192058,26.59032908291556,4.0,Object_Sea_Pattern_Large,8.0,,,,,,,,,,,
encoding,image,21,11091897,11092909,11091920.0,11092146.0,227.0,227.0,1915.8,1016.7,1920.0,1080.0,fixation,26.590434957994148,27.60168799990788,4.0,Object_Sea_Pattern_Large,8.0,,,,,,,,,,,
encoding,image,21,11091897,11092909,11092178.0,11092475.0,298.0,298.0,1594.8,887.8,1591.0,1269.0,Object_Sea_Pattern_Large,26.590434957994148,27.60168799990788,4.0,Object_Sea_Pattern_Large,8.0,,,,,,,,,,,
encoding,image,21,11091897,11092909,11092729.0,11092895.0,167.0,167.0,1859.7,1021.4000000000001,1591.0,1269.0,Object_Sea_Pattern_Large,26.590434957994148,27.60168799990788,4.0,Object_Sea_Pattern_Large,8.0,,,,,,,,,,,
encoding,image,21,11091897,11092909,11092904.0,11093043.0,140.0,5.0,1909.0,1013.8,1920.0,1080.0,fixation,26.590434957994148,27.60168799990788,4.0,Object_Sea_Pattern_Large,8.0,,,,,,,,,,,
encoding,value,21,11092909,11098920,11093094.0,11093539.0,446.0,446.0,1583.7,741.0,1591.0,1269.0,Object_Sea_Pattern_Large,27.601797292008996,33.6132440000074,4.0,Object_Sea_Pattern_Large,8.0,,,,,,,,,,,
encoding,value,21,11092909,11098920,11093843.0,11093947.0,105.0,105.0,1599.7,882.5,1591.0,1269.0,Object_Sea_Pattern_Large,27.601797292008996,33.6132440000074,4.0,Object_Sea_Pattern_Large,8.0,,,,,,,,,,,
encoding,value,21,11092909,11098920,11093953.0,11094082.0,130.0,130.0,1599.9,861.5,1591.0,1269.0,Object_Sea_Pattern_Large,27.601797292008996,33.6132440000074,4.0,Object_Sea_Pattern_Large,8.0,,,,,,,,,,,
encoding,value,21,11092909,11098920,11094375.0,11094520.0,146.0,146.0,1600.1,850.2,1591.0,1269.0,Object_Sea_Pattern_Large,27.601797292008996,33.6132440000074,4.0,Object_Sea_Pattern_Large,8.0,,,,,,,,,,,
encoding,value,21,11092909,11098920,11094811.0,11094945.0,135.0,135.0,1574.5,977.5999999999999,1591.0,1269.0,Object_Sea_Pattern_Large,27.601797292008996,33.6132440000074,4.0,Object_Sea_Pattern_Large,8.0,,,,,,,,,,,
encoding,value,21,11092909,11098920,11094974.0,11095540.0,567.0,567.0,1593.5,805.4000000000001,1591.0,1269.0,Object_Sea_Pattern_Large,27.601797292008996,33.6132440000074,4.0,Object_Sea_Pattern_Large,8.0,,,,,,,,,,,
encoding,value,21,11092909,11098920,11095813.0,11095941.0,129.0,129.0,1584.0,858.9000000000001,1591.0,1269.0,Object_Sea_Pattern_Large,27.601797292008996,33.6132440000074,4.0,Object_Sea_Pattern_Large,8.0,,,,,,,,,,,
encoding,value,21,11092909,11098920,11095949.0,11096171.0,223.0,223.0,1585.1,797.8,1591.0,1269.0,Object_Sea_Pattern_Large,27.601797292008996,33.6132440000074,4.0,Object_Sea_Pattern_Large,8.0,,,,,,,,,,,
encoding,value,21,11092909,11098920,11096184.0,11096366.0,183.0,183.0,1578.2,826.8,1591.0,1269.0,Object_Sea_Pattern_Large,27.601797292008996,33.6132440000074,4.0,Object_Sea_Pattern_Large,8.0,,,,,,,,,,,
encoding,value,21,11092909,11098920,11096378.0,11096576.0,199.0,199.0,1583.6,765.7,1591.0,1269.0,Object_Sea_Pattern_Large,27.601797292008996,33.6132440000074,4.0,Object_Sea_Pattern_Large,8.0,,,,,,,,,,,
encoding,value,21,11092909,11098920,11096588.0,11096823.0,236.0,236.0,1573.6,847.0999999999999,1591.0,1269.0,Object_Sea_Pattern_Large,27.601797292008996,33.6132440000074,4.0,Object_Sea_Pattern_Large,8.0,,,,,,,,,,,
encoding,value,21,11092909,11098920,11096841.0,11097468.0,628.0,628.0,1583.9,796.7,1591.0,1269.0,Object_Sea_Pattern_Large,27.601797292008996,33.6132440000074,4.0,Object_Sea_Pattern_Large,8.0,,,,,,,,,,,
encoding,value,21,11092909,11098920,11097718.0,11098204.0,487.0,487.0,1589.3,855.4000000000001,1591.0,1269.0,Object_Sea_Pattern_Large,27.601797292008996,33.6132440000074,4.0,Object_Sea_Pattern_Large,8.0,,,,,,,,,,,
encoding,value,21,11092909,11098920,11098498.0,11098529.0,32.0,32.0,1556.4,896.4000000000001,1591.0,1269.0,Object_Sea_Pattern_Large,27.601797292008996,33.6132440000074,4.0,Object_Sea_Pattern_Large,8.0,,,,,,,,,,,
encoding,value,21,11092909,11098920,11098539.0,11098616.0,78.0,78.0,1570.5,841.0,1591.0,1269.0,Object_Sea_Pattern_Large,27.601797292008996,33.6132440000074,4.0,Object_Sea_Pattern_Large,8.0,,,,,,,,,,,
encoding,value,21,11092909,11098920,11098627.0,11098689.0,63.0,63.0,1571.5,836.4000000000001,1591.0,1269.0,Object_Sea_Pattern_Large,27.601797292008996,33.6132440000074,4.0,Object_Sea_Pattern_Large,8.0,,,,,,,,,,,
encoding,attention,21,11098920,11101938,11099088.0,11099186.0,99.0,99.0,1567.6,873.3,1591.0,1269.0,Object_Sea_Pattern_Large,33.61335495801177,36.63066304195672,4.0,Object_Sea_Pattern_Large,8.0,8.0,1.0,0.8073152499273419,,,,,,,,
encoding,attention,21,11098920,11101938,11099203.0,11100003.0,801.0,801.0,1530.5,821.0999999999999,1591.0,1269.0,Object_Sea_Pattern_Large,33.61335495801177,36.63066304195672,4.0,Object_Sea_Pattern_Large,8.0,8.0,1.0,0.8073152499273419,,,,,,,,
encoding,attention,21,11098920,11101938,11100305.0,11100535.0,231.0,231.0,1559.9,878.0,1591.0,1269.0,Object_Sea_Pattern_Large,33.61335495801177,36.63066304195672,4.0,Object_Sea_Pattern_Large,8.0,8.0,1.0,0.8073152499273419,,,,,,,,
encoding,attention,21,11098920,11101938,11100541.0,11100932.0,392.0,392.0,1566.2,862.8,1591.0,1269.0,Object_Sea_Pattern_Large,33.61335495801177,36.63066304195672,4.0,Object_Sea_Pattern_Large,8.0,8.0,1.0,0.8073152499273419,,,,,,,,
encoding,attention,21,11098920,11101938,11101228.0,11101421.0,194.0,194.0,1583.4,1008.8,1591.0,1269.0,Object_Sea_Pattern_Large,33.61335495801177,36.63066304195672,4.0,Object_Sea_Pattern_Large,8.0,8.0,1.0,0.8073152499273419,,,,,,,,
encoding,attention,21,11098920,11101938,11101741.0,11101924.0,184.0,184.0,1615.5,965.0999999999999,1591.0,1269.0,Object_Sea_Pattern_Large,33.61335495801177,36.63066304195672,4.0,Object_Sea_Pattern_Large,8.0,8.0,1.0,0.8073152499273419,,,,,,,,
encoding,fixation,22,11101938,11103444,11101950.0,11102208.0,259.0,259.0,1589.9,841.3,1591.0,1269.0,Object_Sea_Pattern_Large,36.63085066701751,38.1361228749156,4.0,Object_Sea_Solid_Large,8.0,,,,,,,,,,,
encoding,fixation,22,11101938,11103444,11102515.0,11102673.0,159.0,159.0,1898.0,1107.6,1920.0,1080.0,fixation,36.63085066701751,38.1361228749156,4.0,Object_Sea_Solid_Large,8.0,,,,,,,,,,,
encoding,fixation,22,11101938,11103444,11102681.0,11103128.0,448.0,448.0,1889.5,1046.6,1920.0,1080.0,fixation,36.63085066701751,38.1361228749156,4.0,Object_Sea_Solid_Large,8.0,,,,,,,,,,,
encoding,fixation,22,11101938,11103444,11103135.0,11103284.0,150.0,150.0,1852.7,1038.1,1591.0,1269.0,Object_Sea_Pattern_Large,36.63085066701751,38.1361228749156,4.0,Object_Sea_Solid_Large,8.0,,,,,,,,,,,
encoding,fixation,22,11101938,11103444,11103297.0,11103525.0,229.0,147.0,1906.5,1028.8,1920.0,1080.0,fixation,36.63085066701751,38.1361228749156,4.0,Object_Sea_Solid_Large,8.0,,,,,,,,,,,
encoding,image,22,11103444,11104455,11103544.0,11103655.0,112.0,112.0,1865.7,1042.6,1920.0,1080.0,fixation,38.13624808297027,39.14777141693048,4.0,Object_Sea_Solid_Large,8.0,,,,,,,,,,,
encoding,image,22,11103444,11104455,11103704.0,11103990.0,287.0,287.0,2220.8,1209.7,2249.0,891.0,Object_Sea_Solid_Large,38.13624808297027,39.14777141693048,4.0,Object_Sea_Solid_Large,8.0,,,,,,,,,,,
encoding,image,22,11103444,11104455,11104233.0,11104442.0,210.0,210.0,2214.9,1258.5,2249.0,891.0,Object_Sea_Solid_Large,38.13624808297027,39.14777141693048,4.0,Object_Sea_Solid_Large,8.0,,,,,,,,,,,
encoding,value,22,11104455,11110467,11104698.0,11104872.0,175.0,175.0,2185.2,1204.3,2249.0,891.0,Object_Sea_Solid_Large,39.147883041994646,45.15955729200505,4.0,Object_Sea_Solid_Large,8.0,,,,,,,,,,,
encoding,value,22,11104455,11110467,11104884.0,11105206.0,323.0,323.0,2234.3,1143.0,2249.0,891.0,Object_Sea_Solid_Large,39.147883041994646,45.15955729200505,4.0,Object_Sea_Solid_Large,8.0,,,,,,,,,,,
encoding,value,22,11104455,11110467,11105480.0,11105682.0,203.0,203.0,2226.5,1224.7,2249.0,891.0,Object_Sea_Solid_Large,39.147883041994646,45.15955729200505,4.0,Object_Sea_Solid_Large,8.0,,,,,,,,,,,
encoding,value,22,11104455,11110467,11105926.0,11106172.0,247.0,247.0,2179.0,1159.5,2249.0,891.0,Object_Sea_Solid_Large,39.147883041994646,45.15955729200505,4.0,Object_Sea_Solid_Large,8.0,,,,,,,,,,,
encoding,value,22,11104455,11110467,11106193.0,11106440.0,248.0,248.0,2222.1,1215.5,2249.0,891.0,Object_Sea_Solid_Large,39.147883041994646,45.15955729200505,4.0,Object_Sea_Solid_Large,8.0,,,,,,,,,,,
encoding,value,22,11104455,11110467,11106458.0,11106846.0,389.0,389.0,2223.8,1160.1,2249.0,891.0,Object_Sea_Solid_Large,39.147883041994646,45.15955729200505,4.0,Object_Sea_Solid_Large,8.0,,,,,,,,,,,
encoding,value,22,11104455,11110467,11107106.0,11107338.0,233.0,233.0,2208.2,1153.7,2249.0,891.0,Object_Sea_Solid_Large,39.147883041994646,45.15955729200505,4.0,Object_Sea_Solid_Large,8.0,,,,,,,,,,,
encoding,value,22,11104455,11110467,11107358.0,11107649.0,292.0,292.0,2238.2,1218.8,2249.0,891.0,Object_Sea_Solid_Large,39.147883041994646,45.15955729200505,4.0,Object_Sea_Solid_Large,8.0,,,,,,,,,,,
encoding,value,22,11104455,11110467,11107662.0,11107839.0,178.0,178.0,2205.1,1161.1,2249.0,891.0,Object_Sea_Solid_Large,39.147883041994646,45.15955729200505,4.0,Object_Sea_Solid_Large,8.0,,,,,,,,,,,
encoding,value,22,11104455,11110467,11108088.0,11108385.0,298.0,298.0,2176.6,1156.4,2249.0,891.0,Object_Sea_Solid_Large,39.147883041994646,45.15955729200505,4.0,Object_Sea_Solid_Large,8.0,,,,,,,,,,,
encoding,value,22,11104455,11110467,11108397.0,11108678.0,282.0,282.0,2220.4,1155.8,2249.0,891.0,Object_Sea_Solid_Large,39.147883041994646,45.15955729200505,4.0,Object_Sea_Solid_Large,8.0,,,,,,,,,,,
encoding,value,22,11104455,11110467,11108696.0,11108994.0,299.0,299.0,2193.4,1216.0,2249.0,891.0,Object_Sea_Solid_Large,39.147883041994646,45.15955729200505,4.0,Object_Sea_Solid_Large,8.0,,,,,,,,,,,
encoding,value,22,11104455,11110467,11109006.0,11109240.0,235.0,235.0,2180.3,1167.7,2249.0,891.0,Object_Sea_Solid_Large,39.147883041994646,45.15955729200505,4.0,Object_Sea_Solid_Large,8.0,,,,,,,,,,,
encoding,value,22,11104455,11110467,11109508.0,11109834.0,327.0,327.0,2199.2,1154.8,2249.0,891.0,Object_Sea_Solid_Large,39.147883041994646,45.15955729200505,4.0,Object_Sea_Solid_Large,8.0,,,,,,,,,,,
encoding,value,22,11104455,11110467,11109842.0,11110031.0,190.0,190.0,2239.3,1135.6,2249.0,891.0,Object_Sea_Solid_Large,39.147883041994646,45.15955729200505,4.0,Object_Sea_Solid_Large,8.0,,,,,,,,,,,
encoding,value,22,11104455,11110467,11110043.0,11110250.0,208.0,208.0,2190.2,1145.8,2249.0,891.0,Object_Sea_Solid_Large,39.147883041994646,45.15955729200505,4.0,Object_Sea_Solid_Large,8.0,,,,,,,,,,,
encoding,value,22,11104455,11110467,11110258.0,11110514.0,257.0,209.0,2224.2,1140.7,2249.0,891.0,Object_Sea_Solid_Large,39.147883041994646,45.15955729200505,4.0,Object_Sea_Solid_Large,8.0,,,,,,,,,,,
encoding,attention,22,11110467,11113486,11110537.0,11110601.0,65.0,65.0,2156.2,1160.4,2249.0,891.0,Object_Sea_Solid_Large,45.1596764579881,48.17791333294008,4.0,Object_Sea_Solid_Large,8.0,8.0,1.0,0.6253628339618444,,,,,,,,
encoding,attention,22,11110467,11113486,11110842.0,11111021.0,180.0,180.0,2203.6,1189.8,2249.0,891.0,Object_Sea_Solid_Large,45.1596764579881,48.17791333294008,4.0,Object_Sea_Solid_Large,8.0,8.0,1.0,0.6253628339618444,,,,,,,,
encoding,attention,22,11110467,11113486,11111036.0,11111356.0,321.0,321.0,2260.0,1136.2,2249.0,891.0,Object_Sea_Solid_Large,45.1596764579881,48.17791333294008,4.0,Object_Sea_Solid_Large,8.0,8.0,1.0,0.6253628339618444,,,,,,,,
encoding,attention,22,11110467,11113486,11112196.0,11112423.0,228.0,228.0,1789.1,1107.0,1591.0,891.0,Animal_Land_Solid_Small,45.1596764579881,48.17791333294008,4.0,Object_Sea_Solid_Large,8.0,8.0,1.0,0.6253628339618444,,,,,,,,
encoding,attention,22,11110467,11113486,11112695.0,11112895.0,201.0,201.0,2076.6,1180.2,2249.0,891.0,Object_Sea_Solid_Large,45.1596764579881,48.17791333294008,4.0,Object_Sea_Solid_Large,8.0,8.0,1.0,0.6253628339618444,,,,,,,,
encoding,attention,22,11110467,11113486,11112919.0,11113195.0,277.0,277.0,2206.5,1161.6,2249.0,891.0,Object_Sea_Solid_Large,45.1596764579881,48.17791333294008,4.0,Object_Sea_Solid_Large,8.0,8.0,1.0,0.6253628339618444,,,,,,,,
encoding,fixation,23,11113486,11114491,11113719.0,11113786.0,68.0,68.0,1886.9,1087.7,1920.0,1080.0,fixation,48.17807083297521,49.18336858297698,4.0,Animal_Sea_Solid_Large,-9.0,,,,,,,,,,,
encoding,fixation,23,11113486,11114491,11114127.0,11114531.0,405.0,364.0,1840.3,1328.0,1920.0,700.0,Animal_Land_Pattern_Small,48.17807083297521,49.18336858297698,4.0,Animal_Sea_Solid_Large,-9.0,,,,,,,,,,,
encoding,image,23,11114491,11115504,11114784.0,11114880.0,97.0,97.0,1925.5,1152.2,1920.0,700.0,Animal_Land_Pattern_Small,49.1834796249168,50.19634824991226,4.0,Animal_Sea_Solid_Large,-9.0,,,,,,,,,,,
encoding,image,23,11114491,11115504,11114929.0,11115199.0,271.0,271.0,2221.1,868.0999999999999,2249.0,1269.0,Animal_Sea_Solid_Large,49.1834796249168,50.19634824991226,4.0,Animal_Sea_Solid_Large,-9.0,,,,,,,,,,,
