subject,phase,event,trial_number,game,option,choice,rt,roi_content,item_index,is_relevant,fix_start,fix_end,fix_duration_bounded
144,choice,choice,1,1.0,Large,1.0,17.061374499928206,Animal_Land_Solid_Small,0,0,9865016.0,9865244.0,228.0
144,choice,choice,1,1.0,Large,1.0,17.061374499928206,Object_Land_Pattern_Large,1,1,9865486.0,9865825.0,339.0
144,choice,choice,1,1.0,Large,1.0,17.061374499928206,Animal_Land_Solid_Small,0,0,9866070.0,9866584.0,514.0
144,choice,choice,1,1.0,Large,1.0,17.061374499928206,Object_Land_Pattern_Large,1,1,9868376.0,9868539.0,163.0
144,choice,choice,1,1.0,Large,1.0,17.061374499928206,Object_Land_Pattern_Small,2,0,9869175.0,9871859.0,2684.0
144,choice,choice,1,1.0,Large,1.0,17.061374499928206,Object_Land_Pattern_Large,1,1,9875214.0,9875932.0,718.0
144,choice,choice,1,1.0,Large,1.0,17.061374499928206,Object_Land_Pattern_Small,2,0,9878537.0,9878815.0,278.0
144,choice,choice,2,1.0,Solid,2.0,11.59739508293569,Animal_Land_Solid_Small,0,1,9885698.0,9886220.0,522.0
144,choice,choice,2,1.0,Solid,2.0,11.59739508293569,Object_Land_Pattern_Large,1,0,9890711.0,9891617.0,906.0
144,choice,choice,2,1.0,Solid,2.0,11.59739508293569,Animal_Land_Solid_Small,0,1,9892993.0,9893954.0,961.0
144,choice,choice,2,1.0,Solid,2.0,11.59739508293569,Animal_Sea_Pattern_Small,3,0,9894453.0,9895189.0,736.0
144,choice,choice,3,1.0,Land,2.0,5.798858999973163,Object_Land_Pattern_Large,1,1,9899016.0,9899313.0,297.0
144,choice,choice,3,1.0,Land,2.0,5.798858999973163,Animal_Land_Solid_Small,0,1,9899731.0,9899887.0,156.0
144,choice,choice,3,1.0,Land,2.0,5.798858999973163,Object_Land_Pattern_Large,1,1,9900117.0,9901238.0,1121.0
144,choice,choice,3,1.0,Land,2.0,5.798858999973163,Object_Land_Pattern_Small,2,1,9903188.0,9904013.0,825.0
144,choice,choice,4,1.0,Sea,1.0,9.262546250014566,Animal_Land_Solid_Small,0,0,9907509.0,9907931.0,422.0
144,choice,choice,4,1.0,Sea,1.0,9.262546250014566,Object_Land_Pattern_Large,1,0,9908780.0,9909400.0,620.0
144,choice,choice,5,1.0,Animal,1.0,10.21451983298175,Object_Land_Pattern_Large,1,0,9920494.0,9920896.0,402.0
144,choice,choice,5,1.0,Animal,1.0,10.21451983298175,Animal_Sea_Pattern_Small,3,1,9923706.0,9925171.0,1465.0
144,choice,choice,5,1.0,Animal,1.0,10.21451983298175,Object_Land_Pattern_Small,2,0,9926473.0,9927285.0,812.0
144,choice,choice,5,1.0,Animal,1.0,10.21451983298175,Object_Land_Pattern_Large,1,0,9928286.0,9928561.0,275.0
144,choice,choice,5,1.0,Animal,1.0,10.21451983298175,Object_Land_Pattern_Small,2,0,9928584.0,9929585.0,1001.0
144,choice,choice,6,1.0,Pattern,2.0,12.563829999999143,Object_Land_Pattern_Large,1,1,9933753.0,9934855.0,1102.0
144,choice,choice,6,1.0,Pattern,2.0,12.563829999999143,Animal_Land_Solid_Small,0,0,9935649.0,9936250.0,601.0
144,choice,choice,6,1.0,Pattern,2.0,12.563829999999143,Object_Land_Pattern_Small,2,1,9937485.0,9938144.0,659.0
144,choice,choice,6,1.0,Pattern,2.0,12.563829999999143,Object_Land_Pattern_Large,1,1,9938379.0,9938505.0,126.0
144,choice,choice,6,1.0,Pattern,2.0,12.563829999999143,Object_Sea_Solid_Large,4,0,9939429.0,9939548.0,119.0
144,choice,choice,6,1.0,Pattern,2.0,12.563829999999143,Animal_Sea_Solid_Large,5,0,9945589.0,9945971.0,382.0
144,choice,choice,7,1.0,Object,1.0,9.80157733289525,Animal_Land_Solid_Small,0,0,9950071.0,9950337.0,266.0
144,choice,choice,7,1.0,Object,1.0,9.80157733289525,Object_Land_Pattern_Large,1,1,9950579.0,9951059.0,480.0
144,choice,choice,7,1.0,Object,1.0,9.80157733289525,Animal_Land_Solid_Small,0,0,9952853.0,9954941.0,2088.0
144,choice,choice,7,1.0,Object,1.0,9.80157733289525,Object_Land_Pattern_Large,1,1,9956468.0,9959048.0,2580.0
144,choice,choice,8,1.0,Small,1.0,4.125786749995314,Animal_Sea_Pattern_Small,3,1,9962523.0,9962938.0,415.0
144,choice,choice,8,1.0,Small,1.0,4.125786749995314,Animal_Land_Solid_Small,0,1,9963156.0,9963464.0,308.0
144,choice,choice,8,1.0,Small,1.0,4.125786749995314,Object_Land_Pattern_Small,2,1,9963930.0,9965298.0,1368.0
144,choice,choice,8,1.0,Small,1.0,4.125786749995314,Object_Land_Pattern_Large,1,0,9965640.0,9966284.0,644.0
144,choice,choice,9,2.0,Object,1.0,8.263018541969359,Object_Sea_Solid_Small,0,1,10395035.0,10395513.0,478.0
144,choice,choice,9,2.0,Object,1.0,8.263018541969359,Animal_Sea_Pattern_Small,1,0,10395697.0,10395956.0,259.0
144,choice,choice,9,2.0,Object,1.0,8.263018541969359,Object_Sea_Solid_Small,0,1,10396216.0,10396578.0,362.0
144,choice,choice,9,2.0,Object,1.0,8.263018541969359,Object_Sea_Pattern_Large,2,1,10397734.0,10398151.0,417.0
144,choice,choice,9,2.0,Object,1.0,8.263018541969359,Animal_Land_Solid_Large,3,0,10398173.0,10398441.0,268.0
144,choice,choice,9,2.0,Object,1.0,8.263018541969359,Object_Sea_Pattern_Large,2,1,10398463.0,10398902.0,439.0
144,choice,choice,9,2.0,Object,1.0,8.263018541969359,Animal_Land_Solid_Large,3,0,10398927.0,10399500.0,573.0
144,choice,choice,9,2.0,Object,1.0,8.263018541969359,Object_Sea_Pattern_Large,2,1,10399799.0,10402077.0,2278.0
144,choice,choice,10,2.0,Animal,1.0,13.231185916927643,Animal_Land_Solid_Large,3,1,10406031.0,10406306.0,275.0
144,choice,choice,10,2.0,Animal,1.0,13.231185916927643,Animal_Land_Pattern_Large,4,1,10406330.0,10406564.0,234.0
144,choice,choice,10,2.0,Animal,1.0,13.231185916927643,Animal_Land_Solid_Large,3,1,10406592.0,10407107.0,515.0
144,choice,choice,10,2.0,Animal,1.0,13.231185916927643,Object_Sea_Solid_Small,0,0,10407309.0,10407616.0,307.0
144,choice,choice,10,2.0,Animal,1.0,13.231185916927643,Animal_Sea_Pattern_Small,1,1,10408165.0,10408187.0,22.0
144,choice,choice,10,2.0,Animal,1.0,13.231185916927643,Object_Sea_Solid_Small,0,0,10408196.0,10408403.0,207.0
144,choice,choice,10,2.0,Animal,1.0,13.231185916927643,Animal_Sea_Pattern_Small,1,1,10409430.0,10409935.0,505.0
144,choice,choice,10,2.0,Animal,1.0,13.231185916927643,Object_Sea_Pattern_Large,2,0,10410815.0,10411218.0,403.0
144,choice,choice,10,2.0,Animal,1.0,13.231185916927643,Object_Sea_Solid_Small,0,0,10411445.0,10411729.0,284.0
144,choice,choice,10,2.0,Animal,1.0,13.231185916927643,Animal_Sea_Pattern_Small,1,1,10411920.0,10412484.0,564.0
144,choice,choice,10,2.0,Animal,1.0,13.231185916927643,Object_Sea_Solid_Small,0,0,10412530.0,10413372.0,842.0
144,choice,choice,10,2.0,Animal,1.0,13.231185916927643,Animal_Sea_Pattern_Small,1,1,10414031.0,10414314.0,283.0
144,choice,choice,10,2.0,Animal,1.0,13.231185916927643,Animal_Land_Solid_Large,3,1,10415000.0,10416697.0,1697.0
144,choice,choice,10,2.0,Animal,1.0,13.231185916927643,Object_Sea_Pattern_Large,2,0,10417196.0,10417407.0,211.0
144,choice,choice,10,2.0,Animal,1.0,13.231185916927643,Object_Sea_Solid_Small,0,0,10417606.0,10418361.0,755.0
144,choice,choice,10,2.0,Animal,1.0,13.231185916927643,Object_Sea_Pattern_Large,2,0,10418965.0,10419204.0,239.0
144,choice,choice,11,2.0,Large,2.0,3.544901166926138,Object_Sea_Pattern_Large,2,1,10421961.0,10422882.0,921.0
144,choice,choice,11,2.0,Large,2.0,3.544901166926138,Animal_Land_Solid_Large,3,1,10423112.0,10425274.0,2162.0
144,choice,choice,12,2.0,Sea,1.0,3.959107083035633,Object_Sea_Pattern_Large,2,1,10428533.0,10429670.0,1137.0
144,choice,choice,12,2.0,Sea,1.0,3.959107083035633,Object_Sea_Solid_Small,0,1,10430296.0,10431569.0,1273.0
144,choice,choice,12,2.0,Sea,1.0,3.959107083035633,Object_Sea_Pattern_Large,2,1,10431866.0,10432061.0,195.0
144,choice,choice,13,2.0,Land,2.0,3.7283804579637945,Object_Sea_Solid_Small,0,0,10435679.0,10435911.0,232.0
144,choice,choice,13,2.0,Land,2.0,3.7283804579637945,Animal_Land_Solid_Large,3,1,10435934.0,10436433.0,499.0
144,choice,choice,13,2.0,Land,2.0,3.7283804579637945,Object_Sea_Solid_Small,0,0,10436472.0,10436665.0,193.0
144,choice,choice,13,2.0,Land,2.0,3.7283804579637945,Animal_Sea_Pattern_Small,1,0,10437142.0,10437272.0,130.0
144,choice,choice,13,2.0,Land,2.0,3.7283804579637945,Object_Sea_Solid_Small,0,0,10437533.0,10437737.0,204.0
144,choice,choice,13,2.0,Land,2.0,3.7283804579637945,Object_Sea_Pattern_Large,2,0,10438199.0,10438429.0,230.0
144,choice,choice,13,2.0,Land,2.0,3.7283804579637945,Animal_Land_Solid_Large,3,1,10438450.0,10439071.0,621.0
144,choice,choice,14,2.0,Pattern,2.0,2.3288253750652075,Object_Sea_Solid_Small,0,0,10442943.0,10443136.0,193.0
144,choice,choice,14,2.0,Pattern,2.0,2.3288253750652075,Animal_Land_Solid_Large,3,0,10443913.0,10444750.0,837.0
144,choice,choice,15,2.0,Small,1.0,5.6248422500211746,Object_Sea_Solid_Small,0,1,10448056.0,10448989.0,933.0
144,choice,choice,15,2.0,Small,1.0,5.6248422500211746,Object_Sea_Pattern_Large,2,0,10449301.0,10449883.0,582.0
144,choice,choice,15,2.0,Small,1.0,5.6248422500211746,Animal_Land_Solid_Large,3,0,10449896.0,10451673.0,1777.0
144,choice,choice,15,2.0,Small,1.0,5.6248422500211746,Animal_Sea_Pattern_Small,1,1,10451891.0,10451981.0,90.0
144,choice,choice,15,2.0,Small,1.0,5.6248422500211746,Animal_Land_Solid_Large,3,0,10452250.0,10453399.0,1149.0
144,choice,choice,16,2.0,Solid,2.0,4.193187957978807,Object_Sea_Pattern_Large,2,0,10456541.0,10456704.0,163.0
144,choice,choice,16,2.0,Solid,2.0,4.193187957978807,Animal_Land_Solid_Large,3,1,10456717.0,10457267.0,550.0
144,choice,choice,16,2.0,Solid,2.0,4.193187957978807,Object_Sea_Solid_Small,0,1,10458060.0,10458547.0,487.0
144,choice,choice,16,2.0,Solid,2.0,4.193187957978807,Object_Sea_Pattern_Large,2,0,10459291.0,10459355.0,64.0
144,choice,choice,16,2.0,Solid,2.0,4.193187957978807,Animal_Land_Solid_Large,3,1,10459606.0,10459789.0,183.0
144,choice,choice,17,3.0,Large,2.0,14.799060790915972,Object_Sea_Solid_Small,0,0,10784713.0,10785565.0,852.0
144,choice,choice,17,3.0,Large,2.0,14.799060790915972,Animal_Land_Pattern_Small,1,0,10786204.0,10786417.0,213.0
144,choice,choice,17,3.0,Large,2.0,14.799060790915972,Object_Sea_Solid_Small,0,0,10786633.0,10787001.0,368.0
144,choice,choice,17,3.0,Large,2.0,14.799060790915972,Object_Land_Pattern_Large,2,1,10787192.0,10788601.0,1409.0
144,choice,choice,17,3.0,Large,2.0,14.799060790915972,Object_Sea_Solid_Small,0,0,10789242.0,10789712.0,470.0
144,choice,choice,17,3.0,Large,2.0,14.799060790915972,Animal_Land_Pattern_Small,1,0,10789730.0,10790114.0,384.0
144,choice,choice,17,3.0,Large,2.0,14.799060790915972,Object_Sea_Solid_Small,0,0,10790342.0,10790585.0,243.0
144,choice,choice,17,3.0,Large,2.0,14.799060790915972,Animal_Land_Pattern_Small,1,0,10790607.0,10790968.0,361.0
144,choice,choice,17,3.0,Large,2.0,14.799060790915972,Object_Sea_Solid_Small,0,0,10790989.0,10791096.0,107.0
144,choice,choice,17,3.0,Large,2.0,14.799060790915972,Object_Land_Pattern_Large,2,1,10791319.0,10791629.0,310.0
144,choice,choice,17,3.0,Large,2.0,14.799060790915972,Object_Land_Solid_Large,3,1,10791923.0,10792159.0,236.0
144,choice,choice,17,3.0,Large,2.0,14.799060790915972,Object_Sea_Solid_Small,0,0,10792186.0,10793094.0,908.0
144,choice,choice,17,3.0,Large,2.0,14.799060790915972,Animal_Land_Pattern_Small,1,0,10793636.0,10794275.0,639.0
144,choice,choice,17,3.0,Large,2.0,14.799060790915972,Animal_Sea_Solid_Small,4,0,10794541.0,10794789.0,248.0
144,choice,choice,17,3.0,Large,2.0,14.799060790915972,Object_Land_Pattern_Large,2,1,10794812.0,10795280.0,468.0
144,choice,choice,17,3.0,Large,2.0,14.799060790915972,Object_Sea_Solid_Small,0,0,10795524.0,10795895.0,371.0
144,choice,choice,17,3.0,Large,2.0,14.799060790915972,Animal_Land_Pattern_Small,1,0,10796114.0,10796659.0,545.0
144,choice,choice,17,3.0,Large,2.0,14.799060790915972,Object_Land_Solid_Large,3,1,10796923.0,10797125.0,202.0
144,choice,choice,17,3.0,Large,2.0,14.799060790915972,Animal_Sea_Solid_Small,4,0,10797356.0,10797572.0,216.0
144,choice,choice,17,3.0,Large,2.0,14.799060790915972,Object_Land_Solid_Large,3,1,10797598.0,10798277.0,679.0
144,choice,choice,17,3.0,Large,2.0,14.799060790915972,Animal_Sea_Solid_Small,4,0,10798707.0,10799240.0,533.0
144,choice,choice,18,3.0,Pattern,2.0,9.21863016707357,Object_Land_Pattern_Large,2,1,10802574.0,10802902.0,328.0
144,choice,choice,18,3.0,Pattern,2.0,9.21863016707357,Object_Sea_Solid_Small,0,0,10803124.0,10803563.0,439.0
144,choice,choice,18,3.0,Pattern,2.0,9.21863016707357,Animal_Land_Pattern_Small,1,1,10803795.0,10804386.0,591.0
144,choice,choice,18,3.0,Pattern,2.0,9.21863016707357,Object_Land_Pattern_Large,2,1,10804907.0,10804986.0,79.0
144,choice,choice,18,3.0,Pattern,2.0,9.21863016707357,Object_Sea_Solid_Small,0,0,10805176.0,10805448.0,272.0
144,choice,choice,18,3.0,Pattern,2.0,9.21863016707357,Object_Land_Pattern_Large,2,1,10805474.0,10805806.0,332.0
144,choice,choice,18,3.0,Pattern,2.0,9.21863016707357,Animal_Sea_Pattern_Large,5,1,10806498.0,10809671.0,3173.0
144,choice,choice,19,3.0,Small,1.0,5.332911125035025,Animal_Sea_Solid_Small,4,1,10815521.0,10816362.0,841.0
144,choice,choice,19,3.0,Small,1.0,5.332911125035025,Object_Land_Pattern_Large,2,0,10816611.0,10817147.0,536.0
144,choice,choice,19,3.0,Small,1.0,5.332911125035025,Object_Sea_Solid_Small,0,1,10817371.0,10817659.0,288.0
144,choice,choice,19,3.0,Small,1.0,5.332911125035025,Animal_Land_Pattern_Small,1,1,10817681.0,10818731.0,1050.0
144,choice,choice,20,3.0,Animal,2.0,5.121796749997884,Animal_Land_Pattern_Small,1,1,10822394.0,10822947.0,553.0
144,choice,choice,20,3.0,Animal,2.0,5.121796749997884,Object_Sea_Solid_Small,0,0,10822972.0,10823343.0,371.0
144,choice,choice,20,3.0,Animal,2.0,5.121796749997884,Animal_Sea_Solid_Small,4,1,10823750.0,10826134.0,2384.0
144,choice,choice,20,3.0,Animal,2.0,5.121796749997884,Animal_Land_Pattern_Small,1,1,10826435.0,10826656.0,221.0
144,choice,choice,20,3.0,Animal,2.0,5.121796749997884,Object_Land_Solid_Large,3,0,10826700.0,10827071.0,371.0
144,choice,choice,21,3.0,Sea,1.0,8.853318625013344,Object_Sea_Solid_Small,0,1,10831084.0,10831305.0,221.0
144,choice,choice,21,3.0,Sea,1.0,8.853318625013344,Object_Land_Pattern_Large,2,0,10831560.0,10832891.0,1331.0
144,choice,choice,21,3.0,Sea,1.0,8.853318625013344,Object_Sea_Solid_Small,0,1,10833425.0,10834307.0,882.0
144,choice,choice,21,3.0,Sea,1.0,8.853318625013344,Object_Land_Pattern_Large,2,0,10835087.0,10835773.0,686.0
144,choice,choice,21,3.0,Sea,1.0,8.853318625013344,Object_Sea_Solid_Small,0,1,10836517.0,10836781.0,264.0
144,choice,choice,21,3.0,Sea,1.0,8.853318625013344,Object_Land_Pattern_Large,2,0,10837173.0,10837781.0,608.0
144,choice,choice,21,3.0,Sea,1.0,8.853318625013344,Animal_Land_Pattern_Small,1,0,10838667.0,10838888.0,221.0
144,choice,choice,22,3.0,Object,2.0,2.5558241669787094,Object_Sea_Solid_Small,0,1,10842221.0,10843357.0,1136.0
144,choice,choice,23,3.0,Solid,1.0,2.1039848329965025,Object_Sea_Solid_Small,0,1,10847878.0,10848468.0,590.0
144,choice,choice,23,3.0,Solid,1.0,2.1039848329965025,Object_Land_Pattern_Large,2,0,10849199.0,10849521.0,322.0
144,choice,choice,23,3.0,Solid,1.0,2.1039848329965025,Animal_Sea_Solid_Small,4,1,10849539.0,10849742.0,203.0
144,choice,choice,24,3.0,Land,1.0,8.104735458968207,Object_Land_Pattern_Large,2,1,10853300.0,10853565.0,265.0
144,choice,choice,24,3.0,Land,1.0,8.104735458968207,Animal_Sea_Solid_Small,4,0,10857308.0,10858200.0,892.0
144,choice,choice,24,3.0,Land,1.0,8.104735458968207,Object_Land_Pattern_Large,2,1,10858444.0,10859007.0,563.0
144,choice,choice,24,3.0,Land,1.0,8.104735458968207,Animal_Sea_Solid_Small,4,0,10859268.0,10860130.0,862.0
144,choice,choice,25,4.0,Small,1.0,27.793586874962784,Animal_Land_Pattern_Small,0,1,11208920.0,11209165.0,245.0
144,choice,choice,25,4.0,Small,1.0,27.793586874962784,Animal_Land_Solid_Small,1,1,11209486.0,11211669.0,2183.0
144,choice,choice,25,4.0,Small,1.0,27.793586874962784,Animal_Land_Pattern_Small,0,1,11213967.0,11214297.0,330.0
144,choice,choice,25,4.0,Small,1.0,27.793586874962784,Animal_Land_Solid_Small,1,1,11214535.0,11215263.0,728.0
144,choice,choice,25,4.0,Small,1.0,27.793586874962784,Animal_Land_Pattern_Small,0,1,11215674.0,11218258.0,2584.0
144,choice,choice,25,4.0,Small,1.0,27.793586874962784,Animal_Land_Solid_Small,1,1,11219161.0,11219499.0,338.0
144,choice,choice,25,4.0,Small,1.0,27.793586874962784,Animal_Land_Pattern_Small,0,1,11219722.0,11219906.0,184.0
144,choice,choice,25,4.0,Small,1.0,27.793586874962784,Animal_Land_Solid_Small,1,1,11220116.0,11220843.0,727.0
144,choice,choice,25,4.0,Small,1.0,27.793586874962784,Object_Sea_Pattern_Large,2,0,11221368.0,11222485.0,1117.0
144,choice,choice,25,4.0,Small,1.0,27.793586874962784,Object_Land_Pattern_Small,3,1,11225848.0,11230024.0,4176.0
144,choice,choice,25,4.0,Small,1.0,27.793586874962784,Animal_Sea_Solid_Large,4,0,11231537.0,11231964.0,427.0
144,choice,choice,25,4.0,Small,1.0,27.793586874962784,Object_Land_Pattern_Small,3,1,11232508.0,11232702.0,194.0
144,choice,choice,25,4.0,Small,1.0,27.793586874962784,Animal_Sea_Solid_Large,4,0,11232963.0,11233714.0,751.0
144,choice,choice,25,4.0,Small,1.0,27.793586874962784,Object_Land_Pattern_Small,3,1,11234002.0,11234505.0,503.0
144,choice,choice,25,4.0,Small,1.0,27.793586874962784,Animal_Land_Solid_Small,1,1,11235080.0,11235469.0,389.0
144,choice,choice,25,4.0,Small,1.0,27.793586874962784,Object_Sea_Pattern_Large,2,0,11235490.0,11236396.0,906.0
144,choice,choice,26,4.0,Object,1.0,7.750342375016771,Animal_Land_Solid_Small,1,0,11241050.0,11243717.0,2667.0
144,choice,choice,26,4.0,Object,1.0,7.750342375016771,Object_Land_Pattern_Small,3,1,11245151.0,11245738.0,587.0
144,choice,choice,26,4.0,Object,1.0,7.750342375016771,Animal_Sea_Solid_Large,4,0,11245998.0,11246219.0,221.0
144,choice,choice,26,4.0,Object,1.0,7.750342375016771,Object_Sea_Pattern_Large,2,1,11247787.0,11247985.0,198.0
144,choice,choice,27,4.0,Pattern,1.0,9.758651499985715,Object_Sea_Pattern_Large,2,1,11252102.0,11252338.0,236.0
144,choice,choice,27,4.0,Pattern,1.0,9.758651499985715,Object_Land_Pattern_Small,3,1,11252355.0,11252597.0,242.0
144,choice,choice,27,4.0,Pattern,1.0,9.758651499985715,Animal_Sea_Solid_Large,4,0,11253464.0,11254714.0,1250.0
144,choice,choice,27,4.0,Pattern,1.0,9.758651499985715,Object_Land_Pattern_Small,3,1,11256641.0,11256838.0,197.0
144,choice,choice,27,4.0,Pattern,1.0,9.758651499985715,Object_Sea_Pattern_Large,2,1,11257652.0,11257921.0,269.0
144,choice,choice,28,4.0,Animal,1.0,2.942238457966596,Animal_Land_Pattern_Small,0,1,11265487.0,11265906.0,419.0
144,choice,choice,28,4.0,Animal,1.0,2.942238457966596,Object_Land_Pattern_Small,3,0,11266132.0,11267218.0,1086.0
144,choice,choice,29,4.0,Land,2.0,2.623783832998015,Animal_Sea_Solid_Large,4,0,11271216.0,11271744.0,528.0
144,choice,choice,29,4.0,Land,2.0,2.623783832998015,Object_Land_Pattern_Small,3,1,11272288.0,11272442.0,154.0
144,choice,choice,30,4.0,Large,1.0,1.321182499988936,Animal_Land_Solid_Small,1,0,11276761.0,11276943.0,182.0
144,choice,choice,30,4.0,Large,1.0,1.321182499988936,Object_Sea_Pattern_Large,2,1,11277425.0,11277596.0,171.0
144,choice,choice,31,4.0,Solid,1.0,2.7678005419438705,Animal_Land_Solid_Small,1,1,11281719.0,11282363.0,644.0
144,choice,choice,31,4.0,Solid,1.0,2.7678005419438705,Object_Sea_Pattern_Large,2,0,11283490.0,11283915.0,425.0
144,choice,choice,32,4.0,Sea,2.0,3.2095094590913504,Object_Sea_Pattern_Large,2,1,11286496.0,11286763.0,267.0
144,choice,choice,32,4.0,Sea,2.0,3.2095094590913504,Animal_Land_Solid_Small,1,0,11286996.0,11287230.0,234.0
144,choice,choice,32,4.0,Sea,2.0,3.2095094590913504,Object_Land_Pattern_Small,3,0,11287656.0,11288006.0,350.0
144,choice,choice,32,4.0,Sea,2.0,3.2095094590913504,Object_Sea_Pattern_Large,2,1,11288245.0,11288427.0,182.0
144,choice,choice,32,4.0,Sea,2.0,3.2095094590913504,Animal_Sea_Solid_Large,4,1,11288959.0,11289182.0,223.0
144,choice,choice,32,4.0,Sea,2.0,3.2095094590913504,Object_Sea_Solid_Large,5,1,11289389.0,11289677.0,288.0
144,choice,choice,33,5.0,Animal,1.0,5.817767458036542,Object_Sea_Solid_Small,0,0,11582771.0,11583003.0,232.0
144,choice,choice,33,5.0,Animal,1.0,5.817767458036542,Object_Sea_Pattern_Large,1,0,11583244.0,11583461.0,217.0
144,choice,choice,33,5.0,Animal,1.0,5.817767458036542,Animal_Land_Solid_Large,2,1,11583478.0,11584667.0,1189.0
144,choice,choice,33,5.0,Animal,1.0,5.817767458036542,Object_Sea_Pattern_Large,1,0,11585910.0,11586344.0,434.0
144,choice,choice,34,5.0,Solid,2.0,3.3863691249862313,Animal_Sea_Pattern_Small,3,0,11590985.0,11592037.0,1052.0
144,choice,choice,34,5.0,Solid,2.0,3.3863691249862313,Object_Sea_Solid_Small,0,1,11592827.0,11593718.0,891.0
144,choice,choice,35,5.0,Large,1.0,8.72902087494731,Object_Sea_Pattern_Large,1,1,11598367.0,11600985.0,2618.0
144,choice,choice,36,5.0,Pattern,1.0,11.088605249999093,Object_Sea_Solid_Small,0,0,11610144.0,11611345.0,1201.0
144,choice,choice,36,5.0,Pattern,1.0,11.088605249999093,Object_Sea_Pattern_Large,1,1,11615163.0,11615409.0,246.0
144,choice,choice,36,5.0,Pattern,1.0,11.088605249999093,Object_Sea_Solid_Small,0,0,11616105.0,11616907.0,802.0
144,choice,choice,36,5.0,Pattern,1.0,11.088605249999093,Object_Sea_Pattern_Large,1,1,11617948.0,11619302.0,1354.0
144,choice,choice,37,5.0,Small,1.0,3.002176292007789,Object_Sea_Pattern_Large,1,0,11625149.0,11625589.0,440.0
144,choice,choice,37,5.0,Small,1.0,3.002176292007789,Animal_Land_Solid_Large,2,0,11625613.0,11626344.0,731.0
144,choice,choice,37,5.0,Small,1.0,3.002176292007789,Object_Sea_Pattern_Large,1,0,11626604.0,11626824.0,220.0
144,choice,choice,38,5.0,Land,2.0,1.513300166931003,Object_Sea_Solid_Small,0,0,11630032.0,11630257.0,225.0
144,choice,choice,38,5.0,Land,2.0,1.513300166931003,Animal_Sea_Pattern_Small,3,0,11630464.0,11630691.0,227.0
144,choice,choice,38,5.0,Land,2.0,1.513300166931003,Animal_Land_Solid_Large,2,1,11630926.0,11631138.0,212.0
144,choice,choice,39,5.0,Sea,1.0,0.3390906659187749,Object_Sea_Pattern_Large,1,1,11634240.0,11634529.0,289.0
144,choice,choice,40,5.0,Object,1.0,6.094280375051312,Object_Sea_Solid_Small,0,1,11637758.0,11638866.0,1108.0
144,choice,choice,40,5.0,Object,1.0,6.094280375051312,Object_Sea_Pattern_Large,1,1,11639349.0,11640048.0,699.0
144,choice,choice,40,5.0,Object,1.0,6.094280375051312,Object_Sea_Solid_Small,0,1,11640338.0,11641622.0,1284.0
144,choice,choice,41,6.0,Pattern,1.0,11.841390916029924,Animal_Sea_Solid_Small,0,0,11919865.0,11920355.0,490.0
144,choice,choice,41,6.0,Pattern,1.0,11.841390916029924,Object_Land_Pattern_Large,1,1,11920376.0,11921057.0,681.0
144,choice,choice,41,6.0,Pattern,1.0,11.841390916029924,Animal_Land_Solid_Small,2,0,11922040.0,11922690.0,650.0
144,choice,choice,41,6.0,Pattern,1.0,11.841390916029924,Object_Sea_Pattern_Small,3,1,11922940.0,11923251.0,311.0
144,choice,choice,41,6.0,Pattern,1.0,11.841390916029924,Animal_Sea_Pattern_Large,4,1,11923496.0,11923765.0,269.0
144,choice,choice,41,6.0,Pattern,1.0,11.841390916029924,Object_Sea_Pattern_Small,3,1,11924010.0,11924267.0,257.0
144,choice,choice,41,6.0,Pattern,1.0,11.841390916029924,Animal_Land_Solid_Small,2,0,11924504.0,11924737.0,233.0
144,choice,choice,41,6.0,Pattern,1.0,11.841390916029924,Object_Land_Solid_Large,5,0,11925289.0,11925930.0,641.0
144,choice,choice,41,6.0,Pattern,1.0,11.841390916029924,Animal_Sea_Solid_Small,0,0,11926469.0,11927435.0,966.0
144,choice,choice,41,6.0,Pattern,1.0,11.841390916029924,Object_Land_Pattern_Large,1,1,11928023.0,11928460.0,437.0
144,choice,choice,41,6.0,Pattern,1.0,11.841390916029924,Animal_Land_Solid_Small,2,0,11929806.0,11930113.0,307.0
144,choice,choice,41,6.0,Pattern,1.0,11.841390916029924,Object_Land_Pattern_Large,1,1,11930361.0,11930497.0,136.0
144,choice,choice,42,6.0,Object,1.0,9.543337457929738,Animal_Land_Solid_Small,2,0,11934020.0,11934915.0,895.0
144,choice,choice,42,6.0,Object,1.0,9.543337457929738,Object_Sea_Pattern_Small,3,1,11935154.0,11935595.0,441.0
144,choice,choice,42,6.0,Object,1.0,9.543337457929738,Animal_Land_Solid_Small,2,0,11935609.0,11936043.0,434.0
144,choice,choice,42,6.0,Object,1.0,9.543337457929738,Object_Sea_Pattern_Small,3,1,11936063.0,11936626.0,563.0
144,choice,choice,42,6.0,Object,1.0,9.543337457929738,Animal_Land_Solid_Small,2,0,11937140.0,11937424.0,284.0
144,choice,choice,42,6.0,Object,1.0,9.543337457929738,Object_Sea_Pattern_Small,3,1,11937944.0,11938510.0,566.0
144,choice,choice,42,6.0,Object,1.0,9.543337457929738,Animal_Land_Solid_Small,2,0,11938567.0,11938946.0,379.0
144,choice,choice,42,6.0,Object,1.0,9.543337457929738,Object_Land_Solid_Large,5,1,11939641.0,11940152.0,511.0
144,choice,choice,42,6.0,Object,1.0,9.543337457929738,Animal_Sea_Solid_Small,0,0,11940448.0,11940698.0,250.0
144,choice,choice,42,6.0,Object,1.0,9.543337457929738,Animal_Land_Solid_Small,2,0,11942128.0,11942379.0,251.0
144,choice,choice,43,6.0,Large,1.0,3.449237124994397,Object_Land_Pattern_Large,1,1,11946620.0,11946921.0,301.0
144,choice,choice,43,6.0,Large,1.0,3.449237124994397,Animal_Land_Solid_Small,2,0,11947299.0,11947569.0,270.0
144,choice,choice,43,6.0,Large,1.0,3.449237124994397,Object_Sea_Pattern_Small,3,0,11947904.0,11948598.0,694.0
144,choice,choice,43,6.0,Large,1.0,3.449237124994397,Object_Land_Solid_Large,5,1,11949223.0,11949364.0,141.0
144,choice,choice,43,6.0,Large,1.0,3.449237124994397,Object_Land_Pattern_Large,1,1,11949387.0,11949814.0,427.0
144,choice,choice,44,6.0,Solid,2.0,6.51148970797658,Animal_Land_Solid_Small,2,1,11954038.0,11954261.0,223.0
144,choice,choice,44,6.0,Solid,2.0,6.51148970797658,Object_Land_Solid_Large,5,1,11954750.0,11955091.0,341.0
144,choice,choice,44,6.0,Solid,2.0,6.51148970797658,Animal_Sea_Solid_Small,0,1,11955112.0,11955484.0,372.0
144,choice,choice,44,6.0,Solid,2.0,6.51148970797658,Animal_Land_Solid_Small,2,1,11955960.0,11956826.0,866.0
144,choice,choice,44,6.0,Solid,2.0,6.51148970797658,Animal_Sea_Solid_Small,0,1,11957386.0,11958300.0,914.0
144,choice,choice,45,6.0,Small,1.0,1.9002250829944387,Object_Sea_Pattern_Small,3,1,11963287.0,11963948.0,661.0
144,choice,choice,45,6.0,Small,1.0,1.9002250829944387,Animal_Land_Solid_Small,2,1,11964191.0,11964380.0,189.0
144,choice,choice,46,6.0,Animal,1.0,7.10898508306127,Object_Sea_Pattern_Small,3,0,11968033.0,11968586.0,553.0
144,choice,choice,46,6.0,Animal,1.0,7.10898508306127,Animal_Land_Solid_Small,2,1,11969206.0,11969484.0,278.0
144,choice,choice,46,6.0,Animal,1.0,7.10898508306127,Animal_Sea_Solid_Small,0,1,11970216.0,11970426.0,210.0
144,choice,choice,46,6.0,Animal,1.0,7.10898508306127,Object_Land_Pattern_Large,1,0,11970441.0,11970607.0,166.0
144,choice,choice,46,6.0,Animal,1.0,7.10898508306127,Animal_Land_Solid_Small,2,1,11970860.0,11971027.0,167.0
144,choice,choice,46,6.0,Animal,1.0,7.10898508306127,Animal_Sea_Solid_Small,0,1,11971047.0,11971474.0,427.0
144,choice,choice,46,6.0,Animal,1.0,7.10898508306127,Animal_Land_Solid_Small,2,1,11971743.0,11972107.0,364.0
144,choice,choice,46,6.0,Animal,1.0,7.10898508306127,Object_Land_Pattern_Large,1,0,11973603.0,11973828.0,225.0
144,choice,choice,47,6.0,Land,1.0,0.7394562499830499,Object_Land_Pattern_Large,1,1,11977397.0,11977770.0,373.0
144,choice,choice,48,6.0,Sea,1.0,2.301542624947615,Animal_Land_Solid_Small,2,0,11981519.0,11982277.0,758.0
144,choice,choice,49,7.0,Large,2.0,34.21143274998758,Animal_Land_Pattern_Small,0,0,12231706.0,12231974.0,268.0
144,choice,choice,49,7.0,Large,2.0,34.21143274998758,Object_Sea_Pattern_Large,1,1,12234219.0,12235074.0,855.0
144,choice,choice,49,7.0,Large,2.0,34.21143274998758,Object_Land_Pattern_Small,2,0,12236906.0,12237533.0,627.0
144,choice,choice,49,7.0,Large,2.0,34.21143274998758,Object_Sea_Pattern_Large,1,1,12239332.0,12239738.0,406.0
144,choice,choice,49,7.0,Large,2.0,34.21143274998758,Animal_Land_Solid_Small,3,0,12240012.0,12240655.0,643.0
144,choice,choice,49,7.0,Large,2.0,34.21143274998758,Object_Sea_Pattern_Large,1,1,12241139.0,12241260.0,121.0
144,choice,choice,49,7.0,Large,2.0,34.21143274998758,Object_Land_Pattern_Small,2,0,12241299.0,12241646.0,347.0
144,choice,choice,49,7.0,Large,2.0,34.21143274998758,Animal_Sea_Solid_Large,4,1,12241667.0,12241989.0,322.0
144,choice,choice,49,7.0,Large,2.0,34.21143274998758,Object_Land_Pattern_Small,2,0,12242217.0,12244277.0,2060.0
144,choice,choice,49,7.0,Large,2.0,34.21143274998758,Animal_Sea_Solid_Large,4,1,12246407.0,12247267.0,860.0
144,choice,choice,49,7.0,Large,2.0,34.21143274998758,Object_Land_Pattern_Small,2,0,12247555.0,12248159.0,604.0
144,choice,choice,49,7.0,Large,2.0,34.21143274998758,Animal_Sea_Solid_Large,4,1,12248175.0,12248567.0,392.0
144,choice,choice,49,7.0,Large,2.0,34.21143274998758,Object_Sea_Solid_Large,5,1,12248586.0,12249099.0,513.0
144,choice,choice,49,7.0,Large,2.0,34.21143274998758,Animal_Sea_Solid_Large,4,1,12249718.0,12249971.0,253.0
144,choice,choice,49,7.0,Large,2.0,34.21143274998758,Animal_Land_Solid_Small,3,0,12250192.0,12251004.0,812.0
144,choice,choice,49,7.0,Large,2.0,34.21143274998758,Animal_Sea_Solid_Large,4,1,12251298.0,12251713.0,415.0
144,choice,choice,49,7.0,Large,2.0,34.21143274998758,Object_Sea_Pattern_Large,1,1,12251993.0,12252533.0,540.0
144,choice,choice,49,7.0,Large,2.0,34.21143274998758,Object_Land_Pattern_Small,2,0,12252794.0,12253293.0,499.0
144,choice,choice,49,7.0,Large,2.0,34.21143274998758,Object_Sea_Pattern_Large,1,1,12253566.0,12253807.0,241.0
144,choice,choice,49,7.0,Large,2.0,34.21143274998758,Object_Sea_Solid_Large,5,1,12253838.0,12256617.0,2779.0
144,choice,choice,49,7.0,Large,2.0,34.21143274998758,Animal_Sea_Solid_Large,4,1,12256899.0,12257099.0,200.0
144,choice,choice,49,7.0,Large,2.0,34.21143274998758,Object_Sea_Pattern_Large,1,1,12257673.0,12257932.0,259.0
144,choice,choice,49,7.0,Large,2.0,34.21143274998758,Object_Land_Pattern_Small,2,0,12258876.0,12259091.0,215.0
144,choice,choice,49,7.0,Large,2.0,34.21143274998758,Object_Sea_Pattern_Large,1,1,12261487.0,12262754.0,1267.0
144,choice,choice,49,7.0,Large,2.0,34.21143274998758,Animal_Land_Solid_Small,3,0,12263730.0,12264194.0,464.0
144,choice,choice,49,7.0,Large,2.0,34.21143274998758,Object_Sea_Pattern_Large,1,1,12264501.0,12264617.0,116.0
144,choice,choice,49,7.0,Large,2.0,34.21143274998758,Object_Land_Pattern_Small,2,0,12264641.0,12264736.0,95.0
144,choice,choice,50,7.0,Sea,1.0,6.463133207987994,Object_Sea_Pattern_Large,1,1,12267797.0,12268101.0,304.0
144,choice,choice,50,7.0,Sea,1.0,6.463133207987994,Animal_Land_Solid_Small,3,0,12268124.0,12268861.0,737.0
144,choice,choice,50,7.0,Sea,1.0,6.463133207987994,Animal_Land_Pattern_Small,0,0,12268904.0,12269288.0,384.0
144,choice,choice,50,7.0,Sea,1.0,6.463133207987994,Animal_Land_Solid_Small,3,0,12270614.0,12270857.0,243.0
144,choice,choice,50,7.0,Sea,1.0,6.463133207987994,Object_Sea_Pattern_Large,1,1,12271184.0,12273308.0,2124.0
144,choice,choice,51,7.0,Land,2.0,4.490006416104734,Animal_Land_Pattern_Small,0,1,12277663.0,12277905.0,242.0
144,choice,choice,51,7.0,Land,2.0,4.490006416104734,Animal_Sea_Solid_Large,4,0,12277938.0,12278217.0,279.0
144,choice,choice,51,7.0,Land,2.0,4.490006416104734,Object_Land_Pattern_Small,2,1,12278490.0,12278903.0,413.0
144,choice,choice,51,7.0,Land,2.0,4.490006416104734,Object_Sea_Pattern_Large,1,0,12280507.0,12280731.0,224.0
144,choice,choice,51,7.0,Land,2.0,4.490006416104734,Animal_Land_Pattern_Small,0,1,12281004.0,12281277.0,273.0
144,choice,choice,51,7.0,Land,2.0,4.490006416104734,Animal_Land_Solid_Small,3,1,12281300.0,12281616.0,316.0
144,choice,choice,51,7.0,Land,2.0,4.490006416104734,Object_Sea_Pattern_Large,1,0,12281668.0,12281797.0,129.0
144,choice,choice,52,7.0,Small,2.0,4.867151082959026,Object_Land_Pattern_Small,2,1,12286029.0,12286408.0,379.0
144,choice,choice,52,7.0,Small,2.0,4.867151082959026,Object_Sea_Pattern_Large,1,0,12286926.0,12287595.0,669.0
144,choice,choice,52,7.0,Small,2.0,4.867151082959026,Animal_Land_Solid_Small,3,1,12288689.0,12289563.0,874.0
144,choice,choice,52,7.0,Small,2.0,4.867151082959026,Animal_Land_Pattern_Small,0,1,12289829.0,12290100.0,271.0
144,choice,choice,53,7.0,Object,2.0,5.03235462505836,Object_Sea_Pattern_Large,1,1,12292883.0,12293677.0,794.0
144,choice,choice,53,7.0,Object,2.0,5.03235462505836,Animal_Land_Solid_Small,3,0,12294382.0,12294566.0,184.0
144,choice,choice,53,7.0,Object,2.0,5.03235462505836,Object_Sea_Pattern_Large,1,1,12295090.0,12295393.0,303.0
144,choice,choice,53,7.0,Object,2.0,5.03235462505836,Animal_Land_Solid_Small,3,0,12295425.0,12296527.0,1102.0
144,choice,choice,54,7.0,Solid,1.0,4.096318208030425,Animal_Sea_Solid_Large,4,1,12301555.0,12301917.0,362.0
144,choice,choice,54,7.0,Solid,1.0,4.096318208030425,Object_Sea_Solid_Large,5,1,12302136.0,12302707.0,571.0
144,choice,choice,54,7.0,Solid,1.0,4.096318208030425,Object_Land_Pattern_Small,2,0,12303450.0,12303744.0,294.0
144,choice,choice,54,7.0,Solid,1.0,4.096318208030425,Animal_Land_Solid_Small,3,1,12304460.0,12305179.0,719.0
144,choice,choice,55,7.0,Animal,2.0,4.993668624898419,Object_Land_Pattern_Small,2,0,12307937.0,12308123.0,186.0
144,choice,choice,55,7.0,Animal,2.0,4.993668624898419,Animal_Land_Solid_Small,3,1,12308791.0,12310809.0,2018.0
144,choice,choice,55,7.0,Animal,2.0,4.993668624898419,Object_Sea_Solid_Large,5,0,12312244.0,12312744.0,500.0
144,choice,choice,56,7.0,Pattern,1.0,1.671948999981396,Animal_Land_Solid_Small,3,0,12315809.0,12315956.0,147.0
144,choice,choice,56,7.0,Pattern,1.0,1.671948999981396,Object_Sea_Pattern_Large,1,1,12316226.0,12316941.0,715.0
