thisRow.t,notes,phase,event,onset,offset,trial_number,game,image,outcome,choice,correct,rt,letter,match,response,option,true_value,true_position,recalled_position,
,,encoding,fixation,17.743150874972343,18.501686416799203,1,1,Object_Land_Pattern_Small,5,,,,,,,,,,,
,,encoding,image,18.50179129175376,19.522630833438598,1,1,Object_Land_Pattern_Small,5,,,,,,,,,,,
,,encoding,value,19.522739375010133,25.533198624965735,1,1,Object_Land_Pattern_Small,5,,,,,,,,,,,
,,encoding,attention,25.5333123333985,28.54736262501683,1,1,Object_Land_Pattern_Small,5,+5,1,0.8410476666176692,,,,,,,,
,,encoding,fixation,28.547493916703388,29.551105291815475,2,1,Object_Land_Solid_Small,-9,,,,,,,,,,,
,,encoding,image,29.55121499998495,30.56051233340986,2,1,Object_Land_Solid_Small,-9,,,,,,,,,,,
,,encoding,value,30.56068850005977,36.57118054176681,2,1,Object_Land_Solid_Small,-9,,,,,,,,,,,
,,encoding,attention,36.57134945841972,39.58480266679544,2,1,Object_Land_Solid_Small,-9,-9,1,0.8259799584047869,,,,,,,,
,,encoding,fixation,39.584969208342955,40.33859495841898,3,1,Object_Sea_Solid_Large,9,,,,,,,,,,,
,,encoding,image,40.338696458376944,41.34848570835311,3,1,Object_Sea_Solid_Large,9,,,,,,,,,,,
,,encoding,value,41.34858916676603,47.35718058340717,3,1,Object_Sea_Solid_Large,9,,,,,,,,,,,
,,encoding,attention,47.35729033336975,50.371127041755244,3,1,Object_Sea_Solid_Large,9,+9,1,0.9270596666028723,,,,,,,,
,,encoding,fixation,50.371254458324984,51.874825875042006,4,1,Animal_Land_Pattern_Small,1,,,,,,,,,,,
,,encoding,image,51.87495375005528,52.88387387502007,4,1,Animal_Land_Pattern_Small,1,,,,,,,,,,,
,,encoding,value,52.883997583412565,58.89282033336349,4,1,Animal_Land_Pattern_Small,1,,,,,,,,,,,
,,encoding,attention,58.89293695834931,61.90901795832906,4,1,Animal_Land_Pattern_Small,1,+1,1,0.6851897082524374,,,,,,,,
,,encoding,fixation,61.909148583421484,62.41295841673855,5,1,Animal_Sea_Pattern_Large,-5,,,,,,,,,,,
,,encoding,image,62.413059624959715,63.42244750005193,5,1,Animal_Sea_Pattern_Large,-5,,,,,,,,,,,
,,encoding,value,63.42256262502633,69.43099412496667,5,1,Animal_Sea_Pattern_Large,-5,,,,,,,,,,,
,,encoding,attention,69.43110575003084,72.4441060833633,5,1,Animal_Sea_Pattern_Large,-5,-5,1,1.5564285416621715,,,,,,,,
,,encoding,fixation,72.44423124997411,73.19796279177535,6,1,Animal_Sea_Solid_Large,-1,,,,,,,,,,,
,,encoding,image,73.19810891675297,74.20707400003448,6,1,Animal_Sea_Solid_Large,-1,,,,,,,,,,,
,,encoding,value,74.20718258339912,80.21582570835017,6,1,Animal_Sea_Solid_Large,-1,,,,,,,,,,,
,,encoding,attention,80.21595262503251,83.2299989167368,6,1,Animal_Sea_Solid_Large,-1,-1,1,2.0048614165280014,,,,,,,,
,,n-back,,,,1,1,,,,0,None,X,True,None,,,,,
,,n-back,,,,2,1,,,,1,None,V,False,None,,,,,
,,n-back,,,,3,1,,,,1,None,V,False,None,,,,,
,,n-back,,,,4,1,,,,1,None,N,False,None,,,,,
,,n-back,,,,5,1,,,,1,None,B,False,None,,,,,
,,n-back,,,,6,1,,,,0,None,N,True,None,,,,,
,,n-back,,,,7,1,,,,1,None,Z,False,None,,,,,
,,n-back,,,,8,1,,,,1,None,C,False,None,,,,,
,,n-back,,,,9,1,,,,0,None,Z,True,None,,,,,
,,n-back,,,,10,1,,,,0,None,C,True,None,,,,,
,,n-back,,,,11,1,,,,1,None,V,False,None,,,,,
,,n-back,,,,12,1,,,,1,None,B,False,None,,,,,
,,n-back,,,,13,1,,,,1,None,C,False,None,,,,,
,,n-back,,,,14,1,,,,0,None,B,True,None,,,,,
,,n-back,,,,15,1,,,,1,None,X,False,None,,,,,
,,n-back,,,,16,1,,,,0,None,B,True,None,,,,,
,,n-back,,,,17,1,,,,0,None,X,True,None,,,,,
,,n-back,,,,18,1,,,,1,None,V,False,None,,,,,
,,n-back,,,,19,1,,,,1,None,Z,False,None,,,,,
,,n-back,,,,20,1,,,,1,None,C,False,None,,,,,
,,n-back,,,,21,1,,,,1,None,V,False,None,,,,,
,,n-back,,,,22,1,,,,1,None,V,False,None,,,,,
,,n-back,,,,23,1,,,,1,None,N,False,None,,,,,
,,n-back,,,,24,1,,,,0,None,V,True,None,,,,,
,,n-back,,,,25,1,,,,1,None,X,False,None,,,,,
,,n-back,,,,26,1,,,,0,None,V,True,None,,,,,
,,n-back,,,,27,1,,,,1,None,Z,False,None,,,,,
,,n-back,,,,28,1,,,,0,None,V,True,None,,,,,
,,n-back,,,,29,1,,,,1,None,C,False,None,,,,,
,,n-back,,,,30,1,,,,0,0.518600333482027,B,False,1,,,,,
,,choice,fixation,181.98226341675036,182.73587958340067,1,1,,,,,,,,,Large,,,,
,,choice,option,182.7421114583267,183.8299084583996,1,1,,,,,,,,,Large,,,,
,,choice,choice,183.83008550002705,198.2286245833384,1,1,,,1,1,13.3901272501098,,,,Large,,,,
,,choice,fixation,198.22875183343422,199.73220729175955,2,1,,,,,,,,,Sea,,,,
,,choice,option,199.73782520834357,200.76260529179126,2,1,,,,,,,,,Sea,,,,
,,choice,choice,200.7627094583586,204.0497839167947,2,1,,,1,1,2.2789847082458436,,,,Sea,,,,
,,choice,fixation,204.04990695836022,205.304576041759,3,1,,,,,,,,,Pattern,,,,
,,choice,option,205.31087745842524,206.33586412505247,3,1,,,,,,,,,Pattern,,,,
,,choice,choice,206.3359631667845,209.42590762500186,3,1,,,2,0,2.0823342917719856,,,,Pattern,,,,
,,choice,fixation,209.42602479178458,210.6792761250399,4,1,,,,,,,,,Animal,,,,
,,choice,option,210.68524720834102,211.71005029173102,4,1,,,,,,,,,Animal,,,,
,,choice,choice,211.71016112505458,219.59289787500165,4,1,,,2,1,6.875183500000276,,,,Animal,,,,
,,choice,fixation,219.59303450002335,220.0964180000592,5,1,,,,,,,,,Object,,,,
,,choice,option,220.10263991670217,221.12717779178638,5,1,,,,,,,,,Object,,,,
,,choice,choice,221.12727833341341,222.8752274167491,5,1,,,1,1,0.7407379583455622,,,,Object,,,,
,,choice,fixation,222.87535800004844,223.62863237503916,6,1,,,,,,,,,Small,,,,
,,choice,option,223.63509387499653,224.65978070837446,6,1,,,,,,,,,Small,,,,
,,choice,choice,224.65988325001672,228.29150062496774,6,1,,,2,1,2.6242162499111146,,,,Small,,,,
,,choice,fixation,228.29160666675307,229.04509895842057,7,1,,,,,,,,,Land,,,,
,,choice,option,229.05100924998987,230.07543149997946,7,1,,,,,,,,,Land,,,,
,,choice,choice,230.07552987500094,232.45749045838602,7,1,,,2,1,1.3747784583829343,,,,Land,,,,
,,choice,fixation,232.45761141681578,233.4611108750105,8,1,,,,,,,,,Solid,,,,
,,choice,option,233.4669852918014,234.49156754172873,8,1,,,,,,,,,Solid,,,,
,,choice,choice,234.49170454172418,237.62801179173402,8,1,,,1,0,2.1288840832421556,,,,Solid,,,,
,,memory,free_recall,293.3491745417705,337.90038787503727,0,1,,,,,,,,,,,,,
,,memory,value_recall,379.6968938333448,386.1968144583516,1,1,Animal_Sea_Solid_Large,,,,6.496387250022963,,,,,-1,,,
,,memory,value_recall,387.4882967917947,395.9513007500209,2,1,Object_Land_Pattern_Small,,,,8.459473458235152,,,,,5,,,
,,memory,value_recall,397.7415076667676,404.56693216681015,3,1,Animal_Sea_Pattern_Large,,,,6.821996499900706,,,,,-5,,,
,,memory,value_recall,405.8581263750093,416.51086616679095,4,1,Animal_Land_Pattern_Small,,,,10.649175083381124,,,,,1,,,
,,memory,value_recall,417.8019377499586,421.97407733334694,5,1,Object_Land_Solid_Small,,,,4.16871441679541,,,,,-9,,,
,,memory,value_recall,423.01383683341555,427.3992152083665,6,1,Object_Sea_Solid_Large,,,,4.382309541688301,,,,,9,,,
,,memory,spatial_recall,451.4600575834047,458.5740200417349,6,1,Animal_Land_Pattern_Small,,,1,7.110396666568704,,,,,,"[329, -190]","[329, -190]",
,,memory,spatial_recall,460.15089575003367,464.15502533339895,6,1,Object_Land_Solid_Small,,,1,4.000587375019677,,,,,,"[329, 189]","[329, 189]",
,,memory,spatial_recall,465.48380133335013,470.3548227917636,6,1,Animal_Sea_Solid_Large,,,1,4.867640958284028,,,,,,"[0, 380]","[0, 380]",
,,memory,spatial_recall,472.4367173750652,476.32745841681026,6,1,Object_Land_Pattern_Small,,,1,3.887117416714318,,,,,,"[-329, 190]","[-329, 190]",
,,memory,spatial_recall,477.6484486249974,479.5054910418112,6,1,Animal_Sea_Pattern_Large,,,1,1.85350666672457,,,,,,"[-329, -190]","[-329, -190]",
,,memory,spatial_recall,481.085086749983,484.6423501668032,6,1,Object_Sea_Solid_Large,,,1,3.553714416688308,,,,,,"[0, -380]","[0, -380]",
,,encoding,fixation,10.390093250083737,11.393928583478555,7,2,Object_Land_Pattern_Large,9,,,,,,,,,,,
,,encoding,image,11.394032041775063,12.40341595839709,7,2,Object_Land_Pattern_Large,9,,,,,,,,,,,
,,encoding,value,12.403534958371893,18.414067458477803,7,2,Object_Land_Pattern_Large,9,,,,,,,,,,,
,,encoding,attention,18.414170791744255,21.43057070847135,7,2,Object_Land_Pattern_Large,9,+9,1,1.475615624920465,,,,,,,,
,,encoding,fixation,21.430743500008248,22.68407320836559,8,2,Animal_Sea_Pattern_Small,-9,,,,,,,,,,,
,,encoding,image,22.684179666801356,23.693240916822106,8,2,Animal_Sea_Pattern_Small,-9,,,,,,,,,,,
,,encoding,value,23.693359208409674,29.702053916756995,8,2,Animal_Sea_Pattern_Small,-9,,,,,,,,,,,
,,encoding,attention,29.702187624992803,32.715382708469406,8,2,Animal_Sea_Pattern_Small,-9,-9,1,0.8694858748931438,,,,,,,,
,,encoding,fixation,32.71552291675471,34.21934016677551,9,2,Object_Sea_Solid_Small,1,,,,,,,,,,,
,,encoding,image,34.21945237508044,35.22746362502221,9,2,Object_Sea_Solid_Small,1,,,,,,,,,,,
,,encoding,value,35.227556041791104,41.23598658340052,9,2,Object_Sea_Solid_Small,1,,,,,,,,,,,
,,encoding,attention,41.23611337505281,44.24967162508983,9,2,Object_Sea_Solid_Small,1,+1,1,1.110049750073813,,,,,,,,
,,encoding,fixation,44.24982625001576,45.753297708462924,10,2,Animal_Land_Pattern_Large,-8,,,,,,,,,,,
,,encoding,image,45.7534064167412,46.76280479179695,10,2,Animal_Land_Pattern_Large,-8,,,,,,,,,,,
,,encoding,value,46.76290008344222,52.774362249998376,10,2,Animal_Land_Pattern_Large,-8,,,,,,,,,,,
,,encoding,attention,52.77447533339728,55.78789500007406,10,2,Animal_Land_Pattern_Large,-8,-8,1,2.30966704164166,,,,,,,,
,,encoding,fixation,55.788030291791074,57.0413670000853,11,2,Animal_Sea_Solid_Small,5,,,,,,,,,,,
,,encoding,image,57.041471791802905,58.05012912501115,11,2,Animal_Sea_Solid_Small,5,,,,,,,,,,,
,,encoding,value,58.05023120844271,64.05985483340919,11,2,Animal_Sea_Solid_Small,5,,,,,,,,,,,
,,encoding,attention,64.05996441678144,67.06983654177748,11,2,Animal_Sea_Solid_Small,5,None,None,None,,,,,,,,
,,encoding,fixation,67.06996962509584,68.57375945837703,12,2,Object_Land_Solid_Large,-8,,,,,,,,,,,
,,encoding,image,68.57388816680759,69.58280762506183,12,2,Object_Land_Solid_Large,-8,,,,,,,,,,,
,,encoding,value,69.58291862509213,75.59056629182305,12,2,Object_Land_Solid_Large,-8,,,,,,,,,,,
,,encoding,attention,75.59068416676018,78.60331795841921,12,2,Object_Land_Solid_Large,-8,-8,1,0.8724028334254399,,,,,,,,
,,n-back,,,,31,2,,,,1,None,X,False,None,,,,,
,,n-back,,,,32,2,,,,0,None,X,True,None,,,,,
,,n-back,,,,33,2,,,,1,None,C,False,None,,,,,
,,n-back,,,,34,2,,,,1,None,N,False,None,,,,,
,,n-back,,,,35,2,,,,1,None,B,False,None,,,,,
,,n-back,,,,36,2,,,,1,None,B,False,None,,,,,
,,n-back,,,,37,2,,,,1,None,C,False,None,,,,,
,,n-back,,,,38,2,,,,1,1.1794689999660477,B,True,1,,,,,
,,n-back,,,,39,2,,,,0,None,C,True,None,,,,,
,,n-back,,,,40,2,,,,1,None,X,False,None,,,,,
,,n-back,,,,41,2,,,,1,None,Z,False,None,,,,,
,,n-back,,,,42,2,,,,1,None,B,False,None,,,,,
,,n-back,,,,43,2,,,,1,None,N,False,None,,,,,
,,n-back,,,,44,2,,,,1,None,X,False,None,,,,,
,,n-back,,,,45,2,,,,1,None,C,False,None,,,,,
,,n-back,,,,46,2,,,,0,None,X,True,None,,,,,
,,n-back,,,,47,2,,,,0,None,C,True,None,,,,,
,,n-back,,,,48,2,,,,1,None,Z,False,None,,,,,
,,n-back,,,,49,2,,,,1,1.4379372916882858,C,True,1,,,,,
,,n-back,,,,50,2,,,,1,None,N,False,None,,,,,
,,n-back,,,,51,2,,,,1,None,Z,False,None,,,,,
,,n-back,,,,52,2,,,,1,None,X,False,None,,,,,
,,n-back,,,,53,2,,,,1,None,B,False,None,,,,,
,,n-back,,,,54,2,,,,0,None,X,True,None,,,,,
,,n-back,,,,55,2,,,,1,None,V,False,None,,,,,
,,n-back,,,,56,2,,,,1,0.8895387499360368,X,True,1,,,,,
,,n-back,,,,57,2,,,,0,0.7173410834511742,C,False,1,,,,,
,,n-back,,,,58,2,,,,0,None,X,True,None,,,,,
,,n-back,,,,59,2,,,,0,None,C,True,None,,,,,
,,n-back,,,,60,2,,,,1,None,C,False,None,,,,,
,,choice,fixation,163.73956500005443,164.74142925010528,9,2,,,,,,,,,Object,,,,
,,choice,option,164.74732925009448,165.7727358750999,9,2,,,,,,,,,Object,,,,
,,choice,choice,165.77284637500998,170.91410037502646,9,2,,,1,1,4.133532000007108,,,,Object,,,,
,,choice,fixation,170.91426750004757,171.66860529175028,10,2,,,,,,,,,Land,,,,
,,choice,option,171.67444804182742,172.69825383345596,10,2,,,,,,,,,Land,,,,
,,choice,choice,172.69836029177532,175.60177820839453,10,2,,,1,0,1.8953712083166465,,,,Land,,,,
,,choice,fixation,175.6019645833876,177.10649687505793,11,2,,,,,,,,,Animal,,,,
,,choice,option,177.11253650009166,178.13970170845278,11,2,,,,,,,,,Animal,,,,
,,choice,choice,178.13980220840313,179.25572366674896,11,2,,,2,1,0.11031191668007523,,,,Animal,,,,
,,choice,fixation,179.255843166844,180.00800825003535,12,2,,,,,,,,,Large,,,,
,,choice,option,180.0138059167657,181.03966791683342,12,2,,,,,,,,,Large,,,,
,,choice,choice,181.0397737917956,186.89299629174639,12,2,,,1,0,4.8458697500173,,,,Large,,,,
,,choice,fixation,186.89311083348002,188.39653887506574,13,2,,,,,,,,,Solid,,,,
,,choice,option,188.40255175007042,189.42688537505455,13,2,,,,,,,,,Solid,,,,
,,choice,choice,189.42699100007303,193.55198004178237,13,2,,,2,1,3.117442833376117,,,,Solid,,,,
,,choice,fixation,193.55216275004204,195.05683516676072,14,2,,,,,,,,,Pattern,,,,
,,choice,option,195.06307991675567,196.08769820840098,14,2,,,,,,,,,Pattern,,,,
,,choice,choice,196.08778887509834,197.19201566674747,14,2,,,1,0,0.09851279156282544,,,,Pattern,,,,
,,choice,fixation,197.19213141675573,197.94396775006317,15,2,,,,,,,,,Sea,,,,
,,choice,option,197.94986020843498,198.97502550005447,15,2,,,,,,,,,Sea,,,,
,,choice,choice,198.97512025001924,201.76076812506653,15,2,,,2,1,1.7771213749656454,,,,Sea,,,,
,,choice,fixation,201.76088787510525,203.01422391680535,16,2,,,,,,,,,Small,,,,
,,choice,option,203.0201421667589,204.04386362503283,16,2,,,,,,,,,Small,,,,
,,choice,choice,204.04396837507375,207.81749250006396,16,2,,,2,1,2.76615162496455,,,,Small,,,,
,,memory,free_recall,230.3809595417697,254.94218191679101,6,2,,,,,,,,,,,,,
,,memory,value_recall,265.966180333402,274.3563820418203,7,2,Animal_Land_Pattern_Large,,,,8.386692333384417,,,,,-8,,,
,,memory,value_recall,276.1476857084781,281.3101867500227,8,2,Animal_Sea_Solid_Small,,,,5.159106250037439,,,,,5,,,
,,memory,value_recall,283.3500590000767,285.0054940833943,9,2,Object_Sea_Solid_Small,,,,1.6517352915834635,,,,,1,,,
,,memory,value_recall,286.5452965417644,287.7102179999929,10,2,Animal_Sea_Pattern_Small,,,,1.1611327499849722,,,,,-9,,,
,,memory,value_recall,289.4998435417656,293.1240204999922,11,2,Object_Land_Solid_Large,,,,3.6202777499565855,,,,,-8,,,
,,memory,value_recall,294.16378787509166,295.4064370833803,12,2,Object_Land_Pattern_Large,,,,1.2406521249795333,,,,,9,,,
,,memory,spatial_recall,310.0111187500879,315.8797331250971,12,2,Object_Sea_Solid_Small,,,1,5.864605708280578,,,,,,"[-329, -190]","[-329, -190]",
,,memory,spatial_recall,317.20228454179596,320.24644962500315,12,2,Animal_Sea_Pattern_Small,,,1,3.0401452083606273,,,,,,"[0, -380]","[0, -380]",
,,memory,spatial_recall,321.81643979181536,325.2747306667734,12,2,Animal_Sea_Solid_Small,,,1,3.4547949583502486,,,,,,"[329, 189]","[329, 189]",
,,memory,spatial_recall,326.35064154176507,328.39637045841664,12,2,Animal_Land_Pattern_Large,,,1,2.0413234167499468,,,,,,"[-329, 190]","[-329, 190]",
,,memory,spatial_recall,329.46829633344896,331.0939117918024,12,2,Object_Land_Pattern_Large,,,1,1.622009375016205,,,,,,"[0, 380]","[0, 380]",
,,memory,spatial_recall,333.1668397084577,336.9409783750307,12,2,Object_Land_Solid_Large,,,1,3.7664616249967366,,,,,,"[329, -190]","[329, -190]",
,,encoding,fixation,5.540712416637689,6.794211333384737,13,3,Animal_Land_Solid_Small,-1,,,,,,,,,,,
,,encoding,image,6.794313708436675,7.803489208337851,13,3,Animal_Land_Solid_Small,-1,,,,,,,,,,,
,,encoding,value,7.803601958439685,13.813122208346613,13,3,Animal_Land_Solid_Small,-1,,,,,,,,,,,
,,encoding,attention,13.813236666610464,16.827693416620605,13,3,Animal_Land_Solid_Small,-1,-1,1,1.9390734584303573,,,,,,,,
,,encoding,fixation,16.827872375026345,18.331439499976113,14,3,Object_Sea_Pattern_Large,5,,,,,,,,,,,
,,encoding,image,18.331604000064544,19.340161000029184,14,3,Object_Sea_Pattern_Large,5,,,,,,,,,,,
,,encoding,value,19.340264208381996,25.349296416621655,14,3,Object_Sea_Pattern_Large,5,,,,,,,,,,,
,,encoding,attention,25.34939341666177,28.363264958374202,14,3,Object_Sea_Pattern_Large,5,+5,1,0.8662190833128989,,,,,,,,
,,encoding,fixation,28.363403666648082,29.366933708428405,15,3,Animal_Land_Pattern_Large,-7,,,,,,,,,,,
,,encoding,image,29.367062916629948,30.375113249989226,15,3,Animal_Land_Pattern_Large,-7,,,,,,,,,,,
,,encoding,value,30.375219416688196,36.3843627916649,15,3,Animal_Land_Pattern_Large,-7,,,,,,,,,,,
,,encoding,attention,36.384488000068814,39.394497708417475,15,3,Animal_Land_Pattern_Large,-7,None,None,None,,,,,,,,
,,encoding,fixation,39.39462558343075,39.898018541629426,16,3,Object_Sea_Pattern_Small,7,,,,,,,,,,,
,,encoding,image,39.89810708339792,40.90670595841948,16,3,Object_Sea_Pattern_Small,7,,,,,,,,,,,
,,encoding,value,40.90686941659078,46.91580266668461,16,3,Object_Sea_Pattern_Small,7,,,,,,,,,,,
,,encoding,attention,46.915927250054665,49.92962845833972,16,3,Object_Sea_Pattern_Small,7,+7,1,1.062643083394505,,,,,,,,
,,encoding,fixation,49.92975925002247,51.18319887504913,17,3,Animal_Land_Solid_Large,9,,,,,,,,,,,
,,encoding,image,51.18331945838872,52.191931833396666,17,3,Animal_Land_Solid_Large,9,,,,,,,,,,,
,,encoding,value,52.19205633341335,58.20142462500371,17,3,Animal_Land_Solid_Large,9,,,,,,,,,,,
,,encoding,attention,58.20153787499294,61.21748054167256,17,3,Animal_Land_Solid_Large,9,+9,1,0.6717685834737495,,,,,,,,
,,encoding,fixation,61.217623166623525,61.972412666655146,18,3,Object_Sea_Solid_Small,-7,,,,,,,,,,,
,,encoding,image,61.97252466669306,62.97954525006935,18,3,Object_Sea_Solid_Small,-7,,,,,,,,,,,
,,encoding,value,62.979681625030935,68.98964870837517,18,3,Object_Sea_Solid_Small,-7,,,,,,,,,,,
,,encoding,attention,68.98976629169192,72.00251320842654,18,3,Object_Sea_Solid_Small,-7,-7,1,1.1250308750895783,,,,,,,,
,,n-back,,,,61,3,,,,1,None,Z,False,None,,,,,
,,n-back,,,,62,3,,,,1,None,X,False,None,,,,,
,,n-back,,,,63,3,,,,1,None,V,False,None,,,,,
,,n-back,,,,64,3,,,,1,None,N,False,None,,,,,
,,n-back,,,,65,3,,,,1,None,N,False,None,,,,,
,,n-back,,,,66,3,,,,1,None,Z,False,None,,,,,
,,n-back,,,,67,3,,,,1,1.1559050417272374,N,True,1,,,,,
,,n-back,,,,68,3,,,,1,None,V,False,None,,,,,
,,n-back,,,,69,3,,,,1,None,X,False,None,,,,,
,,n-back,,,,70,3,,,,1,0.7245118333958089,V,True,1,,,,,
,,n-back,,,,71,3,,,,1,None,N,False,None,,,,,
,,n-back,,,,72,3,,,,1,None,X,False,None,,,,,
,,n-back,,,,73,3,,,,1,None,Z,False,None,,,,,
,,n-back,,,,74,3,,,,1,None,C,False,None,,,,,
,,n-back,,,,75,3,,,,1,0.9676337499404326,Z,True,1,,,,,
,,n-back,,,,76,3,,,,1,None,Z,False,None,,,,,
,,n-back,,,,77,3,,,,1,None,V,False,None,,,,,
,,n-back,,,,78,3,,,,1,None,V,False,None,,,,,
,,n-back,,,,79,3,,,,1,0.5282114999135956,V,True,1,,,,,
,,n-back,,,,80,3,,,,0,None,V,True,None,,,,,
,,n-back,,,,81,3,,,,0,None,V,True,None,,,,,
,,n-back,,,,82,3,,,,1,None,Z,False,None,,,,,
,,n-back,,,,83,3,,,,1,0.7678212499013171,V,True,1,,,,,
,,n-back,,,,84,3,,,,0,None,Z,True,None,,,,,
,,n-back,,,,85,3,,,,1,None,B,False,None,,,,,
,,n-back,,,,86,3,,,,0,None,Z,True,None,,,,,
,,n-back,,,,87,3,,,,1,None,Z,False,None,,,,,
,,n-back,,,,88,3,,,,1,None,V,False,None,,,,,
,,n-back,,,,89,3,,,,1,0.8927331250160933,Z,True,1,,,,,
,,n-back,,,,90,3,,,,1,None,B,False,None,,,,,
,,choice,fixation,153.27072508342098,154.27249066659715,17,3,,,,,,,,,Animal,,,,
,,choice,option,154.27893754164688,155.30606362503022,17,3,,,,,,,,,Animal,,,,
,,choice,choice,155.30615954159293,160.17560808337294,17,3,,,1,1,3.862172416760586,,,,Animal,,,,
,,choice,fixation,160.17574850004166,161.17918175004888,18,3,,,,,,,,,Solid,,,,
,,choice,option,161.1852710833773,162.21027962502558,18,3,,,,,,,,,Solid,,,,
,,choice,choice,162.21037929167505,164.96684491669293,18,3,,,1,1,1.7486616666428745,,,,Solid,,,,
,,choice,fixation,164.9669619584456,165.97128354164306,19,3,,,,,,,,,Large,,,,
,,choice,option,165.9768426666269,167.00158358342014,19,3,,,,,,,,,Large,,,,
,,choice,choice,167.0016987916315,173.71159008343238,19,3,,,1,1,5.701709791785106,,,,Large,,,,
,,choice,fixation,173.71171120833606,174.21518012497108,20,3,,,,,,,,,Pattern,,,,
,,choice,option,174.22124895837624,175.24564370838925,20,3,,,,,,,,,Pattern,,,,
,,choice,choice,175.2458187500015,178.7664831666043,20,3,,,1,1,2.513077416573651,,,,Pattern,,,,
,,choice,fixation,178.7665970416274,179.52218258334324,21,3,,,,,,,,,Small,,,,
,,choice,option,179.52880600001663,180.5548364999704,21,3,,,,,,,,,Small,,,,
,,choice,choice,180.5549415834248,182.0631882083835,21,3,,,2,1,0.5010444583604112,,,,Small,,,,
,,choice,fixation,182.0633062083507,182.56664525007363,22,3,,,,,,,,,Sea,,,,
,,choice,option,182.5726904165931,183.59678154159337,22,3,,,,,,,,,Sea,,,,
,,choice,choice,183.59688412502874,187.8550224166829,22,3,,,2,0,3.2506585418013856,,,,Sea,,,,
,,choice,fixation,187.85513379168697,188.85848045838065,23,3,,,,,,,,,Land,,,,
,,choice,option,188.86406279169023,189.88917295844294,23,3,,,,,,,,,Land,,,,
,,choice,choice,189.88927045837045,197.0470527500147,23,3,,,1,1,6.150202708435245,,,,Land,,,,
,,choice,fixation,197.04716491664294,197.8003525416134,24,3,,,,,,,,,Object,,,,
,,choice,option,197.8062869583955,198.8299704999663,24,3,,,,,,,,,Object,,,,
,,choice,choice,198.8300745000597,207.44355399999768,24,3,,,1,1,7.604773791623302,,,,Object,,,,
,,memory,free_recall,218.67575029167347,247.09110054164194,12,3,,,,,,,,,,,,,
,,memory,value_recall,256.9460114999674,262.36165629164316,13,3,Object_Sea_Pattern_Large,,,,5.411955916788429,,,,,5,,,
,,memory,value_recall,263.6525250416016,272.16262695845217,14,3,Object_Sea_Pattern_Small,,,,8.50650208326988,,,,,7,,,
,,memory,value_recall,273.45488400000613,276.2590926249977,15,3,Animal_Land_Solid_Large,,,,2.800615124986507,,,,,9,,,
,,memory,value_recall,277.5478302916745,280.88386775006074,16,3,Animal_Land_Pattern_Large,,,,3.33234541665297,,,,,-7,,,
,,memory,value_recall,282.67544891661964,285.09769204165787,17,3,Animal_Land_Solid_Small,,,,2.4188276666682214,,,,,-1,,,
,,memory,value_recall,286.13634299999103,289.39593545836397,18,3,Object_Sea_Solid_Small,,,,3.25719191681128,,,,,-7,,,
,,memory,spatial_recall,296.6001385416603,299.71073820837773,18,3,Animal_Land_Pattern_Large,,,1,3.1069790417095646,,,,,,"[-329, 190]","[-329, 190]",
,,memory,spatial_recall,301.7880224584369,303.1061241250718,18,3,Animal_Land_Solid_Large,,,1,1.3144881250336766,,,,,,"[0, -380]","[0, -380]",
,,memory,spatial_recall,304.1746330416063,305.973415125045,18,3,Animal_Land_Solid_Small,,,1,1.7969558333279565,,,,,,"[329, 189]","[329, 189]",
,,memory,spatial_recall,307.80154074996244,308.6765369584318,18,3,Object_Sea_Pattern_Large,,,1,0.8715744583168998,,,,,,"[329, -190]","[329, -190]",
,,memory,spatial_recall,309.741759791621,312.8409319999628,18,3,Object_Sea_Pattern_Small,,,1,3.0971264167455956,,,,,,"[0, 380]","[0, 380]",
,,memory,spatial_recall,313.910390458419,314.9591752915876,18,3,Object_Sea_Solid_Small,,,1,1.0466785000171512,,,,,,"[-329, -190]","[-329, -190]",
,,encoding,fixation,4.133962333435193,5.637794541660696,19,4,Animal_Sea_Pattern_Large,-4,,,,,,,,,,,
,,encoding,image,5.637903541675769,6.646651874994859,19,4,Animal_Sea_Pattern_Large,-4,,,,,,,,,,,
,,encoding,value,6.646768625010736,12.655682625016198,19,4,Animal_Sea_Pattern_Large,-4,,,,,,,,,,,
,,encoding,attention,12.655866499990225,15.669831583392806,19,4,Animal_Sea_Pattern_Large,-4,-4,1,2.0550477084470913,,,,,,,,
,,encoding,fixation,15.669956916710362,16.42327495838981,20,4,Animal_Sea_Solid_Large,4,,,,,,,,,,,
,,encoding,image,16.423388041672297,17.432274041697383,20,4,Animal_Sea_Solid_Large,4,,,,,,,,,,,
,,encoding,value,17.432382375001907,23.441254458390176,20,4,Animal_Sea_Solid_Large,4,,,,,,,,,,,
,,encoding,attention,23.441347708459944,26.456933291628957,20,4,Animal_Sea_Solid_Large,4,+4,1,2.4888992082560435,,,,,,,,
,,encoding,fixation,26.457083291723393,27.960425375029445,21,4,Object_Sea_Solid_Large,2,,,,,,,,,,,
,,encoding,image,27.960535208461806,28.969292416702956,21,4,Object_Sea_Solid_Large,2,,,,,,,,,,,
,,encoding,value,28.96939924999606,34.97856212500483,21,4,Object_Sea_Solid_Large,2,,,,,,,,,,,
,,encoding,attention,34.97867541667074,37.99219441669993,21,4,Object_Sea_Solid_Large,2,+2,1,1.281760791549459,,,,,,,,
,,encoding,fixation,37.99231845838949,39.49597766669467,22,4,Animal_Land_Pattern_Small,-1,,,,,,,,,,,
,,encoding,image,39.49607866664883,40.50446454167832,22,4,Animal_Land_Pattern_Small,-1,,,,,,,,,,,
,,encoding,value,40.50455654168036,46.513904500054196,22,4,Animal_Land_Pattern_Small,-1,,,,,,,,,,,
,,encoding,attention,46.514021958457306,49.52732262504287,22,4,Animal_Land_Pattern_Small,-1,-1,1,1.4617894582916051,,,,,,,,
,,encoding,fixation,49.52745508344378,50.031409041723236,23,4,Object_Land_Solid_Small,-4,,,,,,,,,,,
,,encoding,image,50.031512874993496,51.040428583393805,23,4,Object_Land_Solid_Small,-4,,,,,,,,,,,
,,encoding,value,51.04052533337381,57.049252958386205,23,4,Object_Land_Solid_Small,-4,,,,,,,,,,,
,,encoding,attention,57.04936383338645,60.063056875020266,23,4,Object_Land_Solid_Small,-4,-4,1,1.3128196250181645,,,,,,,,
,,encoding,fixation,60.06319933338091,61.31658808339853,24,4,Object_Land_Pattern_Small,6,,,,,,,,,,,
,,encoding,image,61.31669758341741,62.32577466662042,24,4,Object_Land_Pattern_Small,6,,,,,,,,,,,
,,encoding,value,62.32587312499527,68.33653212501667,24,4,Object_Land_Pattern_Small,6,,,,,,,,,,,
,,encoding,attention,68.33663229166996,71.35041379171889,24,4,Object_Land_Pattern_Small,6,+6,1,1.2578650834038854,,,,,,,,
,,n-back,,,,91,4,,,,0,None,X,True,None,,,,,
,,n-back,,,,92,4,,,,0,None,Z,True,None,,,,,
,,n-back,,,,93,4,,,,1,None,N,False,None,,,,,
,,n-back,,,,94,4,,,,1,None,V,False,None,,,,,
,,n-back,,,,95,4,,,,1,None,V,False,None,,,,,
,,n-back,,,,96,4,,,,1,None,B,False,None,,,,,
,,n-back,,,,97,4,,,,1,None,X,False,None,,,,,
,,n-back,,,,98,4,,,,1,None,C,False,None,,,,,
,,n-back,,,,99,4,,,,1,None,B,False,None,,,,,
,,n-back,,,,100,4,,,,1,None,N,False,None,,,,,
,,n-back,,,,101,4,,,,1,None,Z,False,None,,,,,
,,n-back,,,,102,4,,,,1,None,C,False,None,,,,,
,,n-back,,,,103,4,,,,1,None,N,False,None,,,,,
,,n-back,,,,104,4,,,,1,0.5394526249729097,C,True,1,,,,,
,,n-back,,,,105,4,,,,0,None,N,True,None,,,,,
,,n-back,,,,106,4,,,,1,1.1930622915970162,C,True,1,,,,,
,,n-back,,,,107,4,,,,1,None,X,False,None,,,,,
,,n-back,,,,108,4,,,,1,0.8777999166632071,C,True,1,,,,,
,,n-back,,,,109,4,,,,0,None,X,True,None,,,,,
,,n-back,,,,110,4,,,,1,None,Z,False,None,,,,,
,,n-back,,,,111,4,,,,1,None,B,False,None,,,,,
,,n-back,,,,112,4,,,,1,None,N,False,None,,,,,
,,n-back,,,,113,4,,,,1,None,N,False,None,,,,,
,,n-back,,,,114,4,,,,1,None,C,False,None,,,,,
,,n-back,,,,115,4,,,,1,None,V,False,None,,,,,
,,n-back,,,,116,4,,,,0,None,C,True,None,,,,,
,,n-back,,,,117,4,,,,1,None,C,False,None,,,,,
,,n-back,,,,118,4,,,,1,0.6863760834094137,C,True,1,,,,,
,,n-back,,,,119,4,,,,1,None,N,False,None,,,,,
,,n-back,,,,120,4,,,,1,1.049310625065118,C,True,1,,,,,
,,choice,fixation,154.5214745416306,155.77323795843404,25,4,,,,,,,,,Small,,,,
,,choice,option,155.77887925005052,156.8054751250893,25,4,,,,,,,,,Small,,,,
,,choice,choice,156.80558016663417,161.92306570836809,25,4,,,2,0,4.109938166569918,,,,Small,,,,
,,choice,fixation,161.9231885834597,162.67662250006106,26,4,,,,,,,,,Animal,,,,
,,choice,option,162.68254083336797,163.7072475416353,26,4,,,,,,,,,Animal,,,,
,,choice,choice,163.70736650004983,168.24097541661467,26,4,,,1,0,3.5259957916568965,,,,Animal,,,,
,,choice,fixation,168.2411776666995,168.9945238333894,27,4,,,,,,,,,Land,,,,
,,choice,option,169.00026325008366,170.02501145843416,27,4,,,,,,,,,Land,,,,
,,choice,choice,170.02512375009246,171.73870087508112,27,4,,,1,1,0.7063707916531712,,,,Land,,,,
,,choice,fixation,171.73888449999504,172.24224912503269,28,4,,,,,,,,,Object,,,,
,,choice,option,172.24822375003714,173.2721910000546,28,4,,,,,,,,,Object,,,,
,,choice,choice,173.2722923750989,176.24197495845146,28,4,,,1,1,1.9622130416100845,,,,Object,,,,
,,choice,fixation,176.24209787498694,176.74540516664274,29,4,,,,,,,,,Sea,,,,
,,choice,option,176.75096154166386,177.7751011250075,29,4,,,,,,,,,Sea,,,,
,,choice,choice,177.7751929166261,179.3932057917118,29,4,,,2,0,0.610821166774258,,,,Sea,,,,
,,choice,fixation,179.39332779170945,180.89674820844084,30,4,,,,,,,,,Pattern,,,,
,,choice,option,180.90292324998882,181.92704354168382,30,4,,,,,,,,,Pattern,,,,
,,choice,choice,181.9271499166498,184.31240279169288,30,4,,,1,1,1.3777326667914167,,,,Pattern,,,,
,,choice,fixation,184.31253283342812,185.065834500012,31,4,,,,,,,,,Large,,,,
,,choice,option,185.0717034166446,186.09667791670654,31,4,,,,,,,,,Large,,,,
,,choice,choice,186.09679149999283,188.93847116664983,31,4,,,1,1,1.8341373750008643,,,,Large,,,,
,,choice,fixation,188.93859662499744,189.69194875005633,32,4,,,,,,,,,Solid,,,,
,,choice,option,189.6982001250144,190.72168933344074,32,4,,,,,,,,,Solid,,,,
,,choice,choice,190.721790583455,192.29087062506005,32,4,,,1,1,0.5619618333876133,,,,Solid,,,,
,,memory,free_recall,204.59651933342684,225.45243920839857,18,4,,,,,,,,,,,,,
,,memory,value_recall,234.58550241671037,239.07697179168463,19,4,Animal_Sea_Solid_Large,,,,4.488132708473131,,,,,4,,,
,,memory,value_recall,240.90427883341908,242.3026285833912,20,4,Animal_Land_Pattern_Small,,,,1.3947894165758044,,,,,-1,,,
,,memory,value_recall,243.58112945838366,245.918963333359,21,4,Animal_Sea_Pattern_Large,,,,2.3343145000981167,,,,,-4,,,
,,memory,value_recall,247.2079627084313,254.97247999999672,22,4,Object_Land_Pattern_Small,,,,7.760918749962002,,,,,6,,,
,,memory,value_recall,257.0125593750272,258.2626552917063,23,4,Object_Sea_Solid_Large,,,,1.2466421666322276,,,,,2,,,
,,memory,value_recall,259.2944057084387,261.44644687499385,24,4,Object_Land_Solid_Small,,,,2.149959583184682,,,,,-4,,,
,,memory,spatial_recall,264.96944950008765,266.82584141672123,24,4,Object_Sea_Solid_Large,,,1,1.85259779158514,,,,,,"[0, -380]","[0, -380]",
,,memory,spatial_recall,268.65215737500694,270.23687550006434,24,4,Animal_Sea_Solid_Large,,,1,1.581144249998033,,,,,,"[0, 380]","[0, 380]",
,,memory,spatial_recall,271.56589466670994,273.80557195842266,24,4,Object_Land_Solid_Small,,,1,2.2352630832465366,,,,,,"[329, 189]","[329, 189]",
,,memory,spatial_recall,275.38564262504224,277.5215148749994,24,4,Object_Land_Pattern_Small,,,1,2.1323620417388156,,,,,,"[-329, 190]","[-329, 190]",
,,memory,spatial_recall,279.3473884166451,281.07577820844017,24,4,Animal_Sea_Pattern_Large,,,1,1.7228542499942705,,,,,,"[-329, -190]","[-329, -190]",
,,memory,spatial_recall,282.39885004167445,284.55271145841107,24,4,Animal_Land_Pattern_Small,,,1,2.1505012082634494,,,,,,"[329, -190]","[329, -190]",
,,encoding,fixation,6.235906083253212,7.489696791628376,25,5,Object_Sea_Solid_Small,-9,,,,,,,,,,,
,,encoding,image,7.48980054166168,8.498066291678697,25,5,Object_Sea_Solid_Small,-9,,,,,,,,,,,
,,encoding,value,8.498209583340213,14.507249125046656,25,5,Object_Sea_Solid_Small,-9,,,,,,,,,,,
,,encoding,attention,14.507359249982983,17.5204370416468,25,5,Object_Sea_Solid_Small,-9,-9,1,2.384554500109516,,,,,,,,
,,encoding,fixation,17.520566208288074,19.02378329169005,26,5,Animal_Land_Pattern_Large,-7,,,,,,,,,,,
,,encoding,image,19.02387037500739,20.031730125076137,26,5,Animal_Land_Pattern_Large,-7,,,,,,,,,,,
,,encoding,value,20.031825791695155,26.040563333313912,26,5,Animal_Land_Pattern_Large,-7,,,,,,,,,,,
,,encoding,attention,26.0406754167052,29.05565887503326,26,5,Animal_Land_Pattern_Large,-7,-7,1,0.7795707915211096,,,,,,,,
,,encoding,fixation,29.055789125035517,29.559279583278112,27,5,Animal_Sea_Solid_Small,9,,,,,,,,,,,
,,encoding,image,29.559383958228864,30.568146583274938,27,5,Animal_Sea_Solid_Small,9,,,,,,,,,,,
,,encoding,value,30.5682623750763,36.57732024998404,27,5,Animal_Sea_Solid_Small,9,,,,,,,,,,,
,,encoding,attention,36.57742762507405,39.58726429170929,27,5,Animal_Sea_Solid_Small,9,None,None,None,,,,,,,,
,,encoding,fixation,39.587371958303265,40.59160649997648,28,5,Object_Land_Pattern_Large,1,,,,,,,,,,,
,,encoding,image,40.5917370832758,41.60063062503468,28,5,Object_Land_Pattern_Large,1,,,,,,,,,,,
,,encoding,value,41.60073691664729,47.61037137499079,28,5,Object_Land_Pattern_Large,1,,,,,,,,,,,
,,encoding,attention,47.61047579161823,50.62110200000461,28,5,Object_Land_Pattern_Large,1,None,None,None,,,,,,,,
,,encoding,fixation,50.62130191666074,51.12471329164691,29,5,Object_Land_Solid_Large,3,,,,,,,,,,,
,,encoding,image,51.12481795833446,52.132615708280355,29,5,Object_Land_Solid_Large,3,,,,,,,,,,,
,,encoding,value,52.13270525005646,58.14084079163149,29,5,Object_Land_Solid_Large,3,,,,,,,,,,,
,,encoding,attention,58.14102345833089,61.153519749990664,29,5,Object_Land_Solid_Large,3,+3,1,1.102864291635342,,,,,,,,
,,encoding,fixation,61.15365329163615,62.40799745824188,30,5,Animal_Sea_Pattern_Small,-9,,,,,,,,,,,
,,encoding,image,62.4081060832832,63.41778804163914,30,5,Animal_Sea_Pattern_Small,-9,,,,,,,,,,,
,,encoding,value,63.41789174999576,69.42667191661894,30,5,Animal_Sea_Pattern_Small,-9,,,,,,,,,,,
,,encoding,attention,69.42678837501444,72.44159549998585,30,5,Animal_Sea_Pattern_Small,-9,-9,1,1.8311321249930188,,,,,,,,
,,n-back,,,,121,5,,,,0,None,B,True,None,,,,,
,,n-back,,,,122,5,,,,1,None,N,False,None,,,,,
,,n-back,,,,123,5,,,,1,None,X,False,None,,,,,
,,n-back,,,,124,5,,,,0,None,N,True,None,,,,,
,,n-back,,,,125,5,,,,1,None,Z,False,None,,,,,
,,n-back,,,,126,5,,,,0,0.9438202081946656,X,False,1,,,,,
,,n-back,,,,127,5,,,,1,None,X,False,None,,,,,
,,n-back,,,,128,5,,,,0,None,X,True,None,,,,,
,,n-back,,,,129,5,,,,0,0.46515145839657634,N,False,1,,,,,
,,n-back,,,,130,5,,,,1,None,B,False,None,,,,,
,,n-back,,,,131,5,,,,0,0.6859780000522733,V,False,1,,,,,
,,n-back,,,,132,5,,,,1,None,V,False,None,,,,,
,,n-back,,,,133,5,,,,1,None,C,False,None,,,,,
,,n-back,,,,134,5,,,,1,None,N,False,None,,,,,
,,n-back,,,,135,5,,,,0,None,C,True,None,,,,,
,,n-back,,,,136,5,,,,1,1.020059583359398,N,True,1,,,,,
,,n-back,,,,137,5,,,,0,None,C,True,None,,,,,
,,n-back,,,,138,5,,,,1,None,C,False,None,,,,,
,,n-back,,,,139,5,,,,1,None,X,False,None,,,,,
,,n-back,,,,140,5,,,,1,0.566970833344385,C,True,1,,,,,
,,n-back,,,,141,5,,,,1,None,V,False,None,,,,,
,,n-back,,,,142,5,,,,1,None,Z,False,None,,,,,
,,n-back,,,,143,5,,,,1,None,N,False,None,,,,,
,,n-back,,,,144,5,,,,0,None,Z,True,None,,,,,
,,n-back,,,,145,5,,,,1,None,B,False,None,,,,,
,,n-back,,,,146,5,,,,1,None,C,False,None,,,,,
,,n-back,,,,147,5,,,,0,0.684894833364524,C,False,1,,,,,
,,n-back,,,,148,5,,,,0,None,C,True,None,,,,,
,,n-back,,,,149,5,,,,1,None,Z,False,None,,,,,
,,n-back,,,,150,5,,,,1,0.8776170833734795,C,True,1,,,,,
,,choice,fixation,150.31840629165526,151.3201829167083,33,5,,,,,,,,,Solid,,,,
,,choice,option,151.32617408328224,152.35257162502967,33,5,,,,,,,,,Solid,,,,
,,choice,choice,152.35273770825006,158.82355970831122,33,5,,,1,1,5.46325174998492,,,,Solid,,,,
,,choice,fixation,158.82369049999397,160.0770489166025,34,5,,,,,,,,,Large,,,,
,,choice,option,160.08256150002126,161.10794225009158,34,5,,,,,,,,,Large,,,,
,,choice,choice,161.10804633330554,166.68857637501787,34,5,,,1,0,4.570832375087775,,,,Large,,,,
,,choice,fixation,166.6886919583194,167.19231604167726,35,5,,,,,,,,,Pattern,,,,
,,choice,option,167.19842045824043,168.2228376250714,35,5,,,,,,,,,Pattern,,,,
,,choice,choice,168.22294408327434,173.20811075007077,35,5,,,2,1,3.9773107083747163,,,,Pattern,,,,
,,choice,fixation,173.20821637508925,173.71389179164544,36,5,,,,,,,,,Object,,,,
,,choice,option,173.72018604166806,174.7440091666067,36,5,,,,,,,,,Object,,,,
,,choice,choice,174.74412091670092,179.2182193333283,36,5,,,1,0,3.4665323750814423,,,,Object,,,,
,,choice,fixation,179.218350208248,179.72161558328662,37,5,,,,,,,,,Sea,,,,
,,choice,option,179.72714941669255,180.75079425005242,37,5,,,,,,,,,Sea,,,,
,,choice,choice,180.75089437502902,182.0169382916065,37,5,,,2,1,0.2583879582816735,,,,Sea,,,,
,,choice,fixation,182.0170845000539,183.27129466668703,38,5,,,,,,,,,Animal,,,,
,,choice,option,183.27743837505113,184.30221629166044,38,5,,,,,,,,,Animal,,,,
,,choice,choice,184.30233941669576,185.75311129167676,38,5,,,2,1,0.4434929999988526,,,,Animal,,,,
,,choice,fixation,185.75321666663513,187.00661079166457,39,5,,,,,,,,,Small,,,,
,,choice,option,187.0123304167064,188.03615604166407,39,5,,,,,,,,,Small,,,,
,,choice,choice,188.036253958242,190.22476275009103,39,5,,,1,0,1.1811800415161997,,,,Small,,,,
,,choice,fixation,190.2248760833172,191.48186383326538,40,5,,,,,,,,,Land,,,,
,,choice,option,191.48748987505678,192.51371425006073,40,5,,,,,,,,,Land,,,,
,,choice,choice,192.5138222082751,196.70437616668642,40,5,,,1,0,3.182679875055328,,,,Land,,,,
,,memory,free_recall,213.98882733331993,230.421523166704,24,5,,,,,,,,,,,,,
,,memory,value_recall,237.57051937503275,243.72570216667373,25,5,Object_Land_Solid_Large,,,,6.153134916559793,,,,,3,,,
,,memory,value_recall,245.7669776250841,247.04702570824884,26,5,Object_Land_Pattern_Large,,,,1.276449833298102,,,,,1,,,
,,memory,value_recall,248.58635408326518,249.95582258328795,27,5,Animal_Land_Pattern_Large,,,,1.3659733750391752,,,,,-7,,,
,,memory,value_recall,250.98600708332378,253.0536199582275,28,5,Animal_Sea_Solid_Small,,,,2.0656419582664967,,,,,9,,,
,,memory,value_recall,254.59441137500107,258.05316966667306,29,5,Object_Sea_Solid_Small,,,,3.4554172083735466,,,,,-9,,,
,,memory,value_recall,259.84272291662637,261.5832266249927,30,5,Animal_Sea_Pattern_Small,,,,1.736755458288826,,,,,-9,,,
,,memory,spatial_recall,267.52428516664077,269.8821465416113,30,5,Animal_Sea_Pattern_Small,,,1,2.354403291712515,,,,,,"[0, -380]","[0, -380]",
,,memory,spatial_recall,271.4567380832741,273.1700895000249,30,5,Object_Land_Solid_Large,,,1,1.7098885416053236,,,,,,"[329, -190]","[329, -190]",
,,memory,spatial_recall,274.4955454582814,276.3683122500079,30,5,Object_Land_Pattern_Large,,,1,1.8693119999952614,,,,,,"[0, 380]","[0, 380]",
,,memory,spatial_recall,278.1937443750212,280.1138074999908,30,5,Animal_Sea_Solid_Small,,,1,1.9165604583686218,,,,,,"[329, 189]","[329, 189]",
,,memory,spatial_recall,281.19038545829244,282.36532554170117,30,5,Object_Sea_Solid_Small,,,1,1.1729892917210236,,,,,,"[-329, -190]","[-329, -190]",
,,memory,spatial_recall,283.9314969582483,286.29750099999364,30,5,Animal_Land_Pattern_Large,,,1,2.362369208363816,,,,,,"[-329, 190]","[-329, 190]",
,,encoding,fixation,6.133018749998882,7.136655208305456,31,6,Object_Sea_Pattern_Small,6,,,,,,,,,,,
,,encoding,image,7.136765916715376,8.148035833379254,31,6,Object_Sea_Pattern_Small,6,,,,,,,,,,,
,,encoding,value,8.148168041720055,14.157787999953143,31,6,Object_Sea_Pattern_Small,6,,,,,,,,,,,
,,encoding,attention,14.157933624926955,17.16819020838011,31,6,Object_Sea_Pattern_Small,6,None,None,None,,,,,,,,
,,encoding,fixation,17.168308041756973,18.4218255833257,32,6,Object_Sea_Pattern_Large,1,,,,,,,,,,,
,,encoding,image,18.421948791714385,19.432244791765697,32,6,Object_Sea_Pattern_Large,1,,,,,,,,,,,
,,encoding,value,19.43235308327712,25.441566166700795,32,6,Object_Sea_Pattern_Large,1,,,,,,,,,,,
,,encoding,attention,25.441716958303005,28.45580804173369,32,6,Object_Sea_Pattern_Large,1,+1,1,1.4556429166113958,,,,,,,,
,,encoding,fixation,28.4559547083918,29.20951224991586,33,6,Animal_Land_Pattern_Large,-9,,,,,,,,,,,
,,encoding,image,29.209629916702397,30.218265916686505,33,6,Animal_Land_Pattern_Large,-9,,,,,,,,,,,
,,encoding,value,30.218361083301716,36.227081083343364,33,6,Animal_Land_Pattern_Large,-9,,,,,,,,,,,
,,encoding,attention,36.22718562500086,39.24002912500873,33,6,Animal_Land_Pattern_Large,-9,+9,0,0.1287507499800995,,,,,,,,
,,encoding,fixation,39.240237874910235,39.99484604166355,34,6,Animal_Land_Solid_Small,7,,,,,,,,,,,
,,encoding,image,39.9949931249721,41.003568749991246,34,6,Animal_Land_Solid_Small,7,,,,,,,,,,,
,,encoding,value,41.00369074998889,47.01584562496282,34,6,Animal_Land_Solid_Small,7,,,,,,,,,,,
,,encoding,attention,47.01600887498353,50.02927379170433,34,6,Animal_Land_Solid_Small,7,+7,1,1.8910832916153595,,,,,,,,
,,encoding,fixation,50.02941804169677,50.782906666747294,35,6,Animal_Land_Solid_Large,6,,,,,,,,,,,
,,encoding,image,50.783010583370924,51.79176062496845,35,6,Animal_Land_Solid_Large,6,,,,,,,,,,,
,,encoding,value,51.791855291696265,57.800817291717976,35,6,Animal_Land_Solid_Large,6,,,,,,,,,,,
,,encoding,attention,57.80092904169578,60.81501758331433,35,6,Animal_Land_Solid_Large,6,+6,1,1.0192449582973495,,,,,,,,
,,encoding,fixation,60.81515112495981,61.318755333311856,36,6,Object_Sea_Solid_Small,-8,,,,,,,,,,,
,,encoding,image,61.31886004167609,62.326785666751675,36,6,Object_Sea_Solid_Small,-8,,,,,,,,,,,
,,encoding,value,62.326889833319,68.33574016671628,36,6,Object_Sea_Solid_Small,-8,,,,,,,,,,,
,,encoding,attention,68.33584324992262,71.34907529165503,36,6,Object_Sea_Solid_Small,-8,-8,1,0.9545645832549781,,,,,,,,
,,n-back,,,,151,6,,,,0,None,Z,True,None,,,,,
,,n-back,,,,152,6,,,,1,None,X,False,None,,,,,
,,n-back,,,,153,6,,,,1,None,B,False,None,,,,,
,,n-back,,,,154,6,,,,1,None,Z,False,None,,,,,
,,n-back,,,,155,6,,,,1,None,Z,False,None,,,,,
,,n-back,,,,156,6,,,,0,0.5521946666995063,B,False,1,,,,,
,,n-back,,,,157,6,,,,1,None,V,False,None,,,,,
,,n-back,,,,158,6,,,,0,None,B,True,None,,,,,
,,n-back,,,,159,6,,,,1,None,Z,False,None,,,,,
,,n-back,,,,160,6,,,,0,None,B,True,None,,,,,
,,n-back,,,,161,6,,,,1,None,X,False,None,,,,,
,,n-back,,,,162,6,,,,0,None,B,True,None,,,,,
,,n-back,,,,163,6,,,,1,None,Z,False,None,,,,,
,,n-back,,,,164,6,,,,1,1.0833911249646917,B,True,1,,,,,
,,n-back,,,,165,6,,,,1,None,N,False,None,,,,,
,,n-back,,,,166,6,,,,1,None,Z,False,None,,,,,
,,n-back,,,,167,6,,,,1,0.8505498333834112,N,True,1,,,,,
,,n-back,,,,168,6,,,,1,None,C,False,None,,,,,
,,n-back,,,,169,6,,,,1,None,X,False,None,,,,,
,,n-back,,,,170,6,,,,1,0.7439423333853483,C,True,1,,,,,
,,n-back,,,,171,6,,,,0,None,X,True,None,,,,,
,,n-back,,,,172,6,,,,1,0.5590800415957347,C,True,1,,,,,
,,n-back,,,,173,6,,,,0,None,X,True,None,,,,,
,,n-back,,,,174,6,,,,1,None,N,False,None,,,,,
,,n-back,,,,175,6,,,,1,None,V,False,None,,,,,
,,n-back,,,,176,6,,,,0,0.5136100832605734,Z,False,1,,,,,
,,n-back,,,,177,6,,,,1,None,B,False,None,,,,,
,,n-back,,,,178,6,,,,1,None,X,False,None,,,,,
,,n-back,,,,179,6,,,,1,None,Z,False,None,,,,,
,,n-back,,,,180,6,,,,1,None,Z,False,None,,,,,
,,choice,fixation,149.16884187492542,149.9207720833365,41,6,,,,,,,,,Solid,,,,
,,choice,option,149.92726370831951,150.95016070827842,41,6,,,,,,,,,Solid,,,,
,,choice,choice,150.9502989583416,158.5206856667064,41,6,,,2,0,6.562879375065677,,,,Solid,,,,
,,choice,fixation,158.52079779165797,159.2750286667142,42,6,,,,,,,,,Land,,,,
,,choice,option,159.28118900000118,160.30575641675387,42,6,,,,,,,,,Land,,,,
,,choice,choice,160.30592116666958,162.28896645829082,42,6,,,1,1,0.9757295832969248,,,,Land,,,,
,,choice,fixation,162.2890979583608,163.79261316673364,43,6,,,,,,,,,Sea,,,,
,,choice,option,163.7988537499914,164.8235822917195,43,6,,,,,,,,,Sea,,,,
,,choice,choice,164.8236902083736,166.41870854166336,43,6,,,2,1,0.5874659999972209,,,,Sea,,,,
,,choice,fixation,166.41882037499454,167.42203704174608,44,6,,,,,,,,,Pattern,,,,
,,choice,option,167.42804058338515,168.45222012500744,44,6,,,,,,,,,Pattern,,,,
,,choice,choice,168.452345458325,169.68139712500852,44,6,,,1,0,0.2218297499930486,,,,Pattern,,,,
,,choice,fixation,169.68152458337136,171.1847792917397,45,6,,,,,,,,,Object,,,,
,,choice,option,171.1916701250011,172.2154059583554,45,6,,,,,,,,,Object,,,,
,,choice,choice,172.2154991249554,173.92856991675217,45,6,,,1,0,0.7055870415642858,,,,Object,,,,
,,choice,fixation,173.92867649998516,175.43202991667204,46,6,,,,,,,,,Animal,,,,
,,choice,option,175.43839783337899,176.46540716674645,46,6,,,,,,,,,Animal,,,,
,,choice,choice,176.46551679167897,183.64251587493345,46,6,,,1,1,6.167869166587479,,,,Animal,,,,
,,choice,fixation,183.64272174995858,184.89754637493752,47,6,,,,,,,,,Small,,,,
,,choice,option,184.90344470832497,185.9281317499699,47,6,,,,,,,,,Small,,,,
,,choice,choice,185.92823949991725,188.24089295836166,47,6,,,1,1,1.3051007081521675,,,,Small,,,,
,,choice,fixation,188.2409978749929,189.2443452917505,48,6,,,,,,,,,Large,,,,
,,choice,option,189.2499785417458,190.27461645833682,48,6,,,,,,,,,Large,,,,
,,choice,choice,190.27479241671972,196.92162983329035,48,6,,,1,0,5.639742208411917,,,,Large,,,,
,,memory,free_recall,209.79809095838573,230.36481437494513,30,6,,,,,,,,,,,,,
,,memory,value_recall,235.3761984583689,238.33330191671848,31,6,Object_Sea_Solid_Small,,,,2.9521758331684396,,,,,-8,,,
,,memory,value_recall,240.1246375417104,241.21987812500447,32,6,Animal_Land_Solid_Small,,,,1.0915762500371784,,,,,7,,,
,,memory,value_recall,243.2602699167328,247.403911374975,33,6,Animal_Land_Solid_Large,,,,4.138501666719094,,,,,6,,,
,,memory,value_recall,248.94242837501224,250.2370173749514,34,6,Object_Sea_Pattern_Small,,,,1.291155208251439,,,,,6,,,
,,memory,value_recall,251.77668470831122,255.2997047083918,35,6,Object_Sea_Pattern_Large,,,,3.517716083326377,,,,,1,,,
,,memory,value_recall,256.83970316674095,259.05180391669273,36,6,Animal_Land_Pattern_Large,,,,2.208453833241947,,,,,-9,,,
,,memory,spatial_recall,262.3688495833194,264.602417916758,36,6,Animal_Land_Solid_Large,,,1,2.2301654582843184,,,,,,"[0, -380]","[0, -380]",
,,memory,spatial_recall,265.9297958333045,268.7860214583343,36,6,Animal_Land_Solid_Small,,,1,2.8526575416326523,,,,,,"[329, 189]","[329, 189]",
,,memory,spatial_recall,270.85845012497157,273.82064479170367,36,6,Object_Sea_Solid_Small,,,1,2.9562537499004975,,,,,,"[-329, -190]","[-329, -190]",
,,memory,spatial_recall,275.14258008333854,276.83169091667514,36,6,Animal_Land_Pattern_Large,,,1,1.6837932500056922,,,,,,"[-329, 190]","[-329, 190]",
,,memory,spatial_recall,277.9140620416729,279.20397712499835,36,6,Object_Sea_Pattern_Small,,,1,1.2864067499758676,,,,,,"[0, 380]","[0, 380]",
,,memory,spatial_recall,280.52634724997915,281.40296820830554,36,6,Object_Sea_Pattern_Large,,,1,0.8708545416593552,,,,,,"[329, -190]","[329, -190]",
,,encoding,fixation,4.19030274997931,5.692636916646734,37,7,Animal_Land_Pattern_Small,8,,,,,,,,,,,
,,encoding,image,5.692737416597083,6.702972791623324,37,7,Animal_Land_Pattern_Small,8,,,,,,,,,,,
,,encoding,value,6.703146583400667,12.71331320842728,37,7,Animal_Land_Pattern_Small,8,,,,,,,,,,,
,,encoding,attention,12.713481416576542,15.728195666684769,37,7,Animal_Land_Pattern_Small,8,+8,1,1.8565197917632759,,,,,,,,
,,encoding,fixation,15.728341916576028,16.98183491663076,38,7,Object_Sea_Solid_Large,8,,,,,,,,,,,
,,encoding,image,16.981944958330132,17.99183104163967,38,7,Object_Sea_Solid_Large,8,,,,,,,,,,,
,,encoding,value,17.991964833345264,24.001267416635528,38,7,Object_Sea_Solid_Large,8,,,,,,,,,,,
,,encoding,attention,24.001395083381794,27.015961541677825,38,7,Object_Sea_Solid_Large,8,+8,1,1.6006327499635518,,,,,,,,
,,encoding,fixation,27.016108999960124,28.019899750011973,39,7,Animal_Sea_Pattern_Large,-6,,,,,,,,,,,
,,encoding,image,28.019997874973342,29.028185708331876,39,7,Animal_Sea_Pattern_Large,-6,,,,,,,,,,,
,,encoding,value,29.028282291605137,35.040141333360225,39,7,Animal_Sea_Pattern_Large,-6,,,,,,,,,,,
,,encoding,attention,35.0403064583661,38.0545855415985,39,7,Animal_Sea_Pattern_Large,-6,-6,1,1.0352379999822006,,,,,,,,
,,encoding,fixation,38.05475408339407,39.308311083354056,40,7,Object_Land_Pattern_Small,-3,,,,,,,,,,,
,,encoding,image,39.308420583372936,40.31757504167035,40,7,Object_Land_Pattern_Small,-3,,,,,,,,,,,
,,encoding,value,40.31766912504099,46.32688262499869,40,7,Object_Land_Pattern_Small,-3,,,,,,,,,,,
,,encoding,attention,46.32698945840821,49.34158716665115,40,7,Object_Land_Pattern_Small,-3,-3,1,1.9173440834274516,,,,,,,,
,,encoding,fixation,49.34173162502702,50.845062208361924,41,7,Object_Land_Solid_Small,-4,,,,,,,,,,,
,,encoding,image,50.84517224994488,51.854111208347604,41,7,Object_Land_Solid_Small,-4,,,,,,,,,,,
,,encoding,value,51.85423787496984,57.86349245836027,41,7,Object_Land_Solid_Small,-4,,,,,,,,,,,
,,encoding,attention,57.86361100000795,60.878824374987744,41,7,Object_Land_Solid_Small,-4,-4,1,1.3172028332483023,,,,,,,,
,,encoding,fixation,60.878972374950536,62.1328942499822,42,7,Animal_Sea_Solid_Large,-1,,,,,,,,,,,
,,encoding,image,62.13299945835024,63.14114641665947,42,7,Animal_Sea_Solid_Large,-1,,,,,,,,,,,
,,encoding,value,63.14126320835203,69.15057912503835,42,7,Animal_Sea_Solid_Large,-1,,,,,,,,,,,
,,encoding,attention,69.15070179163013,72.16562754160259,42,7,Animal_Sea_Solid_Large,-1,-1,1,1.4197379582328722,,,,,,,,
,,n-back,,,,181,7,,,,1,None,N,False,None,,,,,
,,n-back,,,,182,7,,,,0,None,B,True,None,,,,,
,,n-back,,,,183,7,,,,1,None,X,False,None,,,,,
,,n-back,,,,184,7,,,,1,None,Z,False,None,,,,,
,,n-back,,,,185,7,,,,1,1.1516479999991134,X,True,1,,,,,
,,n-back,,,,186,7,,,,1,None,C,False,None,,,,,
,,n-back,,,,187,7,,,,0,None,X,True,None,,,,,
,,n-back,,,,188,7,,,,1,None,X,False,None,,,,,
,,n-back,,,,189,7,,,,1,0.385463000042364,X,True,1,,,,,
,,n-back,,,,190,7,,,,1,None,V,False,None,,,,,
,,n-back,,,,191,7,,,,1,None,V,False,None,,,,,
,,n-back,,,,192,7,,,,0,0.705605624942109,B,False,1,,,,,
,,n-back,,,,193,7,,,,1,None,Z,False,None,,,,,
,,n-back,,,,194,7,,,,1,None,N,False,None,,,,,
,,n-back,,,,195,7,,,,1,None,N,False,None,,,,,
,,n-back,,,,196,7,,,,1,None,V,False,None,,,,,
,,n-back,,,,197,7,,,,1,None,Z,False,None,,,,,
,,n-back,,,,198,7,,,,1,None,Z,False,None,,,,,
,,n-back,,,,199,7,,,,1,0.7040064583998173,Z,True,1,,,,,
,,n-back,,,,200,7,,,,1,None,N,False,None,,,,,
,,n-back,,,,201,7,,,,1,None,V,False,None,,,,,
,,n-back,,,,202,7,,,,0,None,N,True,None,,,,,
,,n-back,,,,203,7,,,,0,None,V,True,None,,,,,
,,n-back,,,,204,7,,,,1,1.263610458234325,N,True,1,,,,,
,,n-back,,,,205,7,,,,1,1.0340996666345745,V,True,1,,,,,
,,n-back,,,,206,7,,,,1,None,V,False,None,,,,,
,,n-back,,,,207,7,,,,1,0.6196208334295079,V,True,1,,,,,
,,n-back,,,,208,7,,,,1,None,C,False,None,,,,,
,,n-back,,,,209,7,,,,1,None,X,False,None,,,,,
,,n-back,,,,210,7,,,,1,None,V,False,None,,,,,
,,choice,fixation,150.20048758341,151.70566808339208,49,7,,,,,,,,,Land,,,,
,,choice,option,151.7112549584126,152.73700379161164,49,7,,,,,,,,,Land,,,,
,,choice,choice,152.73717995837796,156.209742166684,49,7,,,1,1,2.4643684583716094,,,,Land,,,,
,,choice,fixation,156.20986008341424,156.71355324995238,50,7,,,,,,,,,Large,,,,
,,choice,option,156.72013762500137,157.74429416668136,50,7,,,,,,,,,Large,,,,
,,choice,choice,157.74439862498548,160.12974383332767,50,7,,,1,1,1.3777499999850988,,,,Large,,,,
,,choice,fixation,160.12991391657852,160.88361775001977,51,7,,,,,,,,,Animal,,,,
,,choice,option,160.8904081666842,161.91564987495076,51,7,,,,,,,,,Animal,,,,
,,choice,choice,161.91578679159284,171.22862762503792,51,7,,,1,1,8.304406374925748,,,,Animal,,,,
,,choice,fixation,171.22873612504918,172.7320767500205,52,7,,,,,,,,,Sea,,,,
,,choice,option,172.73798791668378,173.7625218334142,52,7,,,,,,,,,Sea,,,,
,,choice,choice,173.76262754166964,175.6492887500208,52,7,,,2,0,0.8789148334180936,,,,Sea,,,,
,,choice,fixation,175.64941737498157,177.15278237499297,53,7,,,,,,,,,Solid,,,,
,,choice,option,177.15946487500332,178.1832847916521,53,7,,,,,,,,,Solid,,,,
,,choice,choice,178.18337137496565,180.0411708749598,53,7,,,1,1,0.850149208214134,,,,Solid,,,,
,,choice,fixation,180.0412831666181,181.29461420839652,54,7,,,,,,,,,Pattern,,,,
,,choice,option,181.3004896249622,182.32498829159886,54,7,,,,,,,,,Pattern,,,,
,,choice,choice,182.3251105833333,184.71077662496828,54,7,,,2,1,1.3714927915716544,,,,Pattern,,,,
,,choice,fixation,184.71090291661676,185.46427541656885,55,7,,,,,,,,,Small,,,,
,,choice,option,185.4702966666082,186.493938583415,55,7,,,,,,,,,Small,,,,
,,choice,choice,186.49403670837637,188.16077449999284,55,7,,,1,1,0.6594347916543484,,,,Small,,,,
,,choice,fixation,188.16092483338434,188.91423883335665,56,7,,,,,,,,,Object,,,,
,,choice,option,188.92016283341218,189.94439358334057,56,7,,,,,,,,,Object,,,,
,,choice,choice,189.94454325002152,191.81009891664144,56,7,,,1,1,0.8582783750025555,,,,Object,,,,
,,memory,free_recall,200.39044320839457,227.75699649995659,36,7,,,,,,,,,,,,,
,,memory,value_recall,236.98171858338173,239.69370354164857,37,7,Animal_Sea_Pattern_Large,,,,2.7082546249730512,,,,,-6,,,
,,memory,value_recall,240.73375133343507,242.7485739584081,38,7,Object_Sea_Solid_Large,,,,2.009482791647315,,,,,8,,,
,,memory,value_recall,244.54010429163463,247.1012258749688,39,7,Object_Land_Pattern_Small,,,,2.5576052082469687,,,,,-3,,,
,,memory,value_recall,248.6461094999686,253.60614745842759,40,7,Object_Land_Solid_Small,,,,4.956575958407484,,,,,-4,,,
,,memory,value_recall,254.8956388749648,256.47252774995286,41,7,Animal_Land_Pattern_Small,,,,1.57338141661603,,,,,8,,,
,,memory,value_recall,258.26122933335137,262.8246262916364,42,7,Animal_Sea_Solid_Large,,,,4.559988250024617,,,,,-1,,,
,,memory,spatial_recall,269.43998024996836,271.5140467915917,42,7,Animal_Sea_Solid_Large,,,1,2.070632916642353,,,,,,"[0, 380]","[0, 380]",
,,memory,spatial_recall,272.58875779167283,275.2453170834342,42,7,Animal_Land_Pattern_Small,,,1,2.654485500068404,,,,,,"[329, -190]","[329, -190]",
,,memory,spatial_recall,276.815474333358,278.46018499997444,42,7,Animal_Sea_Pattern_Large,,,1,1.64088325004559,,,,,,"[-329, -190]","[-329, -190]",
,,memory,spatial_recall,280.53910870838445,282.7249353333609,42,7,Object_Sea_Solid_Large,,,1,2.182383833336644,,,,,,"[0, -380]","[0, -380]",
,,memory,spatial_recall,284.552283625002,285.74592808343004,42,7,Object_Land_Pattern_Small,,,1,1.1900125833926722,,,,,,"[-329, 190]","[-329, 190]",
,,memory,spatial_recall,287.81730229163077,288.893437416642,42,7,Object_Land_Solid_Small,,,1,1.0693799167638645,,,,,,"[329, 189]","[329, 189]",
