phase,event,trial_number,eyetracker_onset,eyetracker_offset,fix_start,fix_end,fix_duration_full,fix_duration_bounded,fix_x,fix_y,roi_x,roi_y,roi_content,thisRow.t,notes,onset,offset,game,image,outcome,choice,correct,rt,letter,match,response,option,true_value,true_position,recalled_position,Unnamed: 20
encoding,fixation,1,9517083,9517841,9517290.0,9517720.0,431.0,431.0,1915.3,1090.8,1920.0,1080.0,fixation,,,17.743150874972343,18.501686416799203,1.0,Object_Land_Pattern_Small,5.0,,,,,,,,,,,
encoding,image,1,9517841,9518862,9517948.0,9518104.0,157.0,157.0,1615.4,1451.2,1591.0,891.0,Object_Land_Pattern_Small,,,18.50179129175376,19.5226308334386,1.0,Object_Land_Pattern_Small,5.0,,,,,,,,,,,
encoding,image,1,9517841,9518862,9518129.0,9519043.0,915.0,733.0,1567.1,1301.6,1591.0,891.0,Object_Land_Pattern_Small,,,18.50179129175376,19.5226308334386,1.0,Object_Land_Pattern_Small,5.0,,,,,,,,,,,
encoding,value,1,9518862,9524873,9519060.0,9521493.0,2434.0,2434.0,1593.8,1195.1,1591.0,891.0,Object_Land_Pattern_Small,,,19.522739375010133,25.533198624965735,1.0,Object_Land_Pattern_Small,5.0,,,,,,,,,,,
encoding,value,1,9518862,9524873,9521702.0,9522519.0,818.0,818.0,1596.0,1191.6,1591.0,891.0,Object_Land_Pattern_Small,,,19.522739375010133,25.533198624965735,1.0,Object_Land_Pattern_Small,5.0,,,,,,,,,,,
encoding,value,1,9518862,9524873,9522529.0,9524026.0,1498.0,1498.0,1602.5,1298.1,1591.0,891.0,Object_Land_Pattern_Small,,,19.522739375010133,25.533198624965735,1.0,Object_Land_Pattern_Small,5.0,,,,,,,,,,,
encoding,value,1,9518862,9524873,9524044.0,9524275.0,232.0,232.0,1608.7,1199.4,1591.0,891.0,Object_Land_Pattern_Small,,,19.522739375010133,25.533198624965735,1.0,Object_Land_Pattern_Small,5.0,,,,,,,,,,,
encoding,value,1,9518862,9524873,9524485.0,9525157.0,673.0,388.0,1600.7,1190.2,1591.0,891.0,Object_Land_Pattern_Small,,,19.522739375010133,25.533198624965735,1.0,Object_Land_Pattern_Small,5.0,,,,,,,,,,,
encoding,attention,1,9524873,9527887,9525164.0,9525506.0,343.0,343.0,1640.4,1178.4,1591.0,891.0,Object_Land_Pattern_Small,,,25.5333123333985,28.54736262501683,1.0,Object_Land_Pattern_Small,5.0,5.0,1.0,0.8410476666176692,,,,,,,,
encoding,attention,1,9524873,9527887,9525523.0,9526328.0,806.0,806.0,1549.5,1167.2,1591.0,891.0,Object_Land_Pattern_Small,,,25.5333123333985,28.54736262501683,1.0,Object_Land_Pattern_Small,5.0,5.0,1.0,0.8410476666176692,,,,,,,,
encoding,fixation,2,9527888,9528891,9528133.0,9529181.0,1049.0,758.0,1923.2,1048.5,1920.0,1080.0,fixation,,,28.547493916703388,29.551105291815475,1.0,Object_Land_Solid_Small,-9.0,,,,,,,,,,,
encoding,image,2,9528891,9529901,9529220.0,9530403.0,1184.0,681.0,2223.2,1187.3,2249.0,891.0,Object_Land_Solid_Small,,,29.55121499998495,30.56051233340986,1.0,Object_Land_Solid_Small,-9.0,,,,,,,,,,,
encoding,value,2,9529901,9535912,9530419.0,9532185.0,1767.0,1767.0,2222.5,1133.3,2249.0,891.0,Object_Land_Solid_Small,,,30.56068850005977,36.57118054176681,1.0,Object_Land_Solid_Small,-9.0,,,,,,,,,,,
encoding,value,2,9529901,9535912,9532195.0,9533314.0,1120.0,1120.0,2233.0,1125.2,2249.0,891.0,Object_Land_Solid_Small,,,30.56068850005977,36.57118054176681,1.0,Object_Land_Solid_Small,-9.0,,,,,,,,,,,
encoding,value,2,9529901,9535912,9533523.0,9534230.0,708.0,708.0,2232.8,1099.5,2249.0,891.0,Object_Land_Solid_Small,,,30.56068850005977,36.57118054176681,1.0,Object_Land_Solid_Small,-9.0,,,,,,,,,,,
encoding,value,2,9529901,9535912,9534242.0,9534563.0,322.0,322.0,2264.6,1188.2,2249.0,891.0,Object_Land_Solid_Small,,,30.56068850005977,36.57118054176681,1.0,Object_Land_Solid_Small,-9.0,,,,,,,,,,,
encoding,value,2,9529901,9535912,9534577.0,9536408.0,1832.0,1335.0,2243.6,1121.5,2249.0,891.0,Object_Land_Solid_Small,,,30.56068850005977,36.57118054176681,1.0,Object_Land_Solid_Small,-9.0,,,,,,,,,,,
encoding,attention,2,9535912,9538926,9536421.0,9537188.0,768.0,768.0,2193.1,1095.4,2249.0,891.0,Object_Land_Solid_Small,,,36.57134945841972,39.58480266679544,1.0,Object_Land_Solid_Small,-9.0,-9.0,1.0,0.8259799584047869,,,,,,,,
encoding,attention,2,9535912,9538926,9537197.0,9537501.0,305.0,305.0,2264.1,1098.9,2249.0,891.0,Object_Land_Solid_Small,,,36.57134945841972,39.58480266679544,1.0,Object_Land_Solid_Small,-9.0,-9.0,1.0,0.8259799584047869,,,,,,,,
encoding,fixation,3,9538926,9539679,9538979.0,9539246.0,268.0,268.0,2199.4,1150.1,2249.0,891.0,Object_Land_Solid_Small,,,39.584969208342955,40.33859495841898,1.0,Object_Sea_Solid_Large,9.0,,,,,,,,,,,
encoding,fixation,3,9538926,9539679,9539271.0,9539554.0,284.0,284.0,1941.0,1067.0,1920.0,1080.0,fixation,,,39.584969208342955,40.33859495841898,1.0,Object_Sea_Solid_Large,9.0,,,,,,,,,,,
encoding,image,3,9539679,9540689,9539769.0,9539796.0,28.0,28.0,1908.0,680.7,1920.0,1460.0,Object_Sea_Solid_Large,,,40.338696458376944,41.34848570835311,1.0,Object_Sea_Solid_Large,9.0,,,,,,,,,,,
encoding,image,3,9539679,9540689,9540047.0,9540153.0,107.0,107.0,1943.8,893.4000000000001,1920.0,1460.0,Object_Sea_Solid_Large,,,40.338696458376944,41.34848570835311,1.0,Object_Sea_Solid_Large,9.0,,,,,,,,,,,
encoding,image,3,9539679,9540689,9540196.0,9540349.0,154.0,154.0,1934.5,678.7,1920.0,1460.0,Object_Sea_Solid_Large,,,40.338696458376944,41.34848570835311,1.0,Object_Sea_Solid_Large,9.0,,,,,,,,,,,
encoding,image,3,9539679,9540689,9540366.0,9540943.0,578.0,323.0,1914.6,612.0999999999999,1920.0,1460.0,Object_Sea_Solid_Large,,,40.338696458376944,41.34848570835311,1.0,Object_Sea_Solid_Large,9.0,,,,,,,,,,,
encoding,value,3,9540689,9546698,9540963.0,9541201.0,239.0,239.0,1922.4,491.70000000000005,,,none,,,41.34858916676603,47.35718058340717,1.0,Object_Sea_Solid_Large,9.0,,,,,,,,,,,
encoding,value,3,9540689,9546698,9541215.0,9541839.0,625.0,625.0,1933.1,581.7,1920.0,1460.0,Object_Sea_Solid_Large,,,41.34858916676603,47.35718058340717,1.0,Object_Sea_Solid_Large,9.0,,,,,,,,,,,
encoding,value,3,9540689,9546698,9541855.0,9542181.0,327.0,327.0,1929.7,525.4000000000001,1920.0,1460.0,Object_Sea_Solid_Large,,,41.34858916676603,47.35718058340717,1.0,Object_Sea_Solid_Large,9.0,,,,,,,,,,,
encoding,value,3,9540689,9546698,9542202.0,9542549.0,348.0,348.0,1934.8,638.9000000000001,1920.0,1460.0,Object_Sea_Solid_Large,,,41.34858916676603,47.35718058340717,1.0,Object_Sea_Solid_Large,9.0,,,,,,,,,,,
encoding,value,3,9540689,9546698,9542808.0,9544293.0,1486.0,1486.0,1918.5,589.7,1920.0,1460.0,Object_Sea_Solid_Large,,,41.34858916676603,47.35718058340717,1.0,Object_Sea_Solid_Large,9.0,,,,,,,,,,,
encoding,value,3,9540689,9546698,9544309.0,9544803.0,495.0,495.0,1930.9,494.0999999999999,,,none,,,41.34858916676603,47.35718058340717,1.0,Object_Sea_Solid_Large,9.0,,,,,,,,,,,
encoding,value,3,9540689,9546698,9544826.0,9545323.0,498.0,498.0,1930.5,670.8,1920.0,1460.0,Object_Sea_Solid_Large,,,41.34858916676603,47.35718058340717,1.0,Object_Sea_Solid_Large,9.0,,,,,,,,,,,
encoding,value,3,9540689,9546698,9545336.0,9547012.0,1677.0,1362.0,1933.9,588.0999999999999,1920.0,1460.0,Object_Sea_Solid_Large,,,41.34858916676603,47.35718058340717,1.0,Object_Sea_Solid_Large,9.0,,,,,,,,,,,
encoding,attention,3,9546698,9549712,9547027.0,9547285.0,259.0,259.0,1962.5,493.20000000000005,,,none,,,47.35729033336975,50.37112704175525,1.0,Object_Sea_Solid_Large,9.0,9.0,1.0,0.9270596666028724,,,,,,,,
encoding,attention,3,9546698,9549712,9547297.0,9548432.0,1136.0,1136.0,1895.4,498.5,,,none,,,47.35729033336975,50.37112704175525,1.0,Object_Sea_Solid_Large,9.0,9.0,1.0,0.9270596666028724,,,,,,,,
encoding,attention,3,9546698,9549712,9548453.0,9549017.0,565.0,565.0,1951.8,556.9000000000001,1920.0,1460.0,Object_Sea_Solid_Large,,,47.35729033336975,50.37112704175525,1.0,Object_Sea_Solid_Large,9.0,9.0,1.0,0.9270596666028724,,,,,,,,
encoding,fixation,4,9549712,9551216,9550249.0,9550500.0,252.0,252.0,1920.1,1158.7,1920.0,700.0,Animal_Sea_Solid_Large,,,50.371254458324984,51.874825875042006,1.0,Animal_Land_Pattern_Small,1.0,,,,,,,,,,,
encoding,fixation,4,9549712,9551216,9550516.0,9550764.0,249.0,249.0,1936.4,1076.7,1920.0,1080.0,fixation,,,50.371254458324984,51.874825875042006,1.0,Animal_Land_Pattern_Small,1.0,,,,,,,,,,,
encoding,fixation,4,9549712,9551216,9550774.0,9551537.0,764.0,442.0,1925.6,1042.7,1920.0,1080.0,fixation,,,50.371254458324984,51.874825875042006,1.0,Animal_Land_Pattern_Small,1.0,,,,,,,,,,,
encoding,image,4,9551216,9552225,9551570.0,9551844.0,275.0,275.0,2206.2,815.8,2249.0,1269.0,Animal_Land_Pattern_Small,,,51.87495375005528,52.88387387502007,1.0,Animal_Land_Pattern_Small,1.0,,,,,,,,,,,
encoding,image,4,9551216,9552225,9551857.0,9553749.0,1893.0,368.0,2259.3,789.9000000000001,2249.0,1269.0,Animal_Land_Pattern_Small,,,51.87495375005528,52.88387387502007,1.0,Animal_Land_Pattern_Small,1.0,,,,,,,,,,,
encoding,value,4,9552225,9558234,9553768.0,9553987.0,220.0,220.0,2253.3,697.0,2249.0,1269.0,Animal_Land_Pattern_Small,,,52.883997583412565,58.89282033336349,1.0,Animal_Land_Pattern_Small,1.0,,,,,,,,,,,
encoding,value,4,9552225,9558234,9554614.0,9554698.0,85.0,85.0,2319.7,612.3,,,none,,,52.883997583412565,58.89282033336349,1.0,Animal_Land_Pattern_Small,1.0,,,,,,,,,,,
encoding,value,4,9552225,9558234,9554986.0,9555387.0,402.0,402.0,2242.6,697.2,2249.0,1269.0,Animal_Land_Pattern_Small,,,52.883997583412565,58.89282033336349,1.0,Animal_Land_Pattern_Small,1.0,,,,,,,,,,,
encoding,value,4,9552225,9558234,9555395.0,9555828.0,434.0,434.0,2275.5,679.5,2249.0,1269.0,Animal_Land_Pattern_Small,,,52.883997583412565,58.89282033336349,1.0,Animal_Land_Pattern_Small,1.0,,,,,,,,,,,
encoding,value,4,9552225,9558234,9555846.0,9558469.0,2624.0,2388.0,2270.0,791.0,2249.0,1269.0,Animal_Land_Pattern_Small,,,52.883997583412565,58.89282033336349,1.0,Animal_Land_Pattern_Small,1.0,,,,,,,,,,,
encoding,attention,4,9558234,9561251,9558491.0,9559370.0,880.0,880.0,2275.0,715.5,2249.0,1269.0,Animal_Land_Pattern_Small,,,58.89293695834931,61.90901795832906,1.0,Animal_Land_Pattern_Small,1.0,1.0,1.0,0.6851897082524374,,,,,,,,
encoding,attention,4,9558234,9561251,9559603.0,9559982.0,380.0,380.0,1925.0,1020.4000000000001,1920.0,1080.0,fixation,,,58.89293695834931,61.90901795832906,1.0,Animal_Land_Pattern_Small,1.0,1.0,1.0,0.6851897082524374,,,,,,,,
encoding,attention,4,9558234,9561251,9560034.0,9560659.0,626.0,626.0,2253.1,741.0999999999999,2249.0,1269.0,Animal_Land_Pattern_Small,,,58.89293695834931,61.90901795832906,1.0,Animal_Land_Pattern_Small,1.0,1.0,1.0,0.6851897082524374,,,,,,,,
encoding,fixation,5,9561251,9561755,9561458.0,9562207.0,750.0,297.0,1938.3,1014.8,1920.0,1080.0,fixation,,,61.90914858342149,62.41295841673855,1.0,Animal_Sea_Pattern_Large,-5.0,,,,,,,,,,,
encoding,image,5,9561755,9562764,9562236.0,9563024.0,789.0,528.0,1581.2,899.5,1591.0,1269.0,Animal_Sea_Pattern_Large,,,62.413059624959715,63.42244750005193,1.0,Animal_Sea_Pattern_Large,-5.0,,,,,,,,,,,
encoding,value,5,9562764,9568773,9563044.0,9564194.0,1151.0,1151.0,1630.0,760.0,1591.0,1269.0,Animal_Sea_Pattern_Large,,,63.42256262502633,69.43099412496667,1.0,Animal_Sea_Pattern_Large,-5.0,,,,,,,,,,,
encoding,value,5,9562764,9568773,9564508.0,9564624.0,117.0,117.0,1484.3,473.20000000000005,,,none,,,63.42256262502633,69.43099412496667,1.0,Animal_Sea_Pattern_Large,-5.0,,,,,,,,,,,
encoding,value,5,9562764,9568773,9564925.0,9569717.0,4793.0,3848.0,1626.8,709.4000000000001,1591.0,1269.0,Animal_Sea_Pattern_Large,,,63.42256262502633,69.43099412496667,1.0,Animal_Sea_Pattern_Large,-5.0,,,,,,,,,,,
encoding,attention,5,9568773,9571786,9569729.0,9570877.0,1149.0,1149.0,1586.7,708.0,1591.0,1269.0,Animal_Sea_Pattern_Large,,,69.43110575003084,72.4441060833633,1.0,Animal_Sea_Pattern_Large,-5.0,-5.0,1.0,1.5564285416621717,,,,,,,,
encoding,fixation,6,9571786,9572540,9572020.0,9572822.0,803.0,520.0,1911.8,1057.2,1920.0,1080.0,fixation,,,72.44423124997411,73.19796279177535,1.0,Animal_Sea_Solid_Large,-1.0,,,,,,,,,,,
encoding,image,6,9572540,9573549,9572868.0,9573439.0,572.0,572.0,1898.0,1474.5,1920.0,700.0,Animal_Sea_Solid_Large,,,73.19810891675297,74.20707400003448,1.0,Animal_Sea_Solid_Large,-1.0,,,,,,,,,,,
encoding,value,6,9573549,9579558,9573747.0,9574715.0,969.0,969.0,1913.7,1520.2,1920.0,700.0,Animal_Sea_Solid_Large,,,74.20718258339912,80.21582570835017,1.0,Animal_Sea_Solid_Large,-1.0,,,,,,,,,,,
encoding,value,6,9573549,9579558,9574734.0,9575172.0,439.0,439.0,1905.0,1396.6,1920.0,700.0,Animal_Sea_Solid_Large,,,74.20718258339912,80.21582570835017,1.0,Animal_Sea_Solid_Large,-1.0,,,,,,,,,,,
encoding,value,6,9573549,9579558,9575452.0,9576373.0,922.0,922.0,1910.5,1494.0,1920.0,700.0,Animal_Sea_Solid_Large,,,74.20718258339912,80.21582570835017,1.0,Animal_Sea_Solid_Large,-1.0,,,,,,,,,,,
encoding,value,6,9573549,9579558,9576393.0,9577307.0,915.0,915.0,1904.5,1376.4,1920.0,700.0,Animal_Sea_Solid_Large,,,74.20718258339912,80.21582570835017,1.0,Animal_Sea_Solid_Large,-1.0,,,,,,,,,,,
encoding,value,6,9573549,9579558,9577319.0,9578494.0,1176.0,1176.0,1907.2,1398.7,1920.0,700.0,Animal_Sea_Solid_Large,,,74.20718258339912,80.21582570835017,1.0,Animal_Sea_Solid_Large,-1.0,,,,,,,,,,,
encoding,value,6,9573549,9579558,9578752.0,9579572.0,821.0,806.0,1904.7,1377.5,1920.0,700.0,Animal_Sea_Solid_Large,,,74.20718258339912,80.21582570835017,1.0,Animal_Sea_Solid_Large,-1.0,,,,,,,,,,,
encoding,attention,6,9579558,9582573,9579587.0,9579857.0,271.0,271.0,1909.1,1447.8,1920.0,700.0,Animal_Sea_Solid_Large,,,80.21595262503251,83.2299989167368,1.0,Animal_Sea_Solid_Large,-1.0,-1.0,1.0,2.0048614165280014,,,,,,,,
encoding,attention,6,9579558,9582573,9579870.0,9582513.0,2644.0,2644.0,1912.6,1361.9,1920.0,700.0,Animal_Sea_Solid_Large,,,80.21595262503251,83.2299989167368,1.0,Animal_Sea_Solid_Large,-1.0,-1.0,1.0,2.0048614165280014,,,,,,,,
encoding,fixation,7,10036201,10037205,10036438.0,10037026.0,589.0,589.0,1910.9,1076.1,1920.0,1080.0,fixation,,,10.390093250083735,11.393928583478557,2.0,Object_Land_Pattern_Large,9.0,,,,,,,,,,,
encoding,image,7,10037205,10038214,10037315.0,10037460.0,146.0,146.0,1630.6,1312.6,1591.0,891.0,Animal_Land_Pattern_Large,,,11.394032041775064,12.40341595839709,2.0,Object_Land_Pattern_Large,9.0,,,,,,,,,,,
encoding,image,7,10037205,10038214,10037486.0,10038304.0,819.0,728.0,1883.9,1475.9,1920.0,700.0,Object_Land_Pattern_Large,,,11.394032041775064,12.40341595839709,2.0,Object_Land_Pattern_Large,9.0,,,,,,,,,,,
encoding,value,7,10038214,10044225,10038311.0,10038444.0,134.0,134.0,1925.5,1469.0,1920.0,700.0,Object_Land_Pattern_Large,,,12.403534958371893,18.414067458477803,2.0,Object_Land_Pattern_Large,9.0,,,,,,,,,,,
encoding,value,7,10038214,10044225,10038462.0,10038763.0,302.0,302.0,1899.7,1385.6,1920.0,700.0,Object_Land_Pattern_Large,,,12.403534958371893,18.414067458477803,2.0,Object_Land_Pattern_Large,9.0,,,,,,,,,,,
encoding,value,7,10038214,10044225,10038967.0,10039203.0,237.0,237.0,1899.9,1413.3,1920.0,700.0,Object_Land_Pattern_Large,,,12.403534958371893,18.414067458477803,2.0,Object_Land_Pattern_Large,9.0,,,,,,,,,,,
encoding,value,7,10038214,10044225,10039211.0,10039934.0,724.0,724.0,1914.8,1455.1,1920.0,700.0,Object_Land_Pattern_Large,,,12.403534958371893,18.414067458477803,2.0,Object_Land_Pattern_Large,9.0,,,,,,,,,,,
encoding,value,7,10038214,10044225,10039950.0,10040339.0,390.0,390.0,1910.5,1369.3,1920.0,700.0,Object_Land_Pattern_Large,,,12.403534958371893,18.414067458477803,2.0,Object_Land_Pattern_Large,9.0,,,,,,,,,,,
encoding,value,7,10038214,10044225,10040517.0,10040793.0,277.0,277.0,1903.8,1357.4,1920.0,700.0,Object_Land_Pattern_Large,,,12.403534958371893,18.414067458477803,2.0,Object_Land_Pattern_Large,9.0,,,,,,,,,,,
encoding,value,7,10038214,10044225,10041048.0,10041356.0,309.0,309.0,1903.3,1400.4,1920.0,700.0,Object_Land_Pattern_Large,,,12.403534958371893,18.414067458477803,2.0,Object_Land_Pattern_Large,9.0,,,,,,,,,,,
encoding,value,7,10038214,10044225,10041372.0,10041840.0,469.0,469.0,1918.8,1472.6,1920.0,700.0,Object_Land_Pattern_Large,,,12.403534958371893,18.414067458477803,2.0,Object_Land_Pattern_Large,9.0,,,,,,,,,,,
encoding,value,7,10038214,10044225,10041858.0,10042560.0,703.0,703.0,1901.9,1381.3,1920.0,700.0,Object_Land_Pattern_Large,,,12.403534958371893,18.414067458477803,2.0,Object_Land_Pattern_Large,9.0,,,,,,,,,,,
encoding,value,7,10038214,10044225,10042727.0,10044345.0,1619.0,1498.0,1904.4,1364.3,1920.0,700.0,Object_Land_Pattern_Large,,,12.403534958371893,18.414067458477803,2.0,Object_Land_Pattern_Large,9.0,,,,,,,,,,,
encoding,attention,7,10044225,10047242,10044493.0,10044707.0,215.0,215.0,1869.5,1320.0,1920.0,700.0,Object_Land_Pattern_Large,,,18.414170791744255,21.43057070847135,2.0,Object_Land_Pattern_Large,9.0,9.0,1.0,1.475615624920465,,,,,,,,
encoding,attention,7,10044225,10047242,10044718.0,10044979.0,262.0,262.0,1931.4,1345.1,1920.0,700.0,Object_Land_Pattern_Large,,,18.414170791744255,21.43057070847135,2.0,Object_Land_Pattern_Large,9.0,9.0,1.0,1.475615624920465,,,,,,,,
encoding,attention,7,10044225,10047242,10044993.0,10046137.0,1145.0,1145.0,1857.3,1358.0,1920.0,700.0,Object_Land_Pattern_Large,,,18.414170791744255,21.43057070847135,2.0,Object_Land_Pattern_Large,9.0,9.0,1.0,1.475615624920465,,,,,,,,
encoding,fixation,8,10047242,10048495,10047491.0,10047611.0,121.0,121.0,1931.7,1120.5,1920.0,1080.0,fixation,,,21.430743500008248,22.68407320836559,2.0,Animal_Sea_Pattern_Small,-9.0,,,,,,,,,,,
encoding,fixation,8,10047242,10048495,10047831.0,10048718.0,888.0,664.0,1916.8,1030.6,1920.0,1080.0,fixation,,,21.430743500008248,22.68407320836559,2.0,Animal_Sea_Pattern_Small,-9.0,,,,,,,,,,,
encoding,image,8,10048496,10049505,10048753.0,10048980.0,228.0,228.0,1924.2,668.2,1920.0,1460.0,Animal_Sea_Pattern_Small,,,22.684179666801356,23.693240916822106,2.0,Animal_Sea_Pattern_Small,-9.0,,,,,,,,,,,
encoding,image,8,10048496,10049505,10048994.0,10049530.0,537.0,511.0,1947.4,613.2,1920.0,1460.0,Animal_Sea_Pattern_Small,,,22.684179666801356,23.693240916822106,2.0,Animal_Sea_Pattern_Small,-9.0,,,,,,,,,,,
encoding,value,8,10049505,10055514,10049733.0,10049951.0,219.0,219.0,1937.8,504.0999999999999,1920.0,1460.0,Animal_Sea_Pattern_Small,,,23.69335920840967,29.702053916756995,2.0,Animal_Sea_Pattern_Small,-9.0,,,,,,,,,,,
encoding,value,8,10049505,10055514,10049963.0,10050281.0,319.0,319.0,1920.8,530.2,1920.0,1460.0,Animal_Sea_Pattern_Small,,,23.69335920840967,29.702053916756995,2.0,Animal_Sea_Pattern_Small,-9.0,,,,,,,,,,,
encoding,value,8,10049505,10055514,10050299.0,10051264.0,966.0,966.0,1926.3,643.4000000000001,1920.0,1460.0,Animal_Sea_Pattern_Small,,,23.69335920840967,29.702053916756995,2.0,Animal_Sea_Pattern_Small,-9.0,,,,,,,,,,,
encoding,value,8,10049505,10055514,10051280.0,10051684.0,405.0,405.0,1926.0,532.9000000000001,1920.0,1460.0,Animal_Sea_Pattern_Small,,,23.69335920840967,29.702053916756995,2.0,Animal_Sea_Pattern_Small,-9.0,,,,,,,,,,,
encoding,value,8,10049505,10055514,10051947.0,10053791.0,1845.0,1845.0,1927.1,508.29999999999995,1920.0,1460.0,Animal_Sea_Pattern_Small,,,23.69335920840967,29.702053916756995,2.0,Animal_Sea_Pattern_Small,-9.0,,,,,,,,,,,
encoding,value,8,10049505,10055514,10053799.0,10054466.0,668.0,668.0,1960.5,609.4000000000001,1920.0,1460.0,Animal_Sea_Pattern_Small,,,23.69335920840967,29.702053916756995,2.0,Animal_Sea_Pattern_Small,-9.0,,,,,,,,,,,
encoding,value,8,10049505,10055514,10054728.0,10055948.0,1221.0,786.0,1936.5,478.79999999999995,,,none,,,23.69335920840967,29.702053916756995,2.0,Animal_Sea_Pattern_Small,-9.0,,,,,,,,,,,
encoding,attention,8,10055514,10058527,10055957.0,10056654.0,698.0,698.0,1875.8,413.4000000000001,,,none,,,29.702187624992803,32.715382708469406,2.0,Animal_Sea_Pattern_Small,-9.0,-9.0,1.0,0.8694858748931438,,,,,,,,
encoding,attention,8,10055514,10058527,10056663.0,10056829.0,167.0,167.0,1954.7,360.9000000000001,,,none,,,29.702187624992803,32.715382708469406,2.0,Animal_Sea_Pattern_Small,-9.0,-9.0,1.0,0.8694858748931438,,,,,,,,
encoding,fixation,9,10058527,10060031,10058749.0,10058794.0,46.0,46.0,1959.1,840.5999999999999,1920.0,1460.0,Animal_Sea_Pattern_Small,,,32.71552291675471,34.21934016677551,2.0,Object_Sea_Solid_Small,1.0,,,,,,,,,,,
encoding,fixation,9,10058527,10060031,10059314.0,10059549.0,236.0,236.0,1886.7,1276.8,1920.0,700.0,Object_Land_Pattern_Large,,,32.71552291675471,34.21934016677551,2.0,Object_Sea_Solid_Small,1.0,,,,,,,,,,,
encoding,fixation,9,10058527,10060031,10059573.0,10059853.0,281.0,281.0,1937.5,1112.0,1920.0,1080.0,fixation,,,32.71552291675471,34.21934016677551,2.0,Object_Sea_Solid_Small,1.0,,,,,,,,,,,
encoding,fixation,9,10058527,10060031,10059862.0,10060312.0,451.0,169.0,1931.5,1072.2,1920.0,1080.0,fixation,,,32.71552291675471,34.21934016677551,2.0,Object_Sea_Solid_Small,1.0,,,,,,,,,,,
encoding,image,9,10060031,10061039,10060346.0,10061521.0,1176.0,693.0,1634.9,881.7,1591.0,1269.0,Object_Sea_Solid_Small,,,34.21945237508044,35.22746362502221,2.0,Object_Sea_Solid_Small,1.0,,,,,,,,,,,
encoding,value,9,10061039,10067048,10061538.0,10061800.0,263.0,263.0,1640.0,794.2,1591.0,1269.0,Object_Sea_Solid_Small,,,35.227556041791104,41.23598658340052,2.0,Object_Sea_Solid_Small,1.0,,,,,,,,,,,
encoding,value,9,10061039,10067048,10062015.0,10062458.0,444.0,444.0,1623.6,777.8,1591.0,1269.0,Object_Sea_Solid_Small,,,35.227556041791104,41.23598658340052,2.0,Object_Sea_Solid_Small,1.0,,,,,,,,,,,
encoding,value,9,10061039,10067048,10062476.0,10062748.0,273.0,273.0,1644.2,798.9000000000001,1591.0,1269.0,Object_Sea_Solid_Small,,,35.227556041791104,41.23598658340052,2.0,Object_Sea_Solid_Small,1.0,,,,,,,,,,,
encoding,value,9,10061039,10067048,10062759.0,10063468.0,710.0,710.0,1638.8,875.3,1591.0,1269.0,Object_Sea_Solid_Small,,,35.227556041791104,41.23598658340052,2.0,Object_Sea_Solid_Small,1.0,,,,,,,,,,,
encoding,value,9,10061039,10067048,10063487.0,10063677.0,191.0,191.0,1652.2,817.5999999999999,1591.0,1269.0,Object_Sea_Solid_Small,,,35.227556041791104,41.23598658340052,2.0,Object_Sea_Solid_Small,1.0,,,,,,,,,,,
encoding,value,9,10061039,10067048,10063942.0,10065666.0,1725.0,1725.0,1640.7,869.4000000000001,1591.0,1269.0,Object_Sea_Solid_Small,,,35.227556041791104,41.23598658340052,2.0,Object_Sea_Solid_Small,1.0,,,,,,,,,,,
encoding,value,9,10061039,10067048,10065685.0,10066321.0,637.0,637.0,1649.5,799.3,1591.0,1269.0,Object_Sea_Solid_Small,,,35.227556041791104,41.23598658340052,2.0,Object_Sea_Solid_Small,1.0,,,,,,,,,,,
encoding,value,9,10061039,10067048,10066607.0,10067247.0,641.0,441.0,1644.2,775.8,1591.0,1269.0,Object_Sea_Solid_Small,,,35.227556041791104,41.23598658340052,2.0,Object_Sea_Solid_Small,1.0,,,,,,,,,,,
encoding,attention,9,10067048,10070062,10067262.0,10067573.0,312.0,312.0,1671.7,787.7,1591.0,1269.0,Object_Sea_Solid_Small,,,41.23611337505281,44.24967162508983,2.0,Object_Sea_Solid_Small,1.0,1.0,1.0,1.110049750073813,,,,,,,,
encoding,attention,9,10067048,10070062,10067586.0,10068466.0,881.0,881.0,1600.6,720.0999999999999,1591.0,1269.0,Object_Sea_Solid_Small,,,41.23611337505281,44.24967162508983,2.0,Object_Sea_Solid_Small,1.0,1.0,1.0,1.110049750073813,,,,,,,,
encoding,attention,9,10067048,10070062,10068482.0,10069018.0,537.0,537.0,1693.7,710.4000000000001,1591.0,1269.0,Object_Sea_Solid_Small,,,41.23611337505281,44.24967162508983,2.0,Object_Sea_Solid_Small,1.0,1.0,1.0,1.110049750073813,,,,,,,,
encoding,attention,9,10067048,10070062,10069033.0,10069673.0,641.0,641.0,1647.2,901.0999999999999,1591.0,1269.0,Object_Sea_Solid_Small,,,41.23611337505281,44.24967162508983,2.0,Object_Sea_Solid_Small,1.0,1.0,1.0,1.110049750073813,,,,,,,,
encoding,fixation,10,10070062,10071566,10070295.0,10070658.0,364.0,364.0,1926.3,1034.7,1920.0,1080.0,fixation,,,44.24982625001576,45.75329770846293,2.0,Animal_Land_Pattern_Large,-8.0,,,,,,,,,,,
encoding,fixation,10,10070062,10071566,10071387.0,10071748.0,362.0,179.0,1821.3,1343.1,1920.0,700.0,Object_Land_Pattern_Large,,,44.24982625001576,45.75329770846293,2.0,Animal_Land_Pattern_Large,-8.0,,,,,,,,,,,
encoding,image,10,10071566,10072575,10071774.0,10072002.0,229.0,229.0,1641.9,1265.9,1591.0,891.0,Animal_Land_Pattern_Large,,,45.7534064167412,46.76280479179695,2.0,Animal_Land_Pattern_Large,-8.0,,,,,,,,,,,
encoding,image,10,10071566,10072575,10072014.0,10072513.0,500.0,500.0,1596.5,1266.8,1591.0,891.0,Animal_Land_Pattern_Large,,,45.7534064167412,46.76280479179695,2.0,Animal_Land_Pattern_Large,-8.0,,,,,,,,,,,
encoding,value,10,10072575,10078587,10072788.0,10073289.0,502.0,502.0,1610.6,1285.9,1591.0,891.0,Animal_Land_Pattern_Large,,,46.76290008344222,52.774362249998376,2.0,Animal_Land_Pattern_Large,-8.0,,,,,,,,,,,
encoding,value,10,10072575,10078587,10073311.0,10073731.0,421.0,421.0,1693.4,1159.8,1591.0,891.0,Animal_Land_Pattern_Large,,,46.76290008344222,52.774362249998376,2.0,Animal_Land_Pattern_Large,-8.0,,,,,,,,,,,
encoding,value,10,10072575,10078587,10073742.0,10074262.0,521.0,521.0,1694.4,1148.2,1591.0,891.0,Animal_Land_Pattern_Large,,,46.76290008344222,52.774362249998376,2.0,Animal_Land_Pattern_Large,-8.0,,,,,,,,,,,
encoding,value,10,10072575,10078587,10074498.0,10075048.0,551.0,551.0,1666.9,1129.3,1591.0,891.0,Animal_Land_Pattern_Large,,,46.76290008344222,52.774362249998376,2.0,Animal_Land_Pattern_Large,-8.0,,,,,,,,,,,
encoding,value,10,10072575,10078587,10075066.0,10075270.0,205.0,205.0,1625.3,1221.5,1591.0,891.0,Animal_Land_Pattern_Large,,,46.76290008344222,52.774362249998376,2.0,Animal_Land_Pattern_Large,-8.0,,,,,,,,,,,
encoding,value,10,10072575,10078587,10075286.0,10076092.0,807.0,807.0,1587.7,1294.6,1591.0,891.0,Animal_Land_Pattern_Large,,,46.76290008344222,52.774362249998376,2.0,Animal_Land_Pattern_Large,-8.0,,,,,,,,,,,
encoding,value,10,10072575,10078587,10076320.0,10077521.0,1202.0,1202.0,1659.1,1143.6,1591.0,891.0,Animal_Land_Pattern_Large,,,46.76290008344222,52.774362249998376,2.0,Animal_Land_Pattern_Large,-8.0,,,,,,,,,,,
encoding,value,10,10072575,10078587,10077754.0,10077947.0,194.0,194.0,1563.5,1206.3,1591.0,891.0,Animal_Land_Pattern_Large,,,46.76290008344222,52.774362249998376,2.0,Animal_Land_Pattern_Large,-8.0,,,,,,,,,,,
encoding,value,10,10072575,10078587,10077990.0,10078396.0,407.0,407.0,1980.7,1331.8,1920.0,700.0,Object_Land_Pattern_Large,,,46.76290008344222,52.774362249998376,2.0,Animal_Land_Pattern_Large,-8.0,,,,,,,,,,,
encoding,value,10,10072575,10078587,10078424.0,10078776.0,353.0,163.0,1589.6,1235.3,1591.0,891.0,Animal_Land_Pattern_Large,,,46.76290008344222,52.774362249998376,2.0,Animal_Land_Pattern_Large,-8.0,,,,,,,,,,,
encoding,attention,10,10078587,10081601,10078788.0,10078935.0,148.0,148.0,1550.3,1194.4,1591.0,891.0,Animal_Land_Pattern_Large,,,52.77447533339728,55.78789500007406,2.0,Animal_Land_Pattern_Large,-8.0,-8.0,1.0,2.30966704164166,,,,,,,,
encoding,attention,10,10078587,10081601,10078949.0,10079248.0,300.0,300.0,1624.2,1170.5,1591.0,891.0,Animal_Land_Pattern_Large,,,52.77447533339728,55.78789500007406,2.0,Animal_Land_Pattern_Large,-8.0,-8.0,1.0,2.30966704164166,,,,,,,,
encoding,attention,10,10078587,10081601,10079471.0,10079511.0,41.0,41.0,1605.8,1072.1,1591.0,1269.0,Object_Sea_Solid_Small,,,52.77447533339728,55.78789500007406,2.0,Animal_Land_Pattern_Large,-8.0,-8.0,1.0,2.30966704164166,,,,,,,,
encoding,attention,10,10078587,10081601,10079759.0,10079787.0,29.0,29.0,1612.8,1012.0,1591.0,1269.0,Object_Sea_Solid_Small,,,52.77447533339728,55.78789500007406,2.0,Animal_Land_Pattern_Large,-8.0,-8.0,1.0,2.30966704164166,,,,,,,,
encoding,attention,10,10078587,10081601,10080040.0,10080396.0,357.0,357.0,1630.7,1165.4,1591.0,891.0,Animal_Land_Pattern_Large,,,52.77447533339728,55.78789500007406,2.0,Animal_Land_Pattern_Large,-8.0,-8.0,1.0,2.30966704164166,,,,,,,,
encoding,attention,10,10078587,10081601,10080412.0,10081269.0,858.0,858.0,1543.6,1168.6,1591.0,891.0,Animal_Land_Pattern_Large,,,52.77447533339728,55.78789500007406,2.0,Animal_Land_Pattern_Large,-8.0,-8.0,1.0,2.30966704164166,,,,,,,,
encoding,fixation,11,10081601,10082854,10081692.0,10081838.0,147.0,147.0,1550.2,1308.7,1591.0,891.0,Animal_Land_Pattern_Large,,,55.788030291791074,57.0413670000853,2.0,Animal_Sea_Solid_Small,5.0,,,,,,,,,,,
encoding,fixation,11,10081601,10082854,10081872.0,10082114.0,243.0,243.0,1906.5,1070.7,1920.0,1080.0,fixation,,,55.788030291791074,57.0413670000853,2.0,Animal_Sea_Solid_Small,5.0,,,,,,,,,,,
encoding,fixation,11,10081601,10082854,10082398.0,10082468.0,71.0,71.0,2512.2,1038.8,,,none,,,55.788030291791074,57.0413670000853,2.0,Animal_Sea_Solid_Small,5.0,,,,,,,,,,,
encoding,fixation,11,10081601,10082854,10082706.0,10082941.0,236.0,148.0,1948.2,1133.0,1920.0,1080.0,fixation,,,55.788030291791074,57.0413670000853,2.0,Animal_Sea_Solid_Small,5.0,,,,,,,,,,,
encoding,image,11,10082854,10083863,10082959.0,10083087.0,129.0,129.0,1902.8,1054.3,1920.0,1080.0,fixation,,,57.041471791802905,58.05012912501115,2.0,Animal_Sea_Solid_Small,5.0,,,,,,,,,,,
encoding,image,11,10082854,10083863,10083115.0,10083341.0,227.0,227.0,2204.3,1165.3,2249.0,891.0,Animal_Sea_Solid_Small,,,57.041471791802905,58.05012912501115,2.0,Animal_Sea_Solid_Small,5.0,,,,,,,,,,,
encoding,image,11,10082854,10083863,10083352.0,10084052.0,701.0,511.0,2212.3,1222.5,2249.0,891.0,Animal_Sea_Solid_Small,,,57.041471791802905,58.05012912501115,2.0,Animal_Sea_Solid_Small,5.0,,,,,,,,,,,
encoding,value,11,10083863,10089873,10084073.0,10085739.0,1667.0,1667.0,2227.4,1098.6,2249.0,891.0,Animal_Sea_Solid_Small,,,58.05023120844271,64.05985483340919,2.0,Animal_Sea_Solid_Small,5.0,,,,,,,,,,,
encoding,value,11,10083863,10089873,10085958.0,10087195.0,1238.0,1238.0,2213.0,1206.7,2249.0,891.0,Animal_Sea_Solid_Small,,,58.05023120844271,64.05985483340919,2.0,Animal_Sea_Solid_Small,5.0,,,,,,,,,,,
encoding,value,11,10083863,10089873,10087378.0,10088292.0,915.0,915.0,2219.4,1200.6,2249.0,891.0,Animal_Sea_Solid_Small,,,58.05023120844271,64.05985483340919,2.0,Animal_Sea_Solid_Small,5.0,,,,,,,,,,,
encoding,value,11,10083863,10089873,10088527.0,10089261.0,735.0,735.0,2208.0,1204.1,2249.0,891.0,Animal_Sea_Solid_Small,,,58.05023120844271,64.05985483340919,2.0,Animal_Sea_Solid_Small,5.0,,,,,,,,,,,
encoding,value,11,10083863,10089873,10089269.0,10089769.0,501.0,501.0,2176.1,1199.7,2249.0,891.0,Animal_Sea_Solid_Small,,,58.05023120844271,64.05985483340919,2.0,Animal_Sea_Solid_Small,5.0,,,,,,,,,,,
encoding,value,11,10083863,10089873,10089788.0,10090143.0,356.0,85.0,2227.5,1086.2,2249.0,891.0,Animal_Sea_Solid_Small,,,58.05023120844271,64.05985483340919,2.0,Animal_Sea_Solid_Small,5.0,,,,,,,,,,,
encoding,attention,11,10089873,10092883,10090150.0,10090356.0,207.0,207.0,2186.0,1086.5,2249.0,891.0,Animal_Sea_Solid_Small,,,64.05996441678144,67.06983654177748,2.0,Animal_Sea_Solid_Small,5.0,,,,,,,,,,,
encoding,attention,11,10089873,10092883,10090544.0,10090770.0,227.0,227.0,2283.3,1088.4,2249.0,891.0,Animal_Sea_Solid_Small,,,64.05996441678144,67.06983654177748,2.0,Animal_Sea_Solid_Small,5.0,,,,,,,,,,,
encoding,attention,11,10089873,10092883,10090788.0,10091368.0,581.0,581.0,2209.7,1190.4,2249.0,891.0,Animal_Sea_Solid_Small,,,64.05996441678144,67.06983654177748,2.0,Animal_Sea_Solid_Small,5.0,,,,,,,,,,,
encoding,attention,11,10089873,10092883,10091385.0,10091760.0,376.0,376.0,2269.3,1106.0,2249.0,891.0,Animal_Sea_Solid_Small,,,64.05996441678144,67.06983654177748,2.0,Animal_Sea_Solid_Small,5.0,,,,,,,,,,,
encoding,attention,11,10089873,10092883,10092020.0,10092592.0,573.0,573.0,2271.5,1082.0,2249.0,891.0,Animal_Sea_Solid_Small,,,64.05996441678144,67.06983654177748,2.0,Animal_Sea_Solid_Small,5.0,,,,,,,,,,,
encoding,fixation,12,10092883,10094387,10092905.0,10092959.0,55.0,55.0,2211.9,1048.4,2249.0,1269.0,Object_Land_Solid_Large,,,67.06996962509584,68.57375945837703,2.0,Object_Land_Solid_Large,-8.0,,,,,,,,,,,
encoding,fixation,12,10092883,10094387,10093279.0,10093964.0,686.0,686.0,2246.3,1114.1,2249.0,891.0,Animal_Sea_Solid_Small,,,67.06996962509584,68.57375945837703,2.0,Object_Land_Solid_Large,-8.0,,,,,,,,,,,
encoding,fixation,12,10092883,10094387,10093991.0,10094853.0,863.0,396.0,1947.3,1017.0,1920.0,1080.0,fixation,,,67.06996962509584,68.57375945837703,2.0,Object_Land_Solid_Large,-8.0,,,,,,,,,,,
encoding,image,12,10094387,10095396,10094890.0,10095269.0,380.0,380.0,2202.1,827.8,2249.0,1269.0,Object_Land_Solid_Large,,,68.57388816680759,69.58280762506183,2.0,Object_Land_Solid_Large,-8.0,,,,,,,,,,,
encoding,value,12,10095396,10101404,10095514.0,10096177.0,664.0,664.0,2225.0,822.0,2249.0,1269.0,Object_Land_Solid_Large,,,69.58291862509213,75.59056629182305,2.0,Object_Land_Solid_Large,-8.0,,,,,,,,,,,
encoding,value,12,10095396,10101404,10096195.0,10097245.0,1051.0,1051.0,2239.8,717.2,2249.0,1269.0,Object_Land_Solid_Large,,,69.58291862509213,75.59056629182305,2.0,Object_Land_Solid_Large,-8.0,,,,,,,,,,,
encoding,value,12,10095396,10101404,10097484.0,10098139.0,656.0,656.0,2240.9,703.0999999999999,2249.0,1269.0,Object_Land_Solid_Large,,,69.58291862509213,75.59056629182305,2.0,Object_Land_Solid_Large,-8.0,,,,,,,,,,,
encoding,value,12,10095396,10101404,10098156.0,10098546.0,391.0,391.0,2217.1,806.5,2249.0,1269.0,Object_Land_Solid_Large,,,69.58291862509213,75.59056629182305,2.0,Object_Land_Solid_Large,-8.0,,,,,,,,,,,
encoding,value,12,10095396,10101404,10098563.0,10099686.0,1124.0,1124.0,2239.2,709.5,2249.0,1269.0,Object_Land_Solid_Large,,,69.58291862509213,75.59056629182305,2.0,Object_Land_Solid_Large,-8.0,,,,,,,,,,,
encoding,value,12,10095396,10101404,10099955.0,10101489.0,1535.0,1449.0,2257.0,756.5999999999999,2249.0,1269.0,Object_Land_Solid_Large,,,69.58291862509213,75.59056629182305,2.0,Object_Land_Solid_Large,-8.0,,,,,,,,,,,
encoding,attention,12,10101404,10104417,10101507.0,10101752.0,246.0,246.0,2255.5,701.0999999999999,2249.0,1269.0,Object_Land_Solid_Large,,,75.59068416676018,78.60331795841921,2.0,Object_Land_Solid_Large,-8.0,-8.0,1.0,0.8724028334254399,,,,,,,,
encoding,attention,12,10101404,10104417,10101763.0,10102564.0,802.0,802.0,2200.3,684.5,2249.0,1269.0,Object_Land_Solid_Large,,,75.59068416676018,78.60331795841921,2.0,Object_Land_Solid_Large,-8.0,-8.0,1.0,0.8724028334254399,,,,,,,,
encoding,attention,12,10101404,10104417,10102847.0,10103474.0,628.0,628.0,2245.4,748.0999999999999,2249.0,1269.0,Object_Land_Solid_Large,,,75.59068416676018,78.60331795841921,2.0,Object_Land_Solid_Large,-8.0,-8.0,1.0,0.8724028334254399,,,,,,,,
encoding,fixation,13,10393601,10394855,10393818.0,10394356.0,539.0,539.0,1921.7,1052.6,1920.0,1080.0,fixation,,,5.540712416637689,6.794211333384737,3.0,Animal_Land_Solid_Small,-1.0,,,,,,,,,,,
encoding,fixation,13,10393601,10394855,10394584.0,10395103.0,520.0,271.0,1922.9,1041.6,1920.0,1080.0,fixation,,,5.540712416637689,6.794211333384737,3.0,Animal_Land_Solid_Small,-1.0,,,,,,,,,,,
encoding,image,13,10394855,10395864,10395140.0,10396047.0,908.0,724.0,2223.9,1233.1,2249.0,891.0,Animal_Land_Solid_Small,,,6.794313708436675,7.803489208337851,3.0,Animal_Land_Solid_Small,-1.0,,,,,,,,,,,
encoding,value,13,10395864,10401874,10396065.0,10396396.0,332.0,332.0,2228.4,1137.8,2249.0,891.0,Animal_Land_Solid_Small,,,7.803601958439685,13.813122208346613,3.0,Animal_Land_Solid_Small,-1.0,,,,,,,,,,,
encoding,value,13,10395864,10401874,10396644.0,10396687.0,44.0,44.0,2263.3,1041.2,2249.0,1269.0,Object_Sea_Pattern_Large,,,7.803601958439685,13.813122208346613,3.0,Animal_Land_Solid_Small,-1.0,,,,,,,,,,,
encoding,value,13,10395864,10401874,10396927.0,10397982.0,1056.0,1056.0,2231.0,1118.0,2249.0,891.0,Animal_Land_Solid_Small,,,7.803601958439685,13.813122208346613,3.0,Animal_Land_Solid_Small,-1.0,,,,,,,,,,,
encoding,value,13,10395864,10401874,10398002.0,10398391.0,390.0,390.0,2017.0,1048.8,2249.0,1269.0,Object_Sea_Pattern_Large,,,7.803601958439685,13.813122208346613,3.0,Animal_Land_Solid_Small,-1.0,,,,,,,,,,,
encoding,value,13,10395864,10401874,10398405.0,10398761.0,357.0,357.0,1933.3,1037.8,1920.0,1080.0,fixation,,,7.803601958439685,13.813122208346613,3.0,Animal_Land_Solid_Small,-1.0,,,,,,,,,,,
encoding,value,13,10395864,10401874,10398785.0,10399664.0,880.0,880.0,2223.5,1081.2,2249.0,891.0,Animal_Land_Solid_Small,,,7.803601958439685,13.813122208346613,3.0,Animal_Land_Solid_Small,-1.0,,,,,,,,,,,
encoding,value,13,10395864,10401874,10399848.0,10400075.0,228.0,228.0,2217.0,1272.8,2249.0,891.0,Animal_Land_Solid_Small,,,7.803601958439685,13.813122208346613,3.0,Animal_Land_Solid_Small,-1.0,,,,,,,,,,,
encoding,value,13,10395864,10401874,10400095.0,10400328.0,234.0,234.0,2225.1,1140.6,2249.0,891.0,Animal_Land_Solid_Small,,,7.803601958439685,13.813122208346613,3.0,Animal_Land_Solid_Small,-1.0,,,,,,,,,,,
encoding,value,13,10395864,10401874,10400337.0,10402228.0,1892.0,1537.0,2216.1,1104.5,2249.0,891.0,Animal_Land_Solid_Small,,,7.803601958439685,13.813122208346613,3.0,Animal_Land_Solid_Small,-1.0,,,,,,,,,,,
encoding,attention,13,10401874,10404889,10402238.0,10402485.0,248.0,248.0,2272.5,1095.6,2249.0,891.0,Animal_Land_Solid_Small,,,13.813236666610464,16.827693416620605,3.0,Animal_Land_Solid_Small,-1.0,-1.0,1.0,1.9390734584303573,,,,,,,,
encoding,attention,13,10401874,10404889,10402501.0,10402958.0,458.0,458.0,2176.5,1101.2,2249.0,891.0,Animal_Land_Solid_Small,,,13.813236666610464,16.827693416620605,3.0,Animal_Land_Solid_Small,-1.0,-1.0,1.0,1.9390734584303573,,,,,,,,
encoding,attention,13,10401874,10404889,10403218.0,10404260.0,1043.0,1043.0,2181.2,1089.7,2249.0,891.0,Animal_Land_Solid_Small,,,13.813236666610464,16.827693416620605,3.0,Animal_Land_Solid_Small,-1.0,-1.0,1.0,1.9390734584303573,,,,,,,,
encoding,attention,13,10401874,10404889,10404268.0,10404437.0,170.0,170.0,2227.2,1103.5,2249.0,891.0,Animal_Land_Solid_Small,,,13.813236666610464,16.827693416620605,3.0,Animal_Land_Solid_Small,-1.0,-1.0,1.0,1.9390734584303573,,,,,,,,
encoding,fixation,14,10404889,10406393,10405325.0,10405406.0,82.0,82.0,1902.1,907.5,1920.0,1460.0,Animal_Land_Solid_Large,,,16.827872375026345,18.331439499976113,3.0,Object_Sea_Pattern_Large,5.0,,,,,,,,,,,
encoding,fixation,14,10404889,10406393,10406293.0,10406587.0,295.0,100.0,1930.7,1067.9,1920.0,1080.0,fixation,,,16.827872375026345,18.331439499976113,3.0,Object_Sea_Pattern_Large,5.0,,,,,,,,,,,
encoding,image,14,10406393,10407401,10406628.0,10406837.0,210.0,210.0,2244.8,854.2,2249.0,1269.0,Object_Sea_Pattern_Large,,,18.331604000064544,19.340161000029184,3.0,Object_Sea_Pattern_Large,5.0,,,,,,,,,,,
encoding,image,14,10406393,10407401,10406851.0,10407587.0,737.0,550.0,2265.8,782.5999999999999,2249.0,1269.0,Object_Sea_Pattern_Large,,,18.331604000064544,19.340161000029184,3.0,Object_Sea_Pattern_Large,5.0,,,,,,,,,,,
encoding,value,14,10407402,10413411,10407854.0,10409037.0,1184.0,1184.0,2255.8,707.4000000000001,2249.0,1269.0,Object_Sea_Pattern_Large,,,19.340264208381996,25.349296416621655,3.0,Object_Sea_Pattern_Large,5.0,,,,,,,,,,,
encoding,value,14,10407402,10413411,10409051.0,10409278.0,228.0,228.0,2239.0,672.2,2249.0,1269.0,Object_Sea_Pattern_Large,,,19.340264208381996,25.349296416621655,3.0,Object_Sea_Pattern_Large,5.0,,,,,,,,,,,
encoding,value,14,10407402,10413411,10409300.0,10410110.0,811.0,811.0,2250.3,805.7,2249.0,1269.0,Object_Sea_Pattern_Large,,,19.340264208381996,25.349296416621655,3.0,Object_Sea_Pattern_Large,5.0,,,,,,,,,,,
encoding,value,14,10407402,10413411,10410128.0,10411400.0,1273.0,1273.0,2247.6,701.7,2249.0,1269.0,Object_Sea_Pattern_Large,,,19.340264208381996,25.349296416621655,3.0,Object_Sea_Pattern_Large,5.0,,,,,,,,,,,
encoding,value,14,10407402,10413411,10411707.0,10412993.0,1287.0,1287.0,2258.3,685.9000000000001,2249.0,1269.0,Object_Sea_Pattern_Large,,,19.340264208381996,25.349296416621655,3.0,Object_Sea_Pattern_Large,5.0,,,,,,,,,,,
encoding,attention,14,10413411,10416425,10413705.0,10413939.0,235.0,235.0,2270.7,661.8,2249.0,1269.0,Object_Sea_Pattern_Large,,,25.34939341666177,28.3632649583742,3.0,Object_Sea_Pattern_Large,5.0,5.0,1.0,0.8662190833128989,,,,,,,,
encoding,attention,14,10413411,10416425,10413949.0,10415213.0,1265.0,1265.0,2241.6,695.8,2249.0,1269.0,Object_Sea_Pattern_Large,,,25.34939341666177,28.3632649583742,3.0,Object_Sea_Pattern_Large,5.0,5.0,1.0,0.8662190833128989,,,,,,,,
encoding,attention,14,10413411,10416425,10415227.0,10415649.0,423.0,423.0,2256.8,778.0999999999999,2249.0,1269.0,Object_Sea_Pattern_Large,,,25.34939341666177,28.3632649583742,3.0,Object_Sea_Pattern_Large,5.0,5.0,1.0,0.8662190833128989,,,,,,,,
encoding,attention,14,10413411,10416425,10415669.0,10416046.0,378.0,378.0,2308.5,702.5,2249.0,1269.0,Object_Sea_Pattern_Large,,,25.34939341666177,28.3632649583742,3.0,Object_Sea_Pattern_Large,5.0,5.0,1.0,0.8662190833128989,,,,,,,,
encoding,fixation,15,10416425,10417429,10416656.0,10416826.0,171.0,171.0,1947.2,1014.3,1920.0,1460.0,Animal_Land_Solid_Large,,,28.36340366664808,29.366933708428405,3.0,Animal_Land_Pattern_Large,-7.0,,,,,,,,,,,
encoding,fixation,15,10416425,10417429,10416834.0,10417387.0,554.0,554.0,1931.4,1044.4,1920.0,1080.0,fixation,,,28.36340366664808,29.366933708428405,3.0,Animal_Land_Pattern_Large,-7.0,,,,,,,,,,,
encoding,image,15,10417429,10418437,10417678.0,10417728.0,51.0,51.0,1857.7,817.2,1920.0,1460.0,Animal_Land_Solid_Large,,,29.367062916629948,30.375113249989223,3.0,Animal_Land_Pattern_Large,-7.0,,,,,,,,,,,
encoding,image,15,10417429,10418437,10418005.0,10418143.0,139.0,139.0,1621.8,1244.0,1591.0,891.0,Animal_Land_Pattern_Large,,,29.367062916629948,30.375113249989223,3.0,Animal_Land_Pattern_Large,-7.0,,,,,,,,,,,
encoding,image,15,10417429,10418437,10418157.0,10418649.0,493.0,280.0,1551.9,1320.3,1591.0,891.0,Animal_Land_Pattern_Large,,,29.367062916629948,30.375113249989223,3.0,Animal_Land_Pattern_Large,-7.0,,,,,,,,,,,
encoding,value,15,10418437,10424446,10418669.0,10419150.0,482.0,482.0,1598.9,1226.2,1591.0,891.0,Animal_Land_Pattern_Large,,,30.375219416688196,36.3843627916649,3.0,Animal_Land_Pattern_Large,-7.0,,,,,,,,,,,
encoding,value,15,10418437,10424446,10419170.0,10420159.0,990.0,990.0,1549.0,1325.8,1591.0,891.0,Animal_Land_Pattern_Large,,,30.375219416688196,36.3843627916649,3.0,Animal_Land_Pattern_Large,-7.0,,,,,,,,,,,
encoding,value,15,10418437,10424446,10420387.0,10422356.0,1970.0,1970.0,1585.7,1280.5,1591.0,891.0,Animal_Land_Pattern_Large,,,30.375219416688196,36.3843627916649,3.0,Animal_Land_Pattern_Large,-7.0,,,,,,,,,,,
encoding,value,15,10418437,10424446,10422555.0,10422870.0,316.0,316.0,1599.8,1299.3,1591.0,891.0,Animal_Land_Pattern_Large,,,30.375219416688196,36.3843627916649,3.0,Animal_Land_Pattern_Large,-7.0,,,,,,,,,,,
encoding,value,15,10418437,10424446,10422889.0,10423176.0,288.0,288.0,1713.1,1268.4,1591.0,891.0,Animal_Land_Pattern_Large,,,30.375219416688196,36.3843627916649,3.0,Animal_Land_Pattern_Large,-7.0,,,,,,,,,,,
encoding,value,15,10418437,10424446,10423196.0,10423619.0,424.0,424.0,1604.4,1268.2,1591.0,891.0,Animal_Land_Pattern_Large,,,30.375219416688196,36.3843627916649,3.0,Animal_Land_Pattern_Large,-7.0,,,,,,,,,,,
encoding,value,15,10418437,10424446,10423628.0,10424243.0,616.0,616.0,1565.8,1303.7,1591.0,891.0,Animal_Land_Pattern_Large,,,30.375219416688196,36.3843627916649,3.0,Animal_Land_Pattern_Large,-7.0,,,,,,,,,,,
encoding,value,15,10418437,10424446,10424257.0,10424566.0,310.0,189.0,1642.2,1276.2,1591.0,891.0,Animal_Land_Pattern_Large,,,30.375219416688196,36.3843627916649,3.0,Animal_Land_Pattern_Large,-7.0,,,,,,,,,,,
encoding,attention,15,10424446,10427457,10424580.0,10424742.0,163.0,163.0,1627.1,1215.7,1591.0,891.0,Animal_Land_Pattern_Large,,,36.384488000068814,39.394497708417475,3.0,Animal_Land_Pattern_Large,-7.0,,,,,,,,,,,
encoding,attention,15,10424446,10427457,10424753.0,10425413.0,661.0,661.0,1585.4,1183.4,1591.0,891.0,Animal_Land_Pattern_Large,,,36.384488000068814,39.394497708417475,3.0,Animal_Land_Pattern_Large,-7.0,,,,,,,,,,,
encoding,attention,15,10424446,10427457,10425620.0,10425649.0,30.0,30.0,1580.0,1002.5,1591.0,1269.0,Object_Sea_Solid_Small,,,36.384488000068814,39.394497708417475,3.0,Animal_Land_Pattern_Large,-7.0,,,,,,,,,,,
encoding,attention,15,10424446,10427457,10425873.0,10426636.0,764.0,764.0,1605.8,1157.2,1591.0,891.0,Animal_Land_Pattern_Large,,,36.384488000068814,39.394497708417475,3.0,Animal_Land_Pattern_Large,-7.0,,,,,,,,,,,
encoding,attention,15,10424446,10427457,10426651.0,10427132.0,482.0,482.0,1681.6,1157.1,1591.0,891.0,Animal_Land_Pattern_Large,,,36.384488000068814,39.394497708417475,3.0,Animal_Land_Pattern_Large,-7.0,,,,,,,,,,,
encoding,attention,15,10424446,10427457,10427141.0,10427313.0,173.0,173.0,1640.1,1169.1,1591.0,891.0,Animal_Land_Pattern_Large,,,36.384488000068814,39.394497708417475,3.0,Animal_Land_Pattern_Large,-7.0,,,,,,,,,,,
encoding,fixation,16,10427457,10427960,,,,,,,,,none,,,39.39462558343075,39.898018541629426,3.0,Object_Sea_Pattern_Small,7.0,,,,,,,,,,,
encoding,image,16,10427960,10428969,10428221.0,10428288.0,68.0,68.0,1970.7,1199.8,1920.0,700.0,Object_Sea_Pattern_Small,,,39.89810708339792,40.90670595841948,3.0,Object_Sea_Pattern_Small,7.0,,,,,,,,,,,
encoding,image,16,10427960,10428969,10428321.0,10428958.0,638.0,638.0,1921.9,1431.2,1920.0,700.0,Object_Sea_Pattern_Small,,,39.89810708339792,40.90670595841948,3.0,Object_Sea_Pattern_Small,7.0,,,,,,,,,,,
encoding,value,16,10428969,10434978,10429190.0,10429249.0,60.0,60.0,1915.2,1427.8,1920.0,700.0,Object_Sea_Pattern_Small,,,40.90686941659078,46.91580266668461,3.0,Object_Sea_Pattern_Small,7.0,,,,,,,,,,,
encoding,value,16,10428969,10434978,10429495.0,10429664.0,170.0,170.0,1934.7,1375.9,1920.0,700.0,Object_Sea_Pattern_Small,,,40.90686941659078,46.91580266668461,3.0,Object_Sea_Pattern_Small,7.0,,,,,,,,,,,
encoding,value,16,10428969,10434978,10429672.0,10430466.0,795.0,795.0,1921.1,1343.2,1920.0,700.0,Object_Sea_Pattern_Small,,,40.90686941659078,46.91580266668461,3.0,Object_Sea_Pattern_Small,7.0,,,,,,,,,,,
encoding,value,16,10428969,10434978,10430480.0,10431561.0,1082.0,1082.0,1924.8,1440.8,1920.0,700.0,Object_Sea_Pattern_Small,,,40.90686941659078,46.91580266668461,3.0,Object_Sea_Pattern_Small,7.0,,,,,,,,,,,
encoding,value,16,10428969,10434978,10431793.0,10432856.0,1064.0,1064.0,1929.1,1401.0,1920.0,700.0,Object_Sea_Pattern_Small,,,40.90686941659078,46.91580266668461,3.0,Object_Sea_Pattern_Small,7.0,,,,,,,,,,,
encoding,value,16,10428969,10434978,10433110.0,10433533.0,424.0,424.0,1913.4,1372.1,1920.0,700.0,Object_Sea_Pattern_Small,,,40.90686941659078,46.91580266668461,3.0,Object_Sea_Pattern_Small,7.0,,,,,,,,,,,
encoding,value,16,10428969,10434978,10433574.0,10433826.0,253.0,253.0,2147.8,1084.5,2249.0,891.0,Animal_Land_Solid_Small,,,40.90686941659078,46.91580266668461,3.0,Object_Sea_Pattern_Small,7.0,,,,,,,,,,,
encoding,value,16,10428969,10434978,10433862.0,10434026.0,165.0,165.0,1927.8,1290.0,1920.0,700.0,Object_Sea_Pattern_Small,,,40.90686941659078,46.91580266668461,3.0,Object_Sea_Pattern_Small,7.0,,,,,,,,,,,
encoding,value,16,10428969,10434978,10434037.0,10434473.0,437.0,437.0,1917.4,1333.5,1920.0,700.0,Object_Sea_Pattern_Small,,,40.90686941659078,46.91580266668461,3.0,Object_Sea_Pattern_Small,7.0,,,,,,,,,,,
encoding,value,16,10428969,10434978,10434670.0,10434736.0,67.0,67.0,1905.7,1362.5,1920.0,700.0,Object_Sea_Pattern_Small,,,40.90686941659078,46.91580266668461,3.0,Object_Sea_Pattern_Small,7.0,,,,,,,,,,,
encoding,value,16,10428969,10434978,10434952.0,10435194.0,243.0,26.0,1900.8,1421.6,1920.0,700.0,Object_Sea_Pattern_Small,,,40.90686941659078,46.91580266668461,3.0,Object_Sea_Pattern_Small,7.0,,,,,,,,,,,
encoding,attention,16,10434978,10437992,10435213.0,10435838.0,626.0,626.0,1867.8,1342.0,1920.0,700.0,Object_Sea_Pattern_Small,,,46.915927250054665,49.92962845833972,3.0,Object_Sea_Pattern_Small,7.0,7.0,1.0,1.062643083394505,,,,,,,,
encoding,attention,16,10434978,10437992,10435853.0,10436404.0,552.0,552.0,1945.1,1317.6,1920.0,700.0,Object_Sea_Pattern_Small,,,46.915927250054665,49.92962845833972,3.0,Object_Sea_Pattern_Small,7.0,7.0,1.0,1.062643083394505,,,,,,,,
encoding,attention,16,10434978,10437992,10436597.0,10437103.0,507.0,507.0,1856.4,1350.5,1920.0,700.0,Object_Sea_Pattern_Small,,,46.915927250054665,49.92962845833972,3.0,Object_Sea_Pattern_Small,7.0,7.0,1.0,1.062643083394505,,,,,,,,
encoding,attention,16,10434978,10437992,10437123.0,10437447.0,325.0,325.0,1895.8,1437.6,1920.0,700.0,Object_Sea_Pattern_Small,,,46.915927250054665,49.92962845833972,3.0,Object_Sea_Pattern_Small,7.0,7.0,1.0,1.062643083394505,,,,,,,,
encoding,attention,16,10434978,10437992,10437494.0,10437698.0,205.0,205.0,2225.7,1289.3,2249.0,891.0,Animal_Land_Solid_Small,,,46.915927250054665,49.92962845833972,3.0,Object_Sea_Pattern_Small,7.0,7.0,1.0,1.062643083394505,,,,,,,,
encoding,attention,16,10434978,10437992,10437726.0,10437893.0,168.0,168.0,1880.0,1365.7,1920.0,700.0,Object_Sea_Pattern_Small,,,46.915927250054665,49.92962845833972,3.0,Object_Sea_Pattern_Small,7.0,7.0,1.0,1.062643083394505,,,,,,,,
encoding,fixation,17,10437992,10439246,10438106.0,10438313.0,208.0,208.0,1917.9,1384.9,1920.0,700.0,Object_Sea_Pattern_Small,,,49.92975925002247,51.18319887504913,3.0,Animal_Land_Solid_Large,9.0,,,,,,,,,,,
encoding,fixation,17,10437992,10439246,10438352.0,10439485.0,1134.0,894.0,1918.3,1007.3,1920.0,1460.0,Animal_Land_Solid_Large,,,49.92975925002247,51.18319887504913,3.0,Animal_Land_Solid_Large,9.0,,,,,,,,,,,
encoding,image,17,10439246,10440255,10439519.0,10439876.0,358.0,358.0,1945.7,616.0,1920.0,1460.0,Animal_Land_Solid_Large,,,51.18331945838872,52.191931833396666,3.0,Animal_Land_Solid_Large,9.0,,,,,,,,,,,
encoding,value,17,10440255,10446265,10440449.0,10440686.0,238.0,238.0,1888.7,664.0999999999999,1920.0,1460.0,Animal_Land_Solid_Large,,,52.19205633341335,58.20142462500371,3.0,Animal_Land_Solid_Large,9.0,,,,,,,,,,,
encoding,value,17,10440255,10446265,10440713.0,10440888.0,176.0,176.0,1945.3,593.3,1920.0,1460.0,Animal_Land_Solid_Large,,,52.19205633341335,58.20142462500371,3.0,Animal_Land_Solid_Large,9.0,,,,,,,,,,,
encoding,value,17,10440255,10446265,10440906.0,10441167.0,262.0,262.0,1924.9,504.5999999999999,1920.0,1460.0,Animal_Land_Solid_Large,,,52.19205633341335,58.20142462500371,3.0,Animal_Land_Solid_Large,9.0,,,,,,,,,,,
encoding,value,17,10440255,10446265,10441187.0,10442671.0,1485.0,1485.0,1969.0,634.8,1920.0,1460.0,Animal_Land_Solid_Large,,,52.19205633341335,58.20142462500371,3.0,Animal_Land_Solid_Large,9.0,,,,,,,,,,,
encoding,value,17,10440255,10446265,10442911.0,10443234.0,324.0,324.0,1934.6,595.3,1920.0,1460.0,Animal_Land_Solid_Large,,,52.19205633341335,58.20142462500371,3.0,Animal_Land_Solid_Large,9.0,,,,,,,,,,,
encoding,value,17,10440255,10446265,10443257.0,10446150.0,2894.0,2894.0,1934.8,527.8,1920.0,1460.0,Animal_Land_Solid_Large,,,52.19205633341335,58.20142462500371,3.0,Animal_Land_Solid_Large,9.0,,,,,,,,,,,
encoding,attention,17,10446265,10449281,10446464.0,10446691.0,228.0,228.0,1927.5,383.9000000000001,,,none,,,58.20153787499294,61.21748054167256,3.0,Animal_Land_Solid_Large,9.0,9.0,1.0,0.6717685834737495,,,,,,,,
encoding,attention,17,10446265,10449281,10446701.0,10447261.0,561.0,561.0,1891.2,471.0999999999999,,,none,,,58.20153787499294,61.21748054167256,3.0,Animal_Land_Solid_Large,9.0,9.0,1.0,0.6717685834737495,,,,,,,,
encoding,attention,17,10446265,10449281,10447276.0,10447974.0,699.0,699.0,1955.0,645.3,1920.0,1460.0,Animal_Land_Solid_Large,,,58.20153787499294,61.21748054167256,3.0,Animal_Land_Solid_Large,9.0,9.0,1.0,0.6717685834737495,,,,,,,,
encoding,attention,17,10446265,10449281,10448191.0,10449213.0,1023.0,1023.0,1955.3,655.0,1920.0,1460.0,Animal_Land_Solid_Large,,,58.20153787499294,61.21748054167256,3.0,Animal_Land_Solid_Large,9.0,9.0,1.0,0.6717685834737495,,,,,,,,
encoding,fixation,18,10449281,10450036,10449432.0,10449632.0,201.0,201.0,1994.1,839.7,1920.0,1460.0,Animal_Land_Solid_Large,,,61.217623166623525,61.972412666655146,3.0,Object_Sea_Solid_Small,-7.0,,,,,,,,,,,
encoding,fixation,18,10449281,10450036,10449669.0,10450056.0,388.0,367.0,1897.0,1079.0,1920.0,1080.0,fixation,,,61.217623166623525,61.972412666655146,3.0,Object_Sea_Solid_Small,-7.0,,,,,,,,,,,
encoding,image,18,10450036,10451043,10450324.0,10450342.0,19.0,19.0,1730.2,573.9000000000001,1920.0,1460.0,Animal_Land_Solid_Large,,,61.97252466669306,62.97954525006935,3.0,Object_Sea_Solid_Small,-7.0,,,,,,,,,,,
encoding,image,18,10450036,10451043,10450661.0,10450762.0,102.0,102.0,1657.6,837.9000000000001,1591.0,1269.0,Object_Sea_Solid_Small,,,61.97252466669306,62.97954525006935,3.0,Object_Sea_Solid_Small,-7.0,,,,,,,,,,,
encoding,image,18,10450036,10451043,10450770.0,10451803.0,1034.0,273.0,1613.1,905.8,1591.0,1269.0,Object_Sea_Solid_Small,,,61.97252466669306,62.97954525006935,3.0,Object_Sea_Solid_Small,-7.0,,,,,,,,,,,
encoding,value,18,10451043,10457053,10452052.0,10452219.0,168.0,168.0,1308.0,728.4000000000001,,,none,,,62.979681625030935,68.98964870837517,3.0,Object_Sea_Solid_Small,-7.0,,,,,,,,,,,
encoding,value,18,10451043,10457053,10452248.0,10452388.0,141.0,141.0,1624.9,772.0,1591.0,1269.0,Object_Sea_Solid_Small,,,62.979681625030935,68.98964870837517,3.0,Object_Sea_Solid_Small,-7.0,,,,,,,,,,,
encoding,value,18,10451043,10457053,10452667.0,10453433.0,767.0,767.0,1613.8,858.3,1591.0,1269.0,Object_Sea_Solid_Small,,,62.979681625030935,68.98964870837517,3.0,Object_Sea_Solid_Small,-7.0,,,,,,,,,,,
encoding,value,18,10451043,10457053,10453445.0,10453868.0,424.0,424.0,1567.8,889.5,1591.0,1269.0,Object_Sea_Solid_Small,,,62.979681625030935,68.98964870837517,3.0,Object_Sea_Solid_Small,-7.0,,,,,,,,,,,
encoding,value,18,10451043,10457053,10453929.0,10454257.0,329.0,329.0,809.6,725.2,,,none,,,62.979681625030935,68.98964870837517,3.0,Object_Sea_Solid_Small,-7.0,,,,,,,,,,,
encoding,value,18,10451043,10457053,10454316.0,10454651.0,336.0,336.0,1627.7,756.8,1591.0,1269.0,Object_Sea_Solid_Small,,,62.979681625030935,68.98964870837517,3.0,Object_Sea_Solid_Small,-7.0,,,,,,,,,,,
encoding,value,18,10451043,10457053,10454670.0,10454809.0,140.0,140.0,1620.1,835.2,1591.0,1269.0,Object_Sea_Solid_Small,,,62.979681625030935,68.98964870837517,3.0,Object_Sea_Solid_Small,-7.0,,,,,,,,,,,
encoding,value,18,10451043,10457053,10455026.0,10455771.0,746.0,746.0,1613.8,842.2,1591.0,1269.0,Object_Sea_Solid_Small,,,62.979681625030935,68.98964870837517,3.0,Object_Sea_Solid_Small,-7.0,,,,,,,,,,,
encoding,value,18,10451043,10457053,10455786.0,10456209.0,424.0,424.0,1642.2,872.7,1591.0,1269.0,Object_Sea_Solid_Small,,,62.979681625030935,68.98964870837517,3.0,Object_Sea_Solid_Small,-7.0,,,,,,,,,,,
encoding,value,18,10451043,10457053,10456223.0,10456836.0,614.0,614.0,1642.7,811.2,1591.0,1269.0,Object_Sea_Solid_Small,,,62.979681625030935,68.98964870837517,3.0,Object_Sea_Solid_Small,-7.0,,,,,,,,,,,
encoding,value,18,10451043,10457053,10456849.0,10457289.0,441.0,204.0,1625.5,908.4000000000001,1591.0,1269.0,Object_Sea_Solid_Small,,,62.979681625030935,68.98964870837517,3.0,Object_Sea_Solid_Small,-7.0,,,,,,,,,,,
encoding,attention,18,10457053,10460066,10457307.0,10457539.0,233.0,233.0,1658.0,809.0999999999999,1591.0,1269.0,Object_Sea_Solid_Small,,,68.98976629169192,72.00251320842654,3.0,Object_Sea_Solid_Small,-7.0,-7.0,1.0,1.1250308750895783,,,,,,,,
encoding,attention,18,10457053,10460066,10457551.0,10458450.0,900.0,900.0,1595.0,766.5,1591.0,1269.0,Object_Sea_Solid_Small,,,68.98976629169192,72.00251320842654,3.0,Object_Sea_Solid_Small,-7.0,-7.0,1.0,1.1250308750895783,,,,,,,,
encoding,attention,18,10457053,10460066,10458465.0,10458680.0,216.0,216.0,1680.9,730.5,1591.0,1269.0,Object_Sea_Solid_Small,,,68.98976629169192,72.00251320842654,3.0,Object_Sea_Solid_Small,-7.0,-7.0,1.0,1.1250308750895783,,,,,,,,
encoding,attention,18,10457053,10460066,10458699.0,10459490.0,792.0,792.0,1628.0,893.3,1591.0,1269.0,Object_Sea_Solid_Small,,,68.98976629169192,72.00251320842654,3.0,Object_Sea_Solid_Small,-7.0,-7.0,1.0,1.1250308750895783,,,,,,,,
encoding,fixation,19,10737479,10738983,10737703.0,10738292.0,590.0,590.0,1913.0,1050.8,1920.0,1080.0,fixation,,,4.133962333435193,5.637794541660696,4.0,Animal_Sea_Pattern_Large,-4.0,,,,,,,,,,,
encoding,fixation,19,10737479,10738983,10738514.0,10739033.0,520.0,469.0,1924.5,1036.3,1920.0,1080.0,fixation,,,4.133962333435193,5.637794541660696,4.0,Animal_Sea_Pattern_Large,-4.0,,,,,,,,,,,
encoding,image,19,10738983,10739991,10739084.0,10739200.0,117.0,117.0,1917.1,1417.4,1920.0,700.0,Animal_Sea_Solid_Large,,,5.637903541675769,6.646651874994859,4.0,Animal_Sea_Pattern_Large,-4.0,,,,,,,,,,,
encoding,image,19,10738983,10739991,10739250.0,10739459.0,210.0,210.0,1641.0,848.2,1591.0,1269.0,Animal_Sea_Pattern_Large,,,5.637903541675769,6.646651874994859,4.0,Animal_Sea_Pattern_Large,-4.0,,,,,,,,,,,
encoding,image,19,10738983,10739991,10739469.0,10740261.0,793.0,522.0,1598.0,847.5999999999999,1591.0,1269.0,Animal_Sea_Pattern_Large,,,5.637903541675769,6.646651874994859,4.0,Animal_Sea_Pattern_Large,-4.0,,,,,,,,,,,
encoding,value,19,10739992,10746001,10740282.0,10740819.0,538.0,538.0,1633.9,739.3,1591.0,1269.0,Animal_Sea_Pattern_Large,,,6.646768625010736,12.655682625016198,4.0,Animal_Sea_Pattern_Large,-4.0,,,,,,,,,,,
encoding,value,19,10739992,10746001,10740839.0,10742402.0,1564.0,1564.0,1597.6,860.3,1591.0,1269.0,Animal_Sea_Pattern_Large,,,6.646768625010736,12.655682625016198,4.0,Animal_Sea_Pattern_Large,-4.0,,,,,,,,,,,
encoding,value,19,10739992,10746001,10742422.0,10742716.0,295.0,295.0,1635.2,751.9000000000001,1591.0,1269.0,Animal_Sea_Pattern_Large,,,6.646768625010736,12.655682625016198,4.0,Animal_Sea_Pattern_Large,-4.0,,,,,,,,,,,
encoding,value,19,10739992,10746001,10742736.0,10742870.0,135.0,135.0,1629.2,867.8,1591.0,1269.0,Animal_Sea_Pattern_Large,,,6.646768625010736,12.655682625016198,4.0,Animal_Sea_Pattern_Large,-4.0,,,,,,,,,,,
encoding,value,19,10739992,10746001,10743074.0,10743958.0,885.0,885.0,1618.2,805.7,1591.0,1269.0,Animal_Sea_Pattern_Large,,,6.646768625010736,12.655682625016198,4.0,Animal_Sea_Pattern_Large,-4.0,,,,,,,,,,,
encoding,value,19,10739992,10746001,10743974.0,10744373.0,400.0,400.0,1637.4,752.4000000000001,1591.0,1269.0,Animal_Sea_Pattern_Large,,,6.646768625010736,12.655682625016198,4.0,Animal_Sea_Pattern_Large,-4.0,,,,,,,,,,,
encoding,value,19,10739992,10746001,10744391.0,10744449.0,59.0,59.0,1669.4,843.9000000000001,1591.0,1269.0,Animal_Sea_Pattern_Large,,,6.646768625010736,12.655682625016198,4.0,Animal_Sea_Pattern_Large,-4.0,,,,,,,,,,,
encoding,value,19,10739992,10746001,10744711.0,10744754.0,44.0,44.0,1465.7,364.0999999999999,,,none,,,6.646768625010736,12.655682625016198,4.0,Animal_Sea_Pattern_Large,-4.0,,,,,,,,,,,
encoding,value,19,10739992,10746001,10745011.0,10745516.0,506.0,506.0,1624.3,762.4000000000001,1591.0,1269.0,Animal_Sea_Pattern_Large,,,6.646768625010736,12.655682625016198,4.0,Animal_Sea_Pattern_Large,-4.0,,,,,,,,,,,
encoding,value,19,10739992,10746001,10745537.0,10746555.0,1019.0,464.0,1643.9,743.5999999999999,1591.0,1269.0,Animal_Sea_Pattern_Large,,,6.646768625010736,12.655682625016198,4.0,Animal_Sea_Pattern_Large,-4.0,,,,,,,,,,,
encoding,attention,19,10746001,10749015,10746570.0,10746965.0,396.0,396.0,1583.2,772.7,1591.0,1269.0,Animal_Sea_Pattern_Large,,,12.655866499990225,15.669831583392806,4.0,Animal_Sea_Pattern_Large,-4.0,-4.0,1.0,2.0550477084470913,,,,,,,,
encoding,fixation,20,10749015,10749769,10749473.0,10749524.0,52.0,52.0,1963.1,974.0999999999999,1920.0,1460.0,Object_Sea_Solid_Large,,,15.669956916710362,16.42327495838981,4.0,Animal_Sea_Solid_Large,4.0,,,,,,,,,,,
encoding,image,20,10749769,10750778,10749786.0,10749959.0,174.0,174.0,1905.2,1089.1,1920.0,1080.0,fixation,,,16.423388041672297,17.432274041697383,4.0,Animal_Sea_Solid_Large,4.0,,,,,,,,,,,
encoding,image,20,10749769,10750778,10749995.0,10750785.0,791.0,783.0,1881.7,1467.2,1920.0,700.0,Animal_Sea_Solid_Large,,,16.423388041672297,17.432274041697383,4.0,Animal_Sea_Solid_Large,4.0,,,,,,,,,,,
encoding,value,20,10750778,10756787,10750988.0,10751216.0,229.0,229.0,1913.6,1500.2,1920.0,700.0,Animal_Sea_Solid_Large,,,17.432382375001907,23.441254458390176,4.0,Animal_Sea_Solid_Large,4.0,,,,,,,,,,,
encoding,value,20,10750778,10756787,10751240.0,10751582.0,343.0,343.0,1899.0,1349.6,1920.0,700.0,Animal_Sea_Solid_Large,,,17.432382375001907,23.441254458390176,4.0,Animal_Sea_Solid_Large,4.0,,,,,,,,,,,
encoding,value,20,10750778,10756787,10751594.0,10751920.0,327.0,327.0,1911.9,1426.9,1920.0,700.0,Animal_Sea_Solid_Large,,,17.432382375001907,23.441254458390176,4.0,Animal_Sea_Solid_Large,4.0,,,,,,,,,,,
encoding,value,20,10750778,10756787,10751929.0,10752503.0,575.0,575.0,1896.4,1464.6,1920.0,700.0,Animal_Sea_Solid_Large,,,17.432382375001907,23.441254458390176,4.0,Animal_Sea_Solid_Large,4.0,,,,,,,,,,,
encoding,value,20,10750778,10756787,10752526.0,10752881.0,356.0,356.0,1893.5,1329.6,1920.0,700.0,Animal_Sea_Solid_Large,,,17.432382375001907,23.441254458390176,4.0,Animal_Sea_Solid_Large,4.0,,,,,,,,,,,
encoding,value,20,10750778,10756787,10753070.0,10754726.0,1657.0,1657.0,1898.0,1346.3,1920.0,700.0,Animal_Sea_Solid_Large,,,17.432382375001907,23.441254458390176,4.0,Animal_Sea_Solid_Large,4.0,,,,,,,,,,,
encoding,value,20,10750778,10756787,10754904.0,10755829.0,926.0,926.0,1884.0,1346.2,1920.0,700.0,Animal_Sea_Solid_Large,,,17.432382375001907,23.441254458390176,4.0,Animal_Sea_Solid_Large,4.0,,,,,,,,,,,
encoding,value,20,10750778,10756787,10755844.0,10756201.0,358.0,358.0,1898.8,1421.0,1920.0,700.0,Animal_Sea_Solid_Large,,,17.432382375001907,23.441254458390176,4.0,Animal_Sea_Solid_Large,4.0,,,,,,,,,,,
encoding,value,20,10750778,10756787,10756217.0,10756527.0,311.0,311.0,1888.9,1345.0,1920.0,700.0,Animal_Sea_Solid_Large,,,17.432382375001907,23.441254458390176,4.0,Animal_Sea_Solid_Large,4.0,,,,,,,,,,,
encoding,value,20,10750778,10756787,10756546.0,10757068.0,523.0,241.0,1898.5,1456.0,1920.0,700.0,Animal_Sea_Solid_Large,,,17.432382375001907,23.441254458390176,4.0,Animal_Sea_Solid_Large,4.0,,,,,,,,,,,
encoding,attention,20,10756787,10759803,10757088.0,10757247.0,160.0,160.0,1879.9,1353.1,1920.0,700.0,Animal_Sea_Solid_Large,,,23.441347708459944,26.456933291628957,4.0,Animal_Sea_Solid_Large,4.0,4.0,1.0,2.4888992082560435,,,,,,,,
encoding,attention,20,10756787,10759803,10757427.0,10758334.0,908.0,908.0,1847.7,1344.7,1920.0,700.0,Animal_Sea_Solid_Large,,,23.441347708459944,26.456933291628957,4.0,Animal_Sea_Solid_Large,4.0,4.0,1.0,2.4888992082560435,,,,,,,,
encoding,attention,20,10756787,10759803,10758349.0,10758963.0,615.0,615.0,1936.2,1335.4,1920.0,700.0,Animal_Sea_Solid_Large,,,23.441347708459944,26.456933291628957,4.0,Animal_Sea_Solid_Large,4.0,4.0,1.0,2.4888992082560435,,,,,,,,
encoding,attention,20,10756787,10759803,10758978.0,10759551.0,574.0,574.0,1841.1,1328.1,1920.0,700.0,Animal_Sea_Solid_Large,,,23.441347708459944,26.456933291628957,4.0,Animal_Sea_Solid_Large,4.0,4.0,1.0,2.4888992082560435,,,,,,,,
encoding,fixation,21,10759803,10761306,10759804.0,10760146.0,343.0,343.0,1873.1,1488.7,1920.0,700.0,Animal_Sea_Solid_Large,,,26.457083291723393,27.960425375029445,4.0,Object_Sea_Solid_Large,2.0,,,,,,,,,,,
encoding,fixation,21,10759803,10761306,10760645.0,10761191.0,547.0,547.0,1851.0,1024.0,1591.0,1269.0,Animal_Sea_Pattern_Large,,,26.457083291723393,27.960425375029445,4.0,Object_Sea_Solid_Large,2.0,,,,,,,,,,,
encoding,fixation,21,10759803,10761306,10761203.0,10761531.0,329.0,103.0,1923.7,1011.5999999999999,1920.0,1080.0,fixation,,,26.457083291723393,27.960425375029445,4.0,Object_Sea_Solid_Large,2.0,,,,,,,,,,,
encoding,image,21,10761306,10762315,10761568.0,10762511.0,944.0,747.0,1914.3,652.5,1920.0,1460.0,Object_Sea_Solid_Large,,,27.96053520846181,28.969292416702956,4.0,Object_Sea_Solid_Large,2.0,,,,,,,,,,,
encoding,value,21,10762315,10768325,10762528.0,10762995.0,468.0,468.0,1918.7,605.9000000000001,1920.0,1460.0,Object_Sea_Solid_Large,,,28.96939924999606,34.97856212500483,4.0,Object_Sea_Solid_Large,2.0,,,,,,,,,,,
encoding,value,21,10762315,10768325,10763009.0,10763458.0,450.0,450.0,1926.3,532.9000000000001,1920.0,1460.0,Object_Sea_Solid_Large,,,28.96939924999606,34.97856212500483,4.0,Object_Sea_Solid_Large,2.0,,,,,,,,,,,
encoding,value,21,10762315,10768325,10763475.0,10764588.0,1114.0,1114.0,1897.4,613.0999999999999,1920.0,1460.0,Object_Sea_Solid_Large,,,28.96939924999606,34.97856212500483,4.0,Object_Sea_Solid_Large,2.0,,,,,,,,,,,
encoding,value,21,10762315,10768325,10764839.0,10764903.0,65.0,65.0,1410.2,514.5999999999999,,,none,,,28.96939924999606,34.97856212500483,4.0,Object_Sea_Solid_Large,2.0,,,,,,,,,,,
encoding,value,21,10762315,10768325,10765154.0,10765478.0,325.0,325.0,1897.7,315.4000000000001,,,none,,,28.96939924999606,34.97856212500483,4.0,Object_Sea_Solid_Large,2.0,,,,,,,,,,,
encoding,value,21,10762315,10768325,10765791.0,10766208.0,418.0,418.0,1892.8,323.0,,,none,,,28.96939924999606,34.97856212500483,4.0,Object_Sea_Solid_Large,2.0,,,,,,,,,,,
encoding,value,21,10762315,10768325,10767116.0,10768616.0,1501.0,1209.0,1917.5,545.0,1920.0,1460.0,Object_Sea_Solid_Large,,,28.96939924999606,34.97856212500483,4.0,Object_Sea_Solid_Large,2.0,,,,,,,,,,,
encoding,attention,21,10768325,10771338,10768624.0,10769072.0,449.0,449.0,1879.7,438.5,,,none,,,34.97867541667074,37.99219441669993,4.0,Object_Sea_Solid_Large,2.0,2.0,1.0,1.281760791549459,,,,,,,,
encoding,attention,21,10768325,10771338,10769085.0,10769908.0,824.0,824.0,1939.8,356.5999999999999,,,none,,,34.97867541667074,37.99219441669993,4.0,Object_Sea_Solid_Large,2.0,2.0,1.0,1.281760791549459,,,,,,,,
encoding,fixation,22,10771338,10772842,10771558.0,10771579.0,22.0,22.0,1930.6,783.8,1920.0,1460.0,Object_Sea_Solid_Large,,,37.99231845838949,39.49597766669467,4.0,Animal_Land_Pattern_Small,-1.0,,,,,,,,,,,
encoding,fixation,22,10771338,10772842,10771847.0,10771899.0,53.0,53.0,1782.6,1006.9000000000001,1591.0,1269.0,Animal_Sea_Pattern_Large,,,37.99231845838949,39.49597766669467,4.0,Animal_Land_Pattern_Small,-1.0,,,,,,,,,,,
encoding,fixation,22,10771338,10772842,10772184.0,10772380.0,197.0,197.0,1884.0,1088.8,1920.0,1080.0,fixation,,,37.99231845838949,39.49597766669467,4.0,Animal_Land_Pattern_Small,-1.0,,,,,,,,,,,
encoding,fixation,22,10771338,10772842,10772395.0,10772812.0,418.0,418.0,1926.3,1069.0,1920.0,1080.0,fixation,,,37.99231845838949,39.49597766669467,4.0,Animal_Land_Pattern_Small,-1.0,,,,,,,,,,,
encoding,image,22,10772842,10773851,10772852.0,10773030.0,179.0,179.0,1622.3,1268.2,1591.0,891.0,Object_Land_Pattern_Small,,,39.49607866664883,40.50446454167832,4.0,Animal_Land_Pattern_Small,-1.0,,,,,,,,,,,
encoding,image,22,10772842,10773851,10773081.0,10773319.0,239.0,239.0,2226.2,795.4000000000001,2249.0,1269.0,Animal_Land_Pattern_Small,,,39.49607866664883,40.50446454167832,4.0,Animal_Land_Pattern_Small,-1.0,,,,,,,,,,,
encoding,image,22,10772842,10773851,10773330.0,10773673.0,344.0,344.0,2287.0,798.9000000000001,2249.0,1269.0,Animal_Land_Pattern_Small,,,39.49607866664883,40.50446454167832,4.0,Animal_Land_Pattern_Small,-1.0,,,,,,,,,,,
encoding,value,22,10773851,10779861,10773925.0,10773948.0,24.0,24.0,2260.7,513.7,,,none,,,40.50455654168036,46.513904500054196,4.0,Animal_Land_Pattern_Small,-1.0,,,,,,,,,,,
encoding,value,22,10773851,10779861,10774224.0,10774377.0,154.0,154.0,2240.0,558.5999999999999,,,none,,,40.50455654168036,46.513904500054196,4.0,Animal_Land_Pattern_Small,-1.0,,,,,,,,,,,
encoding,value,22,10773851,10779861,10774384.0,10774837.0,454.0,454.0,2232.7,684.3,2249.0,1269.0,Animal_Land_Pattern_Small,,,40.50455654168036,46.513904500054196,4.0,Animal_Land_Pattern_Small,-1.0,,,,,,,,,,,
encoding,value,22,10773851,10779861,10774847.0,10775000.0,154.0,154.0,2236.4,717.3,2249.0,1269.0,Animal_Land_Pattern_Small,,,40.50455654168036,46.513904500054196,4.0,Animal_Land_Pattern_Small,-1.0,,,,,,,,,,,
encoding,value,22,10773851,10779861,10775013.0,10775072.0,60.0,60.0,2237.8,791.5,2249.0,1269.0,Animal_Land_Pattern_Small,,,40.50455654168036,46.513904500054196,4.0,Animal_Land_Pattern_Small,-1.0,,,,,,,,,,,
encoding,value,22,10773851,10779861,10775379.0,10775615.0,237.0,237.0,2210.0,913.2,2249.0,1269.0,Animal_Land_Pattern_Small,,,40.50455654168036,46.513904500054196,4.0,Animal_Land_Pattern_Small,-1.0,,,,,,,,,,,
encoding,value,22,10773851,10779861,10775641.0,10776196.0,556.0,556.0,1920.2,1035.1,1920.0,1080.0,fixation,,,40.50455654168036,46.513904500054196,4.0,Animal_Land_Pattern_Small,-1.0,,,,,,,,,,,
encoding,value,22,10773851,10779861,10776463.0,10776539.0,77.0,77.0,2341.7,574.7,,,none,,,40.50455654168036,46.513904500054196,4.0,Animal_Land_Pattern_Small,-1.0,,,,,,,,,,,
encoding,value,22,10773851,10779861,10776784.0,10777235.0,452.0,452.0,2218.1,785.5,2249.0,1269.0,Animal_Land_Pattern_Small,,,40.50455654168036,46.513904500054196,4.0,Animal_Land_Pattern_Small,-1.0,,,,,,,,,,,
encoding,value,22,10773851,10779861,10777245.0,10777702.0,458.0,458.0,2266.7,801.4000000000001,2249.0,1269.0,Animal_Land_Pattern_Small,,,40.50455654168036,46.513904500054196,4.0,Animal_Land_Pattern_Small,-1.0,,,,,,,,,,,
encoding,value,22,10773851,10779861,10777721.0,10777937.0,217.0,217.0,2226.4,683.9000000000001,2249.0,1269.0,Animal_Land_Pattern_Small,,,40.50455654168036,46.513904500054196,4.0,Animal_Land_Pattern_Small,-1.0,,,,,,,,,,,
encoding,value,22,10773851,10779861,10778214.0,10778344.0,131.0,131.0,2056.0,857.5,2249.0,1269.0,Animal_Land_Pattern_Small,,,40.50455654168036,46.513904500054196,4.0,Animal_Land_Pattern_Small,-1.0,,,,,,,,,,,
encoding,value,22,10773851,10779861,10778375.0,10779161.0,787.0,787.0,2219.4,803.0,2249.0,1269.0,Animal_Land_Pattern_Small,,,40.50455654168036,46.513904500054196,4.0,Animal_Land_Pattern_Small,-1.0,,,,,,,,,,,
encoding,value,22,10773851,10779861,10779419.0,10780073.0,655.0,442.0,2246.5,776.8,2249.0,1269.0,Animal_Land_Pattern_Small,,,40.50455654168036,46.513904500054196,4.0,Animal_Land_Pattern_Small,-1.0,,,,,,,,,,,
encoding,attention,22,10779861,10782874,10780090.0,10780270.0,181.0,181.0,2214.9,729.8,2249.0,1269.0,Animal_Land_Pattern_Small,,,46.514021958457306,49.52732262504287,4.0,Animal_Land_Pattern_Small,-1.0,-1.0,1.0,1.4617894582916051,,,,,,,,
encoding,attention,22,10779861,10782874,10780281.0,10781056.0,776.0,776.0,2281.2,706.8,2249.0,1269.0,Animal_Land_Pattern_Small,,,46.514021958457306,49.52732262504287,4.0,Animal_Land_Pattern_Small,-1.0,-1.0,1.0,1.4617894582916051,,,,,,,,
encoding,attention,22,10779861,10782874,10781071.0,10781580.0,510.0,510.0,2181.6,688.5999999999999,2249.0,1269.0,Animal_Land_Pattern_Small,,,46.514021958457306,49.52732262504287,4.0,Animal_Land_Pattern_Small,-1.0,-1.0,1.0,1.4617894582916051,,,,,,,,
encoding,attention,22,10779861,10782874,10781846.0,10782097.0,252.0,252.0,1809.2,1313.1,1920.0,700.0,Animal_Sea_Solid_Large,,,46.514021958457306,49.52732262504287,4.0,Animal_Land_Pattern_Small,-1.0,-1.0,1.0,1.4617894582916051,,,,,,,,
encoding,fixation,23,10782874,10783378,10783104.0,10783216.0,113.0,113.0,1906.1,1093.2,1920.0,1080.0,fixation,,,49.52745508344378,50.03140904172323,4.0,Object_Land_Solid_Small,-4.0,,,,,,,,,,,
encoding,image,23,10783378,10784387,10783541.0,10783566.0,26.0,26.0,1918.4,532.2,1920.0,1460.0,Object_Sea_Solid_Large,,,50.031512874993496,51.040428583393805,4.0,Object_Land_Solid_Small,-4.0,,,,,,,,,,,
encoding,image,23,10783378,10784387,10783942.0,10784597.0,656.0,445.0,2184.5,1245.1,2249.0,891.0,Object_Land_Solid_Small,,,50.031512874993496,51.040428583393805,4.0,Object_Land_Solid_Small,-4.0,,,,,,,,,,,
encoding,value,23,10784387,10790396,10784618.0,10785094.0,477.0,477.0,2224.2,1135.9,2249.0,891.0,Object_Land_Solid_Small,,,51.04052533337381,57.049252958386205,4.0,Object_Land_Solid_Small,-4.0,,,,,,,,,,,
encoding,value,23,10784387,10790396,10785113.0,10785846.0,734.0,734.0,2203.7,1217.4,2249.0,891.0,Object_Land_Solid_Small,,,51.04052533337381,57.049252958386205,4.0,Object_Land_Solid_Small,-4.0,,,,,,,,,,,
encoding,value,23,10784387,10790396,10786115.0,10787029.0,915.0,915.0,2203.5,1219.8,2249.0,891.0,Object_Land_Solid_Small,,,51.04052533337381,57.049252958386205,4.0,Object_Land_Solid_Small,-4.0,,,,,,,,,,,
encoding,value,23,10784387,10790396,10787336.0,10788184.0,849.0,849.0,2216.8,1107.0,2249.0,891.0,Object_Land_Solid_Small,,,51.04052533337381,57.049252958386205,4.0,Object_Land_Solid_Small,-4.0,,,,,,,,,,,
encoding,value,23,10784387,10790396,10788434.0,10788568.0,135.0,135.0,2164.6,1092.5,2249.0,891.0,Object_Land_Solid_Small,,,51.04052533337381,57.049252958386205,4.0,Object_Land_Solid_Small,-4.0,,,,,,,,,,,
encoding,value,23,10784387,10790396,10788579.0,10788827.0,249.0,249.0,2204.7,1135.6,2249.0,891.0,Object_Land_Solid_Small,,,51.04052533337381,57.049252958386205,4.0,Object_Land_Solid_Small,-4.0,,,,,,,,,,,
encoding,value,23,10784387,10790396,10788836.0,10789575.0,740.0,740.0,2223.5,1097.3,2249.0,891.0,Object_Land_Solid_Small,,,51.04052533337381,57.049252958386205,4.0,Object_Land_Solid_Small,-4.0,,,,,,,,,,,
encoding,value,23,10784387,10790396,10789592.0,10790376.0,785.0,785.0,2203.1,1247.9,2249.0,891.0,Object_Land_Solid_Small,,,51.04052533337381,57.049252958386205,4.0,Object_Land_Solid_Small,-4.0,,,,,,,,,,,
encoding,value,23,10784387,10790396,10790388.0,10790628.0,241.0,8.0,2230.5,1203.2,2249.0,891.0,Object_Land_Solid_Small,,,51.04052533337381,57.049252958386205,4.0,Object_Land_Solid_Small,-4.0,,,,,,,,,,,
encoding,attention,23,10790396,10793410,10790644.0,10791029.0,386.0,386.0,2199.6,1111.8,2249.0,891.0,Object_Land_Solid_Small,,,57.04936383338645,60.063056875020266,4.0,Object_Land_Solid_Small,-4.0,-4.0,1.0,1.3128196250181643,,,,,,,,
encoding,attention,23,10790396,10793410,10791042.0,10792034.0,993.0,993.0,2258.3,1088.0,2249.0,891.0,Object_Land_Solid_Small,,,57.04936383338645,60.063056875020266,4.0,Object_Land_Solid_Small,-4.0,-4.0,1.0,1.3128196250181643,,,,,,,,
encoding,attention,23,10790396,10793410,10792269.0,10792807.0,539.0,539.0,2257.5,1086.0,2249.0,891.0,Object_Land_Solid_Small,,,57.04936383338645,60.063056875020266,4.0,Object_Land_Solid_Small,-4.0,-4.0,1.0,1.3128196250181643,,,,,,,,
encoding,fixation,24,10793410,10794664,10794433.0,10794491.0,59.0,59.0,1741.1,1009.5999999999999,1591.0,1269.0,Animal_Sea_Pattern_Large,,,60.06319933338091,61.31658808339853,4.0,Object_Land_Pattern_Small,6.0,,,,,,,,,,,
encoding,fixation,24,10793410,10794664,10794499.0,10794560.0,62.0,62.0,1882.8,1016.5,1591.0,1269.0,Animal_Sea_Pattern_Large,,,60.06319933338091,61.31658808339853,4.0,Object_Land_Pattern_Small,6.0,,,,,,,,,,,
encoding,image,24,10794664,10795673,10794845.0,10794895.0,51.0,51.0,1918.6,906.0,1920.0,1460.0,Object_Sea_Solid_Large,,,61.31669758341741,62.32577466662042,4.0,Object_Land_Pattern_Small,6.0,,,,,,,,,,,
encoding,image,24,10794664,10795673,10795144.0,10795256.0,113.0,113.0,1632.7,1218.7,1591.0,891.0,Object_Land_Pattern_Small,,,61.31669758341741,62.32577466662042,4.0,Object_Land_Pattern_Small,6.0,,,,,,,,,,,
encoding,image,24,10794664,10795673,10795263.0,10795450.0,188.0,188.0,1583.0,1244.3,1591.0,891.0,Object_Land_Pattern_Small,,,61.31669758341741,62.32577466662042,4.0,Object_Land_Pattern_Small,6.0,,,,,,,,,,,
encoding,image,24,10794664,10795673,10795465.0,10795530.0,66.0,66.0,1571.9,1312.4,1591.0,891.0,Object_Land_Pattern_Small,,,61.31669758341741,62.32577466662042,4.0,Object_Land_Pattern_Small,6.0,,,,,,,,,,,
encoding,image,24,10794664,10795673,10795537.0,10796051.0,515.0,136.0,1576.2,1342.5,1591.0,891.0,Object_Land_Pattern_Small,,,61.31669758341741,62.32577466662042,4.0,Object_Land_Pattern_Small,6.0,,,,,,,,,,,
encoding,value,24,10795673,10801684,10796074.0,10796663.0,590.0,590.0,1593.9,1196.4,1591.0,891.0,Object_Land_Pattern_Small,,,62.32587312499527,68.33653212501667,4.0,Object_Land_Pattern_Small,6.0,,,,,,,,,,,
encoding,value,24,10795673,10801684,10796871.0,10797749.0,879.0,879.0,1592.9,1173.6,1591.0,891.0,Object_Land_Pattern_Small,,,62.32587312499527,68.33653212501667,4.0,Object_Land_Pattern_Small,6.0,,,,,,,,,,,
encoding,value,24,10795673,10801684,10797759.0,10798356.0,598.0,598.0,1591.1,1250.0,1591.0,891.0,Object_Land_Pattern_Small,,,62.32587312499527,68.33653212501667,4.0,Object_Land_Pattern_Small,6.0,,,,,,,,,,,
encoding,value,24,10795673,10801684,10798365.0,10798792.0,428.0,428.0,1577.3,1331.4,1591.0,891.0,Object_Land_Pattern_Small,,,62.32587312499527,68.33653212501667,4.0,Object_Land_Pattern_Small,6.0,,,,,,,,,,,
encoding,value,24,10795673,10801684,10799075.0,10799623.0,549.0,549.0,1584.1,1232.5,1591.0,891.0,Object_Land_Pattern_Small,,,62.32587312499527,68.33653212501667,4.0,Object_Land_Pattern_Small,6.0,,,,,,,,,,,
encoding,value,24,10795673,10801684,10799637.0,10799937.0,301.0,301.0,1596.5,1205.8,1591.0,891.0,Object_Land_Pattern_Small,,,62.32587312499527,68.33653212501667,4.0,Object_Land_Pattern_Small,6.0,,,,,,,,,,,
encoding,value,24,10795673,10801684,10799959.0,10800571.0,613.0,613.0,1593.0,1310.7,1591.0,891.0,Object_Land_Pattern_Small,,,62.32587312499527,68.33653212501667,4.0,Object_Land_Pattern_Small,6.0,,,,,,,,,,,
encoding,value,24,10795673,10801684,10800820.0,10801130.0,311.0,311.0,1587.9,1274.3,1591.0,891.0,Object_Land_Pattern_Small,,,62.32587312499527,68.33653212501667,4.0,Object_Land_Pattern_Small,6.0,,,,,,,,,,,
encoding,value,24,10795673,10801684,10801142.0,10801548.0,407.0,407.0,1651.4,1265.9,1591.0,891.0,Object_Land_Pattern_Small,,,62.32587312499527,68.33653212501667,4.0,Object_Land_Pattern_Small,6.0,,,,,,,,,,,
encoding,value,24,10795673,10801684,10801598.0,10801865.0,268.0,86.0,2061.8,1131.7,2249.0,891.0,Object_Land_Solid_Small,,,62.32587312499527,68.33653212501667,4.0,Object_Land_Pattern_Small,6.0,,,,,,,,,,,
encoding,attention,24,10801684,10804698,10801896.0,10802073.0,178.0,178.0,1604.7,1174.4,1591.0,891.0,Object_Land_Pattern_Small,,,68.33663229166996,71.35041379171889,4.0,Object_Land_Pattern_Small,6.0,6.0,1.0,1.2578650834038854,,,,,,,,
encoding,attention,24,10801684,10804698,10802083.0,10802743.0,661.0,661.0,1551.9,1168.7,1591.0,891.0,Object_Land_Pattern_Small,,,68.33663229166996,71.35041379171889,4.0,Object_Land_Pattern_Small,6.0,6.0,1.0,1.2578650834038854,,,,,,,,
encoding,attention,24,10801684,10804698,10802756.0,10803196.0,441.0,441.0,1646.8,1171.6,1591.0,891.0,Object_Land_Pattern_Small,,,68.33663229166996,71.35041379171889,4.0,Object_Land_Pattern_Small,6.0,6.0,1.0,1.2578650834038854,,,,,,,,
encoding,attention,24,10801684,10804698,10803504.0,10803807.0,304.0,304.0,1618.2,1194.6,1591.0,891.0,Object_Land_Pattern_Small,,,68.33663229166996,71.35041379171889,4.0,Object_Land_Pattern_Small,6.0,6.0,1.0,1.2578650834038854,,,,,,,,
encoding,fixation,25,11062084,11063338,11062293.0,11062365.0,73.0,73.0,1848.6,923.3,1920.0,1460.0,Animal_Sea_Pattern_Small,,,6.235906083253212,7.489696791628376,5.0,Object_Sea_Solid_Small,-9.0,,,,,,,,,,,
encoding,fixation,25,11062084,11063338,11062389.0,11062623.0,235.0,235.0,1953.2,1131.9,1920.0,1080.0,fixation,,,6.235906083253212,7.489696791628376,5.0,Object_Sea_Solid_Small,-9.0,,,,,,,,,,,
encoding,fixation,25,11062084,11063338,11062632.0,11062942.0,311.0,311.0,1929.2,1068.5,1920.0,1080.0,fixation,,,6.235906083253212,7.489696791628376,5.0,Object_Sea_Solid_Small,-9.0,,,,,,,,,,,
encoding,fixation,25,11062084,11063338,11063191.0,11063559.0,369.0,147.0,1943.8,1081.3,1920.0,1080.0,fixation,,,6.235906083253212,7.489696791628376,5.0,Object_Sea_Solid_Small,-9.0,,,,,,,,,,,
encoding,image,25,11063338,11064346,11063594.0,11064529.0,936.0,752.0,1638.0,883.4000000000001,1591.0,1269.0,Object_Sea_Solid_Small,,,7.48980054166168,8.498066291678697,5.0,Object_Sea_Solid_Small,-9.0,,,,,,,,,,,
encoding,value,25,11064346,11070355,11064548.0,11065262.0,715.0,715.0,1644.3,802.2,1591.0,1269.0,Object_Sea_Solid_Small,,,8.498209583340213,14.507249125046656,5.0,Object_Sea_Solid_Small,-9.0,,,,,,,,,,,
encoding,value,25,11064346,11070355,11065281.0,11066825.0,1545.0,1545.0,1638.7,873.5,1591.0,1269.0,Object_Sea_Solid_Small,,,8.498209583340213,14.507249125046656,5.0,Object_Sea_Solid_Small,-9.0,,,,,,,,,,,
encoding,value,25,11064346,11070355,11067022.0,11068972.0,1951.0,1951.0,1654.2,904.7,1591.0,1269.0,Object_Sea_Solid_Small,,,8.498209583340213,14.507249125046656,5.0,Object_Sea_Solid_Small,-9.0,,,,,,,,,,,
encoding,value,25,11064346,11070355,11069170.0,11070206.0,1037.0,1037.0,1716.7,857.8,1591.0,1269.0,Object_Sea_Solid_Small,,,8.498209583340213,14.507249125046656,5.0,Object_Sea_Solid_Small,-9.0,,,,,,,,,,,
encoding,attention,25,11070355,11073369,11070438.0,11070709.0,272.0,272.0,1679.5,758.5,1591.0,1269.0,Object_Sea_Solid_Small,,,14.507359249982985,17.5204370416468,5.0,Object_Sea_Solid_Small,-9.0,-9.0,1.0,2.384554500109516,,,,,,,,
encoding,attention,25,11070355,11073369,11070727.0,11070904.0,178.0,178.0,1686.3,748.8,1591.0,1269.0,Object_Sea_Solid_Small,,,14.507359249982985,17.5204370416468,5.0,Object_Sea_Solid_Small,-9.0,-9.0,1.0,2.384554500109516,,,,,,,,
encoding,attention,25,11070355,11073369,11070912.0,11071498.0,587.0,587.0,1636.4,672.3,1591.0,1269.0,Object_Sea_Solid_Small,,,14.507359249982985,17.5204370416468,5.0,Object_Sea_Solid_Small,-9.0,-9.0,1.0,2.384554500109516,,,,,,,,
encoding,attention,25,11070355,11073369,11071514.0,11071731.0,218.0,218.0,1735.8,607.3,1920.0,1460.0,Animal_Sea_Pattern_Small,,,14.507359249982985,17.5204370416468,5.0,Object_Sea_Solid_Small,-9.0,-9.0,1.0,2.384554500109516,,,,,,,,
encoding,attention,25,11070355,11073369,11071752.0,11072045.0,294.0,294.0,1733.4,529.2,,,none,,,14.507359249982985,17.5204370416468,5.0,Object_Sea_Solid_Small,-9.0,-9.0,1.0,2.384554500109516,,,,,,,,
encoding,attention,25,11070355,11073369,11072051.0,11072076.0,26.0,26.0,1737.2,534.8,1920.0,1460.0,Animal_Sea_Pattern_Small,,,14.507359249982985,17.5204370416468,5.0,Object_Sea_Solid_Small,-9.0,-9.0,1.0,2.384554500109516,,,,,,,,
encoding,attention,25,11070355,11073369,11072934.0,11073061.0,128.0,128.0,1733.8,876.3,1591.0,1269.0,Object_Sea_Solid_Small,,,14.507359249982985,17.5204370416468,5.0,Object_Sea_Solid_Small,-9.0,-9.0,1.0,2.384554500109516,,,,,,,,
encoding,attention,25,11070355,11073369,11073078.0,11073254.0,177.0,177.0,1636.0,835.2,1591.0,1269.0,Object_Sea_Solid_Small,,,14.507359249982985,17.5204370416468,5.0,Object_Sea_Solid_Small,-9.0,-9.0,1.0,2.384554500109516,,,,,,,,
encoding,fixation,26,11073369,11074872,11073591.0,11073864.0,274.0,274.0,1945.5,1098.0,1920.0,1080.0,fixation,,,17.520566208288074,19.02378329169005,5.0,Animal_Land_Pattern_Large,-7.0,,,,,,,,,,,
encoding,fixation,26,11073369,11074872,11074080.0,11075040.0,961.0,792.0,1952.4,1113.7,1920.0,1080.0,fixation,,,17.520566208288074,19.02378329169005,5.0,Animal_Land_Pattern_Large,-7.0,,,,,,,,,,,
encoding,image,26,11074872,11075880,11075074.0,11075305.0,232.0,232.0,1649.1,1288.1,1591.0,891.0,Animal_Land_Pattern_Large,,,19.02387037500739,20.031730125076137,5.0,Animal_Land_Pattern_Large,-7.0,,,,,,,,,,,
encoding,image,26,11074872,11075880,11075317.0,11076061.0,745.0,563.0,1585.0,1316.6,1591.0,891.0,Animal_Land_Pattern_Large,,,19.02387037500739,20.031730125076137,5.0,Animal_Land_Pattern_Large,-7.0,,,,,,,,,,,
encoding,value,26,11075880,11081889,11076080.0,11076601.0,522.0,522.0,1626.8,1218.8,1591.0,891.0,Animal_Land_Pattern_Large,,,20.031825791695155,26.040563333313912,5.0,Animal_Land_Pattern_Large,-7.0,,,,,,,,,,,
encoding,value,26,11075880,11081889,11076832.0,11076869.0,38.0,38.0,1556.0,1111.6,1591.0,891.0,Animal_Land_Pattern_Large,,,20.031825791695155,26.040563333313912,5.0,Animal_Land_Pattern_Large,-7.0,,,,,,,,,,,
encoding,value,26,11075880,11081889,11077169.0,11077222.0,54.0,54.0,1585.1,1248.0,1591.0,891.0,Animal_Land_Pattern_Large,,,20.031825791695155,26.040563333313912,5.0,Animal_Land_Pattern_Large,-7.0,,,,,,,,,,,
encoding,value,26,11075880,11081889,11077443.0,11078069.0,627.0,627.0,1584.9,1342.3,1591.0,891.0,Animal_Land_Pattern_Large,,,20.031825791695155,26.040563333313912,5.0,Animal_Land_Pattern_Large,-7.0,,,,,,,,,,,
encoding,value,26,11075880,11081889,11078079.0,11079857.0,1779.0,1779.0,1559.6,1335.5,1591.0,891.0,Animal_Land_Pattern_Large,,,20.031825791695155,26.040563333313912,5.0,Animal_Land_Pattern_Large,-7.0,,,,,,,,,,,
encoding,value,26,11075880,11081889,11080080.0,11080369.0,290.0,290.0,1677.5,1234.2,1591.0,891.0,Animal_Land_Pattern_Large,,,20.031825791695155,26.040563333313912,5.0,Animal_Land_Pattern_Large,-7.0,,,,,,,,,,,
encoding,value,26,11075880,11081889,11080379.0,11080736.0,358.0,358.0,1628.5,1225.5,1591.0,891.0,Animal_Land_Pattern_Large,,,20.031825791695155,26.040563333313912,5.0,Animal_Land_Pattern_Large,-7.0,,,,,,,,,,,
encoding,value,26,11075880,11081889,11080743.0,11083377.0,2635.0,1146.0,1640.7,1217.6,1591.0,891.0,Animal_Land_Pattern_Large,,,20.031825791695155,26.040563333313912,5.0,Animal_Land_Pattern_Large,-7.0,,,,,,,,,,,
encoding,attention,26,11081889,11084904,,,,,,,,,none,,,26.0406754167052,29.05565887503326,5.0,Animal_Land_Pattern_Large,-7.0,-7.0,1.0,0.7795707915211096,,,,,,,,
encoding,fixation,27,11084904,11085408,11085388.0,11085409.0,22.0,20.0,2093.0,779.0999999999999,1920.0,1460.0,Animal_Sea_Pattern_Small,,,29.055789125035517,29.559279583278112,5.0,Animal_Sea_Solid_Small,9.0,,,,,,,,,,,
encoding,image,27,11085408,11086417,11085679.0,11085848.0,170.0,170.0,1902.9,1057.4,1920.0,1080.0,fixation,,,29.559383958228864,30.568146583274935,5.0,Animal_Sea_Solid_Small,9.0,,,,,,,,,,,
encoding,image,27,11085408,11086417,11085885.0,11086461.0,577.0,532.0,2245.3,1205.9,2249.0,891.0,Animal_Sea_Solid_Small,,,29.559383958228864,30.568146583274935,5.0,Animal_Sea_Solid_Small,9.0,,,,,,,,,,,
encoding,value,27,11086417,11092426,11086704.0,11086742.0,39.0,39.0,2214.4,1235.2,2249.0,891.0,Animal_Sea_Solid_Small,,,30.5682623750763,36.57732024998404,5.0,Animal_Sea_Solid_Small,9.0,,,,,,,,,,,
encoding,value,27,11086417,11092426,11087001.0,11087353.0,353.0,353.0,2283.3,1218.6,2249.0,891.0,Animal_Sea_Solid_Small,,,30.5682623750763,36.57732024998404,5.0,Animal_Sea_Solid_Small,9.0,,,,,,,,,,,
encoding,value,27,11086417,11092426,11087360.0,11087718.0,359.0,359.0,2242.9,1206.6,2249.0,891.0,Animal_Sea_Solid_Small,,,30.5682623750763,36.57732024998404,5.0,Animal_Sea_Solid_Small,9.0,,,,,,,,,,,
encoding,value,27,11086417,11092426,11087738.0,11088340.0,603.0,603.0,2270.8,1117.6,2249.0,891.0,Animal_Sea_Solid_Small,,,30.5682623750763,36.57732024998404,5.0,Animal_Sea_Solid_Small,9.0,,,,,,,,,,,
encoding,value,27,11086417,11092426,11088362.0,11089164.0,803.0,803.0,2245.6,1232.1,2249.0,891.0,Animal_Sea_Solid_Small,,,30.5682623750763,36.57732024998404,5.0,Animal_Sea_Solid_Small,9.0,,,,,,,,,,,
encoding,value,27,11086417,11092426,11089325.0,11089567.0,243.0,243.0,2186.9,1255.5,2249.0,891.0,Animal_Sea_Solid_Small,,,30.5682623750763,36.57732024998404,5.0,Animal_Sea_Solid_Small,9.0,,,,,,,,,,,
encoding,value,27,11086417,11092426,11089580.0,11090814.0,1235.0,1235.0,2250.1,1236.5,2249.0,891.0,Animal_Sea_Solid_Small,,,30.5682623750763,36.57732024998404,5.0,Animal_Sea_Solid_Small,9.0,,,,,,,,,,,
encoding,value,27,11086417,11092426,11091013.0,11092953.0,1941.0,1413.0,2267.0,1112.5,2249.0,891.0,Animal_Sea_Solid_Small,,,30.5682623750763,36.57732024998404,5.0,Animal_Sea_Solid_Small,9.0,,,,,,,,,,,
encoding,attention,27,11092427,11095437,11092968.0,11093951.0,984.0,984.0,2317.8,1101.2,2249.0,891.0,Animal_Sea_Solid_Small,,,36.57742762507405,39.58726429170929,5.0,Animal_Sea_Solid_Small,9.0,,,,,,,,,,,
encoding,attention,27,11092427,11095437,11093976.0,11094660.0,685.0,685.0,2254.9,1235.6,2249.0,891.0,Animal_Sea_Solid_Small,,,36.57742762507405,39.58726429170929,5.0,Animal_Sea_Solid_Small,9.0,,,,,,,,,,,
encoding,attention,27,11092427,11095437,11094973.0,11095134.0,162.0,162.0,1698.7,1060.1,1591.0,1269.0,Object_Sea_Solid_Small,,,36.57742762507405,39.58726429170929,5.0,Animal_Sea_Solid_Small,9.0,,,,,,,,,,,
encoding,attention,27,11092427,11095437,11095180.0,11095344.0,165.0,165.0,2251.0,1128.0,2249.0,891.0,Animal_Sea_Solid_Small,,,36.57742762507405,39.58726429170929,5.0,Animal_Sea_Solid_Small,9.0,,,,,,,,,,,
encoding,fixation,28,11095437,11096441,11096120.0,11097017.0,898.0,321.0,3013.0,1641.6,,,none,,,39.587371958303265,40.59160649997648,5.0,Object_Land_Pattern_Large,1.0,,,,,,,,,,,
encoding,image,28,11096441,11097450,11097056.0,11098136.0,1081.0,394.0,3270.0,1788.8,,,none,,,40.5917370832758,41.60063062503468,5.0,Object_Land_Pattern_Large,1.0,,,,,,,,,,,
encoding,value,28,11097450,11103460,11098202.0,11098422.0,221.0,221.0,1997.4,1414.9,1920.0,700.0,Object_Land_Pattern_Large,,,41.60073691664729,47.61037137499079,5.0,Object_Land_Pattern_Large,1.0,,,,,,,,,,,
encoding,value,28,11097450,11103460,11098440.0,11099025.0,586.0,586.0,1917.1,1338.0,1920.0,700.0,Object_Land_Pattern_Large,,,41.60073691664729,47.61037137499079,5.0,Object_Land_Pattern_Large,1.0,,,,,,,,,,,
encoding,value,28,11097450,11103460,11099046.0,11100573.0,1528.0,1528.0,1912.3,1425.5,1920.0,700.0,Object_Land_Pattern_Large,,,41.60073691664729,47.61037137499079,5.0,Object_Land_Pattern_Large,1.0,,,,,,,,,,,
encoding,value,28,11097450,11103460,11100818.0,11101212.0,395.0,395.0,1910.6,1367.3,1920.0,700.0,Object_Land_Pattern_Large,,,41.60073691664729,47.61037137499079,5.0,Object_Land_Pattern_Large,1.0,,,,,,,,,,,
encoding,value,28,11097450,11103460,11101452.0,11101678.0,227.0,227.0,1923.5,1405.1,1920.0,700.0,Object_Land_Pattern_Large,,,41.60073691664729,47.61037137499079,5.0,Object_Land_Pattern_Large,1.0,,,,,,,,,,,
encoding,value,28,11097450,11103460,11101686.0,11102935.0,1250.0,1250.0,1901.3,1430.9,1920.0,700.0,Object_Land_Pattern_Large,,,41.60073691664729,47.61037137499079,5.0,Object_Land_Pattern_Large,1.0,,,,,,,,,,,
encoding,value,28,11097450,11103460,11102948.0,11103306.0,359.0,359.0,1904.7,1379.3,1920.0,700.0,Object_Land_Pattern_Large,,,41.60073691664729,47.61037137499079,5.0,Object_Land_Pattern_Large,1.0,,,,,,,,,,,
encoding,attention,28,11103460,11106471,11103512.0,11104657.0,1146.0,1146.0,1874.1,1358.4,1920.0,700.0,Object_Land_Pattern_Large,,,47.61047579161823,50.62110200000461,5.0,Object_Land_Pattern_Large,1.0,,,,,,,,,,,
encoding,attention,28,11103460,11106471,11104671.0,11104975.0,305.0,305.0,1940.6,1351.7,1920.0,700.0,Object_Land_Pattern_Large,,,47.61047579161823,50.62110200000461,5.0,Object_Land_Pattern_Large,1.0,,,,,,,,,,,
encoding,attention,28,11103460,11106471,11104989.0,11106117.0,1129.0,1129.0,1857.5,1364.5,1920.0,700.0,Object_Land_Pattern_Large,,,47.61047579161823,50.62110200000461,5.0,Object_Land_Pattern_Large,1.0,,,,,,,,,,,
encoding,fixation,29,11106471,11106974,,,,,,,,,none,,,50.62130191666074,51.12471329164691,5.0,Object_Land_Solid_Large,3.0,,,,,,,,,,,
encoding,image,29,11106975,11107982,11107250.0,11107451.0,202.0,202.0,1924.5,1289.6,1920.0,700.0,Object_Land_Pattern_Large,,,51.12481795833446,52.132615708280355,5.0,Object_Land_Solid_Large,3.0,,,,,,,,,,,
encoding,image,29,11106975,11107982,11107495.0,11107783.0,289.0,289.0,2246.4,842.9000000000001,2249.0,1269.0,Object_Land_Solid_Large,,,51.12481795833446,52.132615708280355,5.0,Object_Land_Solid_Large,3.0,,,,,,,,,,,
encoding,image,29,11106975,11107982,11107791.0,11107956.0,166.0,166.0,2218.6,811.8,2249.0,1269.0,Object_Land_Solid_Large,,,51.12481795833446,52.132615708280355,5.0,Object_Land_Solid_Large,3.0,,,,,,,,,,,
encoding,image,29,11106975,11107982,11107982.0,11108130.0,149.0,0.0,1952.7,982.3,1920.0,1460.0,Animal_Sea_Pattern_Small,,,51.12481795833446,52.132615708280355,5.0,Object_Land_Solid_Large,3.0,,,,,,,,,,,
encoding,value,29,11107983,11113991,11108141.0,11108284.0,144.0,144.0,1939.9,1031.4,1920.0,1080.0,fixation,,,52.13270525005646,58.14084079163149,5.0,Object_Land_Solid_Large,3.0,,,,,,,,,,,
encoding,value,29,11107983,11113991,11108319.0,11109562.0,1244.0,1244.0,2275.3,682.8,2249.0,1269.0,Object_Land_Solid_Large,,,52.13270525005646,58.14084079163149,5.0,Object_Land_Solid_Large,3.0,,,,,,,,,,,
encoding,value,29,11107983,11113991,11109576.0,11110349.0,774.0,774.0,2270.0,764.4000000000001,2249.0,1269.0,Object_Land_Solid_Large,,,52.13270525005646,58.14084079163149,5.0,Object_Land_Solid_Large,3.0,,,,,,,,,,,
encoding,value,29,11107983,11113991,11110586.0,11110670.0,85.0,85.0,2267.8,546.5999999999999,,,none,,,52.13270525005646,58.14084079163149,5.0,Object_Land_Solid_Large,3.0,,,,,,,,,,,
encoding,value,29,11107983,11113991,11110937.0,11111374.0,438.0,438.0,2262.5,722.0,2249.0,1269.0,Object_Land_Solid_Large,,,52.13270525005646,58.14084079163149,5.0,Object_Land_Solid_Large,3.0,,,,,,,,,,,
encoding,value,29,11107983,11113991,11111382.0,11113064.0,1683.0,1683.0,2278.9,776.0,2249.0,1269.0,Object_Land_Solid_Large,,,52.13270525005646,58.14084079163149,5.0,Object_Land_Solid_Large,3.0,,,,,,,,,,,
encoding,value,29,11107983,11113991,11113085.0,11113565.0,481.0,481.0,2282.3,707.8,2249.0,1269.0,Object_Land_Solid_Large,,,52.13270525005646,58.14084079163149,5.0,Object_Land_Solid_Large,3.0,,,,,,,,,,,
encoding,value,29,11107983,11113991,11113586.0,11114050.0,465.0,405.0,2266.8,810.5999999999999,2249.0,1269.0,Object_Land_Solid_Large,,,52.13270525005646,58.14084079163149,5.0,Object_Land_Solid_Large,3.0,,,,,,,,,,,
encoding,attention,29,11113991,11117004,11114070.0,11114294.0,225.0,225.0,2272.6,696.8,2249.0,1269.0,Object_Land_Solid_Large,,,58.14102345833089,61.153519749990664,5.0,Object_Land_Solid_Large,3.0,3.0,1.0,1.102864291635342,,,,,,,,
encoding,attention,29,11113991,11117004,11114304.0,11115512.0,1209.0,1209.0,2323.7,684.3,2249.0,1269.0,Object_Land_Solid_Large,,,58.14102345833089,61.153519749990664,5.0,Object_Land_Solid_Large,3.0,3.0,1.0,1.102864291635342,,,,,,,,
encoding,attention,29,11113991,11117004,11115726.0,11115969.0,244.0,244.0,1996.3,938.9000000000001,1920.0,1460.0,Animal_Sea_Pattern_Small,,,58.14102345833089,61.153519749990664,5.0,Object_Land_Solid_Large,3.0,3.0,1.0,1.102864291635342,,,,,,,,
encoding,attention,29,11113991,11117004,11115987.0,11116300.0,314.0,314.0,1943.2,1027.2,1920.0,1080.0,fixation,,,58.14102345833089,61.153519749990664,5.0,Object_Land_Solid_Large,3.0,3.0,1.0,1.102864291635342,,,,,,,,
encoding,attention,29,11113991,11117004,11116342.0,11116601.0,260.0,260.0,2215.6,851.0999999999999,2249.0,1269.0,Object_Land_Solid_Large,,,58.14102345833089,61.153519749990664,5.0,Object_Land_Solid_Large,3.0,3.0,1.0,1.102864291635342,,,,,,,,
encoding,fixation,30,11117004,11118258,11117209.0,11118061.0,853.0,853.0,1971.1,1039.5,1920.0,1080.0,fixation,,,61.15365329163615,62.40799745824188,5.0,Animal_Sea_Pattern_Small,-9.0,,,,,,,,,,,
encoding,image,30,11118258,11119268,11118301.0,11118507.0,207.0,207.0,1944.2,1042.6,1920.0,1080.0,fixation,,,62.4081060832832,63.41778804163914,5.0,Animal_Sea_Pattern_Small,-9.0,,,,,,,,,,,
encoding,image,30,11118258,11119268,11118539.0,11118684.0,146.0,146.0,1917.1,728.7,1920.0,1460.0,Animal_Sea_Pattern_Small,,,62.4081060832832,63.41778804163914,5.0,Animal_Sea_Pattern_Small,-9.0,,,,,,,,,,,
encoding,image,30,11118258,11119268,11118705.0,11119558.0,854.0,563.0,1906.5,627.2,1920.0,1460.0,Animal_Sea_Pattern_Small,,,62.4081060832832,63.41778804163914,5.0,Animal_Sea_Pattern_Small,-9.0,,,,,,,,,,,
encoding,value,30,11119268,11125277,11119569.0,11119772.0,204.0,204.0,1927.4,569.2,1920.0,1460.0,Animal_Sea_Pattern_Small,,,63.41789174999576,69.42667191661894,5.0,Animal_Sea_Pattern_Small,-9.0,,,,,,,,,,,
encoding,value,30,11119268,11125277,11119787.0,11119972.0,186.0,186.0,1935.2,505.4000000000001,1920.0,1460.0,Animal_Sea_Pattern_Small,,,63.41789174999576,69.42667191661894,5.0,Animal_Sea_Pattern_Small,-9.0,,,,,,,,,,,
encoding,value,30,11119268,11125277,11120382.0,11120707.0,326.0,326.0,1927.2,243.5,,,none,,,63.41789174999576,69.42667191661894,5.0,Animal_Sea_Pattern_Small,-9.0,,,,,,,,,,,
encoding,value,30,11119268,11125277,11120714.0,11121602.0,889.0,889.0,1975.4,597.0999999999999,1920.0,1460.0,Animal_Sea_Pattern_Small,,,63.41789174999576,69.42667191661894,5.0,Animal_Sea_Pattern_Small,-9.0,,,,,,,,,,,
encoding,value,30,11119268,11125277,11121622.0,11122661.0,1040.0,1040.0,1947.7,498.79999999999995,,,none,,,63.41789174999576,69.42667191661894,5.0,Animal_Sea_Pattern_Small,-9.0,,,,,,,,,,,
encoding,value,30,11119268,11125277,11122673.0,11123335.0,663.0,663.0,1967.7,625.5,1920.0,1460.0,Animal_Sea_Pattern_Small,,,63.41789174999576,69.42667191661894,5.0,Animal_Sea_Pattern_Small,-9.0,,,,,,,,,,,
encoding,value,30,11119268,11125277,11123352.0,11124601.0,1250.0,1250.0,1952.5,574.9000000000001,1920.0,1460.0,Animal_Sea_Pattern_Small,,,63.41789174999576,69.42667191661894,5.0,Animal_Sea_Pattern_Small,-9.0,,,,,,,,,,,
encoding,value,30,11119268,11125277,11124615.0,11125234.0,620.0,620.0,1936.0,546.0999999999999,1920.0,1460.0,Animal_Sea_Pattern_Small,,,63.41789174999576,69.42667191661894,5.0,Animal_Sea_Pattern_Small,-9.0,,,,,,,,,,,
encoding,attention,30,11125277,11128292,11125540.0,11125794.0,255.0,255.0,1915.1,612.2,1920.0,1460.0,Animal_Sea_Pattern_Small,,,69.42678837501444,72.44159549998585,5.0,Animal_Sea_Pattern_Small,-9.0,-9.0,1.0,1.8311321249930188,,,,,,,,
encoding,attention,30,11125277,11128292,11125823.0,11127423.0,1601.0,1601.0,1972.2,474.5,,,none,,,69.42678837501444,72.44159549998585,5.0,Animal_Sea_Pattern_Small,-9.0,-9.0,1.0,1.8311321249930188,,,,,,,,
encoding,fixation,31,11559018,11560022,11559190.0,11559271.0,82.0,82.0,1958.7,946.9000000000001,1920.0,1460.0,Animal_Land_Solid_Large,,,6.133018749998882,7.136655208305456,6.0,Object_Sea_Pattern_Small,6.0,,,,,,,,,,,
encoding,fixation,31,11559018,11560022,11559295.0,11559571.0,277.0,277.0,1921.6,1097.6,1920.0,1080.0,fixation,,,6.133018749998882,7.136655208305456,6.0,Object_Sea_Pattern_Small,6.0,,,,,,,,,,,
encoding,fixation,31,11559018,11560022,11559581.0,11559971.0,391.0,391.0,1915.0,1055.3,1920.0,1080.0,fixation,,,6.133018749998882,7.136655208305456,6.0,Object_Sea_Pattern_Small,6.0,,,,,,,,,,,
encoding,fixation,31,11559018,11560022,11559982.0,11560009.0,28.0,28.0,1903.8,1098.4,1920.0,1080.0,fixation,,,6.133018749998882,7.136655208305456,6.0,Object_Sea_Pattern_Small,6.0,,,,,,,,,,,
encoding,image,31,11560022,11561034,11560229.0,11560335.0,107.0,107.0,1915.7,821.5,1920.0,1460.0,Animal_Land_Solid_Large,,,7.136765916715376,8.148035833379254,6.0,Object_Sea_Pattern_Small,6.0,,,,,,,,,,,
encoding,image,31,11560022,11561034,11560505.0,11561219.0,715.0,529.0,1891.1,1468.7,1920.0,700.0,Object_Sea_Pattern_Small,,,7.136765916715376,8.148035833379254,6.0,Object_Sea_Pattern_Small,6.0,,,,,,,,,,,
encoding,value,31,11561034,11567044,11561239.0,11561712.0,474.0,474.0,1884.1,1365.3,1920.0,700.0,Object_Sea_Pattern_Small,,,8.148168041720055,14.157787999953143,6.0,Object_Sea_Pattern_Small,6.0,,,,,,,,,,,
encoding,value,31,11561034,11567044,11561727.0,11563188.0,1462.0,1462.0,1900.0,1449.9,1920.0,700.0,Object_Sea_Pattern_Small,,,8.148168041720055,14.157787999953143,6.0,Object_Sea_Pattern_Small,6.0,,,,,,,,,,,
encoding,value,31,11561034,11567044,11563361.0,11564704.0,1344.0,1344.0,1901.9,1471.8,1920.0,700.0,Object_Sea_Pattern_Small,,,8.148168041720055,14.157787999953143,6.0,Object_Sea_Pattern_Small,6.0,,,,,,,,,,,
encoding,value,31,11561034,11567044,11564725.0,11565231.0,507.0,507.0,1906.9,1359.6,1920.0,700.0,Object_Sea_Pattern_Small,,,8.148168041720055,14.157787999953143,6.0,Object_Sea_Pattern_Small,6.0,,,,,,,,,,,
encoding,value,31,11561034,11567044,11565414.0,11567269.0,1856.0,1630.0,1910.6,1363.0,1920.0,700.0,Object_Sea_Pattern_Small,,,8.148168041720055,14.157787999953143,6.0,Object_Sea_Pattern_Small,6.0,,,,,,,,,,,
encoding,attention,31,11567044,11570054,11567277.0,11567429.0,153.0,153.0,1873.7,1369.6,1920.0,700.0,Object_Sea_Pattern_Small,,,14.157933624926956,17.16819020838011,6.0,Object_Sea_Pattern_Small,6.0,,,,,,,,,,,
encoding,attention,31,11567044,11570054,11567443.0,11567990.0,548.0,548.0,1946.4,1359.2,1920.0,700.0,Object_Sea_Pattern_Small,,,14.157933624926956,17.16819020838011,6.0,Object_Sea_Pattern_Small,6.0,,,,,,,,,,,
encoding,attention,31,11567044,11570054,11569704.0,11569892.0,189.0,189.0,1112.6,1069.2,,,none,,,14.157933624926956,17.16819020838011,6.0,Object_Sea_Pattern_Small,6.0,,,,,,,,,,,
encoding,fixation,32,11570054,11571308,11570427.0,11570737.0,311.0,311.0,1923.4,1149.4,1920.0,1080.0,fixation,,,17.168308041756973,18.4218255833257,6.0,Object_Sea_Pattern_Large,1.0,,,,,,,,,,,
encoding,fixation,32,11570054,11571308,11570757.0,11570907.0,151.0,151.0,1926.8,1067.2,1920.0,1080.0,fixation,,,17.168308041756973,18.4218255833257,6.0,Object_Sea_Pattern_Large,1.0,,,,,,,,,,,
encoding,image,32,11571308,11572318,11571345.0,11571581.0,237.0,237.0,1928.0,1064.9,1920.0,1080.0,fixation,,,18.421948791714385,19.432244791765697,6.0,Object_Sea_Pattern_Large,1.0,,,,,,,,,,,
encoding,image,32,11571308,11572318,11571618.0,11572557.0,940.0,700.0,2247.8,798.0999999999999,2249.0,1269.0,Object_Sea_Pattern_Large,,,18.421948791714385,19.432244791765697,6.0,Object_Sea_Pattern_Large,1.0,,,,,,,,,,,
encoding,value,32,11572318,11578328,11572573.0,11573032.0,460.0,460.0,2248.3,710.5999999999999,2249.0,1269.0,Object_Sea_Pattern_Large,,,19.43235308327712,25.441566166700795,6.0,Object_Sea_Pattern_Large,1.0,,,,,,,,,,,
encoding,value,32,11572318,11578328,11573253.0,11574067.0,815.0,815.0,2268.1,794.3,2249.0,1269.0,Object_Sea_Pattern_Large,,,19.43235308327712,25.441566166700795,6.0,Object_Sea_Pattern_Large,1.0,,,,,,,,,,,
encoding,value,32,11572318,11578328,11574089.0,11574218.0,130.0,130.0,2135.4,881.5,2249.0,1269.0,Object_Sea_Pattern_Large,,,19.43235308327712,25.441566166700795,6.0,Object_Sea_Pattern_Large,1.0,,,,,,,,,,,
