subject,phase,event,trial_number,game,option,choice,rt,roi_content,item_index,is_relevant,fix_start,fix_end,fix_duration_bounded
132,choice,choice,1,1.0,Solid,1.0,8.927651290985523,Object_Sea_Pattern_Small,0,0,17555753.0,17557266.0,1513.0
132,choice,choice,1,1.0,Solid,1.0,8.927651290985523,Animal_Sea_Pattern_Large,1,0,17557283.0,17557994.0,711.0
132,choice,choice,1,1.0,Solid,1.0,8.927651290985523,Object_Sea_Pattern_Small,0,0,17558718.0,17560836.0,2118.0
132,choice,choice,6,1.0,Large,2.0,3.3712786250107456,Object_Sea_Pattern_Small,0,0,17602339.0,17604155.0,1816.0
132,choice,choice,7,1.0,Sea,1.0,4.161452000000281,Object_Sea_Pattern_Small,0,1,17608474.0,17608948.0,474.0
132,choice,choice,7,1.0,Sea,1.0,4.161452000000281,Animal_Land_Solid_Large,2,0,17609353.0,17609540.0,187.0
132,choice,choice,7,1.0,Sea,1.0,4.161452000000281,Object_Sea_Pattern_Small,0,1,17609674.0,17610086.0,412.0
132,choice,choice,7,1.0,Sea,1.0,4.161452000000281,Object_Land_Solid_Large,3,0,17610282.0,17610521.0,239.0
132,choice,choice,7,1.0,Sea,1.0,4.161452000000281,Animal_Sea_Pattern_Small,4,1,17610531.0,17611784.0,1253.0
132,choice,choice,8,1.0,Pattern,2.0,4.935394583008019,Animal_Land_Solid_Large,2,0,17614859.0,17617406.0,2547.0
132,choice,choice,8,1.0,Pattern,2.0,4.935394583008019,Animal_Sea_Pattern_Small,4,1,17617894.0,17618065.0,171.0
132,choice,choice,8,1.0,Pattern,2.0,4.935394583008019,Animal_Land_Solid_Large,2,0,17618491.0,17618705.0,214.0
132,choice,choice,8,1.0,Pattern,2.0,4.935394583008019,Animal_Sea_Pattern_Small,4,1,17618721.0,17619379.0,658.0
132,choice,choice,9,2.0,Land,2.0,43.790628041984746,Animal_Land_Solid_Small,0,1,18045426.0,18046428.0,1002.0
132,choice,choice,9,2.0,Land,2.0,43.790628041984746,Animal_Sea_Pattern_Large,1,0,18046565.0,18047340.0,775.0
132,choice,choice,9,2.0,Land,2.0,43.790628041984746,Animal_Land_Solid_Small,0,1,18047366.0,18047585.0,219.0
132,choice,choice,9,2.0,Land,2.0,43.790628041984746,Object_Sea_Pattern_Large,2,0,18047765.0,18049268.0,1503.0
132,choice,choice,9,2.0,Land,2.0,43.790628041984746,Object_Land_Pattern_Small,3,1,18049300.0,18050023.0,723.0
132,choice,choice,9,2.0,Land,2.0,43.790628041984746,Animal_Sea_Solid_Large,4,0,18050231.0,18052955.0,2724.0
132,choice,choice,9,2.0,Land,2.0,43.790628041984746,Object_Land_Solid_Small,5,1,18053468.0,18055191.0,1723.0
132,choice,choice,9,2.0,Land,2.0,43.790628041984746,Animal_Sea_Pattern_Large,1,0,18055771.0,18056056.0,285.0
132,choice,choice,9,2.0,Land,2.0,43.790628041984746,Animal_Land_Solid_Small,0,1,18056082.0,18058039.0,1957.0
132,choice,choice,9,2.0,Land,2.0,43.790628041984746,Animal_Sea_Pattern_Large,1,0,18058448.0,18060612.0,2164.0
132,choice,choice,9,2.0,Land,2.0,43.790628041984746,Animal_Land_Solid_Small,0,1,18061431.0,18061467.0,36.0
132,choice,choice,9,2.0,Land,2.0,43.790628041984746,Animal_Sea_Pattern_Large,1,0,18061474.0,18061970.0,496.0
132,choice,choice,9,2.0,Land,2.0,43.790628041984746,Animal_Land_Solid_Small,0,1,18061991.0,18062347.0,356.0
132,choice,choice,9,2.0,Land,2.0,43.790628041984746,Object_Sea_Pattern_Large,2,0,18062368.0,18062698.0,330.0
132,choice,choice,9,2.0,Land,2.0,43.790628041984746,Animal_Land_Solid_Small,0,1,18062815.0,18064587.0,1772.0
132,choice,choice,9,2.0,Land,2.0,43.790628041984746,Object_Sea_Pattern_Large,2,0,18064778.0,18065253.0,475.0
132,choice,choice,9,2.0,Land,2.0,43.790628041984746,Animal_Land_Solid_Small,0,1,18065401.0,18066866.0,1465.0
132,choice,choice,9,2.0,Land,2.0,43.790628041984746,Object_Sea_Pattern_Large,2,0,18066985.0,18067011.0,26.0
132,choice,choice,9,2.0,Land,2.0,43.790628041984746,Animal_Land_Solid_Small,0,1,18067132.0,18068047.0,915.0
132,choice,choice,9,2.0,Land,2.0,43.790628041984746,Object_Sea_Pattern_Large,2,0,18068064.0,18068452.0,388.0
132,choice,choice,9,2.0,Land,2.0,43.790628041984746,Object_Land_Pattern_Small,3,1,18068472.0,18068807.0,335.0
132,choice,choice,9,2.0,Land,2.0,43.790628041984746,Object_Sea_Pattern_Large,2,0,18069000.0,18070427.0,1427.0
132,choice,choice,9,2.0,Land,2.0,43.790628041984746,Object_Land_Pattern_Small,3,1,18070772.0,18070918.0,146.0
132,choice,choice,9,2.0,Land,2.0,43.790628041984746,Animal_Sea_Solid_Large,4,0,18070935.0,18071330.0,395.0
132,choice,choice,9,2.0,Land,2.0,43.790628041984746,Object_Land_Solid_Small,5,1,18071357.0,18073902.0,2545.0
132,choice,choice,9,2.0,Land,2.0,43.790628041984746,Animal_Sea_Solid_Large,4,0,18074783.0,18076435.0,1652.0
132,choice,choice,9,2.0,Land,2.0,43.790628041984746,Object_Land_Pattern_Small,3,1,18076728.0,18077942.0,1214.0
132,choice,choice,9,2.0,Land,2.0,43.790628041984746,Object_Sea_Pattern_Large,2,0,18078366.0,18079170.0,804.0
132,choice,choice,9,2.0,Land,2.0,43.790628041984746,Object_Land_Pattern_Small,3,1,18079440.0,18079692.0,252.0
132,choice,choice,9,2.0,Land,2.0,43.790628041984746,Object_Land_Solid_Small,5,1,18079862.0,18080162.0,300.0
132,choice,choice,9,2.0,Land,2.0,43.790628041984746,Object_Sea_Pattern_Large,2,0,18080327.0,18081169.0,842.0
132,choice,choice,9,2.0,Land,2.0,43.790628041984746,Animal_Land_Solid_Small,0,1,18081581.0,18081977.0,396.0
132,choice,choice,9,2.0,Land,2.0,43.790628041984746,Animal_Sea_Pattern_Large,1,0,18082461.0,18082751.0,290.0
132,choice,choice,9,2.0,Land,2.0,43.790628041984746,Animal_Land_Solid_Small,0,1,18082775.0,18083141.0,366.0
132,choice,choice,9,2.0,Land,2.0,43.790628041984746,Animal_Sea_Pattern_Large,1,0,18083174.0,18083857.0,683.0
132,choice,choice,9,2.0,Land,2.0,43.790628041984746,Animal_Land_Solid_Small,0,1,18084213.0,18084797.0,584.0
132,choice,choice,9,2.0,Land,2.0,43.790628041984746,Animal_Sea_Pattern_Large,1,0,18084954.0,18085568.0,614.0
132,choice,choice,9,2.0,Land,2.0,43.790628041984746,Object_Sea_Pattern_Large,2,0,18085834.0,18086724.0,890.0
132,choice,choice,9,2.0,Land,2.0,43.790628041984746,Animal_Sea_Pattern_Large,1,0,18086916.0,18087358.0,442.0
132,choice,choice,9,2.0,Land,2.0,43.790628041984746,Object_Land_Pattern_Small,3,1,18087682.0,18087774.0,92.0
132,choice,choice,9,2.0,Land,2.0,43.790628041984746,Object_Sea_Pattern_Large,2,0,18088006.0,18088503.0,497.0
132,choice,choice,10,2.0,Solid,1.0,6.744596292002825,Animal_Land_Solid_Small,0,1,18091193.0,18095029.0,3836.0
132,choice,choice,10,2.0,Solid,1.0,6.744596292002825,Object_Sea_Pattern_Large,2,0,18096014.0,18096394.0,380.0
132,choice,choice,10,2.0,Solid,1.0,6.744596292002825,Animal_Land_Solid_Small,0,1,18096418.0,18097164.0,746.0
132,choice,choice,10,2.0,Solid,1.0,6.744596292002825,Animal_Sea_Pattern_Large,1,0,18097306.0,18097556.0,250.0
132,choice,choice,10,2.0,Solid,1.0,6.744596292002825,Animal_Land_Solid_Small,0,1,18097580.0,18097801.0,221.0
132,choice,choice,11,2.0,Pattern,1.0,19.09201941700303,Animal_Land_Solid_Small,0,0,18101116.0,18101890.0,774.0
132,choice,choice,11,2.0,Pattern,1.0,19.09201941700303,Object_Sea_Pattern_Large,2,1,18102621.0,18102883.0,262.0
132,choice,choice,11,2.0,Pattern,1.0,19.09201941700303,Animal_Land_Solid_Small,0,0,18103042.0,18104330.0,1288.0
132,choice,choice,11,2.0,Pattern,1.0,19.09201941700303,Object_Sea_Pattern_Large,2,1,18104526.0,18106220.0,1694.0
132,choice,choice,11,2.0,Pattern,1.0,19.09201941700303,Animal_Land_Solid_Small,0,0,18106403.0,18106977.0,574.0
132,choice,choice,11,2.0,Pattern,1.0,19.09201941700303,Object_Sea_Pattern_Large,2,1,18107002.0,18108579.0,1577.0
132,choice,choice,11,2.0,Pattern,1.0,19.09201941700303,Object_Land_Solid_Small,5,0,18109109.0,18109674.0,565.0
132,choice,choice,11,2.0,Pattern,1.0,19.09201941700303,Animal_Sea_Pattern_Large,1,1,18109717.0,18110923.0,1206.0
132,choice,choice,11,2.0,Pattern,1.0,19.09201941700303,Animal_Land_Solid_Small,0,0,18110948.0,18111703.0,755.0
132,choice,choice,11,2.0,Pattern,1.0,19.09201941700303,Object_Sea_Pattern_Large,2,1,18111903.0,18112262.0,359.0
132,choice,choice,11,2.0,Pattern,1.0,19.09201941700303,Animal_Land_Solid_Small,0,0,18112282.0,18113363.0,1081.0
132,choice,choice,11,2.0,Pattern,1.0,19.09201941700303,Object_Sea_Pattern_Large,2,1,18113537.0,18113996.0,459.0
132,choice,choice,11,2.0,Pattern,1.0,19.09201941700303,Animal_Land_Solid_Small,0,0,18114171.0,18114564.0,393.0
132,choice,choice,11,2.0,Pattern,1.0,19.09201941700303,Object_Sea_Pattern_Large,2,1,18114842.0,18115391.0,549.0
132,choice,choice,11,2.0,Pattern,1.0,19.09201941700303,Animal_Land_Solid_Small,0,0,18115819.0,18117970.0,2151.0
132,choice,choice,11,2.0,Pattern,1.0,19.09201941700303,Object_Sea_Pattern_Large,2,1,18118719.0,18118999.0,280.0
132,choice,choice,11,2.0,Pattern,1.0,19.09201941700303,Animal_Land_Solid_Small,0,0,18119055.0,18119943.0,888.0
132,choice,choice,12,2.0,Large,2.0,11.464367042004596,Animal_Land_Solid_Small,0,0,18124349.0,18125113.0,764.0
132,choice,choice,12,2.0,Large,2.0,11.464367042004596,Object_Sea_Pattern_Large,2,1,18128576.0,18130232.0,1656.0
132,choice,choice,12,2.0,Large,2.0,11.464367042004596,Animal_Land_Solid_Small,0,0,18130553.0,18130672.0,119.0
132,choice,choice,12,2.0,Large,2.0,11.464367042004596,Animal_Sea_Pattern_Large,1,1,18132094.0,18132741.0,647.0
132,choice,choice,12,2.0,Large,2.0,11.464367042004596,Object_Sea_Pattern_Large,2,1,18132818.0,18133074.0,256.0
132,choice,choice,12,2.0,Large,2.0,11.464367042004596,Animal_Land_Solid_Small,0,0,18133222.0,18133254.0,32.0
132,choice,choice,12,2.0,Large,2.0,11.464367042004596,Object_Sea_Pattern_Large,2,1,18133494.0,18133889.0,395.0
132,choice,choice,12,2.0,Large,2.0,11.464367042004596,Animal_Sea_Solid_Large,4,1,18134250.0,18134533.0,283.0
132,choice,choice,12,2.0,Large,2.0,11.464367042004596,Animal_Sea_Pattern_Large,1,1,18134561.0,18134875.0,314.0
132,choice,choice,13,2.0,Object,1.0,16.11244616698241,Animal_Land_Solid_Small,0,0,18138895.0,18146631.0,7736.0
132,choice,choice,13,2.0,Object,1.0,16.11244616698241,Animal_Sea_Pattern_Large,1,0,18150917.0,18151600.0,683.0
132,choice,choice,13,2.0,Object,1.0,16.11244616698241,Animal_Land_Solid_Small,0,0,18152117.0,18152147.0,30.0
132,choice,choice,13,2.0,Object,1.0,16.11244616698241,Animal_Sea_Pattern_Large,1,0,18152157.0,18153445.0,1288.0
132,choice,choice,13,2.0,Object,1.0,16.11244616698241,Animal_Land_Solid_Small,0,0,18153504.0,18154481.0,977.0
132,choice,choice,14,2.0,Small,2.0,2.1705434169853106,Animal_Land_Solid_Small,0,1,18157979.0,18160040.0,2061.0
132,choice,choice,15,2.0,Sea,1.0,1.1922387089871336,Animal_Land_Solid_Small,0,0,18163076.0,18163161.0,85.0
132,choice,choice,15,2.0,Sea,1.0,1.1922387089871336,Object_Sea_Pattern_Large,2,1,18163334.0,18163843.0,509.0
132,choice,choice,16,2.0,Animal,1.0,6.570459374983329,Animal_Land_Solid_Small,0,1,18167300.0,18171944.0,4644.0
132,choice,choice,17,3.0,Object,2.0,44.06351904102485,Object_Land_Pattern_Large,0,1,18494001.0,18499035.0,5034.0
132,choice,choice,17,3.0,Object,2.0,44.06351904102485,Object_Sea_Solid_Small,1,1,18500280.0,18500366.0,86.0
132,choice,choice,17,3.0,Object,2.0,44.06351904102485,Animal_Land_Pattern_Small,2,0,18500544.0,18501216.0,672.0
132,choice,choice,17,3.0,Object,2.0,44.06351904102485,Object_Land_Pattern_Large,0,1,18501548.0,18501943.0,395.0
132,choice,choice,17,3.0,Object,2.0,44.06351904102485,Object_Sea_Solid_Small,1,1,18501983.0,18502933.0,950.0
132,choice,choice,17,3.0,Object,2.0,44.06351904102485,Animal_Land_Pattern_Small,2,0,18503208.0,18504584.0,1376.0
132,choice,choice,17,3.0,Object,2.0,44.06351904102485,Animal_Sea_Solid_Small,3,0,18505146.0,18505274.0,128.0
132,choice,choice,17,3.0,Object,2.0,44.06351904102485,Animal_Land_Pattern_Small,2,0,18505465.0,18506238.0,773.0
132,choice,choice,17,3.0,Object,2.0,44.06351904102485,Object_Land_Pattern_Large,0,1,18506609.0,18507005.0,396.0
132,choice,choice,17,3.0,Object,2.0,44.06351904102485,Object_Sea_Solid_Small,1,1,18507054.0,18507645.0,591.0
132,choice,choice,17,3.0,Object,2.0,44.06351904102485,Animal_Land_Pattern_Small,2,0,18507708.0,18507820.0,112.0
132,choice,choice,17,3.0,Object,2.0,44.06351904102485,Animal_Sea_Solid_Small,3,0,18507932.0,18509212.0,1280.0
132,choice,choice,17,3.0,Object,2.0,44.06351904102485,Animal_Land_Pattern_Large,4,0,18510285.0,18511020.0,735.0
132,choice,choice,17,3.0,Object,2.0,44.06351904102485,Object_Sea_Solid_Large,5,1,18511187.0,18512666.0,1479.0
132,choice,choice,17,3.0,Object,2.0,44.06351904102485,Animal_Sea_Solid_Small,3,0,18512991.0,18513853.0,862.0
132,choice,choice,17,3.0,Object,2.0,44.06351904102485,Object_Sea_Solid_Large,5,1,18513901.0,18514752.0,851.0
132,choice,choice,17,3.0,Object,2.0,44.06351904102485,Object_Land_Pattern_Large,0,1,18514917.0,18515356.0,439.0
132,choice,choice,17,3.0,Object,2.0,44.06351904102485,Object_Sea_Solid_Large,5,1,18515385.0,18515672.0,287.0
132,choice,choice,17,3.0,Object,2.0,44.06351904102485,Object_Land_Pattern_Large,0,1,18515847.0,18516075.0,228.0
132,choice,choice,17,3.0,Object,2.0,44.06351904102485,Object_Sea_Solid_Large,5,1,18516097.0,18517967.0,1870.0
132,choice,choice,17,3.0,Object,2.0,44.06351904102485,Animal_Sea_Solid_Small,3,0,18518313.0,18520243.0,1930.0
132,choice,choice,17,3.0,Object,2.0,44.06351904102485,Animal_Land_Pattern_Small,2,0,18521256.0,18523133.0,1877.0
132,choice,choice,17,3.0,Object,2.0,44.06351904102485,Object_Sea_Solid_Small,1,1,18523568.0,18524027.0,459.0
132,choice,choice,17,3.0,Object,2.0,44.06351904102485,Object_Land_Pattern_Large,0,1,18524050.0,18528263.0,4213.0
132,choice,choice,17,3.0,Object,2.0,44.06351904102485,Object_Sea_Solid_Small,1,1,18529596.0,18530538.0,942.0
132,choice,choice,17,3.0,Object,2.0,44.06351904102485,Object_Land_Pattern_Large,0,1,18530649.0,18533197.0,2548.0
132,choice,choice,17,3.0,Object,2.0,44.06351904102485,Object_Sea_Solid_Large,5,1,18533795.0,18533849.0,54.0
132,choice,choice,17,3.0,Object,2.0,44.06351904102485,Animal_Sea_Solid_Small,3,0,18534012.0,18534116.0,104.0
132,choice,choice,17,3.0,Object,2.0,44.06351904102485,Animal_Land_Pattern_Large,4,0,18534265.0,18535456.0,1191.0
132,choice,choice,17,3.0,Object,2.0,44.06351904102485,Object_Sea_Solid_Large,5,1,18535500.0,18535960.0,460.0
132,choice,choice,17,3.0,Object,2.0,44.06351904102485,Animal_Land_Pattern_Large,4,0,18536102.0,18536715.0,613.0
132,choice,choice,18,3.0,Solid,1.0,16.09098062501289,Object_Sea_Solid_Small,1,1,18541372.0,18542963.0,1591.0
132,choice,choice,18,3.0,Solid,1.0,16.09098062501289,Object_Land_Pattern_Large,0,0,18543759.0,18544734.0,975.0
132,choice,choice,18,3.0,Solid,1.0,16.09098062501289,Object_Sea_Solid_Small,1,1,18545198.0,18546069.0,871.0
132,choice,choice,18,3.0,Solid,1.0,16.09098062501289,Animal_Land_Pattern_Small,2,0,18546374.0,18547175.0,801.0
132,choice,choice,18,3.0,Solid,1.0,16.09098062501289,Object_Sea_Solid_Large,5,1,18547542.0,18548343.0,801.0
132,choice,choice,18,3.0,Solid,1.0,16.09098062501289,Animal_Land_Pattern_Large,4,0,18548548.0,18548825.0,277.0
132,choice,choice,18,3.0,Solid,1.0,16.09098062501289,Object_Sea_Solid_Large,5,1,18548982.0,18549049.0,67.0
132,choice,choice,18,3.0,Solid,1.0,16.09098062501289,Object_Land_Pattern_Large,0,0,18549282.0,18549423.0,141.0
132,choice,choice,18,3.0,Solid,1.0,16.09098062501289,Object_Sea_Solid_Large,5,1,18549592.0,18553258.0,3666.0
132,choice,choice,18,3.0,Solid,1.0,16.09098062501289,Object_Land_Pattern_Large,0,0,18553843.0,18554072.0,229.0
132,choice,choice,18,3.0,Solid,1.0,16.09098062501289,Object_Sea_Solid_Small,1,1,18554093.0,18554323.0,230.0
132,choice,choice,18,3.0,Solid,1.0,16.09098062501289,Object_Sea_Solid_Large,5,1,18554497.0,18554928.0,431.0
132,choice,choice,18,3.0,Solid,1.0,16.09098062501289,Object_Land_Pattern_Large,0,0,18555274.0,18555562.0,288.0
132,choice,choice,18,3.0,Solid,1.0,16.09098062501289,Animal_Sea_Solid_Small,3,1,18555585.0,18556031.0,446.0
132,choice,choice,18,3.0,Solid,1.0,16.09098062501289,Animal_Land_Pattern_Large,4,0,18556156.0,18556363.0,207.0
132,choice,choice,19,3.0,Animal,2.0,28.38345929098432,Animal_Land_Pattern_Large,4,1,18559989.0,18561037.0,1048.0
132,choice,choice,19,3.0,Animal,2.0,28.38345929098432,Object_Land_Pattern_Large,0,0,18561491.0,18561981.0,490.0
132,choice,choice,19,3.0,Animal,2.0,28.38345929098432,Animal_Sea_Solid_Small,3,1,18562208.0,18562987.0,779.0
132,choice,choice,19,3.0,Animal,2.0,28.38345929098432,Object_Land_Pattern_Large,0,0,18564387.0,18564594.0,207.0
132,choice,choice,19,3.0,Animal,2.0,28.38345929098432,Animal_Land_Pattern_Small,2,1,18565586.0,18567386.0,1800.0
132,choice,choice,19,3.0,Animal,2.0,28.38345929098432,Object_Sea_Solid_Small,1,0,18567996.0,18568257.0,261.0
132,choice,choice,19,3.0,Animal,2.0,28.38345929098432,Animal_Land_Pattern_Small,2,1,18568605.0,18573965.0,5360.0
132,choice,choice,19,3.0,Animal,2.0,28.38345929098432,Object_Sea_Solid_Small,1,0,18574931.0,18575598.0,667.0
132,choice,choice,19,3.0,Animal,2.0,28.38345929098432,Object_Land_Pattern_Large,0,0,18575741.0,18577730.0,1989.0
132,choice,choice,19,3.0,Animal,2.0,28.38345929098432,Object_Sea_Solid_Small,1,0,18578127.0,18578918.0,791.0
132,choice,choice,19,3.0,Animal,2.0,28.38345929098432,Animal_Land_Pattern_Small,2,1,18579115.0,18579583.0,468.0
132,choice,choice,19,3.0,Animal,2.0,28.38345929098432,Animal_Sea_Solid_Small,3,1,18579604.0,18580598.0,994.0
132,choice,choice,19,3.0,Animal,2.0,28.38345929098432,Animal_Land_Pattern_Large,4,1,18580759.0,18581232.0,473.0
132,choice,choice,19,3.0,Animal,2.0,28.38345929098432,Object_Sea_Solid_Large,5,0,18581410.0,18581960.0,550.0
132,choice,choice,19,3.0,Animal,2.0,28.38345929098432,Animal_Sea_Solid_Small,3,1,18582128.0,18583032.0,904.0
132,choice,choice,19,3.0,Animal,2.0,28.38345929098432,Animal_Land_Pattern_Large,4,1,18583182.0,18583302.0,120.0
132,choice,choice,19,3.0,Animal,2.0,28.38345929098432,Animal_Sea_Solid_Small,3,1,18583439.0,18583610.0,171.0
132,choice,choice,19,3.0,Animal,2.0,28.38345929098432,Animal_Land_Pattern_Large,4,1,18583772.0,18583915.0,143.0
132,choice,choice,19,3.0,Animal,2.0,28.38345929098432,Animal_Sea_Solid_Small,3,1,18584128.0,18585984.0,1856.0
132,choice,choice,19,3.0,Animal,2.0,28.38345929098432,Animal_Land_Pattern_Large,4,1,18587350.0,18587566.0,216.0
132,choice,choice,20,3.0,Pattern,1.0,9.482162750005957,Object_Land_Pattern_Large,0,1,18591708.0,18594556.0,2848.0
132,choice,choice,20,3.0,Pattern,1.0,9.482162750005957,Object_Sea_Solid_Large,5,0,18595886.0,18596742.0,856.0
132,choice,choice,20,3.0,Pattern,1.0,9.482162750005957,Object_Land_Pattern_Large,0,1,18596772.0,18597883.0,1111.0
132,choice,choice,20,3.0,Pattern,1.0,9.482162750005957,Object_Sea_Solid_Large,5,0,18598329.0,18600208.0,1879.0
132,choice,choice,20,3.0,Pattern,1.0,9.482162750005957,Object_Land_Pattern_Large,0,1,18600398.0,18600839.0,441.0
132,choice,choice,21,3.0,Sea,1.0,12.69597179099219,Object_Land_Pattern_Large,0,0,18605336.0,18606244.0,908.0
132,choice,choice,21,3.0,Sea,1.0,12.69597179099219,Object_Sea_Solid_Small,1,1,18606567.0,18607142.0,575.0
132,choice,choice,21,3.0,Sea,1.0,12.69597179099219,Object_Land_Pattern_Large,0,0,18607157.0,18607612.0,455.0
132,choice,choice,21,3.0,Sea,1.0,12.69597179099219,Object_Sea_Solid_Small,1,1,18607980.0,18609709.0,1729.0
132,choice,choice,21,3.0,Sea,1.0,12.69597179099219,Object_Land_Pattern_Large,0,0,18610045.0,18610602.0,557.0
132,choice,choice,21,3.0,Sea,1.0,12.69597179099219,Animal_Land_Pattern_Large,4,0,18610983.0,18611347.0,364.0
132,choice,choice,21,3.0,Sea,1.0,12.69597179099219,Object_Sea_Solid_Large,5,1,18611521.0,18611822.0,301.0
132,choice,choice,21,3.0,Sea,1.0,12.69597179099219,Animal_Land_Pattern_Large,4,0,18611856.0,18612129.0,273.0
132,choice,choice,21,3.0,Sea,1.0,12.69597179099219,Object_Sea_Solid_Small,1,1,18612284.0,18613319.0,1035.0
132,choice,choice,21,3.0,Sea,1.0,12.69597179099219,Animal_Sea_Solid_Small,3,1,18613411.0,18614057.0,646.0
132,choice,choice,21,3.0,Sea,1.0,12.69597179099219,Animal_Land_Pattern_Small,2,0,18614124.0,18616652.0,2528.0
132,choice,choice,22,3.0,Large,2.0,9.847776374983368,Object_Land_Pattern_Large,0,1,18620739.0,18623586.0,2847.0
132,choice,choice,22,3.0,Large,2.0,9.847776374983368,Object_Sea_Solid_Small,1,0,18623780.0,18624473.0,693.0
132,choice,choice,22,3.0,Large,2.0,9.847776374983368,Object_Land_Pattern_Large,0,1,18624689.0,18627568.0,2879.0
132,choice,choice,22,3.0,Large,2.0,9.847776374983368,Animal_Land_Pattern_Large,4,1,18627936.0,18628092.0,156.0
132,choice,choice,22,3.0,Large,2.0,9.847776374983368,Object_Sea_Solid_Small,1,0,18628320.0,18629852.0,1532.0
132,choice,choice,23,3.0,Land,1.0,35.471669750026194,Object_Land_Pattern_Large,0,1,18634526.0,18638919.0,4393.0
132,choice,choice,23,3.0,Land,1.0,35.471669750026194,Animal_Land_Pattern_Small,2,1,18639775.0,18639987.0,212.0
132,choice,choice,23,3.0,Land,1.0,35.471669750026194,Animal_Sea_Solid_Small,3,0,18640159.0,18640710.0,551.0
132,choice,choice,23,3.0,Land,1.0,35.471669750026194,Animal_Land_Pattern_Large,4,1,18640733.0,18641104.0,371.0
132,choice,choice,23,3.0,Land,1.0,35.471669750026194,Animal_Land_Pattern_Small,2,1,18641293.0,18642406.0,1113.0
132,choice,choice,23,3.0,Land,1.0,35.471669750026194,Animal_Sea_Solid_Small,3,0,18642412.0,18643285.0,873.0
132,choice,choice,23,3.0,Land,1.0,35.471669750026194,Animal_Land_Pattern_Small,2,1,18643440.0,18643624.0,184.0
132,choice,choice,23,3.0,Land,1.0,35.471669750026194,Animal_Sea_Solid_Small,3,0,18643644.0,18644629.0,985.0
132,choice,choice,23,3.0,Land,1.0,35.471669750026194,Animal_Land_Pattern_Small,2,1,18644793.0,18644995.0,202.0
132,choice,choice,23,3.0,Land,1.0,35.471669750026194,Animal_Sea_Solid_Small,3,0,18645009.0,18645767.0,758.0
132,choice,choice,23,3.0,Land,1.0,35.471669750026194,Animal_Land_Pattern_Small,2,1,18645914.0,18645957.0,43.0
132,choice,choice,23,3.0,Land,1.0,35.471669750026194,Object_Sea_Solid_Small,1,0,18646145.0,18646244.0,99.0
132,choice,choice,23,3.0,Land,1.0,35.471669750026194,Animal_Sea_Solid_Small,3,0,18646773.0,18647001.0,228.0
132,choice,choice,23,3.0,Land,1.0,35.471669750026194,Object_Land_Pattern_Large,0,1,18647599.0,18647668.0,69.0
132,choice,choice,23,3.0,Land,1.0,35.471669750026194,Object_Sea_Solid_Small,1,0,18647967.0,18648509.0,542.0
132,choice,choice,23,3.0,Land,1.0,35.471669750026194,Object_Land_Pattern_Large,0,1,18648602.0,18653656.0,5054.0
132,choice,choice,23,3.0,Land,1.0,35.471669750026194,Object_Sea_Solid_Small,1,0,18654683.0,18655796.0,1113.0
132,choice,choice,23,3.0,Land,1.0,35.471669750026194,Animal_Land_Pattern_Small,2,1,18655933.0,18656161.0,228.0
132,choice,choice,23,3.0,Land,1.0,35.471669750026194,Object_Sea_Solid_Small,1,0,18656402.0,18657231.0,829.0
132,choice,choice,23,3.0,Land,1.0,35.471669750026194,Animal_Land_Pattern_Small,2,1,18657539.0,18657975.0,436.0
132,choice,choice,23,3.0,Land,1.0,35.471669750026194,Object_Sea_Solid_Small,1,0,18658150.0,18658503.0,353.0
132,choice,choice,23,3.0,Land,1.0,35.471669750026194,Object_Land_Pattern_Large,0,1,18658802.0,18659343.0,541.0
132,choice,choice,23,3.0,Land,1.0,35.471669750026194,Object_Sea_Solid_Small,1,0,18659737.0,18659817.0,80.0
132,choice,choice,23,3.0,Land,1.0,35.471669750026194,Object_Land_Pattern_Large,0,1,18659925.0,18660611.0,686.0
132,choice,choice,23,3.0,Land,1.0,35.471669750026194,Animal_Land_Pattern_Small,2,1,18660749.0,18661311.0,562.0
132,choice,choice,23,3.0,Land,1.0,35.471669750026194,Animal_Sea_Solid_Small,3,0,18661476.0,18664049.0,2573.0
132,choice,choice,23,3.0,Land,1.0,35.471669750026194,Animal_Land_Pattern_Large,4,1,18664287.0,18664849.0,562.0
132,choice,choice,23,3.0,Land,1.0,35.471669750026194,Object_Land_Pattern_Large,0,1,18665011.0,18665178.0,167.0
132,choice,choice,23,3.0,Land,1.0,35.471669750026194,Object_Sea_Solid_Large,5,0,18665205.0,18665619.0,414.0
132,choice,choice,23,3.0,Land,1.0,35.471669750026194,Object_Land_Pattern_Large,0,1,18665662.0,18666185.0,523.0
132,choice,choice,23,3.0,Land,1.0,35.471669750026194,Object_Sea_Solid_Small,1,0,18666222.0,18666366.0,144.0
132,choice,choice,23,3.0,Land,1.0,35.471669750026194,Animal_Land_Pattern_Small,2,1,18666396.0,18667211.0,815.0
132,choice,choice,23,3.0,Land,1.0,35.471669750026194,Animal_Land_Pattern_Large,4,1,18667590.0,18668828.0,1238.0
132,choice,choice,23,3.0,Land,1.0,35.471669750026194,Object_Sea_Solid_Large,5,0,18669077.0,18669429.0,352.0
132,choice,choice,23,3.0,Land,1.0,35.471669750026194,Animal_Land_Pattern_Large,4,1,18669482.0,18669512.0,30.0
132,choice,choice,24,3.0,Small,1.0,6.106237540981965,Animal_Land_Pattern_Small,2,1,18673022.0,18677210.0,4188.0
132,choice,choice,24,3.0,Small,1.0,6.106237540981965,Animal_Sea_Solid_Small,3,1,18678173.0,18678672.0,499.0
132,choice,choice,25,4.0,Animal,1.0,2.6965997500228696,Object_Sea_Pattern_Small,0,0,18977817.0,18978341.0,524.0
132,choice,choice,25,4.0,Animal,1.0,2.6965997500228696,Animal_Land_Solid_Large,1,1,18978362.0,18978764.0,402.0
132,choice,choice,25,4.0,Animal,1.0,2.6965997500228696,Object_Sea_Pattern_Small,0,0,18978916.0,18979377.0,461.0
132,choice,choice,25,4.0,Animal,1.0,2.6965997500228696,Object_Land_Solid_Small,2,0,18979599.0,18980000.0,401.0
132,choice,choice,26,4.0,Land,1.0,1.334649458003696,Object_Sea_Pattern_Small,0,0,18983344.0,18983514.0,170.0
132,choice,choice,26,4.0,Land,1.0,1.334649458003696,Animal_Land_Solid_Large,1,1,18983690.0,18983802.0,112.0
132,choice,choice,26,4.0,Land,1.0,1.334649458003696,Object_Sea_Pattern_Small,0,0,18983969.0,18984488.0,519.0
132,choice,choice,27,4.0,Sea,1.0,3.942158749996452,Object_Sea_Pattern_Small,0,1,18987783.0,18988807.0,1024.0
132,choice,choice,27,4.0,Sea,1.0,3.942158749996452,Animal_Sea_Pattern_Large,3,1,18989875.0,18990878.0,1003.0
132,choice,choice,27,4.0,Sea,1.0,3.942158749996452,Animal_Sea_Pattern_Small,4,1,18991245.0,18991383.0,138.0
132,choice,choice,28,4.0,Object,2.0,5.285833875008393,Animal_Land_Solid_Large,1,0,18994340.0,18994564.0,224.0
132,choice,choice,28,4.0,Object,2.0,5.285833875008393,Object_Sea_Pattern_Small,0,1,18994710.0,18994849.0,139.0
132,choice,choice,28,4.0,Object,2.0,5.285833875008393,Animal_Land_Solid_Large,1,0,18994987.0,18995189.0,202.0
132,choice,choice,28,4.0,Object,2.0,5.285833875008393,Object_Sea_Pattern_Small,0,1,18995324.0,18997825.0,2501.0
132,choice,choice,28,4.0,Object,2.0,5.285833875008393,Object_Land_Solid_Large,5,1,18998517.0,18999074.0,557.0
132,choice,choice,29,4.0,Small,2.0,11.481193083978724,Object_Sea_Pattern_Small,0,1,19002757.0,19004118.0,1361.0
132,choice,choice,29,4.0,Small,2.0,11.481193083978724,Animal_Land_Solid_Large,1,0,19004733.0,19005078.0,345.0
132,choice,choice,29,4.0,Small,2.0,11.481193083978724,Animal_Sea_Pattern_Small,4,1,19005301.0,19008270.0,2969.0
132,choice,choice,29,4.0,Small,2.0,11.481193083978724,Object_Land_Solid_Large,5,0,19008912.0,19009532.0,620.0
132,choice,choice,29,4.0,Small,2.0,11.481193083978724,Object_Land_Solid_Small,2,1,19009880.0,19010653.0,773.0
132,choice,choice,29,4.0,Small,2.0,11.481193083978724,Animal_Sea_Pattern_Large,3,0,19011064.0,19011465.0,401.0
132,choice,choice,29,4.0,Small,2.0,11.481193083978724,Object_Land_Solid_Small,2,1,19011688.0,19012728.0,1040.0
132,choice,choice,29,4.0,Small,2.0,11.481193083978724,Animal_Sea_Pattern_Large,3,0,19012767.0,19013255.0,488.0
132,choice,choice,30,4.0,Large,1.0,3.207803666999098,Object_Sea_Pattern_Small,0,0,19016415.0,19016796.0,381.0
132,choice,choice,30,4.0,Large,1.0,3.207803666999098,Object_Land_Solid_Large,5,1,19017127.0,19017821.0,694.0
132,choice,choice,30,4.0,Large,1.0,3.207803666999098,Animal_Land_Solid_Large,1,1,19018510.0,19018947.0,437.0
132,choice,choice,30,4.0,Large,1.0,3.207803666999098,Animal_Sea_Pattern_Large,3,1,19019163.0,19019265.0,102.0
132,choice,choice,31,4.0,Solid,1.0,6.922672957996838,Animal_Land_Solid_Large,1,1,19023139.0,19024567.0,1428.0
132,choice,choice,31,4.0,Solid,1.0,6.922672957996838,Object_Sea_Pattern_Small,0,0,19025333.0,19025507.0,174.0
132,choice,choice,31,4.0,Solid,1.0,6.922672957996838,Object_Land_Solid_Large,5,1,19025697.0,19026472.0,775.0
132,choice,choice,31,4.0,Solid,1.0,6.922672957996838,Animal_Land_Solid_Large,1,1,19027165.0,19028309.0,1144.0
132,choice,choice,31,4.0,Solid,1.0,6.922672957996838,Object_Sea_Pattern_Small,0,0,19028675.0,19028713.0,38.0
132,choice,choice,31,4.0,Solid,1.0,6.922672957996838,Object_Land_Solid_Small,2,1,19028773.0,19029300.0,527.0
132,choice,choice,32,4.0,Pattern,1.0,2.8964211250131484,Object_Sea_Pattern_Small,0,1,19033136.0,19035483.0,2347.0
132,choice,choice,33,5.0,Land,1.0,25.05965749997995,Animal_Land_Solid_Small,0,1,19570581.0,19574929.0,4348.0
132,choice,choice,33,5.0,Land,1.0,25.05965749997995,Object_Sea_Pattern_Large,1,0,19575707.0,19575740.0,33.0
132,choice,choice,33,5.0,Land,1.0,25.05965749997995,Animal_Sea_Solid_Large,2,0,19575913.0,19575983.0,70.0
132,choice,choice,33,5.0,Land,1.0,25.05965749997995,Object_Land_Pattern_Small,3,1,19576115.0,19577160.0,1045.0
132,choice,choice,33,5.0,Land,1.0,25.05965749997995,Animal_Land_Solid_Small,0,1,19577321.0,19577865.0,544.0
132,choice,choice,33,5.0,Land,1.0,25.05965749997995,Object_Land_Pattern_Small,3,1,19577916.0,19578570.0,654.0
132,choice,choice,33,5.0,Land,1.0,25.05965749997995,Animal_Land_Solid_Small,0,1,19578669.0,19580148.0,1479.0
132,choice,choice,33,5.0,Land,1.0,25.05965749997995,Object_Sea_Pattern_Large,1,0,19580677.0,19581013.0,336.0
132,choice,choice,33,5.0,Land,1.0,25.05965749997995,Animal_Land_Solid_Small,0,1,19581037.0,19581600.0,563.0
132,choice,choice,33,5.0,Land,1.0,25.05965749997995,Object_Sea_Pattern_Large,1,0,19581623.0,19582453.0,830.0
132,choice,choice,33,5.0,Land,1.0,25.05965749997995,Object_Land_Pattern_Small,3,1,19582751.0,19583489.0,738.0
132,choice,choice,33,5.0,Land,1.0,25.05965749997995,Animal_Sea_Solid_Large,2,0,19583643.0,19585031.0,1388.0
132,choice,choice,33,5.0,Land,1.0,25.05965749997995,Object_Land_Solid_Small,4,1,19585269.0,19585985.0,716.0
132,choice,choice,33,5.0,Land,1.0,25.05965749997995,Animal_Sea_Pattern_Large,5,0,19586108.0,19587728.0,1620.0
132,choice,choice,33,5.0,Land,1.0,25.05965749997995,Animal_Land_Solid_Small,0,1,19588061.0,19588464.0,403.0
132,choice,choice,33,5.0,Land,1.0,25.05965749997995,Animal_Sea_Pattern_Large,5,0,19588685.0,19588974.0,289.0
132,choice,choice,33,5.0,Land,1.0,25.05965749997995,Object_Land_Solid_Small,4,1,19589024.0,19590119.0,1095.0
132,choice,choice,33,5.0,Land,1.0,25.05965749997995,Animal_Land_Solid_Small,0,1,19590375.0,19591638.0,1263.0
132,choice,choice,33,5.0,Land,1.0,25.05965749997995,Object_Land_Pattern_Small,3,1,19591693.0,19591785.0,92.0
132,choice,choice,33,5.0,Land,1.0,25.05965749997995,Object_Sea_Pattern_Large,1,0,19591883.0,19591947.0,64.0
132,choice,choice,33,5.0,Land,1.0,25.05965749997995,Animal_Land_Solid_Small,0,1,19592084.0,19592621.0,537.0
132,choice,choice,33,5.0,Land,1.0,25.05965749997995,Object_Sea_Pattern_Large,1,0,19593390.0,19593487.0,97.0
132,choice,choice,33,5.0,Land,1.0,25.05965749997995,Object_Land_Pattern_Small,3,1,19593501.0,19594457.0,956.0
132,choice,choice,33,5.0,Land,1.0,25.05965749997995,Object_Land_Solid_Small,4,1,19594556.0,19594767.0,211.0
132,choice,choice,34,5.0,Sea,1.0,4.120444083993789,Object_Sea_Pattern_Large,1,1,19598307.0,19600155.0,1848.0
132,choice,choice,34,5.0,Sea,1.0,4.120444083993789,Object_Land_Pattern_Small,3,0,19601061.0,19601535.0,474.0
132,choice,choice,34,5.0,Sea,1.0,4.120444083993789,Animal_Sea_Pattern_Large,5,1,19601563.0,19602208.0,645.0
132,choice,choice,35,5.0,Pattern,1.0,7.59774466700037,Animal_Land_Solid_Small,0,0,19606026.0,19606365.0,339.0
132,choice,choice,35,5.0,Pattern,1.0,7.59774466700037,Object_Sea_Pattern_Large,1,1,19606455.0,19610107.0,3652.0
132,choice,choice,35,5.0,Pattern,1.0,7.59774466700037,Object_Land_Pattern_Small,3,1,19610795.0,19611006.0,211.0
132,choice,choice,35,5.0,Pattern,1.0,7.59774466700037,Animal_Sea_Solid_Large,2,0,19611293.0,19612537.0,1244.0
132,choice,choice,35,5.0,Pattern,1.0,7.59774466700037,Animal_Sea_Pattern_Large,5,1,19612751.0,19613358.0,607.0
132,choice,choice,36,5.0,Animal,1.0,10.998688666993983,Animal_Land_Solid_Small,0,1,19616954.0,19622355.0,5401.0
132,choice,choice,36,5.0,Animal,1.0,10.998688666993983,Object_Sea_Pattern_Large,1,0,19622996.0,19623358.0,362.0
132,choice,choice,36,5.0,Animal,1.0,10.998688666993983,Animal_Land_Solid_Small,0,1,19623381.0,19623667.0,286.0
132,choice,choice,36,5.0,Animal,1.0,10.998688666993983,Object_Sea_Pattern_Large,1,0,19623728.0,19623906.0,178.0
132,choice,choice,36,5.0,Animal,1.0,10.998688666993983,Object_Land_Pattern_Small,3,0,19623938.0,19624352.0,414.0
132,choice,choice,36,5.0,Animal,1.0,10.998688666993983,Animal_Sea_Solid_Large,2,1,19624472.0,19626421.0,1949.0
132,choice,choice,36,5.0,Animal,1.0,10.998688666993983,Object_Land_Solid_Small,4,0,19626722.0,19627115.0,393.0
132,choice,choice,36,5.0,Animal,1.0,10.998688666993983,Animal_Sea_Pattern_Large,5,1,19627159.0,19627659.0,500.0
132,choice,choice,37,5.0,Object,2.0,6.0254707080021035,Animal_Land_Solid_Small,0,0,19630243.0,19631007.0,764.0
132,choice,choice,37,5.0,Object,2.0,6.0254707080021035,Object_Sea_Pattern_Large,1,1,19631162.0,19631883.0,721.0
132,choice,choice,37,5.0,Object,2.0,6.0254707080021035,Object_Land_Pattern_Small,3,1,19632074.0,19632504.0,430.0
132,choice,choice,37,5.0,Object,2.0,6.0254707080021035,Animal_Sea_Solid_Large,2,0,19632681.0,19634280.0,1599.0
132,choice,choice,37,5.0,Object,2.0,6.0254707080021035,Object_Land_Solid_Small,4,1,19634705.0,19635464.0,759.0
132,choice,choice,37,5.0,Object,2.0,6.0254707080021035,Animal_Sea_Pattern_Large,5,0,19635784.0,19636235.0,451.0
132,choice,choice,38,5.0,Large,1.0,5.091693750000559,Animal_Land_Solid_Small,0,0,19640264.0,19640592.0,328.0
132,choice,choice,38,5.0,Large,1.0,5.091693750000559,Object_Sea_Pattern_Large,1,1,19640614.0,19642142.0,1528.0
132,choice,choice,38,5.0,Large,1.0,5.091693750000559,Object_Land_Pattern_Small,3,0,19642530.0,19643099.0,569.0
132,choice,choice,38,5.0,Large,1.0,5.091693750000559,Animal_Sea_Solid_Large,2,1,19643226.0,19644627.0,1401.0
132,choice,choice,39,5.0,Small,2.0,5.403661124990322,Animal_Land_Solid_Small,0,1,19647679.0,19648928.0,1249.0
132,choice,choice,39,5.0,Small,2.0,5.403661124990322,Object_Sea_Pattern_Large,1,0,19649048.0,19649924.0,876.0
132,choice,choice,39,5.0,Small,2.0,5.403661124990322,Object_Land_Pattern_Small,3,1,19650093.0,19650182.0,89.0
132,choice,choice,39,5.0,Small,2.0,5.403661124990322,Animal_Sea_Solid_Large,2,0,19650340.0,19651068.0,728.0
132,choice,choice,39,5.0,Small,2.0,5.403661124990322,Object_Land_Solid_Small,4,1,19651216.0,19652855.0,1639.0
132,choice,choice,40,5.0,Solid,1.0,31.060880125005497,Animal_Land_Solid_Small,0,1,19656743.0,19657700.0,957.0
132,choice,choice,40,5.0,Solid,1.0,31.060880125005497,Animal_Sea_Solid_Large,2,1,19657897.0,19658966.0,1069.0
132,choice,choice,40,5.0,Solid,1.0,31.060880125005497,Object_Land_Solid_Small,4,1,19659167.0,19659719.0,552.0
132,choice,choice,40,5.0,Solid,1.0,31.060880125005497,Animal_Land_Solid_Small,0,1,19659758.0,19659980.0,222.0
132,choice,choice,40,5.0,Solid,1.0,31.060880125005497,Animal_Sea_Solid_Large,2,1,19660106.0,19660511.0,405.0
132,choice,choice,40,5.0,Solid,1.0,31.060880125005497,Object_Land_Solid_Small,4,1,19660697.0,19662345.0,1648.0
132,choice,choice,40,5.0,Solid,1.0,31.060880125005497,Animal_Sea_Pattern_Large,5,0,19662895.0,19662949.0,54.0
132,choice,choice,40,5.0,Solid,1.0,31.060880125005497,Animal_Land_Solid_Small,0,1,19662973.0,19666803.0,3830.0
132,choice,choice,40,5.0,Solid,1.0,31.060880125005497,Object_Sea_Pattern_Large,1,0,19667875.0,19668361.0,486.0
132,choice,choice,40,5.0,Solid,1.0,31.060880125005497,Object_Land_Pattern_Small,3,0,19668545.0,19669446.0,901.0
132,choice,choice,40,5.0,Solid,1.0,31.060880125005497,Animal_Land_Solid_Small,0,1,19669691.0,19670294.0,603.0
132,choice,choice,40,5.0,Solid,1.0,31.060880125005497,Object_Sea_Pattern_Large,1,0,19670321.0,19670710.0,389.0
132,choice,choice,40,5.0,Solid,1.0,31.060880125005497,Object_Land_Pattern_Small,3,0,19670971.0,19672072.0,1101.0
132,choice,choice,40,5.0,Solid,1.0,31.060880125005497,Object_Sea_Pattern_Large,1,0,19673477.0,19673604.0,127.0
132,choice,choice,40,5.0,Solid,1.0,31.060880125005497,Animal_Land_Solid_Small,0,1,19673832.0,19676455.0,2623.0
132,choice,choice,40,5.0,Solid,1.0,31.060880125005497,Object_Sea_Pattern_Large,1,0,19676795.0,19677337.0,542.0
132,choice,choice,40,5.0,Solid,1.0,31.060880125005497,Object_Land_Pattern_Small,3,0,19677555.0,19677999.0,444.0
132,choice,choice,40,5.0,Solid,1.0,31.060880125005497,Animal_Sea_Solid_Large,2,1,19678166.0,19678204.0,38.0
132,choice,choice,40,5.0,Solid,1.0,31.060880125005497,Object_Land_Solid_Small,4,1,19678379.0,19679237.0,858.0
132,choice,choice,40,5.0,Solid,1.0,31.060880125005497,Animal_Sea_Pattern_Large,5,0,19679361.0,19681037.0,1676.0
132,choice,choice,40,5.0,Solid,1.0,31.060880125005497,Animal_Land_Solid_Small,0,1,19681368.0,19683963.0,2595.0
132,choice,choice,40,5.0,Solid,1.0,31.060880125005497,Object_Land_Solid_Small,4,1,19684265.0,19685809.0,1544.0
132,choice,choice,40,5.0,Solid,1.0,31.060880125005497,Object_Land_Pattern_Small,3,0,19686160.0,19686920.0,760.0
132,choice,choice,41,6.0,Small,2.0,33.15596095798537,Object_Land_Pattern_Large,0,0,19936128.0,19936198.0,70.0
132,choice,choice,41,6.0,Small,2.0,33.15596095798537,Animal_Land_Pattern_Small,1,1,19936458.0,19936515.0,57.0
132,choice,choice,41,6.0,Small,2.0,33.15596095798537,Object_Land_Pattern_Large,0,0,19936642.0,19939207.0,2565.0
132,choice,choice,41,6.0,Small,2.0,33.15596095798537,Animal_Sea_Solid_Small,2,1,19939535.0,19940568.0,1033.0
132,choice,choice,41,6.0,Small,2.0,33.15596095798537,Object_Sea_Solid_Small,3,1,19940935.0,19943164.0,2229.0
132,choice,choice,41,6.0,Small,2.0,33.15596095798537,Animal_Land_Pattern_Small,1,1,19943544.0,19945563.0,2019.0
132,choice,choice,41,6.0,Small,2.0,33.15596095798537,Object_Sea_Solid_Large,4,0,19945716.0,19947382.0,1666.0
132,choice,choice,41,6.0,Small,2.0,33.15596095798537,Object_Land_Pattern_Large,0,0,19947641.0,19948992.0,1351.0
132,choice,choice,41,6.0,Small,2.0,33.15596095798537,Object_Sea_Solid_Small,3,1,19949270.0,19949724.0,454.0
132,choice,choice,41,6.0,Small,2.0,33.15596095798537,Animal_Land_Pattern_Small,1,1,19949771.0,19950234.0,463.0
132,choice,choice,41,6.0,Small,2.0,33.15596095798537,Animal_Sea_Solid_Small,2,1,19950253.0,19951224.0,971.0
132,choice,choice,41,6.0,Small,2.0,33.15596095798537,Animal_Land_Pattern_Large,5,0,19951394.0,19952314.0,920.0
132,choice,choice,41,6.0,Small,2.0,33.15596095798537,Object_Sea_Solid_Large,4,0,19952561.0,19954467.0,1906.0
132,choice,choice,41,6.0,Small,2.0,33.15596095798537,Object_Land_Pattern_Large,0,0,19954804.0,19957827.0,3023.0
132,choice,choice,41,6.0,Small,2.0,33.15596095798537,Object_Sea_Solid_Small,3,1,19958195.0,19958951.0,756.0
132,choice,choice,41,6.0,Small,2.0,33.15596095798537,Animal_Land_Pattern_Small,1,1,19958990.0,19959442.0,452.0
132,choice,choice,41,6.0,Small,2.0,33.15596095798537,Animal_Sea_Solid_Small,2,1,19959592.0,19964304.0,4712.0
132,choice,choice,41,6.0,Small,2.0,33.15596095798537,Animal_Land_Pattern_Large,5,0,19965860.0,19966092.0,232.0
132,choice,choice,41,6.0,Small,2.0,33.15596095798537,Object_Sea_Solid_Large,4,0,19966259.0,19966687.0,428.0
132,choice,choice,41,6.0,Small,2.0,33.15596095798537,Animal_Land_Pattern_Large,5,0,19966818.0,19966896.0,78.0
132,choice,choice,41,6.0,Small,2.0,33.15596095798537,Animal_Sea_Solid_Small,2,1,19967096.0,19967772.0,676.0
132,choice,choice,41,6.0,Small,2.0,33.15596095798537,Animal_Land_Pattern_Large,5,0,19967974.0,19968653.0,679.0
132,choice,choice,42,6.0,Solid,1.0,13.264404624991585,Object_Land_Pattern_Large,0,0,19972625.0,19973488.0,863.0
132,choice,choice,42,6.0,Solid,1.0,13.264404624991585,Object_Sea_Solid_Small,3,1,19973593.0,19974661.0,1068.0
132,choice,choice,42,6.0,Solid,1.0,13.264404624991585,Animal_Sea_Solid_Small,2,1,19974831.0,19975126.0,295.0
132,choice,choice,42,6.0,Solid,1.0,13.264404624991585,Animal_Land_Pattern_Small,1,0,19975165.0,19976579.0,1414.0
132,choice,choice,42,6.0,Solid,1.0,13.264404624991585,Animal_Sea_Solid_Small,2,1,19977134.0,19978039.0,905.0
132,choice,choice,42,6.0,Solid,1.0,13.264404624991585,Animal_Land_Pattern_Large,5,0,19978395.0,19979432.0,1037.0
132,choice,choice,42,6.0,Solid,1.0,13.264404624991585,Object_Sea_Solid_Large,4,1,19979560.0,19981179.0,1619.0
132,choice,choice,42,6.0,Solid,1.0,13.264404624991585,Animal_Land_Pattern_Large,5,0,19981692.0,19983010.0,1318.0
132,choice,choice,42,6.0,Solid,1.0,13.264404624991585,Object_Sea_Solid_Large,4,1,19983427.0,19984618.0,1191.0
132,choice,choice,42,6.0,Solid,1.0,13.264404624991585,Object_Sea_Solid_Small,3,1,19984781.0,19985029.0,248.0
132,choice,choice,42,6.0,Solid,1.0,13.264404624991585,Animal_Sea_Solid_Small,2,1,19985070.0,19985350.0,280.0
132,choice,choice,42,6.0,Solid,1.0,13.264404624991585,Object_Sea_Solid_Large,4,1,19985385.0,19985650.0,265.0
132,choice,choice,43,6.0,Object,2.0,6.064686500001699,Object_Land_Pattern_Large,0,1,19988822.0,19993052.0,4230.0
132,choice,choice,44,6.0,Sea,2.0,6.409851917007472,Object_Land_Pattern_Large,0,0,19997656.0,19997907.0,251.0
132,choice,choice,44,6.0,Sea,2.0,6.409851917007472,Object_Sea_Solid_Small,3,1,19998030.0,19998223.0,193.0
132,choice,choice,44,6.0,Sea,2.0,6.409851917007472,Object_Land_Pattern_Large,0,0,19998353.0,19998761.0,408.0
132,choice,choice,44,6.0,Sea,2.0,6.409851917007472,Object_Sea_Solid_Small,3,1,19998798.0,19999466.0,668.0
132,choice,choice,44,6.0,Sea,2.0,6.409851917007472,Animal_Land_Pattern_Small,1,0,19999835.0,20000576.0,741.0
132,choice,choice,44,6.0,Sea,2.0,6.409851917007472,Animal_Sea_Solid_Small,2,1,20000584.0,20001748.0,1164.0
132,choice,choice,44,6.0,Sea,2.0,6.409851917007472,Object_Sea_Solid_Large,4,1,20002011.0,20002359.0,348.0
132,choice,choice,44,6.0,Sea,2.0,6.409851917007472,Object_Sea_Solid_Small,3,1,20002532.0,20002969.0,437.0
132,choice,choice,44,6.0,Sea,2.0,6.409851917007472,Animal_Land_Pattern_Small,1,0,20002992.0,20003326.0,334.0
132,choice,choice,44,6.0,Sea,2.0,6.409851917007472,Animal_Sea_Solid_Small,2,1,20003355.0,20003726.0,371.0
132,choice,choice,45,6.0,Animal,2.0,5.4849960829888005,Object_Land_Pattern_Large,0,0,20007605.0,20007933.0,328.0
132,choice,choice,45,6.0,Animal,2.0,5.4849960829888005,Object_Sea_Solid_Small,3,0,20008168.0,20008866.0,698.0
132,choice,choice,45,6.0,Animal,2.0,5.4849960829888005,Animal_Land_Pattern_Small,1,1,20008887.0,20010795.0,1908.0
132,choice,choice,45,6.0,Animal,2.0,5.4849960829888005,Object_Sea_Solid_Large,4,0,20011142.0,20011706.0,564.0
132,choice,choice,45,6.0,Animal,2.0,5.4849960829888005,Animal_Land_Pattern_Large,5,1,20011881.0,20012763.0,882.0
132,choice,choice,46,6.0,Large,2.0,17.542188040999463,Object_Land_Pattern_Large,0,1,20015942.0,20017465.0,1523.0
132,choice,choice,46,6.0,Large,2.0,17.542188040999463,Object_Sea_Solid_Small,3,0,20017859.0,20018610.0,751.0
132,choice,choice,46,6.0,Large,2.0,17.542188040999463,Animal_Land_Pattern_Small,1,0,20018785.0,20019234.0,449.0
132,choice,choice,46,6.0,Large,2.0,17.542188040999463,Object_Land_Pattern_Large,0,1,20019278.0,20019909.0,631.0
132,choice,choice,46,6.0,Large,2.0,17.542188040999463,Object_Sea_Solid_Small,3,0,20020168.0,20020676.0,508.0
132,choice,choice,46,6.0,Large,2.0,17.542188040999463,Object_Land_Pattern_Large,0,1,20020697.0,20021539.0,842.0
132,choice,choice,46,6.0,Large,2.0,17.542188040999463,Object_Sea_Solid_Small,3,0,20021733.0,20022880.0,1147.0
132,choice,choice,46,6.0,Large,2.0,17.542188040999463,Animal_Sea_Solid_Small,2,0,20023148.0,20024276.0,1128.0
132,choice,choice,46,6.0,Large,2.0,17.542188040999463,Object_Land_Pattern_Large,0,1,20025015.0,20025417.0,402.0
132,choice,choice,46,6.0,Large,2.0,17.542188040999463,Object_Sea_Solid_Small,3,0,20025466.0,20025891.0,425.0
132,choice,choice,46,6.0,Large,2.0,17.542188040999463,Animal_Land_Pattern_Small,1,0,20025934.0,20026461.0,527.0
132,choice,choice,46,6.0,Large,2.0,17.542188040999463,Animal_Sea_Solid_Small,2,0,20026628.0,20029592.0,2964.0
132,choice,choice,46,6.0,Large,2.0,17.542188040999463,Animal_Land_Pattern_Large,5,1,20030322.0,20031875.0,1553.0
132,choice,choice,46,6.0,Large,2.0,17.542188040999463,Object_Sea_Solid_Large,4,1,20032142.0,20033196.0,1054.0
132,choice,choice,47,6.0,Pattern,1.0,6.844591166998725,Object_Land_Pattern_Large,0,1,20037339.0,20040475.0,3136.0
132,choice,choice,47,6.0,Pattern,1.0,6.844591166998725,Animal_Land_Pattern_Small,1,1,20041259.0,20041800.0,541.0
132,choice,choice,47,6.0,Pattern,1.0,6.844591166998725,Animal_Sea_Solid_Small,2,0,20041837.0,20042076.0,239.0
132,choice,choice,47,6.0,Pattern,1.0,6.844591166998725,Animal_Land_Pattern_Large,5,1,20042089.0,20042769.0,680.0
132,choice,choice,47,6.0,Pattern,1.0,6.844591166998725,Object_Sea_Solid_Large,4,0,20042931.0,20043006.0,75.0
132,choice,choice,48,6.0,Land,2.0,6.285946000018157,Object_Land_Pattern_Large,0,1,20045840.0,20047579.0,1739.0
132,choice,choice,48,6.0,Land,2.0,6.285946000018157,Animal_Land_Pattern_Small,1,1,20047822.0,20048511.0,689.0
132,choice,choice,48,6.0,Land,2.0,6.285946000018157,Object_Sea_Solid_Small,3,0,20048534.0,20048684.0,150.0
132,choice,choice,48,6.0,Land,2.0,6.285946000018157,Animal_Land_Pattern_Large,5,1,20048965.0,20049838.0,873.0
132,choice,choice,48,6.0,Land,2.0,6.285946000018157,Object_Sea_Solid_Large,4,0,20050164.0,20050507.0,343.0
132,choice,choice,48,6.0,Land,2.0,6.285946000018157,Animal_Land_Pattern_Small,1,1,20050537.0,20050956.0,419.0
132,choice,choice,48,6.0,Land,2.0,6.285946000018157,Object_Land_Pattern_Large,0,1,20051117.0,20051971.0,854.0
132,choice,choice,49,7.0,Sea,1.0,3.108064917003503,Object_Sea_Pattern_Small,0,1,20271225.0,20271865.0,640.0
132,choice,choice,49,7.0,Sea,1.0,3.108064917003503,Object_Land_Pattern_Small,1,0,20272211.0,20272359.0,148.0
132,choice,choice,49,7.0,Sea,1.0,3.108064917003503,Animal_Land_Solid_Large,2,0,20272485.0,20272784.0,299.0
132,choice,choice,49,7.0,Sea,1.0,3.108064917003503,Object_Sea_Pattern_Small,0,1,20273575.0,20274108.0,533.0
132,choice,choice,50,7.0,Solid,2.0,23.223796082980694,Object_Sea_Pattern_Small,0,0,20278461.0,20278827.0,366.0
132,choice,choice,50,7.0,Solid,2.0,23.223796082980694,Animal_Land_Solid_Large,2,1,20278988.0,20279766.0,778.0
132,choice,choice,50,7.0,Solid,2.0,23.223796082980694,Object_Sea_Pattern_Small,0,0,20279794.0,20280423.0,629.0
132,choice,choice,50,7.0,Solid,2.0,23.223796082980694,Animal_Land_Solid_Large,2,1,20280443.0,20281968.0,1525.0
132,choice,choice,50,7.0,Solid,2.0,23.223796082980694,Object_Land_Pattern_Small,1,0,20282663.0,20284120.0,1457.0
132,choice,choice,50,7.0,Solid,2.0,23.223796082980694,Object_Sea_Pattern_Small,0,0,20284348.0,20287736.0,3388.0
132,choice,choice,50,7.0,Solid,2.0,23.223796082980694,Animal_Land_Solid_Large,2,1,20288344.0,20289021.0,677.0
132,choice,choice,50,7.0,Solid,2.0,23.223796082980694,Object_Land_Pattern_Small,1,0,20289170.0,20290884.0,1714.0
132,choice,choice,50,7.0,Solid,2.0,23.223796082980694,Animal_Sea_Solid_Small,3,1,20291757.0,20295137.0,3380.0
132,choice,choice,50,7.0,Solid,2.0,23.223796082980694,Animal_Land_Pattern_Large,4,0,20296362.0,20297897.0,1535.0
132,choice,choice,50,7.0,Solid,2.0,23.223796082980694,Object_Sea_Solid_Large,5,1,20298377.0,20298786.0,409.0
132,choice,choice,50,7.0,Solid,2.0,23.223796082980694,Object_Sea_Pattern_Small,0,0,20299496.0,20299707.0,211.0
132,choice,choice,51,7.0,Small,1.0,2.5533233750029467,Animal_Land_Solid_Large,2,0,20303677.0,20305606.0,1929.0
132,choice,choice,52,7.0,Land,2.0,3.7534929169924,Object_Sea_Pattern_Small,0,0,20309873.0,20310375.0,502.0
132,choice,choice,52,7.0,Land,2.0,3.7534929169924,Animal_Land_Solid_Large,2,1,20310526.0,20310979.0,453.0
132,choice,choice,52,7.0,Land,2.0,3.7534929169924,Object_Sea_Pattern_Small,0,0,20311127.0,20311257.0,130.0
132,choice,choice,52,7.0,Land,2.0,3.7534929169924,Animal_Land_Solid_Large,2,1,20313196.0,20313265.0,69.0
132,choice,choice,53,7.0,Animal,1.0,7.70591637500911,Animal_Land_Solid_Large,2,1,20317166.0,20317488.0,322.0
132,choice,choice,53,7.0,Animal,1.0,7.70591637500911,Object_Sea_Pattern_Small,0,0,20317999.0,20319003.0,1004.0
132,choice,choice,53,7.0,Animal,1.0,7.70591637500911,Animal_Land_Solid_Large,2,1,20319531.0,20321149.0,1618.0
132,choice,choice,53,7.0,Animal,1.0,7.70591637500911,Animal_Sea_Solid_Small,3,1,20321813.0,20322582.0,769.0
132,choice,choice,53,7.0,Animal,1.0,7.70591637500911,Animal_Land_Pattern_Large,4,1,20322729.0,20324110.0,1381.0
132,choice,choice,54,7.0,Large,1.0,9.636099249997642,Object_Sea_Pattern_Small,0,0,20327656.0,20328346.0,690.0
132,choice,choice,54,7.0,Large,1.0,9.636099249997642,Animal_Land_Solid_Large,2,1,20328845.0,20329739.0,894.0
132,choice,choice,54,7.0,Large,1.0,9.636099249997642,Object_Sea_Pattern_Small,0,0,20330817.0,20331087.0,270.0
132,choice,choice,54,7.0,Large,1.0,9.636099249997642,Object_Sea_Solid_Large,5,1,20331112.0,20332709.0,1597.0
132,choice,choice,54,7.0,Large,1.0,9.636099249997642,Animal_Land_Pattern_Large,4,1,20333115.0,20333163.0,48.0
132,choice,choice,54,7.0,Large,1.0,9.636099249997642,Object_Sea_Solid_Large,5,1,20333627.0,20334167.0,540.0
132,choice,choice,54,7.0,Large,1.0,9.636099249997642,Object_Sea_Pattern_Small,0,0,20335195.0,20336026.0,831.0
132,choice,choice,54,7.0,Large,1.0,9.636099249997642,Object_Sea_Solid_Large,5,1,20336321.0,20336396.0,75.0
132,choice,choice,54,7.0,Large,1.0,9.636099249997642,Object_Sea_Pattern_Small,0,0,20336533.0,20337210.0,677.0
132,choice,choice,55,7.0,Object,1.0,9.244321125006536,Object_Sea_Pattern_Small,0,1,20340346.0,20341259.0,913.0
132,choice,choice,55,7.0,Object,1.0,9.244321125006536,Animal_Land_Solid_Large,2,0,20341410.0,20341741.0,331.0
132,choice,choice,55,7.0,Object,1.0,9.244321125006536,Object_Land_Pattern_Small,1,1,20341772.0,20341825.0,53.0
132,choice,choice,55,7.0,Object,1.0,9.244321125006536,Animal_Sea_Solid_Small,3,0,20341961.0,20345689.0,3728.0
132,choice,choice,55,7.0,Object,1.0,9.244321125006536,Animal_Land_Pattern_Large,4,0,20348828.0,20349332.0,504.0
132,choice,choice,56,7.0,Pattern,1.0,3.6356341670034458,Object_Sea_Pattern_Small,0,1,20352691.0,20353115.0,424.0
132,choice,choice,56,7.0,Pattern,1.0,3.6356341670034458,Animal_Land_Solid_Large,2,0,20353251.0,20353611.0,360.0
132,choice,choice,56,7.0,Pattern,1.0,3.6356341670034458,Object_Land_Pattern_Small,1,1,20353633.0,20353986.0,353.0
132,choice,choice,56,7.0,Pattern,1.0,3.6356341670034458,Animal_Sea_Solid_Small,3,0,20354009.0,20354216.0,207.0
132,choice,choice,56,7.0,Pattern,1.0,3.6356341670034458,Object_Land_Pattern_Small,1,1,20354354.0,20354662.0,308.0
132,choice,choice,56,7.0,Pattern,1.0,3.6356341670034458,Animal_Land_Solid_Large,2,0,20354888.0,20354919.0,31.0
132,choice,choice,56,7.0,Pattern,1.0,3.6356341670034458,Animal_Sea_Solid_Small,3,0,20355072.0,20355809.0,737.0
132,choice,choice,56,7.0,Pattern,1.0,3.6356341670034458,Animal_Land_Pattern_Large,4,1,20355986.0,20356193.0,207.0
