phase,event,onset,offset,trial_number,game,image,outcome,choice,correct,rt,letter,match,response,option,true_value,true_position,recalled_position,
encoding,fixation,14.959445166983642,16.46971166698495,1,1,Object_Land_Solid_Large,-5,,,,,,,,,,,
encoding,image,16.469830666988855,17.4856814169907,1,1,Object_Land_Solid_Large,-5,,,,,,,,,,,
encoding,value,17.485789792001015,23.49997562498902,1,1,Object_Land_Solid_Large,-5,,,,,,,,,,,
encoding,attention,23.500097916985396,26.517778291978175,1,1,Object_Land_Solid_Large,-5,-5,1,0.9883734159811866,,,,,,,,
encoding,fixation,26.51793854200514,27.024567499989644,2,1,Object_Land_Solid_Small,-3,,,,,,,,,,,
encoding,image,27.024683374998858,28.03641395899467,2,1,Object_Land_Solid_Small,-3,,,,,,,,,,,
encoding,value,28.036526791984215,34.048690916999476,2,1,Object_Land_Solid_Small,-3,,,,,,,,,,,
encoding,attention,34.04882887497661,37.067478958982974,2,1,Object_Land_Solid_Small,-3,-3,1,1.3460727089841384,,,,,,,,
encoding,fixation,37.067652500001714,37.82276679200004,3,1,Animal_Land_Solid_Large,9,,,,,,,,,,,
encoding,image,37.8228827919811,38.834419583989074,3,1,Animal_Land_Solid_Large,9,,,,,,,,,,,
encoding,value,38.834551459003706,44.85013229199103,3,1,Animal_Land_Solid_Large,9,,,,,,,,,,,
encoding,attention,44.85025920899352,47.86976458400022,3,1,Animal_Land_Solid_Large,9,+9,1,1.0292639999825042,,,,,,,,
encoding,fixation,47.86996220899164,48.62505291699199,4,1,Object_Sea_Pattern_Small,3,,,,,,,,,,,
encoding,image,48.62517183399177,49.636438833986176,4,1,Object_Sea_Pattern_Small,3,,,,,,,,,,,
encoding,value,49.63657512498321,55.64820104200044,4,1,Object_Sea_Pattern_Small,3,,,,,,,,,,,
encoding,attention,55.64831437499379,58.66502258399851,4,1,Object_Sea_Pattern_Small,3,+3,1,0.9411586670030374,,,,,,,,
encoding,fixation,58.66520891699474,59.42048720899038,5,1,Animal_Sea_Pattern_Large,-7,,,,,,,,,,,
encoding,image,59.420595417002914,60.432741291995626,5,1,Animal_Sea_Pattern_Large,-7,,,,,,,,,,,
encoding,value,60.43284599998151,66.44458004197804,5,1,Animal_Sea_Pattern_Large,-7,,,,,,,,,,,
encoding,attention,66.44468616700033,69.50803591698059,5,1,Animal_Sea_Pattern_Large,-7,-7,1,0.6580711670103483,,,,,,,,
encoding,fixation,69.50817720900523,70.01571479198174,6,1,Animal_Sea_Pattern_Small,1,,,,,,,,,,,
encoding,image,70.01583474999643,71.0273587089905,6,1,Animal_Sea_Pattern_Small,1,,,,,,,,,,,
encoding,value,71.02746916699107,77.03893941699062,6,1,Animal_Sea_Pattern_Small,1,,,,,,,,,,,
encoding,attention,77.03904433400021,80.05719849999878,6,1,Animal_Sea_Pattern_Small,1,+1,1,0.6920294160081539,,,,,,,,
n-back,,,,1,1,,,,1,None,V,False,None,,,,,
n-back,,,,2,1,,,,1,None,X,False,None,,,,,
n-back,,,,3,1,,,,1,None,C,False,None,,,,,
n-back,,,,4,1,,,,1,None,N,False,None,,,,,
n-back,,,,5,1,,,,1,None,B,False,None,,,,,
n-back,,,,6,1,,,,1,1.3386667080048937,N,True,1,,,,,
n-back,,,,7,1,,,,1,None,X,False,None,,,,,
n-back,,,,8,1,,,,1,None,Z,False,None,,,,,
n-back,,,,9,1,,,,1,0.5278834579803515,X,True,1,,,,,
n-back,,,,10,1,,,,0,None,Z,True,None,,,,,
n-back,,,,11,1,,,,1,None,N,False,None,,,,,
n-back,,,,12,1,,,,1,None,C,False,None,,,,,
n-back,,,,13,1,,,,1,None,X,False,None,,,,,
n-back,,,,14,1,,,,1,None,X,False,None,,,,,
n-back,,,,15,1,,,,1,None,C,False,None,,,,,
n-back,,,,16,1,,,,1,None,Z,False,None,,,,,
n-back,,,,17,1,,,,1,0.48741649999283254,C,True,1,,,,,
n-back,,,,18,1,,,,0,None,Z,True,None,,,,,
n-back,,,,19,1,,,,0,None,C,True,None,,,,,
n-back,,,,20,1,,,,1,0.5068166660203133,Z,True,1,,,,,
n-back,,,,21,1,,,,1,None,X,False,None,,,,,
n-back,,,,22,1,,,,1,0.9880856249947101,Z,True,1,,,,,
n-back,,,,23,1,,,,1,None,N,False,None,,,,,
n-back,,,,24,1,,,,0,None,Z,True,None,,,,,
n-back,,,,25,1,,,,1,None,C,False,None,,,,,
n-back,,,,26,1,,,,1,None,B,False,None,,,,,
n-back,,,,27,1,,,,0,1.2278971250052564,Z,False,1,,,,,
n-back,,,,28,1,,,,1,0.9878225830034353,B,True,1,,,,,
n-back,,,,29,1,,,,1,None,B,False,None,,,,,
n-back,,,,30,1,,,,1,None,C,False,None,,,,,
choice,fixation,171.56495279198862,172.07145920899347,1,1,,,,,,,,,Solid,,,,
choice,option,172.08125454199035,173.19223054198665,1,1,,,,,,,,,Solid,,,,
choice,choice,173.19234474998666,183.1326651669806,1,1,,,1,1,8.927651290985523,,,,Solid,,,,
choice,fixation,183.1328136670054,183.88779883398092,2,1,,,,,,,,,Small,,,,
choice,option,183.8966790419945,184.92471437499626,2,1,,,,,,,,,Small,,,,
choice,choice,184.9248252499965,189.45288466700003,2,1,,,1,1,3.5147659580106847,,,,Small,,,,
choice,fixation,189.45302649997757,190.70801433399902,3,1,,,,,,,,,Object,,,,
choice,option,190.71801320899976,191.74517374997959,3,1,,,,,,,,,Object,,,,
choice,choice,191.74531591698178,194.29225158400368,3,1,,,2,1,1.5374450829986017,,,,Object,,,,
choice,fixation,194.2923876249988,195.04843412499758,4,1,,,,,,,,,Animal,,,,
choice,option,195.05816016698373,196.0844610419881,4,1,,,,,,,,,Animal,,,,
choice,choice,196.08457220898708,210.79715679198853,4,1,,,1,1,13.702071750012692,,,,Animal,,,,
choice,fixation,210.79729575000238,212.05246599999373,5,1,,,,,,,,,Land,,,,
choice,option,212.06143504197826,213.08850683399942,5,1,,,,,,,,,Land,,,,
choice,choice,213.08861949999118,216.9715473749966,5,1,,,2,0,2.8722852499922737,,,,Land,,,,
choice,fixation,216.97166504198685,218.22676624997985,6,1,,,,,,,,,Large,,,,
choice,option,218.2360015839804,219.26294133398915,6,1,,,,,,,,,Large,,,,
choice,choice,219.2631339999789,223.64434408399393,6,1,,,2,1,3.3712786250107456,,,,Large,,,,
choice,fixation,223.6444617919915,225.1492780839908,7,1,,,,,,,,,Sea,,,,
choice,option,225.1577740419889,226.18487420899328,7,1,,,,,,,,,Sea,,,,
choice,choice,226.18497462497908,231.3561033750011,7,1,,,1,0,4.161452000000281,,,,Sea,,,,
choice,fixation,231.35622770898044,231.8612872090016,8,1,,,,,,,,,Pattern,,,,
choice,option,231.87173595899367,232.89909237498068,8,1,,,,,,,,,Pattern,,,,
choice,choice,232.89921174998744,238.8443833339843,8,1,,,2,1,4.935394583008019,,,,Pattern,,,,
memory,free_recall,296.639412583987,319.3974941250053,0,1,,,,,,,,,,,,,
memory,value_recall,363.2375829999801,372.00781650000135,1,1,Object_Land_Solid_Small,,,,8.766017083980842,,,,,-3,,,
memory,value_recall,374.0565095419879,376.5356122919766,2,1,Animal_Land_Solid_Large,,,,2.4750082080136053,,,,,9,,,
memory,value_recall,378.33231724999496,382.09491437498946,3,1,Animal_Sea_Pattern_Small,,,,3.7585788749856874,,,,,1,,,
memory,value_recall,384.140796208987,388.18492716699257,4,1,Object_Sea_Pattern_Small,,,,4.039955165993888,,,,,3,,,
memory,value_recall,389.98049616700155,393.0556104169809,5,1,Object_Land_Solid_Large,,,,3.0710652910056524,,,,,-5,,,
memory,value_recall,394.1021404170024,398.38934020898887,6,1,Animal_Sea_Pattern_Large,,,,4.283699583000271,,,,,-7,,,
memory,spatial_recall,422.2940157499979,427.1203166669875,6,1,Animal_Sea_Pattern_Small,,,1,4.822408416977851,,,,,,"[329, -190]","[329, -190]",
memory,spatial_recall,428.4220457499905,432.42368725000415,6,1,Animal_Sea_Pattern_Large,,,1,3.997078540996881,,,,,,"[-329, 190]","[-329, 190]",
memory,spatial_recall,433.4820861670014,436.4203425839951,6,1,Object_Land_Solid_Small,,,1,2.9357827919884585,,,,,,"[-329, -190]","[-329, -190]",
memory,spatial_recall,438.4745022089919,440.95352462498704,6,1,Object_Sea_Pattern_Small,,,1,2.4717757909966167,,,,,,"[0, 380]","[0, 380]",
memory,spatial_recall,442.76122575000045,444.35624633397674,6,1,Animal_Land_Solid_Large,,,1,1.5916552919952665,,,,,,"[329, 189]","[329, 189]",
memory,spatial_recall,446.15891470899805,447.7734912089945,6,1,Object_Land_Solid_Large,,,1,1.6086139999970328,,,,,,"[0, -380]","[0, -380]",
encoding,fixation,18.427888000005623,18.934066499990877,7,2,Animal_Land_Solid_Small,-8,,,,,,,,,,,
encoding,image,18.934170124994125,19.94515808398137,7,2,Animal_Land_Solid_Small,-8,,,,,,,,,,,
encoding,value,19.945274708996294,25.95838399999775,7,2,Animal_Land_Solid_Small,-8,,,,,,,,,,,
encoding,attention,25.958560625003884,28.97561437499826,7,2,Animal_Land_Solid_Small,-8,-8,1,0.9052218750002794,,,,,,,,
encoding,fixation,28.975777583982563,29.9809819170041,8,2,Animal_Sea_Pattern_Large,-1,,,,,,,,,,,
encoding,image,29.98110416700365,30.992057249997742,8,2,Animal_Sea_Pattern_Large,-1,,,,,,,,,,,
encoding,value,30.992159749992425,37.00414874998387,8,2,Animal_Sea_Pattern_Large,-1,,,,,,,,,,,
encoding,attention,37.004260083980625,40.02098337499774,8,2,Animal_Sea_Pattern_Large,-1,-1,1,0.8686180000077002,,,,,,,,
encoding,fixation,40.021152333996724,40.5262559169787,9,2,Object_Sea_Pattern_Large,-4,,,,,,,,,,,
encoding,image,40.52636795898434,41.537346249999246,9,2,Object_Sea_Pattern_Large,-4,,,,,,,,,,,
encoding,value,41.53746662498452,47.549425374978455,9,2,Object_Sea_Pattern_Large,-4,,,,,,,,,,,
encoding,attention,47.549595458986005,50.566141666990006,9,2,Object_Sea_Pattern_Large,-4,-4,1,0.698567917017499,,,,,,,,
encoding,fixation,50.566303958999924,51.8218542499817,10,2,Object_Land_Pattern_Small,4,,,,,,,,,,,
encoding,image,51.82197833398823,52.834235374990385,10,2,Object_Land_Pattern_Small,4,,,,,,,,,,,
encoding,value,52.83439529198222,58.845302375004394,10,2,Object_Land_Pattern_Small,4,,,,,,,,,,,
encoding,attention,58.84548387498944,61.86470899998676,10,2,Object_Land_Pattern_Small,4,+4,1,1.1037793750001583,,,,,,,,
encoding,fixation,61.864937959006056,62.870160999998916,11,2,Object_Land_Solid_Small,6,,,,,,,,,,,
encoding,image,62.870279208989814,63.881497875001514,11,2,Object_Land_Solid_Small,6,,,,,,,,,,,
encoding,value,63.8816119999974,69.89441470897873,11,2,Object_Land_Solid_Small,6,,,,,,,,,,,
encoding,attention,69.89452841700404,72.91389324999182,11,2,Object_Land_Solid_Small,6,+6,1,2.551905333006289,,,,,,,,
encoding,fixation,72.91404370899545,74.16892779199407,12,2,Animal_Sea_Solid_Large,8,,,,,,,,,,,
encoding,image,74.16905320898513,75.18039245900582,12,2,Animal_Sea_Solid_Large,8,,,,,,,,,,,
encoding,value,75.18051312500029,81.19311141700018,12,2,Animal_Sea_Solid_Large,8,,,,,,,,,,,
encoding,attention,81.19322516699322,84.21102654200513,12,2,Animal_Sea_Solid_Large,8,+8,1,0.9354045419895556,,,,,,,,
n-back,,,,31,2,,,,1,None,Z,False,None,,,,,
n-back,,,,32,2,,,,0,None,C,True,None,,,,,
n-back,,,,33,2,,,,1,None,C,False,None,,,,,
n-back,,,,34,2,,,,1,None,V,False,None,,,,,
n-back,,,,35,2,,,,1,0.9172342919919174,C,True,1,,,,,
n-back,,,,36,2,,,,1,None,C,False,None,,,,,
n-back,,,,37,2,,,,1,0.8480622920033056,C,True,1,,,,,
n-back,,,,38,2,,,,1,None,Z,False,None,,,,,
n-back,,,,39,2,,,,1,None,X,False,None,,,,,
n-back,,,,40,2,,,,1,None,N,False,None,,,,,
n-back,,,,41,2,,,,1,0.9587511249992531,X,True,1,,,,,
n-back,,,,42,2,,,,1,None,Z,False,None,,,,,
n-back,,,,43,2,,,,1,None,N,False,None,,,,,
n-back,,,,44,2,,,,1,0.6321136250044219,Z,True,1,,,,,
n-back,,,,45,2,,,,1,None,B,False,None,,,,,
n-back,,,,46,2,,,,1,None,C,False,None,,,,,
n-back,,,,47,2,,,,1,None,X,False,None,,,,,
n-back,,,,48,2,,,,1,None,X,False,None,,,,,
n-back,,,,49,2,,,,1,0.6916336250142194,X,True,1,,,,,
n-back,,,,50,2,,,,0,None,X,True,None,,,,,
n-back,,,,51,2,,,,1,None,N,False,None,,,,,
n-back,,,,52,2,,,,1,None,B,False,None,,,,,
n-back,,,,53,2,,,,1,None,B,False,None,,,,,
n-back,,,,54,2,,,,1,0.5754908750241157,B,True,1,,,,,
n-back,,,,55,2,,,,1,None,N,False,None,,,,,
n-back,,,,56,2,,,,1,None,N,False,None,,,,,
n-back,,,,57,2,,,,1,0.5248349170142319,N,True,1,,,,,
n-back,,,,58,2,,,,1,None,X,False,None,,,,,
n-back,,,,59,2,,,,1,0.7653884169994853,N,True,1,,,,,
n-back,,,,60,2,,,,1,None,V,False,None,,,,,
choice,fixation,162.63450158399064,163.38795320899226,9,2,,,,,,,,,Land,,,,
choice,option,163.39607424999122,164.4243683340028,9,2,,,,,,,,,Land,,,,
choice,choice,164.42450070899213,209.22635991699644,9,2,,,2,0,43.790628041984746,,,,Land,,,,
choice,fixation,209.2265152919863,209.7314958749921,10,2,,,,,,,,,Solid,,,,
choice,option,209.74066729200422,210.7673909169971,10,2,,,,,,,,,Solid,,,,
choice,choice,210.7675052919949,218.52206266700523,10,2,,,1,1,6.744596292002825,,,,Solid,,,,
choice,fixation,218.52218116700533,219.52698283398058,11,2,,,,,,,,,Pattern,,,,
choice,option,219.5360038339859,220.56167008398916,11,2,,,,,,,,,Pattern,,,,
choice,choice,220.5617930419976,240.66466420900542,11,2,,,1,0,19.09201941700303,,,,Pattern,,,,
choice,fixation,240.66478579200339,242.1701822920004,12,2,,,,,,,,,Large,,,,
choice,option,242.17915495898342,243.20599108398892,12,2,,,,,,,,,Large,,,,
choice,choice,243.20617624997976,255.68164629198145,12,2,,,2,0,11.464367042004596,,,,Large,,,,
choice,fixation,255.68177158400067,257.1868378339859,13,2,,,,,,,,,Object,,,,
choice,option,257.1963639589958,258.22291070898063,13,2,,,,,,,,,Object,,,,
choice,choice,258.22301833398524,275.34669854198,13,2,,,1,1,16.11244616698241,,,,Object,,,,
choice,fixation,275.34682712500216,276.6017917089921,14,2,,,,,,,,,Small,,,,
choice,option,276.61099520899006,277.6372229169938,14,2,,,,,,,,,Small,,,,
choice,choice,277.6373383750033,280.8175409589894,14,2,,,2,0,2.1705434169853106,,,,Small,,,,
choice,fixation,280.8176680000033,281.3229983339843,15,2,,,,,,,,,Sea,,,,
choice,option,281.3314534999954,282.35960558400257,15,2,,,,,,,,,Sea,,,,
choice,choice,282.35972645899164,284.56064829198294,15,2,,,1,1,1.1922387089871336,,,,Sea,,,,
choice,fixation,284.5607887090009,285.56567112499033,16,2,,,,,,,,,Animal,,,,
choice,option,285.57539666700177,286.6027090419957,16,2,,,,,,,,,Animal,,,,
choice,choice,286.6028204589966,294.18505870900117,16,2,,,1,0,6.570459374983329,,,,Animal,,,,
memory,free_recall,311.9633254999935,335.1396114999952,6,2,,,,,,,,,,,,,
memory,value_recall,346.9672943750047,352.6778768340009,7,2,Object_Land_Pattern_Small,,,,5.7064717919856776,,,,,4,,,
memory,value_recall,354.72593887499534,356.6193831669807,8,2,Animal_Land_Solid_Small,,,,1.8893010829924606,,,,,-8,,,
memory,value_recall,357.9145856249961,361.6203822919924,9,2,Object_Land_Solid_Small,,,,3.701318415987771,,,,,6,,,
memory,value_recall,362.66481987500447,364.7901290000009,10,2,Animal_Sea_Pattern_Large,,,,2.1226670409960207,,,,,-1,,,
memory,value_recall,366.8365067919949,368.4110895000049,11,2,Animal_Sea_Solid_Large,,,,1.5694054580235388,,,,,8,,,
memory,value_recall,369.7093997919874,379.6081004999869,12,2,Object_Sea_Pattern_Large,,,,9.894545291987015,,,,,-4,,,
memory,spatial_recall,388.98958962498,391.3036632919975,12,2,Animal_Sea_Pattern_Large,,,1,2.31001774998731,,,,,,"[-329, 190]","[-329, 190]",
memory,spatial_recall,392.620540584001,394.9837410420005,12,2,Object_Land_Solid_Small,,,1,2.3591342090221588,,,,,,"[-329, -190]","[-329, -190]",
memory,spatial_recall,396.7930076670018,398.3329603339953,12,2,Animal_Land_Solid_Small,,,1,1.5360222909948789,,,,,,"[0, 380]","[0, 380]",
memory,spatial_recall,399.3831421249779,401.083094874979,12,2,Object_Land_Pattern_Small,,,1,1.6963030840270221,,,,,,"[329, -190]","[329, -190]",
memory,spatial_recall,402.8885754169896,404.11632229198585,12,2,Object_Sea_Pattern_Large,,,1,1.2238194579840638,,,,,,"[329, 189]","[329, 189]",
memory,spatial_recall,405.67385533399647,407.2668956249836,12,2,Animal_Sea_Solid_Large,,,1,1.5890264999761712,,,,,,"[0, -380]","[0, -380]",
encoding,fixation,12.03877033398021,13.54572837500018,13,3,Animal_Land_Pattern_Large,8,,,,,,,,,,,
encoding,image,13.545872458984377,14.55799891697825,13,3,Animal_Land_Pattern_Large,8,,,,,,,,,,,
encoding,value,14.558162124973023,20.571702416986227,13,3,Animal_Land_Pattern_Large,8,,,,,,,,,,,
encoding,attention,20.57181183397188,23.589596124977106,13,3,Animal_Land_Pattern_Large,8,+8,1,0.919942375010578,,,,,,,,
encoding,fixation,23.589830374985468,24.59436674998142,14,3,Object_Sea_Solid_Small,2,,,,,,,,,,,
encoding,image,24.59446970897261,25.60541966697201,14,3,Object_Sea_Solid_Small,2,,,,,,,,,,,
encoding,value,25.605556458991487,31.616751666995697,14,3,Object_Sea_Solid_Small,2,,,,,,,,,,,
encoding,attention,31.616909541975474,34.63323216699064,14,3,Object_Sea_Solid_Small,2,+2,1,1.276884083985351,,,,,,,,
encoding,fixation,34.63339524998446,35.8890237089945,15,3,Object_Sea_Solid_Large,4,,,,,,,,,,,
encoding,image,35.88913058399339,36.90039266698295,15,3,Object_Sea_Solid_Large,4,,,,,,,,,,,
encoding,value,36.90050504199462,42.91288774998975,15,3,Object_Sea_Solid_Large,4,,,,,,,,,,,
encoding,attention,42.913012334000086,45.931263708975166,15,3,Object_Sea_Solid_Large,4,+4,1,1.8153538329934236,,,,,,,,
encoding,fixation,45.93142816697946,47.43666570898495,16,3,Object_Land_Pattern_Large,-8,,,,,,,,,,,
encoding,image,47.436784958990756,48.44878229199094,16,3,Object_Land_Pattern_Large,-8,,,,,,,,,,,
encoding,value,48.4488924589823,54.46045408397913,16,3,Object_Land_Pattern_Large,-8,,,,,,,,,,,
encoding,attention,54.460567666974384,57.477201666974,16,3,Object_Land_Pattern_Large,-8,-8,1,0.8464953330112621,,,,,,,,
encoding,fixation,57.47736012499081,58.23234699998284,17,3,Animal_Land_Pattern_Small,-8,,,,,,,,,,,
encoding,image,58.23248354200041,59.243038124986924,17,3,Animal_Land_Pattern_Small,-8,,,,,,,,,,,
encoding,value,59.24314479198074,65.25550758399186,17,3,Animal_Land_Pattern_Small,-8,,,,,,,,,,,
encoding,attention,65.25565537498915,68.27346233397839,17,3,Animal_Land_Pattern_Small,-8,-8,1,1.307098582998151,,,,,,,,
encoding,fixation,68.27360449999105,69.77861412498169,18,3,Animal_Sea_Solid_Small,-9,,,,,,,,,,,
encoding,image,69.77872704199399,70.78922254199279,18,3,Animal_Sea_Solid_Small,-9,,,,,,,,,,,
encoding,value,70.78933612498804,76.80060045898426,18,3,Animal_Sea_Solid_Small,-9,,,,,,,,,,,
encoding,attention,76.80071149999276,79.81821724999463,18,3,Animal_Sea_Solid_Small,-9,-9,1,2.6899713330203667,,,,,,,,
n-back,,,,61,3,,,,1,None,Z,False,None,,,,,
n-back,,,,62,3,,,,1,None,Z,False,None,,,,,
n-back,,,,63,3,,,,1,None,N,False,None,,,,,
n-back,,,,64,3,,,,1,None,N,False,None,,,,,
n-back,,,,65,3,,,,1,None,C,False,None,,,,,
n-back,,,,66,3,,,,1,None,V,False,None,,,,,
n-back,,,,67,3,,,,1,None,B,False,None,,,,,
n-back,,,,68,3,,,,1,0.4393195000011474,V,True,1,,,,,
n-back,,,,69,3,,,,1,1.4633995000040159,B,True,1,,,,,
n-back,,,,70,3,,,,1,0.9627492910076398,V,True,1,,,,,
n-back,,,,71,3,,,,1,0.881732749985531,B,True,1,,,,,
n-back,,,,72,3,,,,1,None,C,False,None,,,,,
n-back,,,,73,3,,,,1,None,X,False,None,,,,,
n-back,,,,74,3,,,,1,None,X,False,None,,,,,
n-back,,,,75,3,,,,1,None,B,False,None,,,,,
n-back,,,,76,3,,,,1,None,B,False,None,,,,,
n-back,,,,77,3,,,,1,0.6666004170256201,B,True,1,,,,,
n-back,,,,78,3,,,,1,None,X,False,None,,,,,
n-back,,,,79,3,,,,1,0.7371777080115862,B,True,1,,,,,
n-back,,,,80,3,,,,1,None,C,False,None,,,,,
n-back,,,,81,3,,,,1,0.8504599159932695,B,True,1,,,,,
n-back,,,,82,3,,,,1,None,N,False,None,,,,,
n-back,,,,83,3,,,,1,0.8023502089781687,B,True,1,,,,,
n-back,,,,84,3,,,,1,None,B,False,None,,,,,
n-back,,,,85,3,,,,0,0.6042603339883499,N,False,1,,,,,
n-back,,,,86,3,,,,1,None,N,False,None,,,,,
n-back,,,,87,3,,,,1,None,X,False,None,,,,,
n-back,,,,88,3,,,,1,None,V,False,None,,,,,
n-back,,,,89,3,,,,1,0.5394246249925345,X,True,1,,,,,
n-back,,,,90,3,,,,1,1.0362039589963388,V,True,1,,,,,
choice,fixation,157.29902091698023,158.05635095899925,17,3,,,,,,,,,Object,,,,
choice,option,158.06545329198707,159.09088254199014,17,3,,,,,,,,,Object,,,,
choice,choice,159.09098537499085,204.16614704197855,17,3,,,2,1,44.06351904102485,,,,Object,,,,
choice,fixation,204.16628941698582,205.67383345897542,18,3,,,,,,,,,Solid,,,,
choice,option,205.68356162498822,206.71067187498556,18,3,,,,,,,,,Solid,,,,
choice,choice,206.7108407089836,223.81273570898338,18,3,,,1,0,16.09098062501289,,,,Solid,,,,
choice,fixation,223.8128746250004,225.068681499979,19,3,,,,,,,,,Animal,,,,
choice,option,225.07782866698108,226.10541058398667,19,3,,,,,,,,,Animal,,,,
choice,choice,226.10553441697266,255.49969058399438,19,3,,,2,1,28.38345929098432,,,,Animal,,,,
choice,fixation,255.4998764169868,256.7562840419996,20,3,,,,,,,,,Pattern,,,,
choice,option,256.76599970899406,257.7923815419781,20,3,,,,,,,,,Pattern,,,,
choice,choice,257.7925063339935,268.2855455419922,20,3,,,1,0,9.482162750005955,,,,Pattern,,,,
choice,fixation,268.28568666698993,269.7907263749803,21,3,,,,,,,,,Sea,,,,
choice,option,269.7988279169949,270.82547012498253,21,3,,,,,,,,,Sea,,,,
choice,choice,270.8255807499809,284.5321963749884,21,3,,,1,0,12.69597179099219,,,,Sea,,,,
choice,fixation,284.5324176669819,286.03981837499305,22,3,,,,,,,,,Large,,,,
choice,option,286.048623708979,287.07499037499656,22,3,,,,,,,,,Large,,,,
choice,choice,287.0751113339793,297.93310824999935,22,3,,,2,0,9.847776374983368,,,,Large,,,,
choice,fixation,297.93324941699393,299.4381935419806,23,3,,,,,,,,,Land,,,,
choice,option,299.447507749981,300.4732351669809,23,3,,,,,,,,,Land,,,,
choice,choice,300.4733363749983,336.95604687498417,23,3,,,1,0,35.471669750026194,,,,Land,,,,
choice,fixation,336.9561760419747,337.9613667499798,24,3,,,,,,,,,Small,,,,
choice,option,337.97065949998796,338.99780299997656,24,3,,,,,,,,,Small,,,,
choice,choice,338.9979382499878,346.1147436249885,24,3,,,1,0,6.106237540981965,,,,Small,,,,
memory,free_recall,361.9051476249879,383.91723166697193,12,3,,,,,,,,,,,,,
memory,value_recall,387.4576097499812,392.6648414169904,13,3,Animal_Land_Pattern_Large,,,,5.202116582979215,,,,,8,,,
memory,value_recall,394.2158231669746,396.1212690419925,14,3,Object_Land_Pattern_Large,,,,1.8989906249917112,,,,,-8,,,
memory,value_recall,397.168275583972,398.81290854199324,15,3,Object_Sea_Solid_Small,,,,1.640909207984805,,,,,2,,,
memory,value_recall,400.8585911669943,407.4560730419762,16,3,Animal_Land_Pattern_Small,,,,6.593454290996306,,,,,-8,,,
memory,value_recall,409.25679583399324,410.98271799998474,17,3,Animal_Sea_Solid_Small,,,,1.72141837500385,,,,,-9,,,
memory,value_recall,413.0304387919896,418.1033627500001,18,3,Object_Sea_Solid_Large,,,,5.0683397500251886,,,,,4,,,
memory,spatial_recall,420.9388564589899,424.49732337499154,18,3,Object_Sea_Solid_Large,,,1,3.5560140419984236,,,,,,"[-329, 190]","[-329, 190]",
memory,spatial_recall,426.5568309589871,427.5045954169764,18,3,Object_Sea_Solid_Small,,,1,0.943824540998321,,,,,,"[329, 189]","[329, 189]",
memory,spatial_recall,428.5514239589975,430.43046970898286,18,3,Animal_Land_Pattern_Large,,,1,1.8756132080161478,,,,,,"[-329, -190]","[-329, -190]",
memory,spatial_recall,431.7384550839779,433.0971548749949,18,3,Animal_Sea_Solid_Small,,,1,1.3548133750155102,,,,,,"[0, -380]","[0, -380]",
memory,spatial_recall,434.1465934589796,435.8804948749894,18,3,Animal_Land_Pattern_Small,,,1,1.730908833007561,,,,,,"[329, -190]","[329, -190]",
memory,spatial_recall,437.9387838339899,439.06378741699154,18,3,Object_Land_Pattern_Large,,,1,1.1209141250001267,,,,,,"[0, 380]","[0, 380]",
encoding,fixation,17.15225216600811,18.4095076250087,19,4,Object_Sea_Pattern_Small,3,,,,,,,,,,,
encoding,image,18.409621958009666,19.421190374996513,19,4,Object_Sea_Pattern_Small,3,,,,,,,,,,,
encoding,value,19.42131404101383,25.4371295410092,19,4,Object_Sea_Pattern_Small,3,,,,,,,,,,,
encoding,attention,25.437259708007332,28.454834916017717,19,4,Object_Sea_Pattern_Small,3,+3,1,1.221036583010573,,,,,,,,
encoding,fixation,28.45497904100921,28.96018920800998,20,4,Object_Land_Solid_Large,-9,,,,,,,,,,,
encoding,image,28.960301125014666,29.969877708004788,20,4,Object_Land_Solid_Large,-9,,,,,,,,,,,
encoding,value,29.96998741599964,35.98146916599944,20,4,Object_Land_Solid_Large,-9,,,,,,,,,,,
encoding,attention,35.98159070801921,39.000233291008044,20,4,Object_Land_Solid_Large,-9,-9,1,0.7467212500050664,,,,,,,,
encoding,fixation,39.000400000019,39.75564229101292,21,4,Object_Land_Solid_Small,8,,,,,,,,,,,
encoding,image,39.7557945830049,40.770986916002585,21,4,Object_Land_Solid_Small,8,,,,,,,,,,,
encoding,value,40.771171875006985,46.786932916002115,21,4,Object_Land_Solid_Small,8,,,,,,,,,,,
encoding,attention,46.78706087500905,49.80653812500532,21,4,Object_Land_Solid_Small,8,+8,1,0.7637681250052992,,,,,,,,
encoding,fixation,49.80670499999542,50.812206000002334,22,4,Animal_Land_Solid_Large,2,,,,,,,,,,,
encoding,image,50.812338749994524,51.825417333020596,22,4,Animal_Land_Solid_Large,2,,,,,,,,,,,
encoding,value,51.825523958017584,57.83817766600987,22,4,Animal_Land_Solid_Large,2,,,,,,,,,,,
encoding,attention,57.838302040996496,60.85941929099499,22,4,Animal_Land_Solid_Large,2,+2,1,0.9773659589991439,,,,,,,,
encoding,fixation,60.859566625003936,61.364859458000865,23,4,Animal_Sea_Pattern_Large,4,,,,,,,,,,,
encoding,image,61.364950000017416,62.37504266601172,23,4,Animal_Sea_Pattern_Large,4,,,,,,,,,,,
encoding,value,62.37516383299953,68.38681225001346,23,4,Animal_Sea_Pattern_Large,4,,,,,,,,,,,
encoding,attention,68.3869763330149,71.4036277080013,23,4,Animal_Sea_Pattern_Large,4,+4,1,0.9904218750016298,,,,,,,,
encoding,fixation,71.4038202080119,72.40987887501251,24,4,Animal_Sea_Pattern_Small,-8,,,,,,,,,,,
encoding,image,72.4099932500103,73.42141262500081,24,4,Animal_Sea_Pattern_Small,-8,,,,,,,,,,,
encoding,value,73.42153108300408,79.4335490000085,24,4,Animal_Sea_Pattern_Small,-8,,,,,,,,,,,
encoding,attention,79.4336658329994,82.45128166599898,24,4,Animal_Sea_Pattern_Small,-8,-8,1,0.8735530830163043,,,,,,,,
n-back,,,,91,4,,,,0,None,V,True,None,,,,,
n-back,,,,92,4,,,,1,None,V,False,None,,,,,
n-back,,,,93,4,,,,1,None,X,False,None,,,,,
n-back,,,,94,4,,,,1,None,N,False,None,,,,,
n-back,,,,95,4,,,,1,None,Z,False,None,,,,,
n-back,,,,96,4,,,,1,None,Z,False,None,,,,,
n-back,,,,97,4,,,,1,0.49175304200616665,Z,True,1,,,,,
n-back,,,,98,4,,,,1,None,N,False,None,,,,,
n-back,,,,99,4,,,,1,None,N,False,None,,,,,
n-back,,,,100,4,,,,1,0.551783125003567,N,True,1,,,,,
n-back,,,,101,4,,,,1,None,C,False,None,,,,,
n-back,,,,102,4,,,,1,0.5201515420048963,N,True,1,,,,,
n-back,,,,103,4,,,,1,0.862631166994106,C,True,1,,,,,
n-back,,,,104,4,,,,1,None,Z,False,None,,,,,
n-back,,,,105,4,,,,1,None,B,False,None,,,,,
n-back,,,,106,4,,,,1,0.6351537500158884,Z,True,1,,,,,
n-back,,,,107,4,,,,1,None,V,False,None,,,,,
n-back,,,,108,4,,,,1,None,X,False,None,,,,,
n-back,,,,109,4,,,,1,None,C,False,None,,,,,
n-back,,,,110,4,,,,1,None,V,False,None,,,,,
n-back,,,,111,4,,,,1,1.3331225829897448,C,True,1,,,,,
n-back,,,,112,4,,,,1,None,B,False,None,,,,,
n-back,,,,113,4,,,,1,None,B,False,None,,,,,
n-back,,,,114,4,,,,1,None,Z,False,None,,,,,
n-back,,,,115,4,,,,1,0.6903075410227757,B,True,1,,,,,
n-back,,,,116,4,,,,1,1.0679245000064839,Z,True,1,,,,,
n-back,,,,117,4,,,,1,None,N,False,None,,,,,
n-back,,,,118,4,,,,1,0.5154247919854242,Z,True,1,,,,,
n-back,,,,119,4,,,,1,None,B,False,None,,,,,
n-back,,,,120,4,,,,1,None,N,False,None,,,,,
choice,fixation,157.59515108302003,159.09888012500596,25,4,,,,,,,,,Animal,,,,
choice,option,159.1079464580107,160.13700795799377,25,4,,,,,,,,,Animal,,,,
choice,choice,160.13713079100125,163.84374362500967,25,4,,,1,0,2.6965997500228696,,,,Animal,,,,
choice,fixation,163.843869541015,165.099195332994,26,4,,,,,,,,,Land,,,,
choice,option,165.1084402500128,166.13670200001798,26,4,,,,,,,,,Land,,,,
choice,choice,166.136811666016,168.48138587499852,26,4,,,1,1,1.334649458003696,,,,Land,,,,
choice,fixation,168.48157179099508,169.236868625012,27,4,,,,,,,,,Sea,,,,
choice,option,169.24750416600727,170.27396458300063,27,4,,,,,,,,,Sea,,,,
choice,choice,170.27408437500708,175.2264384580194,27,4,,,1,0,3.9421587499964517,,,,Sea,,,,
choice,fixation,175.22657374999835,175.73146266600816,28,4,,,,,,,,,Object,,,,
choice,option,175.7408387500036,176.76997799999663,28,4,,,,,,,,,Object,,,,
choice,choice,176.77015541601577,183.06587516600848,28,4,,,2,0,5.285833875008393,,,,Object,,,,
choice,fixation,183.06607483301195,183.5710929580091,29,4,,,,,,,,,Small,,,,
choice,option,183.5801044999971,184.60643754102057,29,4,,,,,,,,,Small,,,,
choice,choice,184.60655012499774,197.09726804101956,29,4,,,2,0,11.481193083978724,,,,Small,,,,
choice,fixation,197.0973926660081,197.8532800830144,30,4,,,,,,,,,Large,,,,
choice,option,197.86202958301874,198.88927816599607,30,4,,,,,,,,,Large,,,,
choice,choice,198.88939895801013,203.1067510000139,30,4,,,1,0,3.207803666999098,,,,Large,,,,
choice,fixation,203.1068956250092,204.36220516602043,31,4,,,,,,,,,Solid,,,,
choice,option,204.37181866599713,205.39861716600717,31,4,,,,,,,,,Solid,,,,
choice,choice,205.39873204100877,213.3313543330005,31,4,,,1,1,6.922672957996838,,,,Solid,,,,
choice,fixation,213.33148233301472,214.83657558300183,32,4,,,,,,,,,Pattern,,,,
choice,option,214.84544624999398,215.87178499999573,32,4,,,,,,,,,Pattern,,,,
choice,choice,215.8719049160136,219.7779024580086,32,4,,,1,0,2.8964211250131484,,,,Pattern,,,,
memory,free_recall,230.10083641600795,245.5683811659983,18,4,,,,,,,,,,,,,
memory,value_recall,250.7361460000102,253.51523000001907,19,4,Object_Land_Solid_Large,,,,2.7746832089906093,,,,,-9,,,
memory,value_recall,254.81175145800808,257.0756916660175,20,4,Animal_Sea_Pattern_Large,,,,2.259795624995604,,,,,4,,,
memory,value_recall,258.3712385830004,265.7086933749961,21,4,Object_Land_Solid_Small,,,,7.333160791982664,,,,,8,,,
memory,value_recall,267.5048397500068,269.95700037499773,22,4,Animal_Land_Solid_Large,,,,2.4478382089873776,,,,,2,,,
memory,value_recall,271.25424158299575,273.755166707997,23,4,Object_Sea_Pattern_Small,,,,2.4966025829780847,,,,,3,,,
memory,value_recall,275.80385666599614,277.8590299579955,24,4,Animal_Sea_Pattern_Small,,,,2.050369124975987,,,,,-8,,,
memory,spatial_recall,281.7293076660135,286.5004087910056,24,4,Object_Land_Solid_Large,,,1,4.767061999998987,,,,,,"[0, -380]","[0, -380]",
memory,spatial_recall,288.3148849160061,289.11498875002144,24,4,Animal_Land_Solid_Large,,,1,0.7960602089879103,,,,,,"[329, 189]","[329, 189]",
memory,spatial_recall,290.1702773750003,292.01145645801444,24,4,Object_Sea_Pattern_Small,,,1,1.8386845419881865,,,,,,"[0, 380]","[0, 380]",
memory,spatial_recall,293.3188222910103,294.4847905000206,24,4,Object_Land_Solid_Small,,,1,1.1620101250009611,,,,,,"[-329, -190]","[-329, -190]",
memory,spatial_recall,296.29457637501764,298.09446679099347,24,4,Animal_Sea_Pattern_Small,,,1,1.7959040419955272,,,,,,"[329, -190]","[329, -190]",
memory,spatial_recall,300.1481170000043,301.4412771660136,24,4,Animal_Sea_Pattern_Large,,,1,1.2886529579991475,,,,,,"[-329, 190]","[-329, 190]",
encoding,fixation,6.10385725001106,7.609765917004552,25,5,Animal_Land_Solid_Small,-5,,,,,,,,,,,
encoding,image,7.609879208001075,8.62136154199834,25,5,Animal_Land_Solid_Small,-5,,,,,,,,,,,
encoding,value,8.621480458008591,14.634321291989181,25,5,Animal_Land_Solid_Small,-5,,,,,,,,,,,
encoding,attention,14.634440458001336,17.65278837500955,25,5,Animal_Land_Solid_Small,-5,-5,1,1.6043972500192467,,,,,,,,
encoding,fixation,17.652949042007094,18.157979542011162,26,5,Animal_Sea_Solid_Large,-1,,,,,,,,,,,
encoding,image,18.158088041993324,19.17021491698688,26,5,Animal_Sea_Solid_Large,-1,,,,,,,,,,,
encoding,value,19.170333582995227,25.182533542014426,26,5,Animal_Sea_Solid_Large,-1,,,,,,,,,,,
encoding,attention,25.182657833007397,28.201098541991087,26,5,Animal_Sea_Solid_Large,-1,-1,1,0.7078838339948561,,,,,,,,
encoding,fixation,28.201247749995673,29.456325375009328,27,5,Object_Land_Pattern_Small,-1,,,,,,,,,,,
encoding,image,29.45643404198927,30.468005708011333,27,5,Object_Land_Pattern_Small,-1,,,,,,,,,,,
encoding,value,30.468201707990374,36.479801125009544,27,5,Object_Land_Pattern_Small,-1,,,,,,,,,,,
encoding,attention,36.47999991700635,39.491612749989145,27,5,Object_Land_Pattern_Small,-1,None,None,None,,,,,,,,
encoding,fixation,39.49175595800625,39.996925249986816,28,5,Animal_Sea_Pattern_Large,7,,,,,,,,,,,
encoding,image,39.997043667011894,41.00716537499102,28,5,Animal_Sea_Pattern_Large,7,,,,,,,,,,,
encoding,value,41.00726683301036,47.0207486670115,28,5,Animal_Sea_Pattern_Large,7,,,,,,,,,,,
encoding,attention,47.02086975000566,50.03789145799237,28,5,Animal_Sea_Pattern_Large,7,+7,1,0.5396333750104532,,,,,,,,
encoding,fixation,50.03803883300861,51.29310300000361,29,5,Object_Land_Solid_Small,7,,,,,,,,,,,
encoding,image,51.29320062499028,52.30486612499226,29,5,Object_Land_Solid_Small,7,,,,,,,,,,,
encoding,value,52.30498808299308,58.317062916990835,29,5,Object_Land_Solid_Small,7,,,,,,,,,,,
encoding,attention,58.317179917008616,61.33444674999919,29,5,Object_Land_Solid_Small,7,+7,1,1.0238848750013858,,,,,,,,
encoding,fixation,61.334586042008596,62.339577583014034,30,5,Object_Sea_Pattern_Large,-2,,,,,,,,,,,
encoding,image,62.339699667005334,63.35064312501345,30,5,Object_Sea_Pattern_Large,-2,,,,,,,,,,,
encoding,value,63.35076316699269,69.36322195798857,30,5,Object_Sea_Pattern_Large,-2,,,,,,,,,,,
encoding,attention,69.36333416699199,72.38187787501374,30,5,Object_Sea_Pattern_Large,-2,-2,1,0.5314664590114262,,,,,,,,
n-back,,,,121,5,,,,0,None,X,True,None,,,,,
n-back,,,,122,5,,,,0,None,X,True,None,,,,,
n-back,,,,123,5,,,,1,None,N,False,None,,,,,
n-back,,,,124,5,,,,1,0.619860000006156,X,True,1,,,,,
n-back,,,,125,5,,,,1,None,Z,False,None,,,,,
n-back,,,,126,5,,,,0,None,X,True,None,,,,,
n-back,,,,127,5,,,,1,None,V,False,None,,,,,
n-back,,,,128,5,,,,1,0.5612976669799536,X,True,1,,,,,
n-back,,,,129,5,,,,1,None,N,False,None,,,,,
n-back,,,,130,5,,,,0,0.9975687499972992,V,False,1,,,,,
n-back,,,,131,5,,,,1,None,Z,False,None,,,,,
n-back,,,,132,5,,,,0,None,V,True,None,,,,,
n-back,,,,133,5,,,,1,None,B,False,None,,,,,
n-back,,,,134,5,,,,1,0.5584797080082353,V,True,1,,,,,
n-back,,,,135,5,,,,1,None,V,False,None,,,,,
n-back,,,,136,5,,,,1,None,C,False,None,,,,,
n-back,,,,137,5,,,,1,None,Z,False,None,,,,,
n-back,,,,138,5,,,,1,None,X,False,None,,,,,
n-back,,,,139,5,,,,1,None,X,False,None,,,,,
n-back,,,,140,5,,,,1,0.41026087501086295,X,True,1,,,,,
n-back,,,,141,5,,,,1,None,N,False,None,,,,,
n-back,,,,142,5,,,,1,None,Z,False,None,,,,,
n-back,,,,143,5,,,,1,None,C,False,None,,,,,
n-back,,,,144,5,,,,1,None,B,False,None,,,,,
n-back,,,,145,5,,,,1,None,N,False,None,,,,,
n-back,,,,146,5,,,,0,0.6481137090013362,N,False,1,,,,,
n-back,,,,147,5,,,,1,1.0665693749906495,N,True,1,,,,,
n-back,,,,148,5,,,,1,1.0529461249825545,N,True,1,,,,,
n-back,,,,149,5,,,,1,None,V,False,None,,,,,
n-back,,,,150,5,,,,1,None,V,False,None,,,,,
choice,fixation,148.67431583299185,149.67754125001375,33,5,,,,,,,,,Land,,,,
choice,option,149.68578470801003,150.71397783298744,33,5,,,,,,,,,Land,,,,
choice,choice,150.71410874999128,176.7878648749902,33,5,,,1,1,25.05965749997995,,,,Land,,,,
choice,fixation,176.78798379198997,178.04300854200847,34,5,,,,,,,,,Sea,,,,
choice,option,178.05156074999832,179.07830945801106,34,5,,,,,,,,,Sea,,,,
choice,choice,179.078416208009,184.20872179200524,34,5,,,1,1,4.120444083993789,,,,Sea,,,,
choice,fixation,184.20884679199662,185.7138142499898,35,5,,,,,,,,,Pattern,,,,
choice,option,185.72362770800828,186.7506029579963,35,5,,,,,,,,,Pattern,,,,
choice,choice,186.7507204579888,195.35822804199415,35,5,,,1,1,7.59774466700037,,,,Pattern,,,,
choice,fixation,195.35836037501576,196.6135265000048,36,5,,,,,,,,,Animal,,,,
choice,option,196.62336349999532,197.6500287920062,36,5,,,,,,,,,Animal,,,,
choice,choice,197.65020820801146,209.65965641700313,36,5,,,1,1,10.998688666993985,,,,Animal,,,,
choice,fixation,209.6597982920066,210.16395474999445,37,5,,,,,,,,,Object,,,,
choice,option,210.1733947499888,211.19907566701295,37,5,,,,,,,,,Object,,,,
choice,choice,211.19921762499143,218.23456591699505,37,5,,,2,0,6.0254707080021035,,,,Object,,,,
choice,fixation,218.23468424999737,219.48978833301226,38,5,,,,,,,,,Large,,,,
choice,option,219.4985672920011,220.52453008299926,38,5,,,,,,,,,Large,,,,
choice,choice,220.52464254200459,226.62581633299123,38,5,,,1,1,5.091693750000559,,,,Large,,,,
choice,fixation,226.62593108299188,227.63093474999187,39,5,,,,,,,,,Small,,,,
choice,option,227.63998524998897,228.66663783299737,39,5,,,,,,,,,Small,,,,
choice,choice,228.66675070801284,235.08015787499608,39,5,,,2,0,5.403661124990322,,,,Small,,,,
choice,fixation,235.08031912500155,236.08806441701017,40,5,,,,,,,,,Solid,,,,
choice,option,236.09770725001,237.12322804200812,40,5,,,,,,,,,Solid,,,,
choice,choice,237.12333966701408,269.1948453329969,40,5,,,1,1,31.060880125005497,,,,Solid,,,,
memory,free_recall,281.80265108300955,292.0706722080067,24,5,,,,,,,,,,,,,
memory,value_recall,300.54007308301516,304.8990523329994,25,5,Animal_Sea_Solid_Large,,,,4.354907750006532,,,,,-1,,,
memory,value_recall,306.19493841700023,309.90213370800484,26,5,Object_Sea_Pattern_Large,,,,3.702826708002249,,,,,-2,,,
memory,value_recall,311.4472135420074,316.60312183300266,27,5,Object_Land_Solid_Small,,,,5.149312082998222,,,,,7,,,
memory,value_recall,318.6481913329917,320.9193322919891,28,5,Animal_Land_Solid_Small,,,,2.2650232919841073,,,,,-5,,,
memory,value_recall,321.9643093330087,330.6557428330125,29,5,Object_Land_Pattern_Small,,,,8.688281790993642,,,,,-1,,,
memory,value_recall,331.95159591699485,333.6536018750048,30,5,Animal_Sea_Pattern_Large,,,,1.6977625410072505,,,,,7,,,
memory,spatial_recall,337.8826976249984,340.56708737500594,30,5,Object_Land_Solid_Small,,,1,2.6803483749972656,,,,,,"[-329, -190]","[-329, -190]",
memory,spatial_recall,341.63054708301206,342.8784169169958,30,5,Object_Land_Pattern_Small,,,1,1.243738499993924,,,,,,"[329, -190]","[329, -190]",
memory,spatial_recall,344.43618354201317,346.1275971670111,30,5,Animal_Sea_Solid_Large,,,1,1.687225125002442,,,,,,"[0, -380]","[0, -380]",
memory,spatial_recall,347.42923216699273,349.3450212920143,30,5,Animal_Sea_Pattern_Large,,,1,1.9118119580089115,,,,,,"[-329, 190]","[-329, 190]",
memory,spatial_recall,350.4005362080061,351.60357204198954,30,5,Object_Sea_Pattern_Large,,,1,1.1991270410071593,,,,,,"[329, 189]","[329, 189]",
memory,spatial_recall,352.65397437498905,353.7612037920044,30,5,Animal_Land_Solid_Small,,,1,1.1031567080062814,,,,,,"[0, 380]","[0, 380]",
encoding,fixation,5.451211125007831,6.456546041998081,31,6,Animal_Land_Pattern_Large,1,,,,,,,,,,,
encoding,image,6.456666791986208,7.468157374998555,31,6,Animal_Land_Pattern_Large,1,,,,,,,,,,,
encoding,value,7.468338417005725,13.481165000004694,31,6,Animal_Land_Pattern_Large,1,,,,,,,,,,,
encoding,attention,13.481288332986878,16.49900629199692,31,6,Animal_Land_Pattern_Large,1,+1,1,1.046523208002327,,,,,,,,
encoding,fixation,16.499171458010096,17.00435387500329,32,6,Object_Land_Pattern_Large,-8,,,,,,,,,,,
encoding,image,17.004460833006306,18.01648579200264,32,6,Object_Land_Pattern_Large,-8,,,,,,,,,,,
encoding,value,18.016600583010586,24.0297619169869,32,6,Object_Land_Pattern_Large,-8,,,,,,,,,,,
encoding,attention,24.029972832999192,27.049290124996332,32,6,Object_Land_Pattern_Large,-8,-8,1,0.686747583997203,,,,,,,,
encoding,fixation,27.049437832989497,27.804923957999563,33,6,Animal_Land_Pattern_Small,4,,,,,,,,,,,
encoding,image,27.80508066699258,28.816459374997066,33,6,Animal_Land_Pattern_Small,4,,,,,,,,,,,
encoding,value,28.81666558299912,34.82863437500782,33,6,Animal_Land_Pattern_Small,4,,,,,,,,,,,
encoding,attention,34.82874712499324,37.84875266699237,33,6,Animal_Land_Pattern_Small,4,+4,1,0.8345205830119085,,,,,,,,
encoding,fixation,37.84889666698291,38.35422149999067,34,6,Object_Sea_Solid_Large,-3,,,,,,,,,,,
encoding,image,38.35433912498411,39.365631082997425,34,6,Object_Sea_Solid_Large,-3,,,,,,,,,,,
encoding,value,39.36575291698682,45.377904041990405,34,6,Object_Sea_Solid_Large,-3,,,,,,,,,,,
encoding,attention,45.378010499989614,48.39872349999496,34,6,Object_Sea_Solid_Large,-3,-3,1,0.6894216250220779,,,,,,,,
encoding,fixation,48.398874083010014,49.15437566698529,35,6,Animal_Sea_Solid_Small,-8,,,,,,,,,,,
encoding,image,49.154495583003154,50.165399999998044,35,6,Animal_Sea_Solid_Small,-8,,,,,,,,,,,
encoding,value,50.1655875419965,56.17681800000719,35,6,Animal_Sea_Solid_Small,-8,,,,,,,,,,,
encoding,attention,56.17693616700126,59.19418183300877,35,6,Animal_Sea_Solid_Small,-8,-8,1,0.5983603339991532,,,,,,,,
encoding,fixation,59.19432566699106,60.69960354198702,36,6,Object_Sea_Solid_Small,8,,,,,,,,,,,
encoding,image,60.69971895799972,61.71017687499989,36,6,Object_Sea_Solid_Small,8,,,,,,,,,,,
encoding,value,61.710273333010264,67.72137054198538,36,6,Object_Sea_Solid_Small,8,,,,,,,,,,,
encoding,attention,67.72149741699104,70.73790320800617,36,6,Object_Sea_Solid_Small,8,+8,1,0.9130414169922005,,,,,,,,
n-back,,,,151,6,,,,1,None,B,False,None,,,,,
n-back,,,,152,6,,,,1,None,N,False,None,,,,,
n-back,,,,153,6,,,,1,0.599192875000881,B,True,1,,,,,
n-back,,,,154,6,,,,1,None,B,False,None,,,,,
n-back,,,,155,6,,,,1,None,X,False,None,,,,,
n-back,,,,156,6,,,,1,None,Z,False,None,,,,,
n-back,,,,157,6,,,,1,0.5536967079970054,X,True,1,,,,,
n-back,,,,158,6,,,,1,0.7099854169937316,Z,True,1,,,,,
n-back,,,,159,6,,,,1,None,V,False,None,,,,,
n-back,,,,160,6,,,,1,None,B,False,None,,,,,
n-back,,,,161,6,,,,1,0.4969421669957228,V,True,1,,,,,
n-back,,,,162,6,,,,1,None,Z,False,None,,,,,
n-back,,,,163,6,,,,1,0.6724082500149962,V,True,1,,,,,
n-back,,,,164,6,,,,1,0.7567134579876438,Z,True,1,,,,,
n-back,,,,165,6,,,,1,None,X,False,None,,,,,
n-back,,,,166,6,,,,1,None,V,False,None,,,,,
n-back,,,,167,6,,,,1,0.4834182909980882,X,True,1,,,,,
n-back,,,,168,6,,,,1,0.8401107910030987,V,True,1,,,,,
n-back,,,,169,6,,,,1,None,B,False,None,,,,,
n-back,,,,170,6,,,,1,None,X,False,None,,,,,
n-back,,,,171,6,,,,1,None,N,False,None,,,,,
n-back,,,,172,6,,,,1,None,B,False,None,,,,,
n-back,,,,173,6,,,,1,0.6222728749853559,N,True,1,,,,,
n-back,,,,174,6,,,,1,None,V,False,None,,,,,
n-back,,,,175,6,,,,1,0.7062548339890782,N,True,1,,,,,
n-back,,,,176,6,,,,1,None,N,False,None,,,,,
n-back,,,,177,6,,,,1,None,Z,False,None,,,,,
n-back,,,,178,6,,,,1,None,C,False,None,,,,,
n-back,,,,179,6,,,,1,None,B,False,None,,,,,
n-back,,,,180,6,,,,1,None,X,False,None,,,,,
choice,fixation,147.45035562498379,148.45352083299076,41,6,,,,,,,,,Small,,,,
choice,option,148.4624472919968,149.49058416698244,41,6,,,,,,,,,Small,,,,
choice,choice,149.49071233300492,183.65749854198657,41,6,,,2,0,33.15596095798537,,,,Small,,,,
choice,fixation,183.65763587498805,185.16270049999002,42,6,,,,,,,,,Solid,,,,
choice,option,185.1721429580066,186.19871774999774,42,6,,,,,,,,,Solid,,,,
choice,choice,186.19883616699371,200.4740219579835,42,6,,,1,0,13.264404624991585,,,,Solid,,,,
choice,fixation,200.4741448329878,200.97883079200983,43,6,,,,,,,,,Object,,,,
choice,option,200.98789637500886,202.01443583299988,43,6,,,,,,,,,Object,,,,
choice,choice,202.0145417919848,209.08923874999164,43,6,,,2,1,6.064686500001699,,,,Object,,,,
choice,fixation,209.08940208298736,210.09398983299616,44,6,,,,,,,,,Sea,,,,
choice,option,210.10263012500945,211.12839949998306,44,6,,,,,,,,,Sea,,,,
choice,choice,211.12851024998236,218.5477739580092,44,6,,,2,1,6.409851917007472,,,,Sea,,,,
choice,fixation,218.54789937500027,220.05323120800313,45,6,,,,,,,,,Animal,,,,
choice,option,220.06267499999376,221.0897426669835,45,6,,,,,,,,,Animal,,,,
choice,choice,221.08986466701026,227.58455804199912,45,6,,,2,1,5.4849960829888005,,,,Animal,,,,
choice,fixation,227.58468850000645,228.58980175000033,46,6,,,,,,,,,Large,,,,
choice,option,228.59864295800799,229.62599862500792,46,6,,,,,,,,,Large,,,,
choice,choice,229.62609908299055,248.17929941701004,46,6,,,2,1,17.542188040999463,,,,Large,,,,
choice,fixation,248.17941479198635,248.93456879199948,47,6,,,,,,,,,Pattern,,,,
choice,option,248.94377379200887,249.9698170000047,47,6,,,,,,,,,Pattern,,,,
choice,choice,249.96991774998605,257.8262067080068,47,6,,,1,0,6.844591166998725,,,,Pattern,,,,
choice,fixation,257.82633208300103,258.5812389169878,48,6,,,,,,,,,Land,,,,
choice,option,258.59019379198435,259.6172552079952,48,6,,,,,,,,,Land,,,,
choice,choice,259.6173720829829,266.9128443750087,48,6,,,2,1,6.285946000018157,,,,Land,,,,
memory,free_recall,276.1859263329825,290.6597235829977,30,6,,,,,,,,,,,,,
memory,value_recall,296.2783632919891,298.1955156250042,31,6,Object_Land_Pattern_Large,,,,1.9131052079901565,,,,,-8,,,
memory,value_recall,299.7436576249893,303.0617694579996,32,6,Animal_Land_Pattern_Small,,,,3.3142219580186065,,,,,4,,,
memory,value_recall,304.1097652919998,306.57817079199594,33,6,Object_Sea_Solid_Small,,,,2.4652087499853224,,,,,8,,,
memory,value_recall,308.1268864579906,309.6272319169948,34,6,Animal_Sea_Solid_Small,,,,1.4961802079924382,,,,,-8,,,
memory,value_recall,311.6728720829997,313.14082683299785,35,6,Animal_Land_Pattern_Large,,,,1.4637451670132577,,,,,1,,,
memory,value_recall,314.43734949998907,316.2676642079896,36,6,Object_Sea_Solid_Large,,,,1.8251244160055649,,,,,-3,,,
memory,spatial_recall,320.2934236250003,321.63707941700704,36,6,Animal_Sea_Solid_Small,,,1,1.339706708007725,,,,,,"[0, -380]","[0, -380]",
memory,spatial_recall,322.6912372499937,323.88692324998556,36,6,Animal_Land_Pattern_Small,,,1,1.1929134590027388,,,,,,"[329, -190]","[329, -190]",
memory,spatial_recall,325.4461465420027,327.2311229580082,36,6,Object_Sea_Solid_Small,,,1,1.7809534999832977,,,,,,"[329, 189]","[329, 189]",
memory,spatial_recall,329.2903195419931,330.71752391700284,36,6,Object_Land_Pattern_Large,,,1,1.4232702500012238,,,,,,"[0, 380]","[0, 380]",
memory,spatial_recall,332.52537770799245,333.7844142499962,36,6,Object_Sea_Solid_Large,,,1,1.2549247499846388,,,,,,"[-329, 190]","[-329, 190]",
memory,spatial_recall,334.8282664169965,336.4679824580089,36,6,Animal_Land_Pattern_Large,,,1,1.6357161249907222,,,,,,"[-329, -190]","[-329, -190]",
encoding,fixation,6.727469834004296,7.983445792022394,37,7,Object_Sea_Pattern_Small,-2,,,,,,,,,,,
encoding,image,7.9835674590140115,8.994674000015948,37,7,Object_Sea_Pattern_Small,-2,,,,,,,,,,,
encoding,value,8.994851084018592,15.007544292020611,37,7,Object_Sea_Pattern_Small,-2,,,,,,,,,,,
encoding,attention,15.007678084017243,18.026866250002058,37,7,Object_Sea_Pattern_Small,-2,-2,1,0.8528606669860892,,,,,,,,
encoding,fixation,18.02702141701593,19.28229050000664,38,7,Animal_Land_Pattern_Large,9,,,,,,,,,,,
encoding,image,19.28238870901987,20.293684042000677,38,7,Animal_Land_Pattern_Large,9,,,,,,,,,,,
encoding,value,20.293803667009342,26.305227709002793,38,7,Animal_Land_Pattern_Large,9,,,,,,,,,,,
encoding,attention,26.305348792026052,29.322684292012127,38,7,Animal_Land_Pattern_Large,9,+9,1,0.5943535419937689,,,,,,,,
encoding,fixation,29.322827875002986,30.828608625015477,39,7,Object_Sea_Solid_Large,6,,,,,,,,,,,
encoding,image,30.828711334004765,31.840134334022878,39,7,Object_Sea_Solid_Large,6,,,,,,,,,,,
encoding,value,31.84025004200521,37.853366292023566,39,7,Object_Sea_Solid_Large,6,,,,,,,,,,,
encoding,attention,37.853522500023246,40.875594750017626,39,7,Object_Sea_Solid_Large,6,+6,1,0.8137924170005135,,,,,,,,
encoding,fixation,40.875749209022615,41.88067741700797,40,7,Animal_Sea_Solid_Small,7,,,,,,,,,,,
encoding,image,41.880782542022644,42.89158766702167,40,7,Animal_Sea_Solid_Small,7,,,,,,,,,,,
encoding,value,42.891693834011676,48.90425458402024,40,7,Animal_Sea_Solid_Small,7,,,,,,,,,,,
encoding,attention,48.904373500001384,51.921363708999706,40,7,Animal_Sea_Solid_Small,7,+7,1,1.2369942919758614,,,,,,,,
encoding,fixation,51.92151991702849,53.176571209012764,41,7,Animal_Land_Solid_Large,-9,,,,,,,,,,,
encoding,image,53.176679875003174,54.187997750006616,41,7,Animal_Land_Solid_Large,-9,,,,,,,,,,,
encoding,value,54.188112042000284,60.20004350002273,41,7,Animal_Land_Solid_Large,-9,,,,,,,,,,,
encoding,attention,60.200162834022194,63.22006137500284,41,7,Animal_Land_Solid_Large,-9,-9,1,1.6507357090013102,,,,,,,,
encoding,fixation,63.22022604200174,64.72530466702301,42,7,Object_Land_Pattern_Small,-2,,,,,,,,,,,
encoding,image,64.72544550002203,65.73660904201097,42,7,Object_Land_Pattern_Small,-2,,,,,,,,,,,
encoding,value,65.73671537500923,71.74850704200799,42,7,Object_Land_Pattern_Small,-2,,,,,,,,,,,
encoding,attention,71.74862087500514,74.76507854202646,42,7,Object_Land_Pattern_Small,-2,-2,1,0.5786075420037378,,,,,,,,
n-back,,,,181,7,,,,1,None,B,False,None,,,,,
n-back,,,,182,7,,,,0,None,B,True,None,,,,,
n-back,,,,183,7,,,,1,None,X,False,None,,,,,
n-back,,,,184,7,,,,1,0.5870653330057394,B,True,1,,,,,
n-back,,,,185,7,,,,1,0.7332376669801306,X,True,1,,,,,
n-back,,,,186,7,,,,1,None,N,False,None,,,,,
n-back,,,,187,7,,,,1,0.4526149579905905,X,True,1,,,,,
n-back,,,,188,7,,,,1,None,X,False,None,,,,,
n-back,,,,189,7,,,,1,None,V,False,None,,,,,
n-back,,,,190,7,,,,1,None,B,False,None,,,,,
n-back,,,,191,7,,,,1,None,Z,False,None,,,,,
n-back,,,,192,7,,,,1,0.5344387080112938,B,True,1,,,,,
n-back,,,,193,7,,,,1,0.5977257089980412,Z,True,1,,,,,
n-back,,,,194,7,,,,1,None,C,False,None,,,,,
n-back,,,,195,7,,,,1,0.47922029200708494,Z,True,1,,,,,
n-back,,,,196,7,,,,1,None,X,False,None,,,,,
n-back,,,,197,7,,,,1,0.6242434580053668,Z,True,1,,,,,
n-back,,,,198,7,,,,1,None,Z,False,None,,,,,
n-back,,,,199,7,,,,1,None,V,False,None,,,,,
n-back,,,,200,7,,,,1,None,V,False,None,,,,,
n-back,,,,201,7,,,,1,None,C,False,None,,,,,
n-back,,,,202,7,,,,1,None,C,False,None,,,,,
n-back,,,,203,7,,,,1,0.3854143330245279,C,True,1,,,,,
n-back,,,,204,7,,,,1,None,B,False,None,,,,,
n-back,,,,205,7,,,,1,0.3806295829999726,C,True,1,,,,,
n-back,,,,206,7,,,,1,None,N,False,None,,,,,
n-back,,,,207,7,,,,1,None,V,False,None,,,,,
n-back,,,,208,7,,,,1,None,X,False,None,,,,,
n-back,,,,209,7,,,,1,None,N,False,None,,,,,
n-back,,,,210,7,,,,1,None,N,False,None,,,,,
choice,fixation,133.30807387502864,134.06158783400315,49,7,,,,,,,,,Sea,,,,
choice,option,134.07003970901133,135.09629129202222,49,7,,,,,,,,,Sea,,,,
choice,choice,135.09642516702297,139.21470037501422,49,7,,,1,1,3.108064917003503,,,,Sea,,,,
choice,fixation,139.2148243750271,140.72179320902796,50,7,,,,,,,,,Solid,,,,
choice,option,140.73083329200745,141.7569237500138,50,7,,,,,,,,,Solid,,,,
choice,choice,141.75702770901262,165.99230950002675,50,7,,,2,0,23.223796082980698,,,,Solid,,,,
choice,fixation,165.9924288750044,166.4976117920014,51,7,,,,,,,,,Small,,,,
choice,option,166.50646900001448,167.53245954200975,51,7,,,,,,,,,Small,,,,
choice,choice,167.5325644170225,171.09546116701677,51,7,,,1,1,2.5533233750029467,,,,Small,,,,
choice,fixation,171.0956269170274,172.35050479200436,52,7,,,,,,,,,Land,,,,
choice,option,172.358950792026,173.38822312501725,52,7,,,,,,,,,Land,,,,
choice,choice,173.3883393750002,178.15119120900636,52,7,,,2,1,3.7534929169924,,,,Land,,,,
choice,fixation,178.1513270420255,179.40569108401542,53,7,,,,,,,,,Animal,,,,
choice,option,179.41570783400675,180.44266079200315,53,7,,,,,,,,,Animal,,,,
choice,choice,180.4427875840047,189.1592026250146,53,7,,,1,1,7.70591637500911,,,,Animal,,,,
choice,fixation,189.15932837501168,190.41415370901814,54,7,,,,,,,,,Large,,,,
choice,option,190.42300308402628,191.44929108401993,54,7,,,,,,,,,Large,,,,
choice,choice,191.4494075840048,202.09571525000501,54,7,,,1,1,9.636099249997642,,,,Large,,,,
choice,fixation,202.09583362500416,203.10084308401565,55,7,,,,,,,,,Object,,,,
choice,option,203.1105077920074,204.13678712502588,55,7,,,,,,,,,Object,,,,
choice,choice,204.1368990840274,214.39144975002273,55,7,,,1,1,9.244321125006536,,,,Object,,,,
choice,fixation,214.39156229200307,215.39660191701842,56,7,,,,,,,,,Pattern,,,,
choice,option,215.40593233401887,216.43242304201704,56,7,,,,,,,,,Pattern,,,,
choice,choice,216.4325412500184,221.0778301670216,56,7,,,1,1,3.6356341670034453,,,,Pattern,,,,
memory,free_recall,227.7716403340164,239.02482587500708,36,7,,,,,,,,,,,,,
memory,value_recall,243.07032537501073,245.00241150002694,37,7,Animal_Land_Solid_Large,,,,1.9279969159979373,,,,,-9,,,
memory,value_recall,246.7988767090137,252.28222087500035,38,7,Animal_Sea_Solid_Small,,,,5.479150540981209,,,,,7,,,
memory,value_recall,253.82809683401138,256.4569857090246,39,7,Object_Sea_Solid_Large,,,,2.6247392919904087,,,,,6,,,
memory,value_recall,257.75234212502255,260.723196750012,40,7,Object_Sea_Pattern_Small,,,,2.966631207993487,,,,,-2,,,
memory,value_recall,262.5216739590105,263.97150666700327,41,7,Animal_Land_Pattern_Large,,,,1.4458269169845153,,,,,9,,,
memory,value_recall,265.51640025002416,268.77576416701777,42,7,Object_Land_Pattern_Small,,,,3.254460833995836,,,,,-2,,,
memory,spatial_recall,271.8132791670214,272.8953077500046,42,7,Object_Sea_Pattern_Small,,,1,1.075513374991715,,,,,,"[0, 380]","[0, 380]",
memory,spatial_recall,274.2003478340048,274.96354120902834,42,7,Object_Land_Pattern_Small,,,1,0.758916416001739,,,,,,"[329, -190]","[329, -190]",
memory,spatial_recall,276.0132125840173,276.8967811250186,42,7,Object_Sea_Solid_Large,,,1,0.8770831659785472,,,,,,"[-329, 190]","[-329, 190]",
memory,spatial_recall,278.44507050001994,280.0122635840089,42,7,Animal_Sea_Solid_Small,,,1,1.5631786659942009,,,,,,"[0, -380]","[0, -380]",
memory,spatial_recall,282.0712333750271,283.4116480000084,42,7,Animal_Land_Pattern_Large,,,1,1.3362840829940978,,,,,,"[-329, -190]","[-329, -190]",
memory,spatial_recall,284.7160611670115,285.42815625001094,42,7,Animal_Land_Solid_Large,,,1,0.7081569999863859,,,,,,"[329, 189]","[329, 189]",
