phase,event,trial_number,eyetracker_onset,eyetracker_offset,fix_start,fix_end,fix_duration_full,fix_duration_bounded,fix_x,fix_y,roi_x,roi_y,roi_content,onset,offset,game,image,outcome,choice,correct,rt,letter,match,response,option,true_value,true_position,recalled_position,Unnamed: 18
encoding,fixation,1,17396490,17398000,17396729.0,17396840.0,112.0,112.0,1899.9,1137.3,1920.0,1080.0,fixation,14.959445166983642,16.46971166698495,1.0,Object_Land_Solid_Large,-5.0,,,,,,,,,,,
encoding,fixation,1,17396490,17398000,17397024.0,17397270.0,247.0,247.0,1881.4,1248.9,1920.0,700.0,Object_Sea_Pattern_Small,14.959445166983642,16.46971166698495,1.0,Object_Land_Solid_Large,-5.0,,,,,,,,,,,
encoding,fixation,1,17396490,17398000,17397287.0,17397557.0,271.0,271.0,1966.8,1204.0,1920.0,700.0,Object_Sea_Pattern_Small,14.959445166983642,16.46971166698495,1.0,Object_Land_Solid_Large,-5.0,,,,,,,,,,,
encoding,fixation,1,17396490,17398000,17397700.0,17397947.0,248.0,248.0,1864.5,1211.7,1920.0,700.0,Object_Sea_Pattern_Small,14.959445166983642,16.46971166698495,1.0,Object_Land_Solid_Large,-5.0,,,,,,,,,,,
encoding,fixation,1,17396490,17398000,17397971.0,17398252.0,282.0,29.0,1932.2,1127.2,1920.0,1080.0,fixation,14.959445166983642,16.46971166698495,1.0,Object_Land_Solid_Large,-5.0,,,,,,,,,,,
encoding,image,1,17398000,17399016,17398296.0,17398620.0,325.0,325.0,1878.8,635.4000000000001,1920.0,1460.0,Object_Land_Solid_Large,16.469830666988855,17.4856814169907,1.0,Object_Land_Solid_Large,-5.0,,,,,,,,,,,
encoding,image,1,17398000,17399016,17398660.0,17399000.0,341.0,341.0,1920.7,1071.7,1920.0,1080.0,fixation,16.469830666988855,17.4856814169907,1.0,Object_Land_Solid_Large,-5.0,,,,,,,,,,,
encoding,value,1,17399016,17405031,17399038.0,17399233.0,196.0,196.0,1911.4,762.8,1920.0,1460.0,Object_Land_Solid_Large,17.485789792001015,23.49997562498902,1.0,Object_Land_Solid_Large,-5.0,,,,,,,,,,,
encoding,value,1,17399016,17405031,17399259.0,17399573.0,315.0,315.0,1860.3,592.9000000000001,1920.0,1460.0,Object_Land_Solid_Large,17.485789792001015,23.49997562498902,1.0,Object_Land_Solid_Large,-5.0,,,,,,,,,,,
encoding,value,1,17399016,17405031,17399782.0,17401111.0,1330.0,1330.0,1877.9,636.5,1920.0,1460.0,Object_Land_Solid_Large,17.485789792001015,23.49997562498902,1.0,Object_Land_Solid_Large,-5.0,,,,,,,,,,,
encoding,value,1,17399016,17405031,17401122.0,17401743.0,622.0,622.0,1831.4,557.0999999999999,1920.0,1460.0,Object_Land_Solid_Large,17.485789792001015,23.49997562498902,1.0,Object_Land_Solid_Large,-5.0,,,,,,,,,,,
encoding,value,1,17399016,17405031,17402007.0,17402676.0,670.0,670.0,1891.2,629.9000000000001,1920.0,1460.0,Object_Land_Solid_Large,17.485789792001015,23.49997562498902,1.0,Object_Land_Solid_Large,-5.0,,,,,,,,,,,
encoding,value,1,17399016,17405031,17402691.0,17403270.0,580.0,580.0,1856.7,567.5999999999999,1920.0,1460.0,Object_Land_Solid_Large,17.485789792001015,23.49997562498902,1.0,Object_Land_Solid_Large,-5.0,,,,,,,,,,,
encoding,value,1,17399016,17405031,17403291.0,17404455.0,1165.0,1165.0,1909.6,668.5999999999999,1920.0,1460.0,Object_Land_Solid_Large,17.485789792001015,23.49997562498902,1.0,Object_Land_Solid_Large,-5.0,,,,,,,,,,,
encoding,value,1,17399016,17405031,17404675.0,17405265.0,591.0,356.0,1884.7,639.0999999999999,1920.0,1460.0,Object_Land_Solid_Large,17.485789792001015,23.49997562498902,1.0,Object_Land_Solid_Large,-5.0,,,,,,,,,,,
encoding,attention,1,17405031,17408049,17405281.0,17405594.0,314.0,314.0,1830.2,564.0,1920.0,1460.0,Object_Land_Solid_Large,23.500097916985396,26.517778291978175,1.0,Object_Land_Solid_Large,-5.0,-5.0,1.0,0.9883734159811866,,,,,,,,
encoding,attention,1,17405031,17408049,17405836.0,17406298.0,463.0,463.0,1853.8,615.2,1920.0,1460.0,Object_Land_Solid_Large,23.500097916985396,26.517778291978175,1.0,Object_Land_Solid_Large,-5.0,-5.0,1.0,0.9883734159811866,,,,,,,,
encoding,attention,1,17405031,17408049,17406542.0,17406972.0,431.0,431.0,1915.8,721.0,1920.0,1460.0,Object_Land_Solid_Large,23.500097916985396,26.517778291978175,1.0,Object_Land_Solid_Large,-5.0,-5.0,1.0,0.9883734159811866,,,,,,,,
encoding,fixation,2,17408049,17408555,17408257.0,17408359.0,103.0,103.0,1922.0,1084.1,1920.0,1080.0,fixation,26.51793854200514,27.024567499989644,1.0,Object_Land_Solid_Small,-3.0,,,,,,,,,,,
encoding,fixation,2,17408049,17408555,17408510.0,17408794.0,285.0,45.0,1926.0,1074.9,1920.0,1080.0,fixation,26.51793854200514,27.024567499989644,1.0,Object_Land_Solid_Small,-3.0,,,,,,,,,,,
encoding,image,2,17408555,17409567,17408833.0,17409464.0,632.0,632.0,1587.8,866.3,1591.0,1269.0,Object_Land_Solid_Small,27.024683374998855,28.03641395899467,1.0,Object_Land_Solid_Small,-3.0,,,,,,,,,,,
encoding,value,2,17409567,17415580,17409699.0,17409960.0,262.0,262.0,1614.3,886.0,1591.0,1269.0,Object_Land_Solid_Small,28.036526791984215,34.048690916999476,1.0,Object_Land_Solid_Small,-3.0,,,,,,,,,,,
encoding,value,2,17409567,17415580,17409980.0,17410278.0,299.0,299.0,1592.1,780.9000000000001,1591.0,1269.0,Object_Land_Solid_Small,28.036526791984215,34.048690916999476,1.0,Object_Land_Solid_Small,-3.0,,,,,,,,,,,
encoding,value,2,17409567,17415580,17410544.0,17410798.0,255.0,255.0,1596.8,830.9000000000001,1591.0,1269.0,Object_Land_Solid_Small,28.036526791984215,34.048690916999476,1.0,Object_Land_Solid_Small,-3.0,,,,,,,,,,,
encoding,value,2,17409567,17415580,17410981.0,17411058.0,78.0,78.0,1731.4,905.8,1591.0,1269.0,Object_Land_Solid_Small,28.036526791984215,34.048690916999476,1.0,Object_Land_Solid_Small,-3.0,,,,,,,,,,,
encoding,value,2,17409567,17415580,17411196.0,17411574.0,379.0,379.0,1839.2,882.0999999999999,1920.0,1460.0,Object_Land_Solid_Large,28.036526791984215,34.048690916999476,1.0,Object_Land_Solid_Small,-3.0,,,,,,,,,,,
encoding,value,2,17409567,17415580,17411807.0,17412065.0,259.0,259.0,1652.1,830.7,1591.0,1269.0,Object_Land_Solid_Small,28.036526791984215,34.048690916999476,1.0,Object_Land_Solid_Small,-3.0,,,,,,,,,,,
encoding,value,2,17409567,17415580,17412278.0,17412410.0,133.0,133.0,1872.8,965.7,1920.0,1460.0,Object_Land_Solid_Large,28.036526791984215,34.048690916999476,1.0,Object_Land_Solid_Small,-3.0,,,,,,,,,,,
encoding,value,2,17409567,17415580,17412441.0,17412595.0,155.0,155.0,1621.6,795.0999999999999,1591.0,1269.0,Object_Land_Solid_Small,28.036526791984215,34.048690916999476,1.0,Object_Land_Solid_Small,-3.0,,,,,,,,,,,
encoding,value,2,17409567,17415580,17412852.0,17413131.0,280.0,280.0,1615.9,868.5999999999999,1591.0,1269.0,Object_Land_Solid_Small,28.036526791984215,34.048690916999476,1.0,Object_Land_Solid_Small,-3.0,,,,,,,,,,,
encoding,value,2,17409567,17415580,17413145.0,17413502.0,358.0,358.0,1622.2,808.2,1591.0,1269.0,Object_Land_Solid_Small,28.036526791984215,34.048690916999476,1.0,Object_Land_Solid_Small,-3.0,,,,,,,,,,,
encoding,value,2,17409567,17415580,17413723.0,17414498.0,776.0,776.0,1629.0,809.9000000000001,1591.0,1269.0,Object_Land_Solid_Small,28.036526791984215,34.048690916999476,1.0,Object_Land_Solid_Small,-3.0,,,,,,,,,,,
encoding,value,2,17409567,17415580,17414511.0,17415277.0,767.0,767.0,1600.4,773.5,1591.0,1269.0,Object_Land_Solid_Small,28.036526791984215,34.048690916999476,1.0,Object_Land_Solid_Small,-3.0,,,,,,,,,,,
encoding,value,2,17409567,17415580,17415296.0,17415573.0,278.0,278.0,1603.8,848.0,1591.0,1269.0,Object_Land_Solid_Small,28.036526791984215,34.048690916999476,1.0,Object_Land_Solid_Small,-3.0,,,,,,,,,,,
encoding,attention,2,17415580,17418599,17415586.0,17415945.0,360.0,360.0,1581.0,770.7,1591.0,1269.0,Object_Land_Solid_Small,34.04882887497661,37.067478958982974,1.0,Object_Land_Solid_Small,-3.0,-3.0,1.0,1.3460727089841384,,,,,,,,
encoding,attention,2,17415580,17418599,17416175.0,17416715.0,541.0,541.0,1598.5,784.4000000000001,1591.0,1269.0,Object_Land_Solid_Small,34.04882887497661,37.067478958982974,1.0,Object_Land_Solid_Small,-3.0,-3.0,1.0,1.3460727089841384,,,,,,,,
encoding,attention,2,17415580,17418599,17416728.0,17417232.0,505.0,505.0,1596.6,836.9000000000001,1591.0,1269.0,Object_Land_Solid_Small,34.04882887497661,37.067478958982974,1.0,Object_Land_Solid_Small,-3.0,-3.0,1.0,1.3460727089841384,,,,,,,,
encoding,attention,2,17415580,17418599,17417429.0,17418571.0,1143.0,1143.0,1637.8,855.3,1591.0,1269.0,Object_Land_Solid_Small,34.04882887497661,37.067478958982974,1.0,Object_Land_Solid_Small,-3.0,-3.0,1.0,1.3460727089841384,,,,,,,,
encoding,fixation,3,17418599,17419354,17418861.0,17419152.0,292.0,292.0,1927.5,1051.2,1920.0,1080.0,fixation,37.067652500001714,37.82276679200004,1.0,Animal_Land_Solid_Large,9.0,,,,,,,,,,,
encoding,fixation,3,17418599,17419354,17419190.0,17419341.0,152.0,152.0,1900.4,804.4000000000001,1920.0,1460.0,Object_Land_Solid_Large,37.067652500001714,37.82276679200004,1.0,Animal_Land_Solid_Large,9.0,,,,,,,,,,,
encoding,image,3,17419354,17420366,17419376.0,17419664.0,289.0,289.0,1914.2,1034.6,1920.0,1080.0,fixation,37.8228827919811,38.834419583989074,1.0,Animal_Land_Solid_Large,9.0,,,,,,,,,,,
encoding,image,3,17419354,17420366,17419705.0,17419837.0,133.0,133.0,2210.7,1244.3,2249.0,891.0,Animal_Land_Solid_Large,37.8228827919811,38.834419583989074,1.0,Animal_Land_Solid_Large,9.0,,,,,,,,,,,
encoding,image,3,17419354,17420366,17419849.0,17420562.0,714.0,517.0,2289.7,1247.2,2249.0,891.0,Animal_Land_Solid_Large,37.8228827919811,38.834419583989074,1.0,Animal_Land_Solid_Large,9.0,,,,,,,,,,,
encoding,value,3,17420366,17426382,17420578.0,17421016.0,439.0,439.0,2264.8,1180.7,2249.0,891.0,Animal_Land_Solid_Large,38.834551459003706,44.85013229199103,1.0,Animal_Land_Solid_Large,9.0,,,,,,,,,,,
encoding,value,3,17420366,17426382,17421175.0,17422523.0,1349.0,1349.0,2282.1,1230.5,2249.0,891.0,Animal_Land_Solid_Large,38.834551459003706,44.85013229199103,1.0,Animal_Land_Solid_Large,9.0,,,,,,,,,,,
encoding,value,3,17420366,17426382,17422637.0,17424169.0,1533.0,1533.0,2261.9,1238.3,2249.0,891.0,Animal_Land_Solid_Large,38.834551459003706,44.85013229199103,1.0,Animal_Land_Solid_Large,9.0,,,,,,,,,,,
encoding,value,3,17420366,17426382,17424189.0,17424998.0,810.0,810.0,2273.8,1136.0,2249.0,891.0,Animal_Land_Solid_Large,38.834551459003706,44.85013229199103,1.0,Animal_Land_Solid_Large,9.0,,,,,,,,,,,
encoding,value,3,17420366,17426382,17425018.0,17425393.0,376.0,376.0,2235.9,1230.5,2249.0,891.0,Animal_Land_Solid_Large,38.834551459003706,44.85013229199103,1.0,Animal_Land_Solid_Large,9.0,,,,,,,,,,,
encoding,value,3,17420366,17426382,17425401.0,17425722.0,322.0,322.0,2280.6,1246.8,2249.0,891.0,Animal_Land_Solid_Large,38.834551459003706,44.85013229199103,1.0,Animal_Land_Solid_Large,9.0,,,,,,,,,,,
encoding,value,3,17420366,17426382,17425740.0,17426780.0,1041.0,642.0,2248.5,1128.7,2249.0,891.0,Animal_Land_Solid_Large,38.834551459003706,44.85013229199103,1.0,Animal_Land_Solid_Large,9.0,,,,,,,,,,,
encoding,attention,3,17426382,17429402,17426918.0,17427704.0,787.0,787.0,2226.5,1163.3,2249.0,891.0,Animal_Land_Solid_Large,44.85025920899352,47.86976458400022,1.0,Animal_Land_Solid_Large,9.0,9.0,1.0,1.0292639999825042,,,,,,,,
encoding,fixation,4,17429402,17430157,17429459.0,17429629.0,171.0,171.0,2213.5,1190.4,2249.0,891.0,Animal_Land_Solid_Large,47.86996220899164,48.62505291699199,1.0,Object_Sea_Pattern_Small,3.0,,,,,,,,,,,
encoding,fixation,4,17429402,17430157,17429660.0,17429882.0,223.0,223.0,1962.3,1053.6,1920.0,1080.0,fixation,47.86996220899164,48.62505291699199,1.0,Object_Sea_Pattern_Small,3.0,,,,,,,,,,,
encoding,fixation,4,17429402,17430157,17429893.0,17430146.0,254.0,254.0,1919.6,1089.3,1920.0,1080.0,fixation,47.86996220899164,48.62505291699199,1.0,Object_Sea_Pattern_Small,3.0,,,,,,,,,,,
encoding,image,4,17430157,17431168,17430171.0,17430349.0,179.0,179.0,1956.6,1225.8,1920.0,700.0,Object_Sea_Pattern_Small,48.62517183399177,49.636438833986176,1.0,Object_Sea_Pattern_Small,3.0,,,,,,,,,,,
encoding,image,4,17430157,17431168,17430377.0,17431334.0,958.0,791.0,1921.8,1411.8,1920.0,700.0,Object_Sea_Pattern_Small,48.62517183399177,49.636438833986176,1.0,Object_Sea_Pattern_Small,3.0,,,,,,,,,,,
encoding,value,4,17431168,17437180,17431352.0,17431547.0,196.0,196.0,1909.5,1320.6,1920.0,700.0,Object_Sea_Pattern_Small,49.63657512498321,55.64820104200044,1.0,Object_Sea_Pattern_Small,3.0,,,,,,,,,,,
encoding,value,4,17431168,17437180,17431654.0,17431753.0,100.0,100.0,1901.4,1467.9,1920.0,700.0,Object_Sea_Pattern_Small,49.63657512498321,55.64820104200044,1.0,Object_Sea_Pattern_Small,3.0,,,,,,,,,,,
encoding,value,4,17431168,17437180,17431839.0,17432146.0,308.0,308.0,1905.1,1472.6,1920.0,700.0,Object_Sea_Pattern_Small,49.63657512498321,55.64820104200044,1.0,Object_Sea_Pattern_Small,3.0,,,,,,,,,,,
encoding,value,4,17431168,17437180,17432153.0,17432183.0,31.0,31.0,1925.6,1444.8,1920.0,700.0,Object_Sea_Pattern_Small,49.63657512498321,55.64820104200044,1.0,Object_Sea_Pattern_Small,3.0,,,,,,,,,,,
encoding,value,4,17431168,17437180,17432297.0,17432594.0,298.0,298.0,1951.7,1545.9,1920.0,700.0,Object_Sea_Pattern_Small,49.63657512498321,55.64820104200044,1.0,Object_Sea_Pattern_Small,3.0,,,,,,,,,,,
encoding,value,4,17431168,17437180,17432643.0,17433938.0,1296.0,1296.0,1907.4,1529.2,1920.0,700.0,Object_Sea_Pattern_Small,49.63657512498321,55.64820104200044,1.0,Object_Sea_Pattern_Small,3.0,,,,,,,,,,,
encoding,value,4,17431168,17437180,17434102.0,17434191.0,90.0,90.0,1922.7,1349.5,1920.0,700.0,Object_Sea_Pattern_Small,49.63657512498321,55.64820104200044,1.0,Object_Sea_Pattern_Small,3.0,,,,,,,,,,,
encoding,value,4,17431168,17437180,17434325.0,17434587.0,263.0,263.0,1917.2,1404.0,1920.0,700.0,Object_Sea_Pattern_Small,49.63657512498321,55.64820104200044,1.0,Object_Sea_Pattern_Small,3.0,,,,,,,,,,,
encoding,value,4,17431168,17437180,17434613.0,17434796.0,184.0,184.0,1905.8,1491.6,1920.0,700.0,Object_Sea_Pattern_Small,49.63657512498321,55.64820104200044,1.0,Object_Sea_Pattern_Small,3.0,,,,,,,,,,,
encoding,value,4,17431168,17437180,17434949.0,17435315.0,367.0,367.0,1890.2,1400.3,1920.0,700.0,Object_Sea_Pattern_Small,49.63657512498321,55.64820104200044,1.0,Object_Sea_Pattern_Small,3.0,,,,,,,,,,,
encoding,value,4,17431168,17437180,17435332.0,17436200.0,869.0,869.0,1920.4,1448.3,1920.0,700.0,Object_Sea_Pattern_Small,49.63657512498321,55.64820104200044,1.0,Object_Sea_Pattern_Small,3.0,,,,,,,,,,,
encoding,value,4,17431168,17437180,17436216.0,17437259.0,1044.0,964.0,1923.0,1487.1,1920.0,700.0,Object_Sea_Pattern_Small,49.63657512498321,55.64820104200044,1.0,Object_Sea_Pattern_Small,3.0,,,,,,,,,,,
encoding,attention,4,17437180,17440197,17437279.0,17437950.0,672.0,672.0,1889.7,1344.8,1920.0,700.0,Object_Sea_Pattern_Small,55.64831437499379,58.66502258399851,1.0,Object_Sea_Pattern_Small,3.0,3.0,1.0,0.9411586670030374,,,,,,,,
encoding,attention,4,17437180,17440197,17437959.0,17438404.0,446.0,446.0,1934.6,1336.9,1920.0,700.0,Object_Sea_Pattern_Small,55.64831437499379,58.66502258399851,1.0,Object_Sea_Pattern_Small,3.0,3.0,1.0,0.9411586670030374,,,,,,,,
encoding,attention,4,17437180,17440197,17438520.0,17439171.0,652.0,652.0,1913.7,1423.3,1920.0,700.0,Object_Sea_Pattern_Small,55.64831437499379,58.66502258399851,1.0,Object_Sea_Pattern_Small,3.0,3.0,1.0,0.9411586670030374,,,,,,,,
encoding,attention,4,17437180,17440197,17439203.0,17439658.0,456.0,456.0,1961.8,1218.7,1920.0,700.0,Object_Sea_Pattern_Small,55.64831437499379,58.66502258399851,1.0,Object_Sea_Pattern_Small,3.0,3.0,1.0,0.9411586670030374,,,,,,,,
encoding,fixation,5,17440197,17440953,17440267.0,17440468.0,202.0,202.0,2031.4,1275.6,1920.0,700.0,Object_Sea_Pattern_Small,58.66520891699474,59.42048720899038,1.0,Animal_Sea_Pattern_Large,-7.0,,,,,,,,,,,
encoding,fixation,5,17440197,17440953,17440505.0,17440605.0,101.0,101.0,1948.3,1040.4,1920.0,1080.0,fixation,58.66520891699474,59.42048720899038,1.0,Animal_Sea_Pattern_Large,-7.0,,,,,,,,,,,
encoding,fixation,5,17440197,17440953,17440764.0,17440960.0,197.0,189.0,1900.6,1110.8,1920.0,1080.0,fixation,58.66520891699474,59.42048720899038,1.0,Animal_Sea_Pattern_Large,-7.0,,,,,,,,,,,
encoding,image,5,17440953,17441965,17440969.0,17441143.0,175.0,175.0,1950.9,1048.4,1920.0,1080.0,fixation,59.420595417002914,60.432741291995626,1.0,Animal_Sea_Pattern_Large,-7.0,,,,,,,,,,,
encoding,image,5,17440953,17441965,17441178.0,17441468.0,291.0,291.0,1635.6,1178.6,1591.0,891.0,Animal_Sea_Pattern_Large,59.420595417002914,60.432741291995626,1.0,Animal_Sea_Pattern_Large,-7.0,,,,,,,,,,,
encoding,image,5,17440953,17441965,17441645.0,17441795.0,151.0,151.0,1673.9,1141.5,1591.0,891.0,Animal_Sea_Pattern_Large,59.420595417002914,60.432741291995626,1.0,Animal_Sea_Pattern_Large,-7.0,,,,,,,,,,,
encoding,image,5,17440953,17441965,17441817.0,17442164.0,348.0,148.0,1605.2,1174.8,1591.0,891.0,Animal_Sea_Pattern_Large,59.420595417002914,60.432741291995626,1.0,Animal_Sea_Pattern_Large,-7.0,,,,,,,,,,,
encoding,value,5,17441965,17447977,17442178.0,17442317.0,140.0,140.0,1571.5,1090.0,1591.0,891.0,Animal_Sea_Pattern_Large,60.43284599998151,66.44458004197804,1.0,Animal_Sea_Pattern_Large,-7.0,,,,,,,,,,,
encoding,value,5,17441965,17447977,17442515.0,17443350.0,836.0,836.0,1572.5,1141.2,1591.0,891.0,Animal_Sea_Pattern_Large,60.43284599998151,66.44458004197804,1.0,Animal_Sea_Pattern_Large,-7.0,,,,,,,,,,,
encoding,value,5,17441965,17447977,17443535.0,17443746.0,212.0,212.0,1798.4,1153.3,1591.0,891.0,Animal_Sea_Pattern_Large,60.43284599998151,66.44458004197804,1.0,Animal_Sea_Pattern_Large,-7.0,,,,,,,,,,,
encoding,value,5,17441965,17447977,17443775.0,17443951.0,177.0,177.0,2124.3,1163.4,2249.0,891.0,Animal_Land_Solid_Large,60.43284599998151,66.44458004197804,1.0,Animal_Sea_Pattern_Large,-7.0,,,,,,,,,,,
encoding,value,5,17441965,17447977,17443996.0,17444212.0,217.0,217.0,1657.7,1147.3,1591.0,891.0,Animal_Sea_Pattern_Large,60.43284599998151,66.44458004197804,1.0,Animal_Sea_Pattern_Large,-7.0,,,,,,,,,,,
encoding,value,5,17441965,17447977,17444224.0,17444878.0,655.0,655.0,1593.1,1125.7,1591.0,891.0,Animal_Sea_Pattern_Large,60.43284599998151,66.44458004197804,1.0,Animal_Sea_Pattern_Large,-7.0,,,,,,,,,,,
encoding,value,5,17441965,17447977,17444889.0,17445808.0,920.0,920.0,1556.0,1155.7,1591.0,891.0,Animal_Sea_Pattern_Large,60.43284599998151,66.44458004197804,1.0,Animal_Sea_Pattern_Large,-7.0,,,,,,,,,,,
encoding,value,5,17441965,17447977,17445818.0,17448081.0,2264.0,2159.0,1606.3,1076.0,1591.0,1269.0,Object_Land_Solid_Small,60.43284599998151,66.44458004197804,1.0,Animal_Sea_Pattern_Large,-7.0,,,,,,,,,,,
encoding,attention,5,17447977,17451041,17448103.0,17448326.0,224.0,224.0,1574.4,1164.3,1591.0,891.0,Animal_Sea_Pattern_Large,66.44468616700033,69.50803591698059,1.0,Animal_Sea_Pattern_Large,-7.0,-7.0,1.0,0.6580711670103483,,,,,,,,
encoding,attention,5,17447977,17451041,17448342.0,17448581.0,240.0,240.0,1621.4,1127.0,1591.0,891.0,Animal_Sea_Pattern_Large,66.44468616700033,69.50803591698059,1.0,Animal_Sea_Pattern_Large,-7.0,-7.0,1.0,0.6580711670103483,,,,,,,,
encoding,attention,5,17447977,17451041,17448597.0,17449769.0,1173.0,1173.0,1587.3,1165.5,1591.0,891.0,Animal_Sea_Pattern_Large,66.44468616700033,69.50803591698059,1.0,Animal_Sea_Pattern_Large,-7.0,-7.0,1.0,0.6580711670103483,,,,,,,,
encoding,attention,5,17447977,17451041,17449784.0,17450507.0,724.0,724.0,1661.0,1094.5,1591.0,891.0,Animal_Sea_Pattern_Large,66.44468616700033,69.50803591698059,1.0,Animal_Sea_Pattern_Large,-7.0,-7.0,1.0,0.6580711670103483,,,,,,,,
encoding,attention,5,17447977,17451041,17450530.0,17450803.0,274.0,274.0,1841.6,1123.9,1591.0,891.0,Animal_Sea_Pattern_Large,66.44468616700033,69.50803591698059,1.0,Animal_Sea_Pattern_Large,-7.0,-7.0,1.0,0.6580711670103483,,,,,,,,
encoding,fixation,6,17451041,17451548,17451227.0,17451374.0,148.0,148.0,1827.9,1064.9,1591.0,1269.0,Object_Land_Solid_Small,69.50817720900523,70.01571479198174,1.0,Animal_Sea_Pattern_Small,1.0,,,,,,,,,,,
encoding,fixation,6,17451041,17451548,17451393.0,17451779.0,387.0,155.0,1961.9,1028.2,1920.0,1080.0,fixation,69.50817720900523,70.01571479198174,1.0,Animal_Sea_Pattern_Small,1.0,,,,,,,,,,,
encoding,image,6,17451549,17452560,17451814.0,17452623.0,810.0,746.0,2214.6,856.0999999999999,2249.0,1269.0,Animal_Sea_Pattern_Small,70.01583474999643,71.0273587089905,1.0,Animal_Sea_Pattern_Small,1.0,,,,,,,,,,,
encoding,value,6,17452560,17458572,17452649.0,17452824.0,176.0,176.0,1978.0,1023.2,2249.0,1269.0,Animal_Sea_Pattern_Small,71.02746916699107,77.03893941699062,1.0,Animal_Sea_Pattern_Small,1.0,,,,,,,,,,,
encoding,value,6,17452560,17458572,17452859.0,17453005.0,147.0,147.0,2170.8,728.9000000000001,2249.0,1269.0,Animal_Sea_Pattern_Small,71.02746916699107,77.03893941699062,1.0,Animal_Sea_Pattern_Small,1.0,,,,,,,,,,,
encoding,value,6,17452560,17458572,17453013.0,17453274.0,262.0,262.0,2228.5,710.3,2249.0,1269.0,Animal_Sea_Pattern_Small,71.02746916699107,77.03893941699062,1.0,Animal_Sea_Pattern_Small,1.0,,,,,,,,,,,
encoding,value,6,17452560,17458572,17453448.0,17454040.0,593.0,593.0,2180.4,792.0999999999999,2249.0,1269.0,Animal_Sea_Pattern_Small,71.02746916699107,77.03893941699062,1.0,Animal_Sea_Pattern_Small,1.0,,,,,,,,,,,
encoding,value,6,17452560,17458572,17454200.0,17454696.0,497.0,497.0,2248.9,820.9000000000001,2249.0,1269.0,Animal_Sea_Pattern_Small,71.02746916699107,77.03893941699062,1.0,Animal_Sea_Pattern_Small,1.0,,,,,,,,,,,
encoding,value,6,17452560,17458572,17454862.0,17455929.0,1068.0,1068.0,2224.6,894.9000000000001,2249.0,1269.0,Animal_Sea_Pattern_Small,71.02746916699107,77.03893941699062,1.0,Animal_Sea_Pattern_Small,1.0,,,,,,,,,,,
encoding,value,6,17452560,17458572,17455950.0,17456340.0,391.0,391.0,2398.7,964.0999999999999,2249.0,1269.0,Animal_Sea_Pattern_Small,71.02746916699107,77.03893941699062,1.0,Animal_Sea_Pattern_Small,1.0,,,,,,,,,,,
encoding,value,6,17452560,17458572,17456380.0,17456768.0,389.0,389.0,1992.2,1063.8,2249.0,1269.0,Animal_Sea_Pattern_Small,71.02746916699107,77.03893941699062,1.0,Animal_Sea_Pattern_Small,1.0,,,,,,,,,,,
encoding,value,6,17452560,17458572,17456801.0,17458772.0,1972.0,1771.0,2193.5,867.0999999999999,2249.0,1269.0,Animal_Sea_Pattern_Small,71.02746916699107,77.03893941699062,1.0,Animal_Sea_Pattern_Small,1.0,,,,,,,,,,,
encoding,attention,6,17458572,17461591,17458785.0,17459525.0,741.0,741.0,2250.7,791.7,2249.0,1269.0,Animal_Sea_Pattern_Small,77.03904433400021,80.05719849999878,1.0,Animal_Sea_Pattern_Small,1.0,1.0,1.0,0.6920294160081539,,,,,,,,
encoding,attention,6,17458572,17461591,17459633.0,17459856.0,224.0,224.0,2275.3,884.8,2249.0,1269.0,Animal_Sea_Pattern_Small,77.03904433400021,80.05719849999878,1.0,Animal_Sea_Pattern_Small,1.0,1.0,1.0,0.6920294160081539,,,,,,,,
encoding,attention,6,17458572,17461591,17459872.0,17459969.0,98.0,98.0,2198.3,781.0,2249.0,1269.0,Animal_Sea_Pattern_Small,77.03904433400021,80.05719849999878,1.0,Animal_Sea_Pattern_Small,1.0,1.0,1.0,0.6920294160081539,,,,,,,,
encoding,attention,6,17458572,17461591,17460126.0,17461226.0,1101.0,1101.0,2215.5,843.0999999999999,2249.0,1269.0,Animal_Sea_Pattern_Small,77.03904433400021,80.05719849999878,1.0,Animal_Sea_Pattern_Small,1.0,1.0,1.0,0.6920294160081539,,,,,,,,
encoding,fixation,7,17898703,17899210,17898928.0,17898983.0,56.0,56.0,1973.5,1101.3,1920.0,1080.0,fixation,18.427888000005623,18.934066499990877,2.0,Animal_Land_Solid_Small,-8.0,,,,,,,,,,,
encoding,fixation,7,17898703,17899210,17899137.0,17899401.0,265.0,73.0,1888.7,1332.5,1920.0,700.0,Animal_Land_Solid_Small,18.427888000005623,18.934066499990877,2.0,Animal_Land_Solid_Small,-8.0,,,,,,,,,,,
encoding,image,7,17899210,17900221,17899425.0,17899671.0,247.0,247.0,1903.6,1459.3,1920.0,700.0,Animal_Land_Solid_Small,18.934170124994125,19.94515808398137,2.0,Animal_Land_Solid_Small,-8.0,,,,,,,,,,,
encoding,image,7,17899210,17900221,17899761.0,17900208.0,448.0,448.0,1904.8,1447.5,1920.0,700.0,Animal_Land_Solid_Small,18.934170124994125,19.94515808398137,2.0,Animal_Land_Solid_Small,-8.0,,,,,,,,,,,
encoding,value,7,17900221,17906234,17900224.0,17900419.0,196.0,196.0,1945.3,1368.0,1920.0,700.0,Animal_Land_Solid_Small,19.945274708996298,25.95838399999775,2.0,Animal_Land_Solid_Small,-8.0,,,,,,,,,,,
encoding,value,7,17900221,17906234,17900431.0,17900596.0,166.0,166.0,1915.5,1400.9,1920.0,700.0,Animal_Land_Solid_Small,19.945274708996298,25.95838399999775,2.0,Animal_Land_Solid_Small,-8.0,,,,,,,,,,,
encoding,value,7,17900221,17906234,17900710.0,17901269.0,560.0,560.0,1890.2,1419.0,1920.0,700.0,Animal_Land_Solid_Small,19.945274708996298,25.95838399999775,2.0,Animal_Land_Solid_Small,-8.0,,,,,,,,,,,
encoding,value,7,17900221,17906234,17901297.0,17901426.0,130.0,130.0,1909.4,1424.3,1920.0,700.0,Animal_Land_Solid_Small,19.945274708996298,25.95838399999775,2.0,Animal_Land_Solid_Small,-8.0,,,,,,,,,,,
encoding,value,7,17900221,17906234,17901516.0,17903900.0,2385.0,2385.0,1911.8,1404.0,1920.0,700.0,Animal_Land_Solid_Small,19.945274708996298,25.95838399999775,2.0,Animal_Land_Solid_Small,-8.0,,,,,,,,,,,
encoding,value,7,17900221,17906234,17903997.0,17906554.0,2558.0,2237.0,1922.4,1382.4,1920.0,700.0,Animal_Land_Solid_Small,19.945274708996298,25.95838399999775,2.0,Animal_Land_Solid_Small,-8.0,,,,,,,,,,,
encoding,attention,7,17906234,17909252,17906684.0,17907440.0,757.0,757.0,1940.3,1406.0,1920.0,700.0,Animal_Land_Solid_Small,25.958560625003884,28.97561437499826,2.0,Animal_Land_Solid_Small,-8.0,-8.0,1.0,0.9052218750002794,,,,,,,,
encoding,attention,7,17906234,17909252,17907606.0,17908592.0,987.0,987.0,1916.1,1353.9,1920.0,700.0,Animal_Land_Solid_Small,25.958560625003884,28.97561437499826,2.0,Animal_Land_Solid_Small,-8.0,-8.0,1.0,0.9052218750002794,,,,,,,,
encoding,fixation,8,17909252,17910257,17909958.0,17910827.0,870.0,299.0,1940.4,1023.4000000000001,1920.0,1080.0,fixation,28.975777583982563,29.9809819170041,2.0,Animal_Sea_Pattern_Large,-1.0,,,,,,,,,,,
encoding,image,8,17910257,17911268,17910859.0,17911530.0,672.0,409.0,1906.1,1339.3,1920.0,700.0,Animal_Land_Solid_Small,29.98110416700365,30.992057249997742,2.0,Animal_Sea_Pattern_Large,-1.0,,,,,,,,,,,
encoding,value,8,17911268,17917281,17911555.0,17911740.0,186.0,186.0,1688.0,1227.9,1591.0,891.0,Animal_Sea_Pattern_Large,30.992159749992425,37.00414874998387,2.0,Animal_Sea_Pattern_Large,-1.0,,,,,,,,,,,
encoding,value,8,17911268,17917281,17911904.0,17912312.0,409.0,409.0,1919.7,1445.4,1920.0,700.0,Animal_Land_Solid_Small,30.992159749992425,37.00414874998387,2.0,Animal_Sea_Pattern_Large,-1.0,,,,,,,,,,,
encoding,value,8,17911268,17917281,17912343.0,17912729.0,387.0,387.0,1829.6,1216.2,1591.0,891.0,Animal_Sea_Pattern_Large,30.992159749992425,37.00414874998387,2.0,Animal_Sea_Pattern_Large,-1.0,,,,,,,,,,,
encoding,value,8,17911268,17917281,17912758.0,17915700.0,2943.0,2943.0,1879.4,1383.6,1920.0,700.0,Animal_Land_Solid_Small,30.992159749992425,37.00414874998387,2.0,Animal_Sea_Pattern_Large,-1.0,,,,,,,,,,,
encoding,value,8,17911268,17917281,17915726.0,17915998.0,273.0,273.0,1685.4,1202.4,1591.0,891.0,Animal_Sea_Pattern_Large,30.992159749992425,37.00414874998387,2.0,Animal_Sea_Pattern_Large,-1.0,,,,,,,,,,,
encoding,value,8,17911268,17917281,17916014.0,17916462.0,449.0,449.0,1624.2,1136.1,1591.0,891.0,Animal_Sea_Pattern_Large,30.992159749992425,37.00414874998387,2.0,Animal_Sea_Pattern_Large,-1.0,,,,,,,,,,,
encoding,value,8,17911268,17917281,17916472.0,17916614.0,143.0,143.0,1596.5,1073.5,1591.0,1269.0,Object_Land_Solid_Small,30.992159749992425,37.00414874998387,2.0,Animal_Sea_Pattern_Large,-1.0,,,,,,,,,,,
encoding,value,8,17911268,17917281,17916740.0,17917702.0,963.0,541.0,1572.2,1120.8,1591.0,891.0,Animal_Sea_Pattern_Large,30.992159749992425,37.00414874998387,2.0,Animal_Sea_Pattern_Large,-1.0,,,,,,,,,,,
encoding,attention,8,17917281,17920298,17917825.0,17918445.0,621.0,621.0,1901.0,1345.6,1920.0,700.0,Animal_Land_Solid_Small,37.004260083980625,40.02098337499774,2.0,Animal_Sea_Pattern_Large,-1.0,-1.0,1.0,0.8686180000077002,,,,,,,,
encoding,attention,8,17917281,17920298,17918582.0,17919109.0,528.0,528.0,1929.5,1459.5,1920.0,700.0,Animal_Land_Solid_Small,37.004260083980625,40.02098337499774,2.0,Animal_Sea_Pattern_Large,-1.0,-1.0,1.0,0.8686180000077002,,,,,,,,
encoding,attention,8,17917281,17920298,17919152.0,17919949.0,798.0,798.0,1558.9,1170.9,1591.0,891.0,Animal_Sea_Pattern_Large,37.004260083980625,40.02098337499774,2.0,Animal_Sea_Pattern_Large,-1.0,-1.0,1.0,0.8686180000077002,,,,,,,,
encoding,fixation,9,17920298,17920803,17920622.0,17920751.0,130.0,130.0,1901.7,1296.2,1920.0,700.0,Animal_Land_Solid_Small,40.02115233399672,40.5262559169787,2.0,Object_Sea_Pattern_Large,-4.0,,,,,,,,,,,
encoding,image,9,17920803,17921814,17920876.0,17921552.0,677.0,677.0,1892.6,1363.1,1920.0,700.0,Animal_Land_Solid_Small,40.52636795898434,41.537346249999246,2.0,Object_Sea_Pattern_Large,-4.0,,,,,,,,,,,
encoding,image,9,17920803,17921814,17921575.0,17922422.0,848.0,239.0,1838.3,1443.9,1920.0,700.0,Animal_Land_Solid_Small,40.52636795898434,41.537346249999246,2.0,Object_Sea_Pattern_Large,-4.0,,,,,,,,,,,
encoding,value,9,17921814,17927826,17922460.0,17922773.0,314.0,314.0,1523.6,1210.2,1591.0,891.0,Animal_Sea_Pattern_Large,41.53746662498452,47.549425374978455,2.0,Object_Sea_Pattern_Large,-4.0,,,,,,,,,,,
encoding,value,9,17921814,17927826,17922823.0,17922951.0,129.0,129.0,2146.7,1117.7,2249.0,891.0,Object_Sea_Pattern_Large,41.53746662498452,47.549425374978455,2.0,Object_Sea_Pattern_Large,-4.0,,,,,,,,,,,
encoding,value,9,17921814,17927826,17922963.0,17923471.0,509.0,509.0,2220.8,1105.4,2249.0,891.0,Object_Sea_Pattern_Large,41.53746662498452,47.549425374978455,2.0,Object_Sea_Pattern_Large,-4.0,,,,,,,,,,,
encoding,value,9,17921814,17927826,17923597.0,17923769.0,173.0,173.0,2050.0,1273.6,2249.0,891.0,Object_Sea_Pattern_Large,41.53746662498452,47.549425374978455,2.0,Object_Sea_Pattern_Large,-4.0,,,,,,,,,,,
encoding,value,9,17921814,17927826,17923784.0,17924382.0,599.0,599.0,2151.2,1234.2,2249.0,891.0,Object_Sea_Pattern_Large,41.53746662498452,47.549425374978455,2.0,Object_Sea_Pattern_Large,-4.0,,,,,,,,,,,
encoding,value,9,17921814,17927826,17924397.0,17924445.0,49.0,49.0,2235.9,1154.8,2249.0,891.0,Object_Sea_Pattern_Large,41.53746662498452,47.549425374978455,2.0,Object_Sea_Pattern_Large,-4.0,,,,,,,,,,,
encoding,value,9,17921814,17927826,17924584.0,17924787.0,204.0,204.0,2100.1,1236.9,2249.0,891.0,Object_Sea_Pattern_Large,41.53746662498452,47.549425374978455,2.0,Object_Sea_Pattern_Large,-4.0,,,,,,,,,,,
encoding,value,9,17921814,17927826,17924813.0,17925214.0,402.0,402.0,1972.1,1382.3,1920.0,700.0,Animal_Land_Solid_Small,41.53746662498452,47.549425374978455,2.0,Object_Sea_Pattern_Large,-4.0,,,,,,,,,,,
encoding,value,9,17921814,17927826,17925250.0,17925615.0,366.0,366.0,1618.4,1199.5,1591.0,891.0,Animal_Sea_Pattern_Large,41.53746662498452,47.549425374978455,2.0,Object_Sea_Pattern_Large,-4.0,,,,,,,,,,,
encoding,value,9,17921814,17927826,17925666.0,17925807.0,142.0,142.0,2186.3,1120.2,2249.0,891.0,Object_Sea_Pattern_Large,41.53746662498452,47.549425374978455,2.0,Object_Sea_Pattern_Large,-4.0,,,,,,,,,,,
encoding,value,9,17921814,17927826,17925815.0,17926337.0,523.0,523.0,2231.5,1108.6,2249.0,891.0,Object_Sea_Pattern_Large,41.53746662498452,47.549425374978455,2.0,Object_Sea_Pattern_Large,-4.0,,,,,,,,,,,
encoding,value,9,17921814,17927826,17926467.0,17928159.0,1693.0,1359.0,2204.9,1107.6,2249.0,891.0,Object_Sea_Pattern_Large,41.53746662498452,47.549425374978455,2.0,Object_Sea_Pattern_Large,-4.0,,,,,,,,,,,
encoding,attention,9,17927826,17930843,17928294.0,17928777.0,484.0,484.0,2212.8,1138.0,2249.0,891.0,Object_Sea_Pattern_Large,47.549595458986005,50.566141666990006,2.0,Object_Sea_Pattern_Large,-4.0,-4.0,1.0,0.698567917017499,,,,,,,,
encoding,attention,9,17927826,17930843,17928801.0,17929272.0,472.0,472.0,1954.8,1391.4,1920.0,700.0,Animal_Land_Solid_Small,47.549595458986005,50.566141666990006,2.0,Object_Sea_Pattern_Large,-4.0,-4.0,1.0,0.698567917017499,,,,,,,,
encoding,attention,9,17927826,17930843,17929315.0,17929744.0,430.0,430.0,1558.9,1246.0,1591.0,891.0,Animal_Sea_Pattern_Large,47.549595458986005,50.566141666990006,2.0,Object_Sea_Pattern_Large,-4.0,-4.0,1.0,0.698567917017499,,,,,,,,
encoding,attention,9,17927826,17930843,17929793.0,17929964.0,172.0,172.0,2177.5,1113.5,2249.0,891.0,Object_Sea_Pattern_Large,47.549595458986005,50.566141666990006,2.0,Object_Sea_Pattern_Large,-4.0,-4.0,1.0,0.698567917017499,,,,,,,,
encoding,attention,9,17927826,17930843,17929982.0,17930266.0,285.0,285.0,2310.9,1111.1,2249.0,891.0,Object_Sea_Pattern_Large,47.549595458986005,50.566141666990006,2.0,Object_Sea_Pattern_Large,-4.0,-4.0,1.0,0.698567917017499,,,,,,,,
encoding,attention,9,17927826,17930843,17930282.0,17930611.0,330.0,330.0,2210.0,1119.8,2249.0,891.0,Object_Sea_Pattern_Large,47.549595458986005,50.566141666990006,2.0,Object_Sea_Pattern_Large,-4.0,-4.0,1.0,0.698567917017499,,,,,,,,
encoding,fixation,10,17930843,17932099,17930995.0,17931454.0,460.0,460.0,1927.3,1318.9,1920.0,700.0,Animal_Land_Solid_Small,50.56630395899992,51.8218542499817,2.0,Object_Land_Pattern_Small,4.0,,,,,,,,,,,
encoding,fixation,10,17930843,17932099,17931478.0,17931678.0,201.0,201.0,1893.6,1467.6,1920.0,700.0,Animal_Land_Solid_Small,50.56630395899992,51.8218542499817,2.0,Object_Land_Pattern_Small,4.0,,,,,,,,,,,
encoding,fixation,10,17930843,17932099,17931709.0,17932177.0,469.0,390.0,1597.0,1197.7,1591.0,891.0,Animal_Sea_Pattern_Large,50.56630395899992,51.8218542499817,2.0,Object_Land_Pattern_Small,4.0,,,,,,,,,,,
encoding,image,10,17932099,17933112,17932217.0,17933008.0,792.0,792.0,2151.8,1165.8,2249.0,891.0,Object_Sea_Pattern_Large,51.82197833398823,52.834235374990385,2.0,Object_Land_Pattern_Small,4.0,,,,,,,,,,,
encoding,image,10,17932099,17933112,17933032.0,17933086.0,55.0,55.0,2231.1,990.5,2249.0,1269.0,Object_Land_Pattern_Small,51.82197833398823,52.834235374990385,2.0,Object_Land_Pattern_Small,4.0,,,,,,,,,,,
encoding,value,10,17933112,17939123,17933247.0,17933431.0,185.0,185.0,2213.8,834.4000000000001,2249.0,1269.0,Object_Land_Pattern_Small,52.83439529198222,58.845302375004394,2.0,Object_Land_Pattern_Small,4.0,,,,,,,,,,,
encoding,value,10,17933112,17939123,17933439.0,17933612.0,174.0,174.0,2230.3,803.2,2249.0,1269.0,Object_Land_Pattern_Small,52.83439529198222,58.845302375004394,2.0,Object_Land_Pattern_Small,4.0,,,,,,,,,,,
encoding,value,10,17933112,17939123,17933762.0,17933911.0,150.0,150.0,2084.7,1004.0,2249.0,1269.0,Object_Land_Pattern_Small,52.83439529198222,58.845302375004394,2.0,Object_Land_Pattern_Small,4.0,,,,,,,,,,,
encoding,value,10,17933112,17939123,17933942.0,17934045.0,104.0,104.0,2224.5,953.4000000000001,2249.0,1269.0,Object_Land_Pattern_Small,52.83439529198222,58.845302375004394,2.0,Object_Land_Pattern_Small,4.0,,,,,,,,,,,
encoding,value,10,17933112,17939123,17934173.0,17934264.0,92.0,92.0,2224.5,1013.9000000000001,2249.0,1269.0,Object_Land_Pattern_Small,52.83439529198222,58.845302375004394,2.0,Object_Land_Pattern_Small,4.0,,,,,,,,,,,
encoding,value,10,17933112,17939123,17934366.0,17934689.0,324.0,324.0,2105.6,1251.0,2249.0,891.0,Object_Sea_Pattern_Large,52.83439529198222,58.845302375004394,2.0,Object_Land_Pattern_Small,4.0,,,,,,,,,,,
encoding,value,10,17933112,17939123,17934816.0,17935024.0,209.0,209.0,1991.9,1269.2,1920.0,700.0,Animal_Land_Solid_Small,52.83439529198222,58.845302375004394,2.0,Object_Land_Pattern_Small,4.0,,,,,,,,,,,
encoding,value,10,17933112,17939123,17935183.0,17935335.0,153.0,153.0,2166.4,950.5,2249.0,1269.0,Object_Land_Pattern_Small,52.83439529198222,58.845302375004394,2.0,Object_Land_Pattern_Small,4.0,,,,,,,,,,,
encoding,value,10,17933112,17939123,17935362.0,17935427.0,66.0,66.0,2230.9,809.8,2249.0,1269.0,Object_Land_Pattern_Small,52.83439529198222,58.845302375004394,2.0,Object_Land_Pattern_Small,4.0,,,,,,,,,,,
encoding,value,10,17933112,17939123,17935606.0,17936120.0,515.0,515.0,2182.5,929.2,2249.0,1269.0,Object_Land_Pattern_Small,52.83439529198222,58.845302375004394,2.0,Object_Land_Pattern_Small,4.0,,,,,,,,,,,
encoding,value,10,17933112,17939123,17936261.0,17936438.0,178.0,178.0,2110.3,976.7,2249.0,1269.0,Object_Land_Pattern_Small,52.83439529198222,58.845302375004394,2.0,Object_Land_Pattern_Small,4.0,,,,,,,,,,,
encoding,value,10,17933112,17939123,17936472.0,17938544.0,2073.0,2073.0,2238.6,787.8,2249.0,1269.0,Object_Land_Pattern_Small,52.83439529198222,58.845302375004394,2.0,Object_Land_Pattern_Small,4.0,,,,,,,,,,,
encoding,value,10,17933112,17939123,17938677.0,17939426.0,750.0,446.0,2224.5,803.3,2249.0,1269.0,Object_Land_Pattern_Small,52.83439529198222,58.845302375004394,2.0,Object_Land_Pattern_Small,4.0,,,,,,,,,,,
encoding,attention,10,17939123,17942142,17939435.0,17939482.0,48.0,48.0,2280.5,785.0,2249.0,1269.0,Object_Land_Pattern_Small,58.84548387498944,61.86470899998676,2.0,Object_Land_Pattern_Small,4.0,4.0,1.0,1.1037793750001583,,,,,,,,
encoding,attention,10,17939123,17942142,17939665.0,17940506.0,842.0,842.0,2202.3,805.3,2249.0,1269.0,Object_Land_Pattern_Small,58.84548387498944,61.86470899998676,2.0,Object_Land_Pattern_Small,4.0,4.0,1.0,1.1037793750001583,,,,,,,,
encoding,attention,10,17939123,17942142,17940551.0,17941018.0,468.0,468.0,1952.5,1421.4,1920.0,700.0,Animal_Land_Solid_Small,58.84548387498944,61.86470899998676,2.0,Object_Land_Pattern_Small,4.0,4.0,1.0,1.1037793750001583,,,,,,,,
encoding,attention,10,17939123,17942142,17941060.0,17941970.0,911.0,911.0,1600.2,1264.0,1591.0,891.0,Animal_Sea_Pattern_Large,58.84548387498944,61.86470899998676,2.0,Object_Land_Pattern_Small,4.0,4.0,1.0,1.1037793750001583,,,,,,,,
encoding,fixation,11,17942142,17943148,17942528.0,17942620.0,93.0,93.0,2244.3,702.5999999999999,2249.0,1269.0,Object_Land_Pattern_Small,61.864937959006056,62.87016099999891,2.0,Object_Land_Solid_Small,6.0,,,,,,,,,,,
encoding,fixation,11,17942142,17943148,17942640.0,17943025.0,386.0,386.0,2226.4,822.4000000000001,2249.0,1269.0,Object_Land_Pattern_Small,61.864937959006056,62.87016099999891,2.0,Object_Land_Solid_Small,6.0,,,,,,,,,,,
encoding,fixation,11,17942142,17943148,17943060.0,17943219.0,160.0,88.0,1960.9,1017.0999999999999,2249.0,1269.0,Object_Land_Pattern_Small,61.864937959006056,62.87016099999891,2.0,Object_Land_Solid_Small,6.0,,,,,,,,,,,
encoding,image,11,17943148,17944159,17943344.0,17943457.0,114.0,114.0,1687.7,939.0999999999999,1591.0,1269.0,Object_Land_Solid_Small,62.870279208989814,63.881497875001514,2.0,Object_Land_Solid_Small,6.0,,,,,,,,,,,
encoding,image,11,17943148,17944159,17943476.0,17943587.0,112.0,112.0,1571.6,880.2,1591.0,1269.0,Object_Land_Solid_Small,62.870279208989814,63.881497875001514,2.0,Object_Land_Solid_Small,6.0,,,,,,,,,,,
encoding,image,11,17943148,17944159,17943719.0,17944187.0,469.0,440.0,1911.9,1361.1,1920.0,700.0,Animal_Land_Solid_Small,62.870279208989814,63.881497875001514,2.0,Object_Land_Solid_Small,6.0,,,,,,,,,,,
encoding,value,11,17944159,17950172,17944233.0,17944404.0,172.0,172.0,1698.7,1078.6,1591.0,1269.0,Object_Land_Solid_Small,63.8816119999974,69.89441470897873,2.0,Object_Land_Solid_Small,6.0,,,,,,,,,,,
encoding,value,11,17944159,17950172,17944446.0,17944667.0,222.0,222.0,1568.6,754.8,1591.0,1269.0,Object_Land_Solid_Small,63.8816119999974,69.89441470897873,2.0,Object_Land_Solid_Small,6.0,,,,,,,,,,,
encoding,value,11,17944159,17950172,17944829.0,17944921.0,93.0,93.0,1619.6,843.0,1591.0,1269.0,Object_Land_Solid_Small,63.8816119999974,69.89441470897873,2.0,Object_Land_Solid_Small,6.0,,,,,,,,,,,
encoding,value,11,17944159,17950172,17945051.0,17945693.0,643.0,643.0,1926.2,1306.3,1920.0,700.0,Animal_Land_Solid_Small,63.8816119999974,69.89441470897873,2.0,Object_Land_Solid_Small,6.0,,,,,,,,,,,
encoding,value,11,17944159,17950172,17945822.0,17946280.0,459.0,459.0,1845.4,1216.5,1920.0,700.0,Animal_Land_Solid_Small,63.8816119999974,69.89441470897873,2.0,Object_Land_Solid_Small,6.0,,,,,,,,,,,
encoding,value,11,17944159,17950172,17946309.0,17946439.0,131.0,131.0,1969.8,1050.4,1920.0,1080.0,fixation,63.8816119999974,69.89441470897873,2.0,Object_Land_Solid_Small,6.0,,,,,,,,,,,
encoding,value,11,17944159,17950172,17946583.0,17946834.0,252.0,252.0,1908.0,1161.1,1920.0,700.0,Animal_Land_Solid_Small,63.8816119999974,69.89441470897873,2.0,Object_Land_Solid_Small,6.0,,,,,,,,,,,
encoding,value,11,17944159,17950172,17946874.0,17947206.0,333.0,333.0,1695.2,928.9000000000001,1591.0,1269.0,Object_Land_Solid_Small,63.8816119999974,69.89441470897873,2.0,Object_Land_Solid_Small,6.0,,,,,,,,,,,
encoding,value,11,17944159,17950172,17947226.0,17947437.0,212.0,212.0,1585.2,824.3,1591.0,1269.0,Object_Land_Solid_Small,63.8816119999974,69.89441470897873,2.0,Object_Land_Solid_Small,6.0,,,,,,,,,,,
encoding,value,11,17944159,17950172,17947591.0,17947919.0,329.0,329.0,1572.9,811.9000000000001,1591.0,1269.0,Object_Land_Solid_Small,63.8816119999974,69.89441470897873,2.0,Object_Land_Solid_Small,6.0,,,,,,,,,,,
encoding,value,11,17944159,17950172,17947938.0,17948284.0,347.0,347.0,1566.3,895.3,1591.0,1269.0,Object_Land_Solid_Small,63.8816119999974,69.89441470897873,2.0,Object_Land_Solid_Small,6.0,,,,,,,,,,,
encoding,value,11,17944159,17950172,17948298.0,17949047.0,750.0,750.0,1571.4,828.0,1591.0,1269.0,Object_Land_Solid_Small,63.8816119999974,69.89441470897873,2.0,Object_Land_Solid_Small,6.0,,,,,,,,,,,
encoding,value,11,17944159,17950172,17949059.0,17949517.0,459.0,459.0,1576.4,716.0999999999999,1591.0,1269.0,Object_Land_Solid_Small,63.8816119999974,69.89441470897873,2.0,Object_Land_Solid_Small,6.0,,,,,,,,,,,
encoding,value,11,17944159,17950172,17949713.0,17949821.0,109.0,109.0,1591.1,771.2,1591.0,1269.0,Object_Land_Solid_Small,63.8816119999974,69.89441470897873,2.0,Object_Land_Solid_Small,6.0,,,,,,,,,,,
encoding,value,11,17944159,17950172,17949864.0,17950077.0,214.0,214.0,1861.8,1207.7,1920.0,700.0,Animal_Land_Solid_Small,63.8816119999974,69.89441470897873,2.0,Object_Land_Solid_Small,6.0,,,,,,,,,,,
encoding,value,11,17944159,17950172,17950107.0,17950320.0,214.0,65.0,1967.0,1469.4,1920.0,700.0,Animal_Land_Solid_Small,63.8816119999974,69.89441470897873,2.0,Object_Land_Solid_Small,6.0,,,,,,,,,,,
encoding,attention,11,17950172,17953192,17950364.0,17950730.0,367.0,367.0,1581.2,1159.0,1591.0,891.0,Animal_Sea_Pattern_Large,69.89452841700404,72.91389324999182,2.0,Object_Land_Solid_Small,6.0,6.0,1.0,2.551905333006289,,,,,,,,
encoding,attention,11,17950172,17953192,17950775.0,17951284.0,510.0,510.0,2151.0,1212.1,2249.0,891.0,Object_Sea_Pattern_Large,69.89452841700404,72.91389324999182,2.0,Object_Land_Solid_Small,6.0,6.0,1.0,2.551905333006289,,,,,,,,
encoding,attention,11,17950172,17953192,17951341.0,17951488.0,148.0,148.0,1559.0,709.9000000000001,1591.0,1269.0,Object_Land_Solid_Small,69.89452841700404,72.91389324999182,2.0,Object_Land_Solid_Small,6.0,6.0,1.0,2.551905333006289,,,,,,,,
encoding,attention,11,17950172,17953192,17951495.0,17951797.0,303.0,303.0,1516.9,715.5999999999999,1591.0,1269.0,Object_Land_Solid_Small,69.89452841700404,72.91389324999182,2.0,Object_Land_Solid_Small,6.0,6.0,1.0,2.551905333006289,,,,,,,,
encoding,attention,11,17950172,17953192,17951999.0,17952484.0,486.0,486.0,1492.7,790.7,1591.0,1269.0,Object_Land_Solid_Small,69.89452841700404,72.91389324999182,2.0,Object_Land_Solid_Small,6.0,6.0,1.0,2.551905333006289,,,,,,,,
encoding,attention,11,17950172,17953192,17952505.0,17952973.0,469.0,469.0,1597.7,762.8,1591.0,1269.0,Object_Land_Solid_Small,69.89452841700404,72.91389324999182,2.0,Object_Land_Solid_Small,6.0,6.0,1.0,2.551905333006289,,,,,,,,
encoding,fixation,12,17953192,17954447,17953405.0,17953561.0,157.0,157.0,1966.4,1146.7,2249.0,891.0,Object_Sea_Pattern_Large,72.91404370899545,74.16892779199407,2.0,Animal_Sea_Solid_Large,8.0,,,,,,,,,,,
encoding,fixation,12,17953192,17954447,17953605.0,17953910.0,306.0,306.0,1926.5,1497.3,1920.0,700.0,Animal_Land_Solid_Small,72.91404370899545,74.16892779199407,2.0,Animal_Sea_Solid_Large,8.0,,,,,,,,,,,
encoding,fixation,12,17953192,17954447,17953951.0,17954346.0,396.0,396.0,1525.6,1280.6,1591.0,891.0,Animal_Sea_Pattern_Large,72.91404370899545,74.16892779199407,2.0,Animal_Sea_Solid_Large,8.0,,,,,,,,,,,
encoding,fixation,12,17953192,17954447,17954391.0,17954474.0,84.0,56.0,2136.9,1312.5,2249.0,891.0,Object_Sea_Pattern_Large,72.91404370899545,74.16892779199407,2.0,Animal_Sea_Solid_Large,8.0,,,,,,,,,,,
encoding,image,12,17954447,17955458,17954490.0,17955433.0,944.0,944.0,2245.8,1308.6,2249.0,891.0,Object_Sea_Pattern_Large,74.16905320898513,75.18039245900582,2.0,Animal_Sea_Solid_Large,8.0,,,,,,,,,,,
encoding,value,12,17955459,17961472,17955472.0,17955608.0,137.0,137.0,2097.8,1090.3,2249.0,891.0,Object_Sea_Pattern_Large,75.18051312500029,81.19311141700018,2.0,Animal_Sea_Solid_Large,8.0,,,,,,,,,,,
encoding,value,12,17955459,17961472,17955732.0,17955998.0,267.0,267.0,1994.3,828.0999999999999,1920.0,1460.0,Animal_Sea_Solid_Large,75.18051312500029,81.19311141700018,2.0,Animal_Sea_Solid_Large,8.0,,,,,,,,,,,
encoding,value,12,17955459,17961472,17956021.0,17956265.0,245.0,245.0,1946.2,668.8,1920.0,1460.0,Animal_Sea_Solid_Large,75.18051312500029,81.19311141700018,2.0,Animal_Sea_Solid_Large,8.0,,,,,,,,,,,
encoding,value,12,17955459,17961472,17956288.0,17956537.0,250.0,250.0,1863.6,611.3,1920.0,1460.0,Animal_Sea_Solid_Large,75.18051312500029,81.19311141700018,2.0,Animal_Sea_Solid_Large,8.0,,,,,,,,,,,
encoding,value,12,17955459,17961472,17956581.0,17957472.0,892.0,892.0,1576.8,888.3,1591.0,1269.0,Object_Land_Solid_Small,75.18051312500029,81.19311141700018,2.0,Animal_Sea_Solid_Large,8.0,,,,,,,,,,,
encoding,value,12,17955459,17961472,17957499.0,17957599.0,101.0,101.0,1829.1,714.0,1920.0,1460.0,Animal_Sea_Solid_Large,75.18051312500029,81.19311141700018,2.0,Animal_Sea_Solid_Large,8.0,,,,,,,,,,,
encoding,value,12,17955459,17961472,17957770.0,17958269.0,500.0,500.0,1921.3,757.8,1920.0,1460.0,Animal_Sea_Solid_Large,75.18051312500029,81.19311141700018,2.0,Animal_Sea_Solid_Large,8.0,,,,,,,,,,,
encoding,value,12,17955459,17961472,17958288.0,17958460.0,173.0,173.0,1857.6,666.5999999999999,1920.0,1460.0,Animal_Sea_Solid_Large,75.18051312500029,81.19311141700018,2.0,Animal_Sea_Solid_Large,8.0,,,,,,,,,,,
encoding,value,12,17955459,17961472,17958658.0,17958855.0,198.0,198.0,1859.3,679.5,1920.0,1460.0,Animal_Sea_Solid_Large,75.18051312500029,81.19311141700018,2.0,Animal_Sea_Solid_Large,8.0,,,,,,,,,,,
encoding,value,12,17955459,17961472,17958874.0,17959024.0,151.0,151.0,1858.9,586.5,1920.0,1460.0,Animal_Sea_Solid_Large,75.18051312500029,81.19311141700018,2.0,Animal_Sea_Solid_Large,8.0,,,,,,,,,,,
encoding,value,12,17955459,17961472,17959207.0,17959865.0,659.0,659.0,1877.4,653.9000000000001,1920.0,1460.0,Animal_Sea_Solid_Large,75.18051312500029,81.19311141700018,2.0,Animal_Sea_Solid_Large,8.0,,,,,,,,,,,
encoding,value,12,17955459,17961472,17960032.0,17960414.0,383.0,383.0,1972.6,821.4000000000001,1920.0,1460.0,Animal_Sea_Solid_Large,75.18051312500029,81.19311141700018,2.0,Animal_Sea_Solid_Large,8.0,,,,,,,,,,,
encoding,value,12,17955459,17961472,17960434.0,17960493.0,60.0,60.0,1868.0,714.0,1920.0,1460.0,Animal_Sea_Solid_Large,75.18051312500029,81.19311141700018,2.0,Animal_Sea_Solid_Large,8.0,,,,,,,,,,,
encoding,value,12,17955459,17961472,17960542.0,17960707.0,166.0,166.0,1867.4,711.0,1920.0,1460.0,Animal_Sea_Solid_Large,75.18051312500029,81.19311141700018,2.0,Animal_Sea_Solid_Large,8.0,,,,,,,,,,,
encoding,value,12,17955459,17961472,17960878.0,17960912.0,35.0,35.0,1926.1,931.0,1920.0,1460.0,Animal_Sea_Solid_Large,75.18051312500029,81.19311141700018,2.0,Animal_Sea_Solid_Large,8.0,,,,,,,,,,,
encoding,value,12,17955459,17961472,17960954.0,17961374.0,421.0,421.0,1901.6,752.4000000000001,1920.0,1460.0,Animal_Sea_Solid_Large,75.18051312500029,81.19311141700018,2.0,Animal_Sea_Solid_Large,8.0,,,,,,,,,,,
encoding,attention,12,17961472,17964490,17961579.0,17961713.0,135.0,135.0,1912.4,707.5,1920.0,1460.0,Animal_Sea_Solid_Large,81.19322516699322,84.21102654200513,2.0,Animal_Sea_Solid_Large,8.0,8.0,1.0,0.9354045419895556,,,,,,,,
encoding,attention,12,17961472,17964490,17961734.0,17961885.0,152.0,152.0,1822.1,590.7,1920.0,1460.0,Animal_Sea_Solid_Large,81.19322516699322,84.21102654200513,2.0,Animal_Sea_Solid_Large,8.0,8.0,1.0,0.9354045419895556,,,,,,,,
encoding,attention,12,17961472,17964490,17962094.0,17962656.0,563.0,563.0,1842.6,601.5,1920.0,1460.0,Animal_Sea_Solid_Large,81.19322516699322,84.21102654200513,2.0,Animal_Sea_Solid_Large,8.0,8.0,1.0,0.9354045419895556,,,,,,,,
encoding,attention,12,17961472,17964490,17962798.0,17963347.0,550.0,550.0,1910.3,1332.5,1920.0,700.0,Animal_Land_Solid_Small,81.19322516699322,84.21102654200513,2.0,Animal_Sea_Solid_Large,8.0,8.0,1.0,0.9354045419895556,,,,,,,,
encoding,attention,12,17961472,17964490,17963374.0,17964028.0,655.0,655.0,2032.5,1502.2,1920.0,700.0,Animal_Land_Solid_Small,81.19322516699322,84.21102654200513,2.0,Animal_Sea_Solid_Large,8.0,8.0,1.0,0.9354045419895556,,,,,,,,
encoding,fixation,13,18345587,18347094,18345628.0,18345918.0,291.0,291.0,1855.7,1221.5,1920.0,700.0,Object_Land_Pattern_Large,12.03877033398021,13.54572837500018,3.0,Animal_Land_Pattern_Large,8.0,,,,,,,,,,,
encoding,fixation,13,18345587,18347094,18346040.0,18346796.0,757.0,757.0,1939.1,1348.9,1920.0,700.0,Object_Land_Pattern_Large,12.03877033398021,13.54572837500018,3.0,Animal_Land_Pattern_Large,8.0,,,,,,,,,,,
encoding,fixation,13,18345587,18347094,18346838.0,18347062.0,225.0,225.0,1911.3,1019.2,1920.0,1080.0,fixation,12.03877033398021,13.54572837500018,3.0,Animal_Land_Pattern_Large,8.0,,,,,,,,,,,
encoding,fixation,13,18345587,18347094,18347073.0,18347379.0,307.0,21.0,1899.3,1054.0,1920.0,1080.0,fixation,12.03877033398021,13.54572837500018,3.0,Animal_Land_Pattern_Large,8.0,,,,,,,,,,,
encoding,image,13,18347094,18348106,18347415.0,18347588.0,174.0,174.0,1581.8,885.4000000000001,1591.0,1269.0,Animal_Land_Pattern_Large,13.545872458984377,14.55799891697825,3.0,Animal_Land_Pattern_Large,8.0,,,,,,,,,,,
encoding,image,13,18347094,18348106,18347767.0,18348030.0,264.0,264.0,1439.5,861.9000000000001,1591.0,1269.0,Animal_Land_Pattern_Large,13.545872458984377,14.55799891697825,3.0,Animal_Land_Pattern_Large,8.0,,,,,,,,,,,
encoding,image,13,18347094,18348106,18348060.0,18348471.0,412.0,46.0,1786.6,976.4000000000001,1591.0,1269.0,Animal_Land_Pattern_Large,13.545872458984377,14.55799891697825,3.0,Animal_Land_Pattern_Large,8.0,,,,,,,,,,,
encoding,value,13,18348106,18354120,18348503.0,18348734.0,232.0,232.0,1587.4,801.9000000000001,1591.0,1269.0,Animal_Land_Pattern_Large,14.558162124973023,20.571702416986227,3.0,Animal_Land_Pattern_Large,8.0,,,,,,,,,,,
encoding,value,13,18348106,18354120,18348778.0,18349166.0,389.0,389.0,1861.1,1051.8,1920.0,1080.0,fixation,14.558162124973023,20.571702416986227,3.0,Animal_Land_Pattern_Large,8.0,,,,,,,,,,,
encoding,value,13,18348106,18354120,18349206.0,18349465.0,260.0,260.0,1550.6,820.9000000000001,1591.0,1269.0,Animal_Land_Pattern_Large,14.558162124973023,20.571702416986227,3.0,Animal_Land_Pattern_Large,8.0,,,,,,,,,,,
encoding,value,13,18348106,18354120,18349482.0,18349956.0,475.0,475.0,1545.0,721.5999999999999,1591.0,1269.0,Animal_Land_Pattern_Large,14.558162124973023,20.571702416986227,3.0,Animal_Land_Pattern_Large,8.0,,,,,,,,,,,
encoding,value,13,18348106,18354120,18350076.0,18350150.0,75.0,75.0,1513.4,828.5999999999999,1591.0,1269.0,Animal_Land_Pattern_Large,14.558162124973023,20.571702416986227,3.0,Animal_Land_Pattern_Large,8.0,,,,,,,,,,,
encoding,value,13,18348106,18354120,18350317.0,18350857.0,541.0,541.0,1847.3,953.4000000000001,1920.0,1460.0,Animal_Sea_Solid_Small,14.558162124973023,20.571702416986227,3.0,Animal_Land_Pattern_Large,8.0,,,,,,,,,,,
encoding,value,13,18348106,18354120,18350883.0,18351122.0,240.0,240.0,1613.4,864.2,1591.0,1269.0,Animal_Land_Pattern_Large,14.558162124973023,20.571702416986227,3.0,Animal_Land_Pattern_Large,8.0,,,,,,,,,,,
encoding,value,13,18348106,18354120,18351141.0,18351279.0,139.0,139.0,1558.6,747.0999999999999,1591.0,1269.0,Animal_Land_Pattern_Large,14.558162124973023,20.571702416986227,3.0,Animal_Land_Pattern_Large,8.0,,,,,,,,,,,
encoding,value,13,18348106,18354120,18351457.0,18353201.0,1745.0,1745.0,1560.5,733.2,1591.0,1269.0,Animal_Land_Pattern_Large,14.558162124973023,20.571702416986227,3.0,Animal_Land_Pattern_Large,8.0,,,,,,,,,,,
encoding,value,13,18348106,18354120,18353374.0,18354460.0,1087.0,746.0,1566.3,721.3,1591.0,1269.0,Animal_Land_Pattern_Large,14.558162124973023,20.571702416986227,3.0,Animal_Land_Pattern_Large,8.0,,,,,,,,,,,
encoding,attention,13,18354120,18357138,18354632.0,18355293.0,662.0,662.0,1592.3,754.5,1591.0,1269.0,Animal_Land_Pattern_Large,20.57181183397188,23.589596124977103,3.0,Animal_Land_Pattern_Large,8.0,8.0,1.0,0.919942375010578,,,,,,,,
encoding,attention,13,18354120,18357138,18355501.0,18356114.0,614.0,614.0,1531.7,894.9000000000001,1591.0,1269.0,Animal_Land_Pattern_Large,20.57181183397188,23.589596124977103,3.0,Animal_Land_Pattern_Large,8.0,8.0,1.0,0.919942375010578,,,,,,,,
encoding,attention,13,18354120,18357138,18356143.0,18356904.0,762.0,762.0,1834.7,1018.7,1591.0,1269.0,Animal_Land_Pattern_Large,20.57181183397188,23.589596124977103,3.0,Animal_Land_Pattern_Large,8.0,8.0,1.0,0.919942375010578,,,,,,,,
encoding,fixation,14,18357138,18358143,18357380.0,18357425.0,46.0,46.0,1830.0,1046.3,1591.0,1269.0,Animal_Land_Pattern_Large,23.589830374985468,24.59436674998142,3.0,Object_Sea_Solid_Small,2.0,,,,,,,,,,,
encoding,fixation,14,18357138,18358143,18357602.0,18358022.0,421.0,421.0,1933.3,1114.1,1920.0,1080.0,fixation,23.589830374985468,24.59436674998142,3.0,Object_Sea_Solid_Small,2.0,,,,,,,,,,,
encoding,fixation,14,18357138,18358143,18358032.0,18358372.0,341.0,111.0,1903.9,1065.3,1920.0,1080.0,fixation,23.589830374985468,24.59436674998142,3.0,Object_Sea_Solid_Small,2.0,,,,,,,,,,,
encoding,image,14,18358143,18359154,18358412.0,18358827.0,416.0,416.0,2264.5,1253.1,2249.0,891.0,Object_Sea_Solid_Small,24.59446970897261,25.60541966697201,3.0,Object_Sea_Solid_Small,2.0,,,,,,,,,,,
encoding,image,14,18358143,18359154,18358943.0,18359254.0,312.0,211.0,2211.1,1243.3,2249.0,891.0,Object_Sea_Solid_Small,24.59446970897261,25.60541966697201,3.0,Object_Sea_Solid_Small,2.0,,,,,,,,,,,
encoding,value,14,18359154,18365166,18359353.0,18359467.0,115.0,115.0,2206.3,1193.7,2249.0,891.0,Object_Sea_Solid_Small,25.605556458991487,31.616751666995697,3.0,Object_Sea_Solid_Small,2.0,,,,,,,,,,,
encoding,value,14,18359154,18365166,18359482.0,18361010.0,1529.0,1529.0,2241.9,1145.4,2249.0,891.0,Object_Sea_Solid_Small,25.605556458991487,31.616751666995697,3.0,Object_Sea_Solid_Small,2.0,,,,,,,,,,,
encoding,value,14,18359154,18365166,18361135.0,18362353.0,1219.0,1219.0,2249.8,1123.5,2249.0,891.0,Object_Sea_Solid_Small,25.605556458991487,31.616751666995697,3.0,Object_Sea_Solid_Small,2.0,,,,,,,,,,,
encoding,value,14,18359154,18365166,18362484.0,18363912.0,1429.0,1429.0,2258.1,1124.0,2249.0,891.0,Object_Sea_Solid_Small,25.605556458991487,31.616751666995697,3.0,Object_Sea_Solid_Small,2.0,,,,,,,,,,,
encoding,value,14,18359154,18365166,18364054.0,18364597.0,544.0,544.0,2179.7,1133.3,2249.0,891.0,Object_Sea_Solid_Small,25.605556458991487,31.616751666995697,3.0,Object_Sea_Solid_Small,2.0,,,,,,,,,,,
encoding,value,14,18359154,18365166,18364631.0,18364824.0,194.0,194.0,1876.9,1112.9,1920.0,1080.0,fixation,25.605556458991487,31.616751666995697,3.0,Object_Sea_Solid_Small,2.0,,,,,,,,,,,
encoding,value,14,18359154,18365166,18364967.0,18365113.0,147.0,147.0,1871.6,1053.5,1920.0,1080.0,fixation,25.605556458991487,31.616751666995697,3.0,Object_Sea_Solid_Small,2.0,,,,,,,,,,,
encoding,value,14,18359154,18365166,18365150.0,18365401.0,252.0,16.0,2208.7,1121.7,2249.0,891.0,Object_Sea_Solid_Small,25.605556458991487,31.616751666995697,3.0,Object_Sea_Solid_Small,2.0,,,,,,,,,,,
encoding,attention,14,18365166,18368182,18365411.0,18365712.0,302.0,302.0,2264.5,1137.6,2249.0,891.0,Object_Sea_Solid_Small,31.61690954197547,34.63323216699064,3.0,Object_Sea_Solid_Small,2.0,2.0,1.0,1.276884083985351,,,,,,,,
encoding,attention,14,18365166,18368182,18365833.0,18366303.0,471.0,471.0,2265.6,1176.6,2249.0,891.0,Object_Sea_Solid_Small,31.61690954197547,34.63323216699064,3.0,Object_Sea_Solid_Small,2.0,2.0,1.0,1.276884083985351,,,,,,,,
encoding,attention,14,18365166,18368182,18366317.0,18366683.0,367.0,367.0,2260.3,1221.2,2249.0,891.0,Object_Sea_Solid_Small,31.61690954197547,34.63323216699064,3.0,Object_Sea_Solid_Small,2.0,2.0,1.0,1.276884083985351,,,,,,,,
encoding,attention,14,18365166,18368182,18366697.0,18366829.0,133.0,133.0,2269.0,1146.3,2249.0,891.0,Object_Sea_Solid_Small,31.61690954197547,34.63323216699064,3.0,Object_Sea_Solid_Small,2.0,2.0,1.0,1.276884083985351,,,,,,,,
encoding,attention,14,18365166,18368182,18366968.0,18367623.0,656.0,656.0,2241.2,1228.3,2249.0,891.0,Object_Sea_Solid_Small,31.61690954197547,34.63323216699064,3.0,Object_Sea_Solid_Small,2.0,2.0,1.0,1.276884083985351,,,,,,,,
encoding,attention,14,18365166,18368182,18367658.0,18367993.0,336.0,336.0,1952.3,1141.9,1920.0,1080.0,fixation,31.61690954197547,34.63323216699064,3.0,Object_Sea_Solid_Small,2.0,2.0,1.0,1.276884083985351,,,,,,,,
encoding,attention,14,18365166,18368182,18368012.0,18368148.0,137.0,137.0,1908.3,1057.1,1920.0,1080.0,fixation,31.61690954197547,34.63323216699064,3.0,Object_Sea_Solid_Small,2.0,2.0,1.0,1.276884083985351,,,,,,,,
encoding,fixation,15,18368182,18369438,18368548.0,18369027.0,480.0,480.0,1876.7,1022.5,1591.0,1269.0,Animal_Land_Pattern_Large,34.63339524998446,35.8890237089945,3.0,Object_Sea_Solid_Large,4.0,,,,,,,,,,,
encoding,fixation,15,18368182,18369438,18369063.0,18369296.0,234.0,234.0,2203.4,1178.5,2249.0,891.0,Object_Sea_Solid_Small,34.63339524998446,35.8890237089945,3.0,Object_Sea_Solid_Large,4.0,,,,,,,,,,,
encoding,fixation,15,18368182,18369438,18369435.0,18369697.0,263.0,3.0,1856.6,1004.0,1591.0,1269.0,Animal_Land_Pattern_Large,34.63339524998446,35.8890237089945,3.0,Object_Sea_Solid_Large,4.0,,,,,,,,,,,
encoding,image,15,18369438,18370450,18369727.0,18370078.0,352.0,352.0,1653.2,871.0,1591.0,1269.0,Animal_Land_Pattern_Large,35.88913058399339,36.90039266698295,3.0,Object_Sea_Solid_Large,4.0,,,,,,,,,,,
encoding,image,15,18369438,18370450,18370131.0,18370620.0,490.0,319.0,2274.6,1197.0,2249.0,891.0,Object_Sea_Solid_Small,35.88913058399339,36.90039266698295,3.0,Object_Sea_Solid_Large,4.0,,,,,,,,,,,
encoding,value,15,18370450,18376462,18370668.0,18370767.0,100.0,100.0,1640.0,1158.0,1591.0,891.0,Object_Sea_Solid_Large,36.90050504199462,42.91288774998975,3.0,Object_Sea_Solid_Large,4.0,,,,,,,,,,,
encoding,value,15,18370450,18376462,18370947.0,18371783.0,837.0,837.0,1566.2,1168.4,1591.0,891.0,Object_Sea_Solid_Large,36.90050504199462,42.91288774998975,3.0,Object_Sea_Solid_Large,4.0,,,,,,,,,,,
encoding,value,15,18370450,18376462,18371966.0,18372409.0,444.0,444.0,1598.7,1241.7,1591.0,891.0,Object_Sea_Solid_Large,36.90050504199462,42.91288774998975,3.0,Object_Sea_Solid_Large,4.0,,,,,,,,,,,
encoding,value,15,18370450,18376462,18372455.0,18372876.0,422.0,422.0,1622.9,911.4000000000001,1591.0,1269.0,Animal_Land_Pattern_Large,36.90050504199462,42.91288774998975,3.0,Object_Sea_Solid_Large,4.0,,,,,,,,,,,
encoding,value,15,18370450,18376462,18372912.0,18373070.0,159.0,159.0,1613.0,1191.5,1591.0,891.0,Object_Sea_Solid_Large,36.90050504199462,42.91288774998975,3.0,Object_Sea_Solid_Large,4.0,,,,,,,,,,,
encoding,value,15,18370450,18376462,18373211.0,18373837.0,627.0,627.0,1894.3,1161.7,1920.0,700.0,Object_Land_Pattern_Large,36.90050504199462,42.91288774998975,3.0,Object_Sea_Solid_Large,4.0,,,,,,,,,,,
encoding,value,15,18370450,18376462,18373847.0,18374381.0,535.0,535.0,1921.5,1098.3,1920.0,1080.0,fixation,36.90050504199462,42.91288774998975,3.0,Object_Sea_Solid_Large,4.0,,,,,,,,,,,
encoding,value,15,18370450,18376462,18374402.0,18374971.0,570.0,570.0,1779.6,1131.7,1591.0,891.0,Object_Sea_Solid_Large,36.90050504199462,42.91288774998975,3.0,Object_Sea_Solid_Large,4.0,,,,,,,,,,,
encoding,value,15,18370450,18376462,18374993.0,18375200.0,208.0,208.0,1592.4,1147.2,1591.0,891.0,Object_Sea_Solid_Large,36.90050504199462,42.91288774998975,3.0,Object_Sea_Solid_Large,4.0,,,,,,,,,,,
encoding,value,15,18370450,18376462,18375320.0,18376711.0,1392.0,1142.0,1600.2,1131.6,1591.0,891.0,Object_Sea_Solid_Large,36.90050504199462,42.91288774998975,3.0,Object_Sea_Solid_Large,4.0,,,,,,,,,,,
encoding,attention,15,18376463,18379481,18376844.0,18377366.0,523.0,523.0,1603.2,1133.1,1591.0,891.0,Object_Sea_Solid_Large,42.913012334000086,45.931263708975166,3.0,Object_Sea_Solid_Large,4.0,4.0,1.0,1.8153538329934236,,,,,,,,
encoding,attention,15,18376463,18379481,18377536.0,18377657.0,122.0,122.0,1606.8,1138.2,1591.0,891.0,Object_Sea_Solid_Large,42.913012334000086,45.931263708975166,3.0,Object_Sea_Solid_Large,4.0,4.0,1.0,1.8153538329934236,,,,,,,,
encoding,attention,15,18376463,18379481,18377668.0,18378560.0,893.0,893.0,1562.8,1136.8,1591.0,891.0,Object_Sea_Solid_Large,42.913012334000086,45.931263708975166,3.0,Object_Sea_Solid_Large,4.0,4.0,1.0,1.8153538329934236,,,,,,,,
encoding,attention,15,18376463,18379481,18378570.0,18378673.0,104.0,104.0,1621.9,1137.4,1591.0,891.0,Object_Sea_Solid_Large,42.913012334000086,45.931263708975166,3.0,Object_Sea_Solid_Large,4.0,4.0,1.0,1.8153538329934236,,,,,,,,
encoding,fixation,16,18379481,18380986,18379570.0,18380047.0,478.0,478.0,1637.7,890.9000000000001,1591.0,1269.0,Animal_Land_Pattern_Large,45.93142816697946,47.43666570898495,3.0,Object_Land_Pattern_Large,-8.0,,,,,,,,,,,
encoding,fixation,16,18379481,18380986,18380098.0,18380152.0,55.0,55.0,2149.8,1202.3,2249.0,891.0,Object_Sea_Solid_Small,45.93142816697946,47.43666570898495,3.0,Object_Land_Pattern_Large,-8.0,,,,,,,,,,,
encoding,fixation,16,18379481,18380986,18380173.0,18380661.0,489.0,489.0,2265.5,1300.2,2249.0,891.0,Object_Sea_Solid_Small,45.93142816697946,47.43666570898495,3.0,Object_Land_Pattern_Large,-8.0,,,,,,,,,,,
encoding,fixation,16,18379481,18380986,18380709.0,18381179.0,471.0,277.0,1743.3,1164.7,1591.0,891.0,Object_Sea_Solid_Large,45.93142816697946,47.43666570898495,3.0,Object_Land_Pattern_Large,-8.0,,,,,,,,,,,
encoding,image,16,18380987,18381999,18381210.0,18381290.0,81.0,81.0,1910.7,1439.2,1920.0,700.0,Object_Land_Pattern_Large,47.43678495899075,48.44878229199094,3.0,Object_Land_Pattern_Large,-8.0,,,,,,,,,,,
encoding,image,16,18380987,18381999,18381405.0,18381670.0,266.0,266.0,1878.7,1408.0,1920.0,700.0,Object_Land_Pattern_Large,47.43678495899075,48.44878229199094,3.0,Object_Land_Pattern_Large,-8.0,,,,,,,,,,,
encoding,image,16,18380987,18381999,18381710.0,18382265.0,556.0,289.0,1529.1,1253.6,1591.0,891.0,Object_Sea_Solid_Large,47.43678495899075,48.44878229199094,3.0,Object_Land_Pattern_Large,-8.0,,,,,,,,,,,
encoding,value,16,18381999,18388010,18382306.0,18382373.0,68.0,68.0,1916.3,1387.4,1920.0,700.0,Object_Land_Pattern_Large,48.4488924589823,54.46045408397913,3.0,Object_Land_Pattern_Large,-8.0,,,,,,,,,,,
encoding,value,16,18381999,18388010,18382518.0,18382898.0,381.0,381.0,1953.5,1379.1,1920.0,700.0,Object_Land_Pattern_Large,48.4488924589823,54.46045408397913,3.0,Object_Land_Pattern_Large,-8.0,,,,,,,,,,,
encoding,value,16,18381999,18388010,18383054.0,18383079.0,26.0,26.0,1918.5,1392.5,1920.0,700.0,Object_Land_Pattern_Large,48.4488924589823,54.46045408397913,3.0,Object_Land_Pattern_Large,-8.0,,,,,,,,,,,
encoding,value,16,18381999,18388010,18383090.0,18383777.0,688.0,688.0,1931.3,1360.0,1920.0,700.0,Object_Land_Pattern_Large,48.4488924589823,54.46045408397913,3.0,Object_Land_Pattern_Large,-8.0,,,,,,,,,,,
encoding,value,16,18381999,18388010,18383923.0,18383947.0,25.0,25.0,1947.9,1319.2,1920.0,700.0,Object_Land_Pattern_Large,48.4488924589823,54.46045408397913,3.0,Object_Land_Pattern_Large,-8.0,,,,,,,,,,,
encoding,value,16,18381999,18388010,18383954.0,18384792.0,839.0,839.0,1944.2,1254.0,1920.0,700.0,Object_Land_Pattern_Large,48.4488924589823,54.46045408397913,3.0,Object_Land_Pattern_Large,-8.0,,,,,,,,,,,
encoding,value,16,18381999,18388010,18384808.0,18384947.0,140.0,140.0,1889.4,1130.0,1920.0,1080.0,fixation,48.4488924589823,54.46045408397913,3.0,Object_Land_Pattern_Large,-8.0,,,,,,,,,,,
encoding,value,16,18381999,18388010,18385073.0,18385509.0,437.0,437.0,1933.0,1163.4,1920.0,700.0,Object_Land_Pattern_Large,48.4488924589823,54.46045408397913,3.0,Object_Land_Pattern_Large,-8.0,,,,,,,,,,,
encoding,value,16,18381999,18388010,18385540.0,18386298.0,759.0,759.0,1945.7,1408.2,1920.0,700.0,Object_Land_Pattern_Large,48.4488924589823,54.46045408397913,3.0,Object_Land_Pattern_Large,-8.0,,,,,,,,,,,
encoding,value,16,18381999,18388010,18386376.0,18386414.0,39.0,39.0,1930.4,1399.0,1920.0,700.0,Object_Land_Pattern_Large,48.4488924589823,54.46045408397913,3.0,Object_Land_Pattern_Large,-8.0,,,,,,,,,,,
encoding,value,16,18381999,18388010,18386422.0,18387503.0,1082.0,1082.0,1937.9,1374.6,1920.0,700.0,Object_Land_Pattern_Large,48.4488924589823,54.46045408397913,3.0,Object_Land_Pattern_Large,-8.0,,,,,,,,,,,
encoding,value,16,18381999,18388010,18387511.0,18387549.0,39.0,39.0,1909.2,1331.3,1920.0,700.0,Object_Land_Pattern_Large,48.4488924589823,54.46045408397913,3.0,Object_Land_Pattern_Large,-8.0,,,,,,,,,,,
encoding,value,16,18381999,18388010,18387650.0,18389078.0,1429.0,360.0,1923.2,1386.1,1920.0,700.0,Object_Land_Pattern_Large,48.4488924589823,54.46045408397913,3.0,Object_Land_Pattern_Large,-8.0,,,,,,,,,,,
encoding,attention,16,18388010,18391027,18389091.0,18389124.0,34.0,34.0,1891.0,1322.8,1920.0,700.0,Object_Land_Pattern_Large,54.460567666974384,57.477201666974,3.0,Object_Land_Pattern_Large,-8.0,-8.0,1.0,0.8464953330112621,,,,,,,,
encoding,attention,16,18388010,18391027,18389217.0,18389606.0,390.0,390.0,1881.5,1357.0,1920.0,700.0,Object_Land_Pattern_Large,54.460567666974384,57.477201666974,3.0,Object_Land_Pattern_Large,-8.0,-8.0,1.0,0.8464953330112621,,,,,,,,
encoding,attention,16,18388010,18391027,18389641.0,18389999.0,359.0,359.0,2052.1,1149.8,2249.0,891.0,Object_Sea_Solid_Small,54.460567666974384,57.477201666974,3.0,Object_Land_Pattern_Large,-8.0,-8.0,1.0,0.8464953330112621,,,,,,,,
encoding,attention,16,18388010,18391027,18390025.0,18390446.0,422.0,422.0,2260.8,1206.8,2249.0,891.0,Object_Sea_Solid_Small,54.460567666974384,57.477201666974,3.0,Object_Land_Pattern_Large,-8.0,-8.0,1.0,0.8464953330112621,,,,,,,,
encoding,attention,16,18388010,18391027,18390568.0,18391023.0,456.0,456.0,2095.6,1230.5,2249.0,891.0,Object_Sea_Solid_Small,54.460567666974384,57.477201666974,3.0,Object_Land_Pattern_Large,-8.0,-8.0,1.0,0.8464953330112621,,,,,,,,
encoding,fixation,17,18391027,18391783,18391066.0,18391298.0,233.0,233.0,1825.9,918.0999999999999,1591.0,1269.0,Animal_Land_Pattern_Large,57.47736012499081,58.23234699998284,3.0,Animal_Land_Pattern_Small,-8.0,,,,,,,,,,,
encoding,fixation,17,18391027,18391783,18391320.0,18392053.0,734.0,463.0,1619.3,925.3,1591.0,1269.0,Animal_Land_Pattern_Large,57.47736012499081,58.23234699998284,3.0,Animal_Land_Pattern_Small,-8.0,,,,,,,,,,,
encoding,image,17,18391783,18392793,18392095.0,18392168.0,74.0,74.0,2030.4,1034.8,2249.0,1269.0,Animal_Land_Pattern_Small,58.23248354200041,59.24303812498693,3.0,Animal_Land_Pattern_Small,-8.0,,,,,,,,,,,
encoding,image,17,18391783,18392793,18392302.0,18393078.0,777.0,491.0,2223.0,1213.6,2249.0,891.0,Object_Sea_Solid_Small,58.23248354200041,59.24303812498693,3.0,Animal_Land_Pattern_Small,-8.0,,,,,,,,,,,
encoding,value,17,18392793,18398806,18393200.0,18393309.0,110.0,110.0,2202.1,875.5,2249.0,1269.0,Animal_Land_Pattern_Small,59.24314479198074,65.25550758399186,3.0,Animal_Land_Pattern_Small,-8.0,,,,,,,,,,,
encoding,value,17,18392793,18398806,18393384.0,18394168.0,785.0,785.0,1613.6,1191.2,1591.0,891.0,Object_Sea_Solid_Large,59.24314479198074,65.25550758399186,3.0,Animal_Land_Pattern_Small,-8.0,,,,,,,,,,,
encoding,value,17,18392793,18398806,18394207.0,18394386.0,180.0,180.0,1788.0,1342.6,1920.0,700.0,Object_Land_Pattern_Large,59.24314479198074,65.25550758399186,3.0,Animal_Land_Pattern_Small,-8.0,,,,,,,,,,,
encoding,value,17,18392793,18398806,18394408.0,18394982.0,575.0,575.0,1918.6,1464.3,1920.0,700.0,Object_Land_Pattern_Large,59.24314479198074,65.25550758399186,3.0,Animal_Land_Pattern_Small,-8.0,,,,,,,,,,,
encoding,value,17,18392793,18398806,18395044.0,18395293.0,250.0,250.0,2235.1,804.3,2249.0,1269.0,Animal_Land_Pattern_Small,59.24314479198074,65.25550758399186,3.0,Animal_Land_Pattern_Small,-8.0,,,,,,,,,,,
encoding,value,17,18392793,18398806,18395431.0,18395462.0,32.0,32.0,2238.0,899.5999999999999,2249.0,1269.0,Animal_Land_Pattern_Small,59.24314479198074,65.25550758399186,3.0,Animal_Land_Pattern_Small,-8.0,,,,,,,,,,,
encoding,value,17,18392793,18398806,18395469.0,18395595.0,127.0,127.0,2236.4,831.9000000000001,2249.0,1269.0,Animal_Land_Pattern_Small,59.24314479198074,65.25550758399186,3.0,Animal_Land_Pattern_Small,-8.0,,,,,,,,,,,
encoding,value,17,18392793,18398806,18395605.0,18395793.0,189.0,189.0,2250.5,883.3,2249.0,1269.0,Animal_Land_Pattern_Small,59.24314479198074,65.25550758399186,3.0,Animal_Land_Pattern_Small,-8.0,,,,,,,,,,,
encoding,value,17,18392793,18398806,18395914.0,18396541.0,628.0,628.0,2239.9,865.7,2249.0,1269.0,Animal_Land_Pattern_Small,59.24314479198074,65.25550758399186,3.0,Animal_Land_Pattern_Small,-8.0,,,,,,,,,,,
encoding,value,17,18392793,18398806,18396714.0,18397480.0,767.0,767.0,2236.0,861.4000000000001,2249.0,1269.0,Animal_Land_Pattern_Small,59.24314479198074,65.25550758399186,3.0,Animal_Land_Pattern_Small,-8.0,,,,,,,,,,,
encoding,value,17,18392793,18398806,18397643.0,18397885.0,243.0,243.0,2224.5,837.4000000000001,2249.0,1269.0,Animal_Land_Pattern_Small,59.24314479198074,65.25550758399186,3.0,Animal_Land_Pattern_Small,-8.0,,,,,,,,,,,
encoding,value,17,18392793,18398806,18397901.0,18398668.0,768.0,768.0,2231.1,914.8,2249.0,1269.0,Animal_Land_Pattern_Small,59.24314479198074,65.25550758399186,3.0,Animal_Land_Pattern_Small,-8.0,,,,,,,,,,,
encoding,value,17,18392793,18398806,18398685.0,18398892.0,208.0,121.0,2236.9,842.7,2249.0,1269.0,Animal_Land_Pattern_Small,59.24314479198074,65.25550758399186,3.0,Animal_Land_Pattern_Small,-8.0,,,,,,,,,,,
encoding,attention,17,18398806,18401824,18399022.0,18399102.0,81.0,81.0,2230.3,928.2,2249.0,1269.0,Animal_Land_Pattern_Small,65.25565537498915,68.27346233397839,3.0,Animal_Land_Pattern_Small,-8.0,-8.0,1.0,1.307098582998151,,,,,,,,
encoding,attention,17,18398806,18401824,18399401.0,18400360.0,960.0,960.0,2227.8,816.2,2249.0,1269.0,Animal_Land_Pattern_Small,65.25565537498915,68.27346233397839,3.0,Animal_Land_Pattern_Small,-8.0,-8.0,1.0,1.307098582998151,,,,,,,,
encoding,attention,17,18398806,18401824,18400579.0,18400739.0,161.0,161.0,2187.0,922.0,2249.0,1269.0,Animal_Land_Pattern_Small,65.25565537498915,68.27346233397839,3.0,Animal_Land_Pattern_Small,-8.0,-8.0,1.0,1.307098582998151,,,,,,,,
encoding,attention,17,18398806,18401824,18400884.0,18401379.0,496.0,496.0,2051.3,1013.5,2249.0,1269.0,Animal_Land_Pattern_Small,65.25565537498915,68.27346233397839,3.0,Animal_Land_Pattern_Small,-8.0,-8.0,1.0,1.307098582998151,,,,,,,,
encoding,fixation,18,18401824,18403329,18402234.0,18402611.0,378.0,378.0,1826.9,1008.3,1591.0,1269.0,Animal_Land_Pattern_Large,68.27360449999105,69.77861412498169,3.0,Animal_Sea_Solid_Small,-9.0,,,,,,,,,,,
encoding,fixation,18,18401824,18403329,18402756.0,18402959.0,204.0,204.0,1784.0,1002.0999999999999,1591.0,1269.0,Animal_Land_Pattern_Large,68.27360449999105,69.77861412498169,3.0,Animal_Sea_Solid_Small,-9.0,,,,,,,,,,,
encoding,fixation,18,18401824,18403329,18403093.0,18403567.0,475.0,236.0,1875.8,1058.3,1920.0,1080.0,fixation,68.27360449999105,69.77861412498169,3.0,Animal_Sea_Solid_Small,-9.0,,,,,,,,,,,
encoding,image,18,18403329,18404340,18403611.0,18403706.0,96.0,96.0,1883.7,669.9000000000001,1920.0,1460.0,Animal_Sea_Solid_Small,69.77872704199399,70.78922254199279,3.0,Animal_Sea_Solid_Small,-9.0,,,,,,,,,,,
encoding,image,18,18403329,18404340,18403907.0,18404009.0,103.0,103.0,1873.4,773.3,1920.0,1460.0,Animal_Sea_Solid_Small,69.77872704199399,70.78922254199279,3.0,Animal_Sea_Solid_Small,-9.0,,,,,,,,,,,
encoding,image,18,18403329,18404340,18404040.0,18404303.0,264.0,264.0,1913.3,949.4000000000001,1920.0,1460.0,Animal_Sea_Solid_Small,69.77872704199399,70.78922254199279,3.0,Animal_Sea_Solid_Small,-9.0,,,,,,,,,,,
encoding,value,18,18404340,18410352,18404483.0,18404760.0,278.0,278.0,1931.5,819.3,1920.0,1460.0,Animal_Sea_Solid_Small,70.78933612498804,76.80060045898426,3.0,Animal_Sea_Solid_Small,-9.0,,,,,,,,,,,
encoding,value,18,18404340,18410352,18404798.0,18405019.0,222.0,222.0,1806.1,525.9000000000001,1920.0,1460.0,Animal_Sea_Solid_Small,70.78933612498804,76.80060045898426,3.0,Animal_Sea_Solid_Small,-9.0,,,,,,,,,,,
encoding,value,18,18404340,18410352,18405205.0,18405460.0,256.0,256.0,1885.0,673.7,1920.0,1460.0,Animal_Sea_Solid_Small,70.78933612498804,76.80060045898426,3.0,Animal_Sea_Solid_Small,-9.0,,,,,,,,,,,
encoding,value,18,18404340,18410352,18405654.0,18405904.0,251.0,251.0,1948.6,870.3,1920.0,1460.0,Animal_Sea_Solid_Small,70.78933612498804,76.80060045898426,3.0,Animal_Sea_Solid_Small,-9.0,,,,,,,,,,,
encoding,value,18,18404340,18410352,18406764.0,18407025.0,262.0,262.0,1902.2,654.0999999999999,1920.0,1460.0,Animal_Sea_Solid_Small,70.78933612498804,76.80060045898426,3.0,Animal_Sea_Solid_Small,-9.0,,,,,,,,,,,
encoding,value,18,18404340,18410352,18407218.0,18408943.0,1726.0,1726.0,1841.9,613.4000000000001,1920.0,1460.0,Animal_Sea_Solid_Small,70.78933612498804,76.80060045898426,3.0,Animal_Sea_Solid_Small,-9.0,,,,,,,,,,,
encoding,value,18,18404340,18410352,18409123.0,18409867.0,745.0,745.0,1861.8,591.5,1920.0,1460.0,Animal_Sea_Solid_Small,70.78933612498804,76.80060045898426,3.0,Animal_Sea_Solid_Small,-9.0,,,,,,,,,,,
encoding,value,18,18404340,18410352,18410133.0,18410629.0,497.0,219.0,1852.8,555.3,1920.0,1460.0,Animal_Sea_Solid_Small,70.78933612498804,76.80060045898426,3.0,Animal_Sea_Solid_Small,-9.0,,,,,,,,,,,
encoding,attention,18,18410352,18413369,18410857.0,18410914.0,58.0,58.0,1908.0,605.5,1920.0,1460.0,Animal_Sea_Solid_Small,76.80071149999276,79.81821724999463,3.0,Animal_Sea_Solid_Small,-9.0,-9.0,1.0,2.6899713330203667,,,,,,,,
encoding,attention,18,18410352,18413369,18411093.0,18411384.0,292.0,292.0,1936.5,650.0,1920.0,1460.0,Animal_Sea_Solid_Small,76.80071149999276,79.81821724999463,3.0,Animal_Sea_Solid_Small,-9.0,-9.0,1.0,2.6899713330203667,,,,,,,,
encoding,attention,18,18410352,18413369,18412056.0,18412102.0,47.0,47.0,1935.3,1191.7,1920.0,700.0,Object_Land_Pattern_Large,76.80071149999276,79.81821724999463,3.0,Animal_Sea_Solid_Small,-9.0,-9.0,1.0,2.6899713330203667,,,,,,,,
encoding,attention,18,18410352,18413369,18412110.0,18412132.0,23.0,23.0,1970.5,1186.1,1920.0,700.0,Object_Land_Pattern_Large,76.80071149999276,79.81821724999463,3.0,Animal_Sea_Solid_Small,-9.0,-9.0,1.0,2.6899713330203667,,,,,,,,
encoding,attention,18,18410352,18413369,18412231.0,18412433.0,203.0,203.0,1935.2,1102.5,1920.0,1080.0,fixation,76.80071149999276,79.81821724999463,3.0,Animal_Sea_Solid_Small,-9.0,-9.0,1.0,2.6899713330203667,,,,,,,,
encoding,attention,18,18410352,18413369,18412557.0,18412606.0,50.0,50.0,1914.5,662.9000000000001,1920.0,1460.0,Animal_Sea_Solid_Small,76.80071149999276,79.81821724999463,3.0,Animal_Sea_Solid_Small,-9.0,-9.0,1.0,2.6899713330203667,,,,,,,,
encoding,fixation,19,18834308,18835565,18834555.0,18834670.0,116.0,116.0,1874.2,1177.5,1920.0,700.0,Object_Sea_Pattern_Small,17.15225216600811,18.4095076250087,4.0,Object_Sea_Pattern_Small,3.0,,,,,,,,,,,
encoding,fixation,19,18834308,18835565,18834822.0,18835759.0,938.0,743.0,1861.5,1374.8,1920.0,700.0,Object_Sea_Pattern_Small,17.15225216600811,18.4095076250087,4.0,Object_Sea_Pattern_Small,3.0,,,,,,,,,,,
encoding,image,19,18835565,18836577,18835787.0,18836361.0,575.0,575.0,1876.1,1500.4,1920.0,700.0,Object_Sea_Pattern_Small,18.409621958009662,19.421190374996513,4.0,Object_Sea_Pattern_Small,3.0,,,,,,,,,,,
encoding,value,19,18836577,18842593,18836720.0,18837698.0,979.0,979.0,1905.9,1473.1,1920.0,700.0,Object_Sea_Pattern_Small,19.42131404101383,25.4371295410092,4.0,Object_Sea_Pattern_Small,3.0,,,,,,,,,,,
encoding,value,19,18836577,18842593,18837708.0,18838234.0,527.0,527.0,1906.4,1521.9,1920.0,700.0,Object_Sea_Pattern_Small,19.42131404101383,25.4371295410092,4.0,Object_Sea_Pattern_Small,3.0,,,,,,,,,,,
encoding,value,19,18836577,18842593,18838324.0,18838808.0,485.0,485.0,1937.3,1508.3,1920.0,700.0,Object_Sea_Pattern_Small,19.42131404101383,25.4371295410092,4.0,Object_Sea_Pattern_Small,3.0,,,,,,,,,,,
encoding,value,19,18836577,18842593,18838834.0,18838950.0,117.0,117.0,1901.7,1361.8,1920.0,700.0,Object_Sea_Pattern_Small,19.42131404101383,25.4371295410092,4.0,Object_Sea_Pattern_Small,3.0,,,,,,,,,,,
encoding,value,19,18836577,18842593,18839096.0,18839912.0,817.0,817.0,1916.8,1425.8,1920.0,700.0,Object_Sea_Pattern_Small,19.42131404101383,25.4371295410092,4.0,Object_Sea_Pattern_Small,3.0,,,,,,,,,,,
encoding,value,19,18836577,18842593,18840005.0,18840168.0,164.0,164.0,1955.3,1445.3,1920.0,700.0,Object_Sea_Pattern_Small,19.42131404101383,25.4371295410092,4.0,Object_Sea_Pattern_Small,3.0,,,,,,,,,,,
encoding,value,19,18836577,18842593,18840313.0,18840685.0,373.0,373.0,1913.8,1466.2,1920.0,700.0,Object_Sea_Pattern_Small,19.42131404101383,25.4371295410092,4.0,Object_Sea_Pattern_Small,3.0,,,,,,,,,,,
encoding,value,19,18836577,18842593,18840706.0,18841145.0,440.0,440.0,1924.5,1370.1,1920.0,700.0,Object_Sea_Pattern_Small,19.42131404101383,25.4371295410092,4.0,Object_Sea_Pattern_Small,3.0,,,,,,,,,,,
encoding,value,19,18836577,18842593,18841155.0,18841404.0,250.0,250.0,1876.7,1398.9,1920.0,700.0,Object_Sea_Pattern_Small,19.42131404101383,25.4371295410092,4.0,Object_Sea_Pattern_Small,3.0,,,,,,,,,,,
encoding,value,19,18836577,18842593,18841419.0,18841871.0,453.0,453.0,1894.1,1461.8,1920.0,700.0,Object_Sea_Pattern_Small,19.42131404101383,25.4371295410092,4.0,Object_Sea_Pattern_Small,3.0,,,,,,,,,,,
encoding,value,19,18836577,18842593,18841980.0,18842563.0,584.0,584.0,1890.1,1404.3,1920.0,700.0,Object_Sea_Pattern_Small,19.42131404101383,25.4371295410092,4.0,Object_Sea_Pattern_Small,3.0,,,,,,,,,,,
encoding,value,19,18836577,18842593,18842573.0,18842993.0,421.0,20.0,1908.3,1347.6,1920.0,700.0,Object_Sea_Pattern_Small,19.42131404101383,25.4371295410092,4.0,Object_Sea_Pattern_Small,3.0,,,,,,,,,,,
encoding,attention,19,18842593,18845611,18843122.0,18844040.0,919.0,919.0,1948.4,1391.4,1920.0,700.0,Object_Sea_Pattern_Small,25.437259708007332,28.454834916017717,4.0,Object_Sea_Pattern_Small,3.0,3.0,1.0,1.221036583010573,,,,,,,,
encoding,attention,19,18842593,18845611,18844181.0,18844581.0,401.0,401.0,1934.0,1482.8,1920.0,700.0,Object_Sea_Pattern_Small,25.437259708007332,28.454834916017717,4.0,Object_Sea_Pattern_Small,3.0,3.0,1.0,1.221036583010573,,,,,,,,
encoding,attention,19,18842593,18845611,18844593.0,18845570.0,978.0,978.0,1942.4,1415.6,1920.0,700.0,Object_Sea_Pattern_Small,25.437259708007332,28.454834916017717,4.0,Object_Sea_Pattern_Small,3.0,3.0,1.0,1.221036583010573,,,,,,,,
encoding,fixation,20,18845611,18846116,18845859.0,18845937.0,79.0,79.0,1950.6,1119.5,1920.0,1080.0,fixation,28.45497904100921,28.96018920800998,4.0,Object_Land_Solid_Large,-9.0,,,,,,,,,,,
encoding,fixation,20,18845611,18846116,18846105.0,18846318.0,214.0,11.0,1939.2,1221.7,1920.0,700.0,Object_Sea_Pattern_Small,28.45497904100921,28.96018920800998,4.0,Object_Land_Solid_Large,-9.0,,,,,,,,,,,
encoding,image,20,18846116,18847126,18846352.0,18846590.0,239.0,239.0,1915.5,659.4000000000001,1920.0,1460.0,Object_Land_Solid_Large,28.960301125014663,29.969877708004788,4.0,Object_Land_Solid_Large,-9.0,,,,,,,,,,,
encoding,image,20,18846116,18847126,18846759.0,18846937.0,179.0,179.0,1901.1,1218.1,1920.0,700.0,Object_Sea_Pattern_Small,28.960301125014663,29.969877708004788,4.0,Object_Land_Solid_Large,-9.0,,,,,,,,,,,
encoding,image,20,18846116,18847126,18846988.0,18847467.0,480.0,138.0,1879.4,591.5999999999999,1920.0,1460.0,Object_Land_Solid_Large,28.960301125014663,29.969877708004788,4.0,Object_Land_Solid_Large,-9.0,,,,,,,,,,,
encoding,value,20,18847126,18853138,18847477.0,18847600.0,124.0,124.0,1865.6,559.2,1920.0,1460.0,Object_Land_Solid_Large,29.96998741599964,35.98146916599944,4.0,Object_Land_Solid_Large,-9.0,,,,,,,,,,,
encoding,value,20,18847126,18853138,18847836.0,18848385.0,550.0,550.0,1899.0,1013.5,1920.0,1080.0,fixation,29.96998741599964,35.98146916599944,4.0,Object_Land_Solid_Large,-9.0,,,,,,,,,,,
encoding,value,20,18847126,18853138,18848408.0,18848588.0,181.0,181.0,1920.9,1213.4,1920.0,700.0,Object_Sea_Pattern_Small,29.96998741599964,35.98146916599944,4.0,Object_Land_Solid_Large,-9.0,,,,,,,,,,,
encoding,value,20,18847126,18853138,18848639.0,18848765.0,127.0,127.0,1901.8,630.4000000000001,1920.0,1460.0,Object_Land_Solid_Large,29.96998741599964,35.98146916599944,4.0,Object_Land_Solid_Large,-9.0,,,,,,,,,,,
encoding,value,20,18847126,18853138,18848892.0,18849578.0,687.0,687.0,1897.5,780.9000000000001,1920.0,1460.0,Object_Land_Solid_Large,29.96998741599964,35.98146916599944,4.0,Object_Land_Solid_Large,-9.0,,,,,,,,,,,
encoding,value,20,18847126,18853138,18849618.0,18849887.0,270.0,270.0,1897.8,1249.0,1920.0,700.0,Object_Sea_Pattern_Small,29.96998741599964,35.98146916599944,4.0,Object_Land_Solid_Large,-9.0,,,,,,,,,,,
encoding,value,20,18847126,18853138,18849920.0,18850641.0,722.0,722.0,1942.1,1442.5,1920.0,700.0,Object_Sea_Pattern_Small,29.96998741599964,35.98146916599944,4.0,Object_Land_Solid_Large,-9.0,,,,,,,,,,,
encoding,value,20,18847126,18853138,18850705.0,18851033.0,329.0,329.0,1878.4,610.5,1920.0,1460.0,Object_Land_Solid_Large,29.96998741599964,35.98146916599944,4.0,Object_Land_Solid_Large,-9.0,,,,,,,,,,,
encoding,value,20,18847126,18853138,18851040.0,18852145.0,1106.0,1106.0,1857.7,556.2,1920.0,1460.0,Object_Land_Solid_Large,29.96998741599964,35.98146916599944,4.0,Object_Land_Solid_Large,-9.0,,,,,,,,,,,
encoding,value,20,18847126,18853138,18852336.0,18852893.0,558.0,558.0,1841.5,564.0999999999999,1920.0,1460.0,Object_Land_Solid_Large,29.96998741599964,35.98146916599944,4.0,Object_Land_Solid_Large,-9.0,,,,,,,,,,,
encoding,value,20,18847126,18853138,18852900.0,18853418.0,519.0,238.0,1835.7,545.3,1920.0,1460.0,Object_Land_Solid_Large,29.96998741599964,35.98146916599944,4.0,Object_Land_Solid_Large,-9.0,,,,,,,,,,,
encoding,attention,20,18853138,18856157,18853609.0,18854086.0,478.0,478.0,1911.9,759.3,1920.0,1460.0,Object_Land_Solid_Large,35.98159070801921,39.00023329100805,4.0,Object_Land_Solid_Large,-9.0,-9.0,1.0,0.7467212500050664,,,,,,,,
encoding,attention,20,18853138,18856157,18854124.0,18854911.0,788.0,788.0,1926.8,1399.5,1920.0,700.0,Object_Sea_Pattern_Small,35.98159070801921,39.00023329100805,4.0,Object_Land_Solid_Large,-9.0,-9.0,1.0,0.7467212500050664,,,,,,,,
encoding,attention,20,18853138,18856157,18854977.0,18855663.0,687.0,687.0,1840.6,506.5999999999999,1920.0,1460.0,Object_Land_Solid_Large,35.98159070801921,39.00023329100805,4.0,Object_Land_Solid_Large,-9.0,-9.0,1.0,0.7467212500050664,,,,,,,,
encoding,fixation,21,18856157,18856912,18856415.0,18856558.0,144.0,144.0,1936.6,1138.2,1920.0,1080.0,fixation,39.000400000019,39.75564229101292,4.0,Object_Land_Solid_Small,8.0,,,,,,,,,,,
encoding,fixation,21,18856157,18856912,18856734.0,18856858.0,125.0,125.0,1969.5,1128.3,1920.0,1080.0,fixation,39.000400000019,39.75564229101292,4.0,Object_Land_Solid_Small,8.0,,,,,,,,,,,
encoding,fixation,21,18856157,18856912,18856869.0,18857179.0,311.0,43.0,1926.4,1101.2,1920.0,1080.0,fixation,39.000400000019,39.75564229101292,4.0,Object_Land_Solid_Small,8.0,,,,,,,,,,,
encoding,image,21,18856912,18857927,18857221.0,18857473.0,253.0,253.0,1636.8,873.9000000000001,1591.0,1269.0,Object_Land_Solid_Small,39.7557945830049,40.770986916002585,4.0,Object_Land_Solid_Small,8.0,,,,,,,,,,,
encoding,image,21,18856912,18857927,18857630.0,18857831.0,202.0,202.0,1943.6,1197.2,1920.0,700.0,Object_Sea_Pattern_Small,39.7557945830049,40.770986916002585,4.0,Object_Land_Solid_Small,8.0,,,,,,,,,,,
encoding,image,21,18856912,18857927,18857867.0,18858523.0,657.0,60.0,1913.7,1511.7,1920.0,700.0,Object_Sea_Pattern_Small,39.7557945830049,40.770986916002585,4.0,Object_Land_Solid_Small,8.0,,,,,,,,,,,
encoding,value,21,18857927,18863943,18858553.0,18858736.0,184.0,184.0,1952.1,1258.1,1920.0,700.0,Object_Sea_Pattern_Small,40.771171875006985,46.786932916002115,4.0,Object_Land_Solid_Small,8.0,,,,,,,,,,,
encoding,value,21,18857927,18863943,18858781.0,18858867.0,87.0,87.0,1859.9,757.8,1920.0,1460.0,Object_Land_Solid_Large,40.771171875006985,46.786932916002115,4.0,Object_Land_Solid_Small,8.0,,,,,,,,,,,
encoding,value,21,18857927,18863943,18858885.0,18859395.0,511.0,511.0,1972.2,625.0,1920.0,1460.0,Object_Land_Solid_Large,40.771171875006985,46.786932916002115,4.0,Object_Land_Solid_Small,8.0,,,,,,,,,,,
encoding,value,21,18857927,18863943,18859440.0,18859546.0,107.0,107.0,1597.5,692.4000000000001,1591.0,1269.0,Object_Land_Solid_Small,40.771171875006985,46.786932916002115,4.0,Object_Land_Solid_Small,8.0,,,,,,,,,,,
encoding,value,21,18857927,18863943,18859848.0,18860142.0,295.0,295.0,1536.6,752.5999999999999,1591.0,1269.0,Object_Land_Solid_Small,40.771171875006985,46.786932916002115,4.0,Object_Land_Solid_Small,8.0,,,,,,,,,,,
encoding,value,21,18857927,18863943,18860157.0,18860434.0,278.0,278.0,1598.1,826.8,1591.0,1269.0,Object_Land_Solid_Small,40.771171875006985,46.786932916002115,4.0,Object_Land_Solid_Small,8.0,,,,,,,,,,,
encoding,value,21,18857927,18863943,18860707.0,18861149.0,443.0,443.0,1598.0,787.8,1591.0,1269.0,Object_Land_Solid_Small,40.771171875006985,46.786932916002115,4.0,Object_Land_Solid_Small,8.0,,,,,,,,,,,
encoding,value,21,18857927,18863943,18861397.0,18862944.0,1548.0,1548.0,1625.8,825.8,1591.0,1269.0,Object_Land_Solid_Small,40.771171875006985,46.786932916002115,4.0,Object_Land_Solid_Small,8.0,,,,,,,,,,,
encoding,value,21,18857927,18863943,18863143.0,18864307.0,1165.0,800.0,1604.6,777.2,1591.0,1269.0,Object_Land_Solid_Small,40.771171875006985,46.786932916002115,4.0,Object_Land_Solid_Small,8.0,,,,,,,,,,,
encoding,attention,21,18863944,18866963,18864527.0,18864969.0,443.0,443.0,1646.1,761.0,1591.0,1269.0,Object_Land_Solid_Small,46.78706087500905,49.80653812500532,4.0,Object_Land_Solid_Small,8.0,8.0,1.0,0.7637681250052992,,,,,,,,
encoding,attention,21,18863944,18866963,18865018.0,18865277.0,260.0,260.0,1841.6,1212.4,1591.0,891.0,Animal_Sea_Pattern_Large,46.78706087500905,49.80653812500532,4.0,Object_Land_Solid_Small,8.0,8.0,1.0,0.7637681250052992,,,,,,,,
encoding,attention,21,18863944,18866963,18865306.0,18865890.0,585.0,585.0,1926.4,1452.8,1920.0,700.0,Object_Sea_Pattern_Small,46.78706087500905,49.80653812500532,4.0,Object_Land_Solid_Small,8.0,8.0,1.0,0.7637681250052992,,,,,,,,
encoding,attention,21,18863944,18866963,18866040.0,18866747.0,708.0,708.0,1877.9,1438.3,1920.0,700.0,Object_Sea_Pattern_Small,46.78706087500905,49.80653812500532,4.0,Object_Land_Solid_Small,8.0,8.0,1.0,0.7637681250052992,,,,,,,,
encoding,fixation,22,18866964,18867969,18867877.0,18868156.0,280.0,92.0,1600.8,863.9000000000001,1591.0,1269.0,Object_Land_Solid_Small,49.80670499999542,50.812206000002334,4.0,Animal_Land_Solid_Large,2.0,,,,,,,,,,,
encoding,image,22,18867969,18868982,18868211.0,18868349.0,139.0,139.0,2014.3,1284.7,1920.0,700.0,Object_Sea_Pattern_Small,50.81233874999453,51.82541733302059,4.0,Animal_Land_Solid_Large,2.0,,,,,,,,,,,
encoding,image,22,18867969,18868982,18868374.0,18868529.0,156.0,156.0,2235.2,1234.9,2249.0,891.0,Animal_Land_Solid_Large,50.81233874999453,51.82541733302059,4.0,Animal_Land_Solid_Large,2.0,,,,,,,,,,,
encoding,image,22,18867969,18868982,18868672.0,18868856.0,185.0,185.0,2069.1,1302.6,2249.0,891.0,Animal_Land_Solid_Large,50.81233874999453,51.82541733302059,4.0,Animal_Land_Solid_Large,2.0,,,,,,,,,,,
encoding,image,22,18867969,18868982,18868882.0,18869189.0,308.0,100.0,2253.0,1204.7,2249.0,891.0,Animal_Land_Solid_Large,50.81233874999453,51.82541733302059,4.0,Animal_Land_Solid_Large,2.0,,,,,,,,,,,
encoding,value,22,18868982,18874995,18869199.0,18869290.0,92.0,92.0,2238.1,1175.6,2249.0,891.0,Animal_Land_Solid_Large,51.825523958017584,57.83817766600987,4.0,Animal_Land_Solid_Large,2.0,,,,,,,,,,,
encoding,value,22,18868982,18874995,18869402.0,18869603.0,202.0,202.0,2236.2,1135.0,2249.0,891.0,Animal_Land_Solid_Large,51.825523958017584,57.83817766600987,4.0,Animal_Land_Solid_Large,2.0,,,,,,,,,,,
encoding,value,22,18868982,18874995,18869802.0,18870614.0,813.0,813.0,2235.4,1178.9,2249.0,891.0,Animal_Land_Solid_Large,51.825523958017584,57.83817766600987,4.0,Animal_Land_Solid_Large,2.0,,,,,,,,,,,
encoding,value,22,18868982,18874995,18870641.0,18871411.0,771.0,771.0,2024.2,1417.7,1920.0,700.0,Object_Sea_Pattern_Small,51.825523958017584,57.83817766600987,4.0,Animal_Land_Solid_Large,2.0,,,,,,,,,,,
encoding,value,22,18868982,18874995,18871472.0,18871917.0,446.0,446.0,1898.2,724.3,1920.0,1460.0,Object_Land_Solid_Large,51.825523958017584,57.83817766600987,4.0,Animal_Land_Solid_Large,2.0,,,,,,,,,,,
encoding,value,22,18868982,18874995,18871959.0,18872255.0,297.0,297.0,1557.8,876.7,1591.0,1269.0,Object_Land_Solid_Small,51.825523958017584,57.83817766600987,4.0,Animal_Land_Solid_Large,2.0,,,,,,,,,,,
encoding,value,22,18868982,18874995,18872309.0,18872466.0,158.0,158.0,2200.6,1134.8,2249.0,891.0,Animal_Land_Solid_Large,51.825523958017584,57.83817766600987,4.0,Animal_Land_Solid_Large,2.0,,,,,,,,,,,
encoding,value,22,18868982,18874995,18872476.0,18872618.0,143.0,143.0,2256.6,1142.9,2249.0,891.0,Animal_Land_Solid_Large,51.825523958017584,57.83817766600987,4.0,Animal_Land_Solid_Large,2.0,,,,,,,,,,,
encoding,value,22,18868982,18874995,18872754.0,18873657.0,904.0,904.0,2250.8,1193.9,2249.0,891.0,Animal_Land_Solid_Large,51.825523958017584,57.83817766600987,4.0,Animal_Land_Solid_Large,2.0,,,,,,,,,,,
encoding,value,22,18868982,18874995,18873836.0,18874275.0,440.0,440.0,2232.7,1167.2,2249.0,891.0,Animal_Land_Solid_Large,51.825523958017584,57.83817766600987,4.0,Animal_Land_Solid_Large,2.0,,,,,,,,,,,
encoding,value,22,18868982,18874995,18874401.0,18874818.0,418.0,418.0,2102.8,1183.3,2249.0,891.0,Animal_Land_Solid_Large,51.825523958017584,57.83817766600987,4.0,Animal_Land_Solid_Large,2.0,,,,,,,,,,,
encoding,value,22,18868982,18874995,18874962.0,18875188.0,227.0,33.0,2072.1,1265.9,2249.0,891.0,Animal_Land_Solid_Large,51.825523958017584,57.83817766600987,4.0,Animal_Land_Solid_Large,2.0,,,,,,,,,,,
encoding,attention,22,18874995,18878017,18875210.0,18875315.0,106.0,106.0,2218.2,1173.3,2249.0,891.0,Animal_Land_Solid_Large,57.838302040996496,60.85941929099499,4.0,Animal_Land_Solid_Large,2.0,2.0,1.0,0.977365958999144,,,,,,,,
encoding,attention,22,18874995,18878017,18875504.0,18876217.0,714.0,714.0,2240.1,1171.6,2249.0,891.0,Animal_Land_Solid_Large,57.838302040996496,60.85941929099499,4.0,Animal_Land_Solid_Large,2.0,2.0,1.0,0.977365958999144,,,,,,,,
encoding,attention,22,18874995,18878017,18876365.0,18876721.0,357.0,357.0,2041.5,1304.2,1920.0,700.0,Object_Sea_Pattern_Small,57.838302040996496,60.85941929099499,4.0,Animal_Land_Solid_Large,2.0,2.0,1.0,0.977365958999144,,,,,,,,
encoding,fixation,23,18878017,18878522,18878358.0,18878420.0,63.0,63.0,1877.2,998.3,1920.0,1460.0,Object_Land_Solid_Large,60.859566625003936,61.364859458000865,4.0,Animal_Sea_Pattern_Large,4.0,,,,,,,,,,,
encoding,image,23,18878522,18879532,18878562.0,18878753.0,192.0,192.0,1936.7,1254.6,1920.0,700.0,Object_Sea_Pattern_Small,61.364950000017416,62.37504266601172,4.0,Animal_Sea_Pattern_Large,4.0,,,,,,,,,,,
encoding,image,23,18878522,18879532,18878787.0,18878927.0,141.0,141.0,1558.3,1222.0,1591.0,891.0,Animal_Sea_Pattern_Large,61.364950000017416,62.37504266601172,4.0,Animal_Sea_Pattern_Large,4.0,,,,,,,,,,,
encoding,image,23,18878522,18879532,18879087.0,18879592.0,506.0,445.0,1915.4,1388.2,1920.0,700.0,Object_Sea_Pattern_Small,61.364950000017416,62.37504266601172,4.0,Animal_Sea_Pattern_Large,4.0,,,,,,,,,,,
encoding,value,23,18879533,18885544,18879731.0,18880047.0,317.0,317.0,1834.2,1243.1,1920.0,700.0,Object_Sea_Pattern_Small,62.37516383299953,68.38681225001346,4.0,Animal_Sea_Pattern_Large,4.0,,,,,,,,,,,
encoding,value,23,18879533,18885544,18880195.0,18880464.0,270.0,270.0,1875.8,1296.9,1920.0,700.0,Object_Sea_Pattern_Small,62.37516383299953,68.38681225001346,4.0,Animal_Sea_Pattern_Large,4.0,,,,,,,,,,,
encoding,value,23,18879533,18885544,18880588.0,18880765.0,178.0,178.0,1992.1,1372.5,1920.0,700.0,Object_Sea_Pattern_Small,62.37516383299953,68.38681225001346,4.0,Animal_Sea_Pattern_Large,4.0,,,,,,,,,,,
encoding,value,23,18879533,18885544,18880809.0,18880976.0,168.0,168.0,1519.9,1184.7,1591.0,891.0,Animal_Sea_Pattern_Large,62.37516383299953,68.38681225001346,4.0,Animal_Sea_Pattern_Large,4.0,,,,,,,,,,,
encoding,value,23,18879533,18885544,18880984.0,18881087.0,104.0,104.0,1509.6,1153.0,1591.0,891.0,Animal_Sea_Pattern_Large,62.37516383299953,68.38681225001346,4.0,Animal_Sea_Pattern_Large,4.0,,,,,,,,,,,
encoding,value,23,18879533,18885544,18881266.0,18881548.0,283.0,283.0,1842.5,1269.0,1920.0,700.0,Object_Sea_Pattern_Small,62.37516383299953,68.38681225001346,4.0,Animal_Sea_Pattern_Large,4.0,,,,,,,,,,,
encoding,value,23,18879533,18885544,18881559.0,18882141.0,583.0,583.0,1960.7,1296.3,1920.0,700.0,Object_Sea_Pattern_Small,62.37516383299953,68.38681225001346,4.0,Animal_Sea_Pattern_Large,4.0,,,,,,,,,,,
encoding,value,23,18879533,18885544,18882166.0,18882454.0,289.0,289.0,1882.1,1465.4,1920.0,700.0,Object_Sea_Pattern_Small,62.37516383299953,68.38681225001346,4.0,Animal_Sea_Pattern_Large,4.0,,,,,,,,,,,
encoding,value,23,18879533,18885544,18882470.0,18882490.0,21.0,21.0,1910.8,1423.5,1920.0,700.0,Object_Sea_Pattern_Small,62.37516383299953,68.38681225001346,4.0,Animal_Sea_Pattern_Large,4.0,,,,,,,,,,,
encoding,value,23,18879533,18885544,18882579.0,18882829.0,251.0,251.0,1899.9,1496.1,1920.0,700.0,Object_Sea_Pattern_Small,62.37516383299953,68.38681225001346,4.0,Animal_Sea_Pattern_Large,4.0,,,,,,,,,,,
encoding,value,23,18879533,18885544,18882900.0,18883516.0,617.0,617.0,1871.0,1388.4,1920.0,700.0,Object_Sea_Pattern_Small,62.37516383299953,68.38681225001346,4.0,Animal_Sea_Pattern_Large,4.0,,,,,,,,,,,
encoding,value,23,18879533,18885544,18883647.0,18883914.0,268.0,268.0,1552.8,1178.9,1591.0,891.0,Animal_Sea_Pattern_Large,62.37516383299953,68.38681225001346,4.0,Animal_Sea_Pattern_Large,4.0,,,,,,,,,,,
encoding,value,23,18879533,18885544,18883940.0,18884648.0,709.0,709.0,1888.2,1332.4,1920.0,700.0,Object_Sea_Pattern_Small,62.37516383299953,68.38681225001346,4.0,Animal_Sea_Pattern_Large,4.0,,,,,,,,,,,
encoding,value,23,18879533,18885544,18884680.0,18884726.0,47.0,47.0,1856.4,1110.6,1591.0,891.0,Animal_Sea_Pattern_Large,62.37516383299953,68.38681225001346,4.0,Animal_Sea_Pattern_Large,4.0,,,,,,,,,,,
encoding,value,23,18879533,18885544,18884937.0,18885597.0,661.0,607.0,1897.5,1063.7,1920.0,1080.0,fixation,62.37516383299953,68.38681225001346,4.0,Animal_Sea_Pattern_Large,4.0,,,,,,,,,,,
encoding,attention,23,18885545,18888561,18885642.0,18885888.0,247.0,247.0,1555.7,1153.9,1591.0,891.0,Animal_Sea_Pattern_Large,68.3869763330149,71.4036277080013,4.0,Animal_Sea_Pattern_Large,4.0,4.0,1.0,0.9904218750016298,,,,,,,,
encoding,attention,23,18885545,18888561,18885908.0,18885933.0,26.0,26.0,1474.4,1236.5,1591.0,891.0,Animal_Sea_Pattern_Large,68.3869763330149,71.4036277080013,4.0,Animal_Sea_Pattern_Large,4.0,4.0,1.0,0.9904218750016298,,,,,,,,
encoding,attention,23,18885545,18888561,18885944.0,18886026.0,83.0,83.0,1499.2,1140.2,1591.0,891.0,Animal_Sea_Pattern_Large,68.3869763330149,71.4036277080013,4.0,Animal_Sea_Pattern_Large,4.0,4.0,1.0,0.9904218750016298,,,,,,,,
encoding,attention,23,18885545,18888561,18886229.0,18886791.0,563.0,563.0,1524.8,1071.6,1591.0,1269.0,Object_Land_Solid_Small,68.3869763330149,71.4036277080013,4.0,Animal_Sea_Pattern_Large,4.0,4.0,1.0,0.9904218750016298,,,,,,,,
encoding,attention,23,18885545,18888561,18886966.0,18887515.0,550.0,550.0,1585.9,1124.8,1591.0,891.0,Animal_Sea_Pattern_Large,68.3869763330149,71.4036277080013,4.0,Animal_Sea_Pattern_Large,4.0,4.0,1.0,0.9904218750016298,,,,,,,,
encoding,attention,23,18885545,18888561,18887540.0,18887992.0,453.0,453.0,1855.4,1073.4,1920.0,1080.0,fixation,68.3869763330149,71.4036277080013,4.0,Animal_Sea_Pattern_Large,4.0,4.0,1.0,0.9904218750016298,,,,,,,,
encoding,attention,23,18885545,18888561,18888021.0,18888143.0,123.0,123.0,1941.0,1280.7,1920.0,700.0,Object_Sea_Pattern_Small,68.3869763330149,71.4036277080013,4.0,Animal_Sea_Pattern_Large,4.0,4.0,1.0,0.9904218750016298,,,,,,,,
encoding,attention,23,18885545,18888561,18888276.0,18888446.0,171.0,171.0,1798.2,1250.8,1591.0,891.0,Animal_Sea_Pattern_Large,68.3869763330149,71.4036277080013,4.0,Animal_Sea_Pattern_Large,4.0,4.0,1.0,0.9904218750016298,,,,,,,,
encoding,fixation,24,18888561,18889568,18888831.0,18888917.0,87.0,87.0,1850.8,1091.0,1591.0,891.0,Animal_Sea_Pattern_Large,71.4038202080119,72.40987887501251,4.0,Animal_Sea_Pattern_Small,-8.0,,,,,,,,,,,
encoding,fixation,24,18888561,18889568,18889083.0,18889760.0,678.0,485.0,1930.8,1077.8,1920.0,1080.0,fixation,71.4038202080119,72.40987887501251,4.0,Animal_Sea_Pattern_Small,-8.0,,,,,,,,,,,
encoding,image,24,18889568,18890579,18889801.0,18889937.0,137.0,137.0,2202.9,888.2,2249.0,1269.0,Animal_Sea_Pattern_Small,72.4099932500103,73.42141262500081,4.0,Animal_Sea_Pattern_Small,-8.0,,,,,,,,,,,
encoding,image,24,18889568,18890579,18890130.0,18890798.0,669.0,449.0,1870.1,1011.9000000000001,1591.0,1269.0,Object_Land_Solid_Small,72.4099932500103,73.42141262500081,4.0,Animal_Sea_Pattern_Small,-8.0,,,,,,,,,,,
encoding,value,24,18890579,18896591,18890831.0,18891390.0,560.0,560.0,1645.4,1181.4,1591.0,891.0,Animal_Sea_Pattern_Large,73.42153108300408,79.4335490000085,4.0,Animal_Sea_Pattern_Small,-8.0,,,,,,,,,,,
encoding,value,24,18890579,18896591,18891418.0,18891615.0,198.0,198.0,1936.2,1148.3,1920.0,700.0,Object_Sea_Pattern_Small,73.42153108300408,79.4335490000085,4.0,Animal_Sea_Pattern_Small,-8.0,,,,,,,,,,,
encoding,value,24,18890579,18896591,18891649.0,18891699.0,51.0,51.0,2138.0,865.0,2249.0,1269.0,Animal_Sea_Pattern_Small,73.42153108300408,79.4335490000085,4.0,Animal_Sea_Pattern_Small,-8.0,,,,,,,,,,,
encoding,value,24,18890579,18896591,18891877.0,18892106.0,230.0,230.0,2195.3,838.0,2249.0,1269.0,Animal_Sea_Pattern_Small,73.42153108300408,79.4335490000085,4.0,Animal_Sea_Pattern_Small,-8.0,,,,,,,,,,,
encoding,value,24,18890579,18896591,18892122.0,18892869.0,748.0,748.0,2257.1,776.5,2249.0,1269.0,Animal_Sea_Pattern_Small,73.42153108300408,79.4335490000085,4.0,Animal_Sea_Pattern_Small,-8.0,,,,,,,,,,,
encoding,value,24,18890579,18896591,18893046.0,18893471.0,426.0,426.0,2238.2,813.9000000000001,2249.0,1269.0,Animal_Sea_Pattern_Small,73.42153108300408,79.4335490000085,4.0,Animal_Sea_Pattern_Small,-8.0,,,,,,,,,,,
encoding,value,24,18890579,18896591,18893609.0,18893977.0,369.0,369.0,2129.5,1016.8,2249.0,1269.0,Animal_Sea_Pattern_Small,73.42153108300408,79.4335490000085,4.0,Animal_Sea_Pattern_Small,-8.0,,,,,,,,,,,
encoding,value,24,18890579,18896591,18894012.0,18894153.0,142.0,142.0,1777.5,1051.8,1591.0,1269.0,Object_Land_Solid_Small,73.42153108300408,79.4335490000085,4.0,Animal_Sea_Pattern_Small,-8.0,,,,,,,,,,,
encoding,value,24,18890579,18896591,18894283.0,18894477.0,195.0,195.0,1844.1,1027.0,1591.0,1269.0,Object_Land_Solid_Small,73.42153108300408,79.4335490000085,4.0,Animal_Sea_Pattern_Small,-8.0,,,,,,,,,,,
encoding,value,24,18890579,18896591,18894640.0,18895036.0,397.0,397.0,2086.9,1091.8,2249.0,891.0,Animal_Land_Solid_Large,73.42153108300408,79.4335490000085,4.0,Animal_Sea_Pattern_Small,-8.0,,,,,,,,,,,
encoding,value,24,18890579,18896591,18895064.0,18895434.0,371.0,371.0,1727.9,1176.9,1591.0,891.0,Animal_Sea_Pattern_Large,73.42153108300408,79.4335490000085,4.0,Animal_Sea_Pattern_Small,-8.0,,,,,,,,,,,
encoding,value,24,18890579,18896591,18895460.0,18895647.0,188.0,188.0,1450.2,1182.2,1591.0,891.0,Animal_Sea_Pattern_Large,73.42153108300408,79.4335490000085,4.0,Animal_Sea_Pattern_Small,-8.0,,,,,,,,,,,
encoding,value,24,18890579,18896591,18895706.0,18895852.0,147.0,147.0,2135.2,851.5999999999999,2249.0,1269.0,Animal_Sea_Pattern_Small,73.42153108300408,79.4335490000085,4.0,Animal_Sea_Pattern_Small,-8.0,,,,,,,,,,,
encoding,value,24,18890579,18896591,18895868.0,18896638.0,771.0,723.0,2256.5,764.9000000000001,2249.0,1269.0,Animal_Sea_Pattern_Small,73.42153108300408,79.4335490000085,4.0,Animal_Sea_Pattern_Small,-8.0,,,,,,,,,,,
encoding,attention,24,18896592,18899609,18896817.0,18897104.0,288.0,288.0,2244.3,797.9000000000001,2249.0,1269.0,Animal_Sea_Pattern_Small,79.4336658329994,82.45128166599898,4.0,Animal_Sea_Pattern_Small,-8.0,-8.0,1.0,0.8735530830163043,,,,,,,,
encoding,attention,24,18896592,18899609,18897260.0,18897690.0,431.0,431.0,2303.6,816.0999999999999,2249.0,1269.0,Animal_Sea_Pattern_Small,79.4336658329994,82.45128166599898,4.0,Animal_Sea_Pattern_Small,-8.0,-8.0,1.0,0.8735530830163043,,,,,,,,
