phase,event,trial_number,eyetracker_onset,eyetracker_offset,fix_start,fix_end,fix_duration_full,fix_duration_bounded,fix_x,fix_y,roi_x,roi_y,roi_content,onset,offset,game,image,outcome,choice,correct,rt,letter,match,response,option,true_value,true_position,recalled_position,Unnamed: 18
encoding,fixation,1,2386131,2387641,2386376.0,2386893.0,518.0,518.0,1910.3,1148.3,1920.0,1080.0,fixation,33.3067020829767,34.81715912499931,1.0,Object_Land_Solid_Large,-7.0,,,,,,,,,,,
encoding,fixation,1,2386131,2387641,2386908.0,2387047.0,140.0,140.0,1924.7,1229.7,1920.0,700.0,Animal_Sea_Pattern_Small,33.3067020829767,34.81715912499931,1.0,Object_Land_Solid_Large,-7.0,,,,,,,,,,,
encoding,fixation,1,2386131,2387641,2387201.0,2387818.0,618.0,440.0,1903.5,991.4000000000001,1920.0,1460.0,Animal_Sea_Solid_Large,33.3067020829767,34.81715912499931,1.0,Object_Land_Solid_Large,-7.0,,,,,,,,,,,
encoding,image,1,2387641,2388657,2387858.0,2388183.0,326.0,326.0,2245.8,1272.0,2249.0,891.0,Object_Land_Solid_Large,34.817289417027496,35.83279558294453,1.0,Object_Land_Solid_Large,-7.0,,,,,,,,,,,
encoding,image,1,2387641,2388657,2388191.0,2388348.0,158.0,158.0,2205.5,1247.3,2249.0,891.0,Object_Land_Solid_Large,34.817289417027496,35.83279558294453,1.0,Object_Land_Solid_Large,-7.0,,,,,,,,,,,
encoding,image,1,2387641,2388657,2388524.0,2388868.0,345.0,133.0,2223.7,1253.9,2249.0,891.0,Object_Land_Solid_Large,34.817289417027496,35.83279558294453,1.0,Object_Land_Solid_Large,-7.0,,,,,,,,,,,
encoding,value,1,2388657,2394671,2388891.0,2389197.0,307.0,307.0,2232.5,1147.8,2249.0,891.0,Object_Land_Solid_Large,35.832901041954756,41.84637174999807,1.0,Object_Land_Solid_Large,-7.0,,,,,,,,,,,
encoding,value,1,2388657,2394671,2389396.0,2390183.0,788.0,788.0,2239.6,1245.9,2249.0,891.0,Object_Land_Solid_Large,35.832901041954756,41.84637174999807,1.0,Object_Land_Solid_Large,-7.0,,,,,,,,,,,
encoding,value,1,2388657,2394671,2390395.0,2390899.0,505.0,505.0,2231.5,1247.9,2249.0,891.0,Object_Land_Solid_Large,35.832901041954756,41.84637174999807,1.0,Object_Land_Solid_Large,-7.0,,,,,,,,,,,
encoding,value,1,2388657,2394671,2391123.0,2391412.0,290.0,290.0,2237.2,1154.1,2249.0,891.0,Object_Land_Solid_Large,35.832901041954756,41.84637174999807,1.0,Object_Land_Solid_Large,-7.0,,,,,,,,,,,
encoding,value,1,2388657,2394671,2391428.0,2391755.0,328.0,328.0,2204.5,1221.3,2249.0,891.0,Object_Land_Solid_Large,35.832901041954756,41.84637174999807,1.0,Object_Land_Solid_Large,-7.0,,,,,,,,,,,
encoding,value,1,2388657,2394671,2391921.0,2392331.0,411.0,411.0,2222.3,1261.2,2249.0,891.0,Object_Land_Solid_Large,35.832901041954756,41.84637174999807,1.0,Object_Land_Solid_Large,-7.0,,,,,,,,,,,
encoding,value,1,2388657,2394671,2392343.0,2392648.0,306.0,306.0,2178.6,1215.9,2249.0,891.0,Object_Land_Solid_Large,35.832901041954756,41.84637174999807,1.0,Object_Land_Solid_Large,-7.0,,,,,,,,,,,
encoding,value,1,2388657,2394671,2392823.0,2393416.0,594.0,594.0,2201.7,1135.0,2249.0,891.0,Object_Land_Solid_Large,35.832901041954756,41.84637174999807,1.0,Object_Land_Solid_Large,-7.0,,,,,,,,,,,
encoding,value,1,2388657,2394671,2393433.0,2393623.0,191.0,191.0,2190.9,1220.9,2249.0,891.0,Object_Land_Solid_Large,35.832901041954756,41.84637174999807,1.0,Object_Land_Solid_Large,-7.0,,,,,,,,,,,
encoding,value,1,2388657,2394671,2393826.0,2393882.0,57.0,57.0,2197.8,1242.0,2249.0,891.0,Object_Land_Solid_Large,35.832901041954756,41.84637174999807,1.0,Object_Land_Solid_Large,-7.0,,,,,,,,,,,
encoding,value,1,2388657,2394671,2394078.0,2394185.0,108.0,108.0,2231.1,1233.7,2249.0,891.0,Object_Land_Solid_Large,35.832901041954756,41.84637174999807,1.0,Object_Land_Solid_Large,-7.0,,,,,,,,,,,
encoding,value,1,2388657,2394671,2394399.0,2394716.0,318.0,272.0,2210.6,1147.0,2249.0,891.0,Object_Land_Solid_Large,35.832901041954756,41.84637174999807,1.0,Object_Land_Solid_Large,-7.0,,,,,,,,,,,
encoding,attention,1,2394671,2397688,2394952.0,2395488.0,537.0,537.0,2197.1,1097.6,2249.0,891.0,Object_Land_Solid_Large,41.84650237497408,44.863337166956626,1.0,Object_Land_Solid_Large,-7.0,-7.0,1.0,1.601038542110473,,,,,,,,
encoding,attention,1,2394671,2397688,2395501.0,2395872.0,372.0,372.0,2270.9,1105.1,2249.0,891.0,Object_Land_Solid_Large,41.84650237497408,44.863337166956626,1.0,Object_Land_Solid_Large,-7.0,-7.0,1.0,1.601038542110473,,,,,,,,
encoding,attention,1,2394671,2397688,2396043.0,2396803.0,761.0,761.0,2254.5,1142.3,2249.0,891.0,Object_Land_Solid_Large,41.84650237497408,44.863337166956626,1.0,Object_Land_Solid_Large,-7.0,-7.0,1.0,1.601038542110473,,,,,,,,
encoding,attention,1,2394671,2397688,2397005.0,2397257.0,253.0,253.0,2275.6,1161.3,2249.0,891.0,Object_Land_Solid_Large,41.84650237497408,44.863337166956626,1.0,Object_Land_Solid_Large,-7.0,-7.0,1.0,1.601038542110473,,,,,,,,
encoding,fixation,2,2397688,2399193,2397892.0,2398050.0,159.0,159.0,1951.3,1127.9,1920.0,1080.0,fixation,44.86354004195891,46.368578249937855,1.0,Animal_Sea_Solid_Small,-3.0,,,,,,,,,,,
encoding,fixation,2,2397688,2399193,2398065.0,2398127.0,63.0,63.0,1895.1,1082.4,1920.0,1080.0,fixation,44.86354004195891,46.368578249937855,1.0,Animal_Sea_Solid_Small,-3.0,,,,,,,,,,,
encoding,fixation,2,2397688,2399193,2398358.0,2399469.0,1112.0,835.0,1915.1,1068.0,1920.0,1080.0,fixation,44.86354004195891,46.368578249937855,1.0,Animal_Sea_Solid_Small,-3.0,,,,,,,,,,,
encoding,image,2,2399193,2400204,2399506.0,2400586.0,1081.0,698.0,2250.7,846.4000000000001,2249.0,1269.0,Animal_Sea_Solid_Small,46.36868629197125,47.37946824997198,1.0,Animal_Sea_Solid_Small,-3.0,,,,,,,,,,,
encoding,value,2,2400204,2406216,2400605.0,2404916.0,4312.0,4312.0,2244.3,739.9000000000001,2249.0,1269.0,Animal_Sea_Solid_Small,47.37958954193164,53.39156133297365,1.0,Animal_Sea_Solid_Small,-3.0,,,,,,,,,,,
encoding,value,2,2400204,2406216,2405046.0,2405214.0,169.0,169.0,2266.8,742.2,2249.0,1269.0,Animal_Sea_Solid_Small,47.37958954193164,53.39156133297365,1.0,Animal_Sea_Solid_Small,-3.0,,,,,,,,,,,
encoding,value,2,2400204,2406216,2405221.0,2407704.0,2484.0,995.0,2263.5,724.5999999999999,2249.0,1269.0,Animal_Sea_Solid_Small,47.37958954193164,53.39156133297365,1.0,Animal_Sea_Solid_Small,-3.0,,,,,,,,,,,
encoding,attention,2,2406216,2409234,2407951.0,2408135.0,185.0,185.0,2225.9,739.0999999999999,2249.0,1269.0,Animal_Sea_Solid_Small,53.39168841694482,56.4089404999977,1.0,Animal_Sea_Solid_Small,-3.0,-3.0,1.0,0.9568065840285273,,,,,,,,
encoding,attention,2,2406216,2409234,2408150.0,2408901.0,752.0,752.0,2269.2,845.8,2249.0,1269.0,Animal_Sea_Solid_Small,53.39168841694482,56.4089404999977,1.0,Animal_Sea_Solid_Small,-3.0,-3.0,1.0,0.9568065840285273,,,,,,,,
encoding,attention,2,2406216,2409234,2408909.0,2409118.0,210.0,210.0,2261.0,871.8,2249.0,1269.0,Animal_Sea_Solid_Small,53.39168841694482,56.4089404999977,1.0,Animal_Sea_Solid_Small,-3.0,-3.0,1.0,0.9568065840285273,,,,,,,,
encoding,fixation,3,2409234,2410739,2409330.0,2409574.0,245.0,245.0,2252.3,796.3,2249.0,1269.0,Animal_Sea_Solid_Small,56.40910229203291,57.9141834579641,1.0,Animal_Sea_Solid_Large,6.0,,,,,,,,,,,
encoding,fixation,3,2409234,2410739,2409610.0,2409782.0,173.0,173.0,1900.9,1099.9,1920.0,1080.0,fixation,56.40910229203291,57.9141834579641,1.0,Animal_Sea_Solid_Large,6.0,,,,,,,,,,,
encoding,fixation,3,2409234,2410739,2410042.0,2410121.0,80.0,80.0,1874.8,1169.6,1920.0,700.0,Animal_Sea_Pattern_Small,56.40910229203291,57.9141834579641,1.0,Animal_Sea_Solid_Large,6.0,,,,,,,,,,,
encoding,fixation,3,2409234,2410739,2410345.0,2410603.0,259.0,259.0,2073.7,1234.7,2249.0,891.0,Object_Land_Solid_Large,56.40910229203291,57.9141834579641,1.0,Animal_Sea_Solid_Large,6.0,,,,,,,,,,,
encoding,fixation,3,2409234,2410739,2410639.0,2410753.0,115.0,100.0,2318.0,1159.7,2249.0,891.0,Object_Land_Solid_Large,56.40910229203291,57.9141834579641,1.0,Animal_Sea_Solid_Large,6.0,,,,,,,,,,,
encoding,image,3,2410739,2411752,2410923.0,2411081.0,159.0,159.0,2527.0,1330.6,,,none,57.914294666959904,58.92720054194797,1.0,Animal_Sea_Solid_Large,6.0,,,,,,,,,,,
encoding,image,3,2410739,2411752,2411158.0,2411340.0,183.0,183.0,1848.3,671.3,1920.0,1460.0,Animal_Sea_Solid_Large,57.914294666959904,58.92720054194797,1.0,Animal_Sea_Solid_Large,6.0,,,,,,,,,,,
encoding,image,3,2410739,2411752,2411358.0,2411443.0,86.0,86.0,1934.4,677.4000000000001,1920.0,1460.0,Animal_Sea_Solid_Large,57.914294666959904,58.92720054194797,1.0,Animal_Sea_Solid_Large,6.0,,,,,,,,,,,
encoding,image,3,2410739,2411752,2411697.0,2411942.0,246.0,55.0,1897.4,719.8,1920.0,1460.0,Animal_Sea_Solid_Large,57.914294666959904,58.92720054194797,1.0,Animal_Sea_Solid_Large,6.0,,,,,,,,,,,
encoding,value,3,2411752,2417765,2411967.0,2412322.0,356.0,356.0,1879.8,594.9000000000001,1920.0,1460.0,Animal_Sea_Solid_Large,58.92730708303861,64.93939766695257,1.0,Animal_Sea_Solid_Large,6.0,,,,,,,,,,,
encoding,value,3,2411752,2417765,2413062.0,2413110.0,49.0,49.0,1857.6,480.0999999999999,,,none,58.92730708303861,64.93939766695257,1.0,Animal_Sea_Solid_Large,6.0,,,,,,,,,,,
encoding,value,3,2411752,2417765,2413305.0,2413784.0,480.0,480.0,2169.2,1202.9,2249.0,891.0,Object_Land_Solid_Large,58.92730708303861,64.93939766695257,1.0,Animal_Sea_Solid_Large,6.0,,,,,,,,,,,
encoding,value,3,2411752,2417765,2413980.0,2414010.0,31.0,31.0,2462.4,1046.7,2249.0,1269.0,Animal_Sea_Solid_Small,58.92730708303861,64.93939766695257,1.0,Animal_Sea_Solid_Large,6.0,,,,,,,,,,,
encoding,value,3,2411752,2417765,2414206.0,2414278.0,73.0,73.0,2332.6,1108.3,2249.0,891.0,Object_Land_Solid_Large,58.92730708303861,64.93939766695257,1.0,Animal_Sea_Solid_Large,6.0,,,,,,,,,,,
encoding,value,3,2411752,2417765,2414504.0,2414679.0,176.0,176.0,2114.4,839.7,2249.0,1269.0,Animal_Sea_Solid_Small,58.92730708303861,64.93939766695257,1.0,Animal_Sea_Solid_Large,6.0,,,,,,,,,,,
encoding,value,3,2411752,2417765,2414716.0,2415041.0,326.0,326.0,1873.6,548.4000000000001,1920.0,1460.0,Animal_Sea_Solid_Large,58.92730708303861,64.93939766695257,1.0,Animal_Sea_Solid_Large,6.0,,,,,,,,,,,
encoding,value,3,2411752,2417765,2415269.0,2416028.0,760.0,760.0,1875.3,660.2,1920.0,1460.0,Animal_Sea_Solid_Large,58.92730708303861,64.93939766695257,1.0,Animal_Sea_Solid_Large,6.0,,,,,,,,,,,
encoding,value,3,2411752,2417765,2416056.0,2416272.0,217.0,217.0,1869.7,503.79999999999995,1920.0,1460.0,Animal_Sea_Solid_Large,58.92730708303861,64.93939766695257,1.0,Animal_Sea_Solid_Large,6.0,,,,,,,,,,,
encoding,value,3,2411752,2417765,2416522.0,2418092.0,1571.0,1243.0,1872.8,549.9000000000001,1920.0,1460.0,Animal_Sea_Solid_Large,58.92730708303861,64.93939766695257,1.0,Animal_Sea_Solid_Large,6.0,,,,,,,,,,,
encoding,attention,3,2417765,2420784,2418100.0,2418255.0,156.0,156.0,1902.9,538.0999999999999,1920.0,1460.0,Animal_Sea_Solid_Large,64.93952016695403,67.95793441694696,1.0,Animal_Sea_Solid_Large,6.0,6.0,1.0,0.8504655419383198,,,,,,,,
encoding,attention,3,2417765,2420784,2418271.0,2419037.0,767.0,767.0,1813.2,535.9000000000001,1920.0,1460.0,Animal_Sea_Solid_Large,64.93952016695403,67.95793441694696,1.0,Animal_Sea_Solid_Large,6.0,6.0,1.0,0.8504655419383198,,,,,,,,
encoding,fixation,4,2420784,2421538,,,,,,,,,none,67.9580960420426,68.71300958294887,1.0,Object_Land_Pattern_Large,2.0,,,,,,,,,,,
encoding,image,4,2421539,2422550,2421771.0,2422721.0,951.0,779.0,1550.5,1238.0,1591.0,891.0,Object_Land_Pattern_Large,68.71311937493738,69.72439537500031,1.0,Object_Land_Pattern_Large,2.0,,,,,,,,,,,
encoding,value,4,2422550,2428563,2422738.0,2422894.0,157.0,157.0,1562.2,1169.1,1591.0,891.0,Object_Land_Pattern_Large,69.72452833293937,75.73713979194872,1.0,Object_Land_Pattern_Large,2.0,,,,,,,,,,,
encoding,value,4,2422550,2428563,2423086.0,2423879.0,794.0,794.0,1564.9,1138.1,1591.0,891.0,Object_Land_Pattern_Large,69.72452833293937,75.73713979194872,1.0,Object_Land_Pattern_Large,2.0,,,,,,,,,,,
encoding,value,4,2422550,2428563,2424096.0,2424319.0,224.0,224.0,1583.8,1155.2,1591.0,891.0,Object_Land_Pattern_Large,69.72452833293937,75.73713979194872,1.0,Object_Land_Pattern_Large,2.0,,,,,,,,,,,
encoding,value,4,2422550,2428563,2424530.0,2424811.0,282.0,282.0,1575.5,1171.2,1591.0,891.0,Object_Land_Pattern_Large,69.72452833293937,75.73713979194872,1.0,Object_Land_Pattern_Large,2.0,,,,,,,,,,,
encoding,value,4,2422550,2428563,2425033.0,2425208.0,176.0,176.0,1573.8,1066.0,1591.0,1269.0,Object_Land_Pattern_Small,69.72452833293937,75.73713979194872,1.0,Object_Land_Pattern_Large,2.0,,,,,,,,,,,
encoding,value,4,2422550,2428563,2425219.0,2425637.0,419.0,419.0,1563.7,1141.8,1591.0,891.0,Object_Land_Pattern_Large,69.72452833293937,75.73713979194872,1.0,Object_Land_Pattern_Large,2.0,,,,,,,,,,,
encoding,value,4,2422550,2428563,2425652.0,2425773.0,122.0,122.0,1659.5,1142.0,1591.0,891.0,Object_Land_Pattern_Large,69.72452833293937,75.73713979194872,1.0,Object_Land_Pattern_Large,2.0,,,,,,,,,,,
encoding,value,4,2422550,2428563,2426023.0,2426205.0,183.0,183.0,1627.1,1141.6,1591.0,891.0,Object_Land_Pattern_Large,69.72452833293937,75.73713979194872,1.0,Object_Land_Pattern_Large,2.0,,,,,,,,,,,
encoding,value,4,2422550,2428563,2426217.0,2426761.0,545.0,545.0,1566.7,1133.2,1591.0,891.0,Object_Land_Pattern_Large,69.72452833293937,75.73713979194872,1.0,Object_Land_Pattern_Large,2.0,,,,,,,,,,,
encoding,value,4,2422550,2428563,2426970.0,2427389.0,420.0,420.0,1545.6,1142.6,1591.0,891.0,Object_Land_Pattern_Large,69.72452833293937,75.73713979194872,1.0,Object_Land_Pattern_Large,2.0,,,,,,,,,,,
encoding,value,4,2422550,2428563,2427404.0,2427825.0,422.0,422.0,1547.6,1210.6,1591.0,891.0,Object_Land_Pattern_Large,69.72452833293937,75.73713979194872,1.0,Object_Land_Pattern_Large,2.0,,,,,,,,,,,
encoding,value,4,2422550,2428563,2428045.0,2428925.0,881.0,518.0,1578.4,1125.3,1591.0,891.0,Object_Land_Pattern_Large,69.72452833293937,75.73713979194872,1.0,Object_Land_Pattern_Large,2.0,,,,,,,,,,,
encoding,attention,4,2428563,2431581,2428932.0,2429649.0,718.0,718.0,1617.9,1130.7,1591.0,891.0,Object_Land_Pattern_Large,75.73726879199967,78.75472545798402,1.0,Object_Land_Pattern_Large,2.0,2.0,1.0,0.8302235830342397,,,,,,,,
encoding,attention,4,2428563,2431581,2429663.0,2429827.0,165.0,165.0,1542.3,1177.9,1591.0,891.0,Object_Land_Pattern_Large,75.73726879199967,78.75472545798402,1.0,Object_Land_Pattern_Large,2.0,2.0,1.0,0.8302235830342397,,,,,,,,
encoding,attention,4,2428563,2431581,2430091.0,2430315.0,225.0,225.0,1583.1,1189.1,1591.0,891.0,Object_Land_Pattern_Large,75.73726879199967,78.75472545798402,1.0,Object_Land_Pattern_Large,2.0,2.0,1.0,0.8302235830342397,,,,,,,,
encoding,attention,4,2428563,2431581,2430338.0,2430513.0,176.0,176.0,1773.4,1088.4,1591.0,891.0,Object_Land_Pattern_Large,75.73726879199967,78.75472545798402,1.0,Object_Land_Pattern_Large,2.0,2.0,1.0,0.8302235830342397,,,,,,,,
encoding,attention,4,2428563,2431581,2430528.0,2430818.0,291.0,291.0,1886.7,1072.4,1920.0,1080.0,fixation,75.73726879199967,78.75472545798402,1.0,Object_Land_Pattern_Large,2.0,2.0,1.0,0.8302235830342397,,,,,,,,
encoding,attention,4,2428563,2431581,2430852.0,2431241.0,390.0,390.0,1608.6,1139.8,1591.0,891.0,Object_Land_Pattern_Large,75.73726879199967,78.75472545798402,1.0,Object_Land_Pattern_Large,2.0,2.0,1.0,0.8302235830342397,,,,,,,,
encoding,attention,4,2428563,2431581,2431254.0,2431500.0,247.0,247.0,1665.6,1148.9,1591.0,891.0,Object_Land_Pattern_Large,75.73726879199967,78.75472545798402,1.0,Object_Land_Pattern_Large,2.0,2.0,1.0,0.8302235830342397,,,,,,,,
encoding,fixation,5,2431581,2432836,2431782.0,2432944.0,1163.0,1054.0,1906.2,1074.4,1920.0,1080.0,fixation,78.75492824998219,80.01030387496576,1.0,Animal_Sea_Pattern_Small,-1.0,,,,,,,,,,,
encoding,image,5,2432836,2433848,2432953.0,2433053.0,101.0,101.0,1871.7,1094.1,1920.0,1080.0,fixation,80.0104256250197,81.02164841699414,1.0,Animal_Sea_Pattern_Small,-1.0,,,,,,,,,,,
encoding,image,5,2432836,2433848,2433089.0,2434037.0,949.0,759.0,1928.9,1458.0,1920.0,700.0,Animal_Sea_Pattern_Small,80.0104256250197,81.02164841699414,1.0,Animal_Sea_Pattern_Small,-1.0,,,,,,,,,,,
encoding,value,5,2433848,2439860,2434055.0,2437907.0,3853.0,3853.0,1873.9,1349.0,1920.0,700.0,Animal_Sea_Pattern_Small,81.0217549999943,87.0336256249575,1.0,Animal_Sea_Pattern_Small,-1.0,,,,,,,,,,,
encoding,value,5,2433848,2439860,2438102.0,2438297.0,196.0,196.0,1848.8,1222.4,1920.0,700.0,Animal_Sea_Pattern_Small,81.0217549999943,87.0336256249575,1.0,Animal_Sea_Pattern_Small,-1.0,,,,,,,,,,,
encoding,value,5,2433848,2439860,2438529.0,2439229.0,701.0,701.0,1887.6,1318.9,1920.0,700.0,Animal_Sea_Pattern_Small,81.0217549999943,87.0336256249575,1.0,Animal_Sea_Pattern_Small,-1.0,,,,,,,,,,,
encoding,value,5,2433848,2439860,2439238.0,2439490.0,253.0,253.0,1861.4,1362.5,1920.0,700.0,Animal_Sea_Pattern_Small,81.0217549999943,87.0336256249575,1.0,Animal_Sea_Pattern_Small,-1.0,,,,,,,,,,,
encoding,value,5,2433848,2439860,2439694.0,2440129.0,436.0,166.0,1881.7,1349.1,1920.0,700.0,Animal_Sea_Pattern_Small,81.0217549999943,87.0336256249575,1.0,Animal_Sea_Pattern_Small,-1.0,,,,,,,,,,,
encoding,attention,5,2439860,2442911,2440139.0,2440395.0,257.0,257.0,1933.3,1346.8,1920.0,700.0,Animal_Sea_Pattern_Small,87.03376141702756,90.08481816702988,1.0,Animal_Sea_Pattern_Small,-1.0,-1.0,1.0,1.0035566670121625,,,,,,,,
encoding,attention,5,2439860,2442911,2440598.0,2441151.0,554.0,554.0,1942.4,1323.8,1920.0,700.0,Animal_Sea_Pattern_Small,87.03376141702756,90.08481816702988,1.0,Animal_Sea_Pattern_Small,-1.0,-1.0,1.0,1.0035566670121625,,,,,,,,
encoding,attention,5,2439860,2442911,2441177.0,2441299.0,123.0,123.0,1639.8,1178.8,1591.0,891.0,Object_Land_Pattern_Large,87.03376141702756,90.08481816702988,1.0,Animal_Sea_Pattern_Small,-1.0,-1.0,1.0,1.0035566670121625,,,,,,,,
encoding,attention,5,2439860,2442911,2441499.0,2441901.0,403.0,403.0,1614.7,1104.8,1591.0,891.0,Object_Land_Pattern_Large,87.03376141702756,90.08481816702988,1.0,Animal_Sea_Pattern_Small,-1.0,-1.0,1.0,1.0035566670121625,,,,,,,,
encoding,attention,5,2439860,2442911,2441940.0,2442155.0,216.0,216.0,1917.1,1006.7,1920.0,1460.0,Animal_Sea_Solid_Large,87.03376141702756,90.08481816702988,1.0,Animal_Sea_Pattern_Small,-1.0,-1.0,1.0,1.0035566670121625,,,,,,,,
encoding,attention,5,2439860,2442911,2442188.0,2442503.0,316.0,316.0,1955.5,1284.0,1920.0,700.0,Animal_Sea_Pattern_Small,87.03376141702756,90.08481816702988,1.0,Animal_Sea_Pattern_Small,-1.0,-1.0,1.0,1.0035566670121625,,,,,,,,
encoding,fixation,6,2442911,2443417,2443178.0,2443365.0,188.0,188.0,1933.7,1091.7,1920.0,1080.0,fixation,90.08504687494133,90.59016916702969,1.0,Object_Land_Pattern_Small,3.0,,,,,,,,,,,
encoding,fixation,6,2442911,2443417,2443374.0,2443660.0,287.0,43.0,1891.7,1074.7,1920.0,1080.0,fixation,90.08504687494133,90.59016916702969,1.0,Object_Land_Pattern_Small,3.0,,,,,,,,,,,
encoding,image,6,2443417,2444428,2443698.0,2444638.0,941.0,730.0,1573.5,800.0999999999999,1591.0,1269.0,Object_Land_Pattern_Small,90.59027649997734,91.60126320796552,1.0,Object_Land_Pattern_Small,3.0,,,,,,,,,,,
encoding,value,6,2444428,2450440,2444652.0,2444740.0,89.0,89.0,1597.1,750.9000000000001,1591.0,1269.0,Object_Land_Pattern_Small,91.60137079202104,97.61283370794264,1.0,Object_Land_Pattern_Small,3.0,,,,,,,,,,,
encoding,value,6,2444428,2450440,2445265.0,2445302.0,38.0,38.0,1507.7,463.79999999999995,,,none,91.60137079202104,97.61283370794264,1.0,Object_Land_Pattern_Small,3.0,,,,,,,,,,,
encoding,value,6,2444428,2450440,2445591.0,2445629.0,39.0,39.0,1696.6,758.9000000000001,1591.0,1269.0,Object_Land_Pattern_Small,91.60137079202104,97.61283370794264,1.0,Object_Land_Pattern_Small,3.0,,,,,,,,,,,
encoding,value,6,2444428,2450440,2445931.0,2446300.0,370.0,370.0,1726.0,1093.0,1591.0,891.0,Object_Land_Pattern_Large,91.60137079202104,97.61283370794264,1.0,Object_Land_Pattern_Small,3.0,,,,,,,,,,,
encoding,value,6,2444428,2450440,2446335.0,2446488.0,154.0,154.0,2004.7,1164.1,2249.0,891.0,Object_Land_Solid_Large,91.60137079202104,97.61283370794264,1.0,Object_Land_Pattern_Small,3.0,,,,,,,,,,,
encoding,value,6,2444428,2450440,2446703.0,2446792.0,90.0,90.0,2058.2,1222.5,2249.0,891.0,Object_Land_Solid_Large,91.60137079202104,97.61283370794264,1.0,Object_Land_Pattern_Small,3.0,,,,,,,,,,,
encoding,value,6,2444428,2450440,2447050.0,2447362.0,313.0,313.0,1582.8,758.0,1591.0,1269.0,Object_Land_Pattern_Small,91.60137079202104,97.61283370794264,1.0,Object_Land_Pattern_Small,3.0,,,,,,,,,,,
encoding,value,6,2444428,2450440,2447372.0,2448770.0,1399.0,1399.0,1562.7,765.0999999999999,1591.0,1269.0,Object_Land_Pattern_Small,91.60137079202104,97.61283370794264,1.0,Object_Land_Pattern_Small,3.0,,,,,,,,,,,
encoding,value,6,2444428,2450440,2448778.0,2449187.0,410.0,410.0,1577.2,754.0,1591.0,1269.0,Object_Land_Pattern_Small,91.60137079202104,97.61283370794264,1.0,Object_Land_Pattern_Small,3.0,,,,,,,,,,,
encoding,value,6,2444428,2450440,2449201.0,2449579.0,379.0,379.0,1550.3,797.0999999999999,1591.0,1269.0,Object_Land_Pattern_Small,91.60137079202104,97.61283370794264,1.0,Object_Land_Pattern_Small,3.0,,,,,,,,,,,
encoding,value,6,2444428,2450440,2449588.0,2450034.0,447.0,447.0,1559.8,753.8,1591.0,1269.0,Object_Land_Pattern_Small,91.60137079202104,97.61283370794264,1.0,Object_Land_Pattern_Small,3.0,,,,,,,,,,,
encoding,value,6,2444428,2450440,2450071.0,2450136.0,66.0,66.0,1497.2,650.5,,,none,91.60137079202104,97.61283370794264,1.0,Object_Land_Pattern_Small,3.0,,,,,,,,,,,
encoding,value,6,2444428,2450440,2450145.0,2450315.0,171.0,171.0,1520.5,866.5999999999999,1591.0,1269.0,Object_Land_Pattern_Small,91.60137079202104,97.61283370794264,1.0,Object_Land_Pattern_Small,3.0,,,,,,,,,,,
encoding,attention,6,2450440,2453459,2450573.0,2450796.0,224.0,224.0,1549.9,689.7,1591.0,1269.0,Object_Land_Pattern_Small,97.61294854199514,100.631927874987,1.0,Object_Land_Pattern_Small,3.0,3.0,1.0,0.8671149589354172,,,,,,,,
encoding,attention,6,2450440,2453459,2450805.0,2451641.0,837.0,837.0,1628.1,789.2,1591.0,1269.0,Object_Land_Pattern_Small,97.61294854199514,100.631927874987,1.0,Object_Land_Pattern_Small,3.0,3.0,1.0,0.8671149589354172,,,,,,,,
encoding,attention,6,2450440,2453459,2451831.0,2452077.0,247.0,247.0,1723.3,1032.0,1591.0,1269.0,Object_Land_Pattern_Small,97.61294854199514,100.631927874987,1.0,Object_Land_Pattern_Small,3.0,3.0,1.0,0.8671149589354172,,,,,,,,
encoding,attention,6,2450440,2453459,2452096.0,2452321.0,226.0,226.0,1867.7,1119.1,1920.0,1080.0,fixation,97.61294854199514,100.631927874987,1.0,Object_Land_Pattern_Small,3.0,3.0,1.0,0.8671149589354172,,,,,,,,
encoding,attention,6,2450440,2453459,2452552.0,2453121.0,570.0,570.0,1621.8,825.0,1591.0,1269.0,Object_Land_Pattern_Small,97.61294854199514,100.631927874987,1.0,Object_Land_Pattern_Small,3.0,3.0,1.0,0.8671149589354172,,,,,,,,
encoding,fixation,7,3082490,3083995,3082728.0,3083807.0,1080.0,1080.0,1919.2,1115.5,1920.0,1080.0,fixation,8.11253670800943,9.617738666012883,2.0,Animal_Sea_Pattern_Large,2.0,,,,,,,,,,,
encoding,fixation,7,3082490,3083995,3083827.0,3084173.0,347.0,168.0,1955.0,1216.2,1920.0,700.0,Animal_Land_Solid_Large,8.11253670800943,9.617738666012883,2.0,Animal_Sea_Pattern_Large,2.0,,,,,,,,,,,
encoding,image,7,3083995,3085006,3084217.0,3084446.0,230.0,230.0,1613.9,888.0999999999999,1591.0,1269.0,Animal_Sea_Pattern_Large,9.617862540995702,10.628765208064578,2.0,Animal_Sea_Pattern_Large,2.0,,,,,,,,,,,
encoding,image,7,3083995,3085006,3084455.0,3084736.0,282.0,282.0,1582.3,851.5999999999999,1591.0,1269.0,Animal_Sea_Pattern_Large,9.617862540995702,10.628765208064578,2.0,Animal_Sea_Pattern_Large,2.0,,,,,,,,,,,
encoding,image,7,3083995,3085006,3084928.0,3085002.0,75.0,75.0,1532.3,916.7,1591.0,1269.0,Animal_Sea_Pattern_Large,9.617862540995702,10.628765208064578,2.0,Animal_Sea_Pattern_Large,2.0,,,,,,,,,,,
encoding,value,7,3085006,3091019,3085019.0,3085207.0,189.0,189.0,1580.4,914.5,1591.0,1269.0,Animal_Sea_Pattern_Large,10.628882333054207,16.641636125044897,2.0,Animal_Sea_Pattern_Large,2.0,,,,,,,,,,,
encoding,value,7,3085006,3091019,3085226.0,3085496.0,271.0,271.0,1604.2,802.7,1591.0,1269.0,Animal_Sea_Pattern_Large,10.628882333054207,16.641636125044897,2.0,Animal_Sea_Pattern_Large,2.0,,,,,,,,,,,
encoding,value,7,3085006,3091019,3085515.0,3085902.0,388.0,388.0,1577.6,860.2,1591.0,1269.0,Animal_Sea_Pattern_Large,10.628882333054207,16.641636125044897,2.0,Animal_Sea_Pattern_Large,2.0,,,,,,,,,,,
encoding,value,7,3085006,3091019,3086151.0,3086183.0,33.0,33.0,1551.5,853.9000000000001,1591.0,1269.0,Animal_Sea_Pattern_Large,10.628882333054207,16.641636125044897,2.0,Animal_Sea_Pattern_Large,2.0,,,,,,,,,,,
encoding,value,7,3085006,3091019,3086424.0,3086715.0,292.0,292.0,1599.1,870.4000000000001,1591.0,1269.0,Animal_Sea_Pattern_Large,10.628882333054207,16.641636125044897,2.0,Animal_Sea_Pattern_Large,2.0,,,,,,,,,,,
encoding,value,7,3085006,3091019,3086730.0,3086928.0,199.0,199.0,1584.6,826.3,1591.0,1269.0,Animal_Sea_Pattern_Large,10.628882333054207,16.641636125044897,2.0,Animal_Sea_Pattern_Large,2.0,,,,,,,,,,,
encoding,value,7,3085006,3091019,3086948.0,3087511.0,564.0,564.0,1574.6,889.2,1591.0,1269.0,Animal_Sea_Pattern_Large,10.628882333054207,16.641636125044897,2.0,Animal_Sea_Pattern_Large,2.0,,,,,,,,,,,
encoding,value,7,3085006,3091019,3087530.0,3087974.0,445.0,445.0,1596.0,784.5999999999999,1591.0,1269.0,Animal_Sea_Pattern_Large,10.628882333054207,16.641636125044897,2.0,Animal_Sea_Pattern_Large,2.0,,,,,,,,,,,
encoding,value,7,3085006,3091019,3087988.0,3088349.0,362.0,362.0,1592.4,829.2,1591.0,1269.0,Animal_Sea_Pattern_Large,10.628882333054207,16.641636125044897,2.0,Animal_Sea_Pattern_Large,2.0,,,,,,,,,,,
encoding,value,7,3085006,3091019,3088358.0,3088552.0,195.0,195.0,1566.2,850.8,1591.0,1269.0,Animal_Sea_Pattern_Large,10.628882333054207,16.641636125044897,2.0,Animal_Sea_Pattern_Large,2.0,,,,,,,,,,,
encoding,value,7,3085006,3091019,3088777.0,3088959.0,183.0,183.0,1549.2,920.9000000000001,1591.0,1269.0,Animal_Sea_Pattern_Large,10.628882333054207,16.641636125044897,2.0,Animal_Sea_Pattern_Large,2.0,,,,,,,,,,,
encoding,value,7,3085006,3091019,3088973.0,3089102.0,130.0,130.0,1629.8,835.8,1591.0,1269.0,Animal_Sea_Pattern_Large,10.628882333054207,16.641636125044897,2.0,Animal_Sea_Pattern_Large,2.0,,,,,,,,,,,
encoding,value,7,3085006,3091019,3089309.0,3089776.0,468.0,468.0,1601.9,863.0999999999999,1591.0,1269.0,Animal_Sea_Pattern_Large,10.628882333054207,16.641636125044897,2.0,Animal_Sea_Pattern_Large,2.0,,,,,,,,,,,
encoding,value,7,3085006,3091019,3089788.0,3089944.0,157.0,157.0,1591.5,808.8,1591.0,1269.0,Animal_Sea_Pattern_Large,10.628882333054207,16.641636125044897,2.0,Animal_Sea_Pattern_Large,2.0,,,,,,,,,,,
encoding,value,7,3085006,3091019,3089971.0,3090326.0,356.0,356.0,1562.4,827.3,1591.0,1269.0,Animal_Sea_Pattern_Large,10.628882333054207,16.641636125044897,2.0,Animal_Sea_Pattern_Large,2.0,,,,,,,,,,,
encoding,value,7,3085006,3091019,3090346.0,3091301.0,956.0,673.0,1613.1,788.5999999999999,1591.0,1269.0,Animal_Sea_Pattern_Large,10.628882333054207,16.641636125044897,2.0,Animal_Sea_Pattern_Large,2.0,,,,,,,,,,,
encoding,attention,7,3091019,3094037,3091311.0,3091767.0,457.0,457.0,1548.3,777.2,1591.0,1269.0,Animal_Sea_Pattern_Large,16.641759833088145,19.65882595803123,2.0,Animal_Sea_Pattern_Large,2.0,2.0,1.0,0.9703773750225082,,,,,,,,
encoding,attention,7,3091019,3094037,3092004.0,3092151.0,148.0,148.0,1541.2,823.8,1591.0,1269.0,Animal_Sea_Pattern_Large,16.641759833088145,19.65882595803123,2.0,Animal_Sea_Pattern_Large,2.0,2.0,1.0,0.9703773750225082,,,,,,,,
encoding,attention,7,3091019,3094037,3092168.0,3092322.0,155.0,155.0,1564.0,846.0,1591.0,1269.0,Animal_Sea_Pattern_Large,16.641759833088145,19.65882595803123,2.0,Animal_Sea_Pattern_Large,2.0,2.0,1.0,0.9703773750225082,,,,,,,,
encoding,attention,7,3091019,3094037,3092339.0,3093182.0,844.0,844.0,1583.7,881.5999999999999,1591.0,1269.0,Animal_Sea_Pattern_Large,16.641759833088145,19.65882595803123,2.0,Animal_Sea_Pattern_Large,2.0,2.0,1.0,0.9703773750225082,,,,,,,,
encoding,attention,7,3091019,3094037,3093192.0,3093548.0,357.0,357.0,1637.4,870.9000000000001,1591.0,1269.0,Animal_Sea_Pattern_Large,16.641759833088145,19.65882595803123,2.0,Animal_Sea_Pattern_Large,2.0,2.0,1.0,0.9703773750225082,,,,,,,,
encoding,fixation,8,3094037,3094542,3094421.0,3094500.0,80.0,80.0,1633.1,933.7,1591.0,1269.0,Animal_Sea_Pattern_Large,19.658993749995716,20.164593624998815,2.0,Animal_Land_Solid_Small,4.0,,,,,,,,,,,
encoding,image,8,3094542,3095554,3094691.0,3094734.0,44.0,44.0,1817.0,896.5,1920.0,1460.0,Animal_Land_Solid_Small,20.164717208012007,21.176340916077606,2.0,Animal_Land_Solid_Small,4.0,,,,,,,,,,,
encoding,image,8,3094542,3095554,3094965.0,3095064.0,100.0,100.0,1963.7,739.0,1920.0,1460.0,Animal_Land_Solid_Small,20.164717208012007,21.176340916077606,2.0,Animal_Land_Solid_Small,4.0,,,,,,,,,,,
encoding,image,8,3094542,3095554,3095079.0,3095382.0,304.0,304.0,1935.5,735.2,1920.0,1460.0,Animal_Land_Solid_Small,20.164717208012007,21.176340916077606,2.0,Animal_Land_Solid_Small,4.0,,,,,,,,,,,
encoding,value,8,3095554,3101566,3095633.0,3096458.0,826.0,826.0,1955.3,704.8,1920.0,1460.0,Animal_Land_Solid_Small,21.17646554100793,27.187778833089396,2.0,Animal_Land_Solid_Small,4.0,,,,,,,,,,,
encoding,value,8,3095554,3101566,3096477.0,3096775.0,299.0,299.0,1921.3,595.3,1920.0,1460.0,Animal_Land_Solid_Small,21.17646554100793,27.187778833089396,2.0,Animal_Land_Solid_Small,4.0,,,,,,,,,,,
encoding,value,8,3095554,3101566,3096794.0,3097257.0,464.0,464.0,1929.8,667.7,1920.0,1460.0,Animal_Land_Solid_Small,21.17646554100793,27.187778833089396,2.0,Animal_Land_Solid_Small,4.0,,,,,,,,,,,
encoding,value,8,3095554,3101566,3097501.0,3097664.0,164.0,164.0,1899.1,484.5,,,none,21.17646554100793,27.187778833089396,2.0,Animal_Land_Solid_Small,4.0,,,,,,,,,,,
encoding,value,8,3095554,3101566,3097674.0,3098127.0,454.0,454.0,1897.3,560.0999999999999,1920.0,1460.0,Animal_Land_Solid_Small,21.17646554100793,27.187778833089396,2.0,Animal_Land_Solid_Small,4.0,,,,,,,,,,,
encoding,value,8,3095554,3101566,3098143.0,3099316.0,1174.0,1174.0,1932.9,712.4000000000001,1920.0,1460.0,Animal_Land_Solid_Small,21.17646554100793,27.187778833089396,2.0,Animal_Land_Solid_Small,4.0,,,,,,,,,,,
encoding,value,8,3095554,3101566,3099336.0,3099747.0,412.0,412.0,1932.6,587.4000000000001,1920.0,1460.0,Animal_Land_Solid_Small,21.17646554100793,27.187778833089396,2.0,Animal_Land_Solid_Small,4.0,,,,,,,,,,,
encoding,value,8,3095554,3101566,3099765.0,3100609.0,845.0,845.0,1941.6,672.9000000000001,1920.0,1460.0,Animal_Land_Solid_Small,21.17646554100793,27.187778833089396,2.0,Animal_Land_Solid_Small,4.0,,,,,,,,,,,
encoding,value,8,3095554,3101566,3100619.0,3101346.0,728.0,728.0,1966.5,714.4000000000001,1920.0,1460.0,Animal_Land_Solid_Small,21.17646554100793,27.187778833089396,2.0,Animal_Land_Solid_Small,4.0,,,,,,,,,,,
encoding,value,8,3095554,3101566,3101368.0,3101925.0,558.0,198.0,1934.6,596.3,1920.0,1460.0,Animal_Land_Solid_Small,21.17646554100793,27.187778833089396,2.0,Animal_Land_Solid_Small,4.0,,,,,,,,,,,
encoding,attention,8,3101566,3104583,3101934.0,3102082.0,149.0,149.0,1983.2,573.5,1920.0,1460.0,Animal_Land_Solid_Small,27.187903625075705,30.20473162503913,2.0,Animal_Land_Solid_Small,4.0,4.0,1.0,2.67394366604276,,,,,,,,
encoding,attention,8,3101566,3104583,3102308.0,3103582.0,1275.0,1275.0,1937.1,671.8,1920.0,1460.0,Animal_Land_Solid_Small,27.187903625075705,30.20473162503913,2.0,Animal_Land_Solid_Small,4.0,4.0,1.0,2.67394366604276,,,,,,,,
encoding,attention,8,3101566,3104583,3103601.0,3103927.0,327.0,327.0,1911.5,636.3,1920.0,1460.0,Animal_Land_Solid_Small,27.187903625075705,30.20473162503913,2.0,Animal_Land_Solid_Small,4.0,4.0,1.0,2.67394366604276,,,,,,,,
encoding,fixation,9,3104583,3105088,3104596.0,3104894.0,299.0,299.0,1938.5,706.4000000000001,1920.0,1460.0,Animal_Land_Solid_Small,30.20490125007927,30.709735915996134,2.0,Object_Sea_Pattern_Large,1.0,,,,,,,,,,,
encoding,fixation,9,3104583,3105088,3104909.0,3105052.0,144.0,144.0,1927.7,759.2,1920.0,1460.0,Animal_Land_Solid_Small,30.20490125007927,30.709735915996134,2.0,Object_Sea_Pattern_Large,1.0,,,,,,,,,,,
encoding,image,9,3105088,3106098,3105284.0,3105421.0,138.0,138.0,1849.3,1025.7,1591.0,1269.0,Animal_Sea_Pattern_Large,30.709881750051863,31.719959791051224,2.0,Object_Sea_Pattern_Large,1.0,,,,,,,,,,,
encoding,image,9,3105088,3106098,3105456.0,3105620.0,165.0,165.0,2197.2,1206.8,2249.0,891.0,Object_Sea_Pattern_Large,30.709881750051863,31.719959791051224,2.0,Object_Sea_Pattern_Large,1.0,,,,,,,,,,,
encoding,image,9,3105088,3106098,3105631.0,3105939.0,309.0,309.0,2260.9,1226.3,2249.0,891.0,Object_Sea_Pattern_Large,30.709881750051863,31.719959791051224,2.0,Object_Sea_Pattern_Large,1.0,,,,,,,,,,,
encoding,value,9,3106098,3112111,3106231.0,3106452.0,222.0,222.0,2175.6,1219.0,2249.0,891.0,Object_Sea_Pattern_Large,31.720072750002146,37.73278875008691,2.0,Object_Sea_Pattern_Large,1.0,,,,,,,,,,,
encoding,value,9,3106098,3112111,3106647.0,3106855.0,209.0,209.0,2233.2,1214.5,2249.0,891.0,Object_Sea_Pattern_Large,31.720072750002146,37.73278875008691,2.0,Object_Sea_Pattern_Large,1.0,,,,,,,,,,,
encoding,value,9,3106098,3112111,3106868.0,3107053.0,186.0,186.0,2259.0,1170.4,2249.0,891.0,Object_Sea_Pattern_Large,31.720072750002146,37.73278875008691,2.0,Object_Sea_Pattern_Large,1.0,,,,,,,,,,,
encoding,value,9,3106098,3112111,3107253.0,3107327.0,75.0,75.0,2259.3,1195.9,2249.0,891.0,Object_Sea_Pattern_Large,31.720072750002146,37.73278875008691,2.0,Object_Sea_Pattern_Large,1.0,,,,,,,,,,,
encoding,value,9,3106098,3112111,3107429.0,3107469.0,41.0,41.0,2252.1,1049.4,2249.0,1269.0,Object_Sea_Pattern_Small,31.720072750002146,37.73278875008691,2.0,Object_Sea_Pattern_Large,1.0,,,,,,,,,,,
encoding,value,9,3106098,3112111,3107672.0,3107828.0,157.0,157.0,2274.8,1233.6,2249.0,891.0,Object_Sea_Pattern_Large,31.720072750002146,37.73278875008691,2.0,Object_Sea_Pattern_Large,1.0,,,,,,,,,,,
encoding,value,9,3106098,3112111,3107838.0,3108185.0,348.0,348.0,2235.7,1189.5,2249.0,891.0,Object_Sea_Pattern_Large,31.720072750002146,37.73278875008691,2.0,Object_Sea_Pattern_Large,1.0,,,,,,,,,,,
encoding,value,9,3106098,3112111,3108199.0,3108751.0,553.0,553.0,2233.1,1126.7,2249.0,891.0,Object_Sea_Pattern_Large,31.720072750002146,37.73278875008691,2.0,Object_Sea_Pattern_Large,1.0,,,,,,,,,,,
encoding,value,9,3106098,3112111,3108949.0,3109367.0,419.0,419.0,2224.5,1201.6,2249.0,891.0,Object_Sea_Pattern_Large,31.720072750002146,37.73278875008691,2.0,Object_Sea_Pattern_Large,1.0,,,,,,,,,,,
encoding,value,9,3106098,3112111,3109376.0,3109537.0,162.0,162.0,2196.9,1184.2,2249.0,891.0,Object_Sea_Pattern_Large,31.720072750002146,37.73278875008691,2.0,Object_Sea_Pattern_Large,1.0,,,,,,,,,,,
encoding,value,9,3106098,3112111,3109745.0,3109986.0,242.0,242.0,2242.5,1203.9,2249.0,891.0,Object_Sea_Pattern_Large,31.720072750002146,37.73278875008691,2.0,Object_Sea_Pattern_Large,1.0,,,,,,,,,,,
encoding,value,9,3106098,3112111,3109994.0,3110932.0,939.0,939.0,2221.9,1179.9,2249.0,891.0,Object_Sea_Pattern_Large,31.720072750002146,37.73278875008691,2.0,Object_Sea_Pattern_Large,1.0,,,,,,,,,,,
encoding,value,9,3106098,3112111,3110947.0,3112392.0,1446.0,1164.0,2228.8,1113.5,2249.0,891.0,Object_Sea_Pattern_Large,31.720072750002146,37.73278875008691,2.0,Object_Sea_Pattern_Large,1.0,,,,,,,,,,,
encoding,attention,9,3112111,3115129,3112403.0,3112664.0,262.0,262.0,2296.7,1105.4,2249.0,891.0,Object_Sea_Pattern_Large,37.732896291068755,40.75076904101297,2.0,Object_Sea_Pattern_Large,1.0,1.0,1.0,1.9523927080444992,,,,,,,,
encoding,attention,9,3112111,3115129,3112682.0,3112783.0,102.0,102.0,2172.2,1124.7,2249.0,891.0,Object_Sea_Pattern_Large,37.732896291068755,40.75076904101297,2.0,Object_Sea_Pattern_Large,1.0,1.0,1.0,1.9523927080444992,,,,,,,,
encoding,attention,9,3112111,3115129,3112984.0,3113513.0,530.0,530.0,2211.8,1192.4,2249.0,891.0,Object_Sea_Pattern_Large,37.732896291068755,40.75076904101297,2.0,Object_Sea_Pattern_Large,1.0,1.0,1.0,1.9523927080444992,,,,,,,,
encoding,attention,9,3112111,3115129,3113528.0,3113647.0,120.0,120.0,2201.7,1145.4,2249.0,891.0,Object_Sea_Pattern_Large,37.732896291068755,40.75076904101297,2.0,Object_Sea_Pattern_Large,1.0,1.0,1.0,1.9523927080444992,,,,,,,,
encoding,attention,9,3112111,3115129,3113872.0,3114640.0,769.0,769.0,2249.4,1242.2,2249.0,891.0,Object_Sea_Pattern_Large,37.732896291068755,40.75076904101297,2.0,Object_Sea_Pattern_Large,1.0,1.0,1.0,1.9523927080444992,,,,,,,,
encoding,fixation,10,3115130,3116635,3115649.0,3116852.0,1204.0,986.0,1927.5,1036.6,1920.0,1080.0,fixation,40.75100729102269,42.256000332999974,2.0,Animal_Land_Solid_Large,-4.0,,,,,,,,,,,
encoding,image,10,3116635,3117648,3116904.0,3117112.0,209.0,209.0,1896.3,1401.0,1920.0,700.0,Animal_Land_Solid_Large,42.25611616601236,43.26965825003572,2.0,Animal_Land_Solid_Large,-4.0,,,,,,,,,,,
encoding,image,10,3116635,3117648,3117122.0,3117339.0,218.0,218.0,1924.5,1423.0,1920.0,700.0,Animal_Land_Solid_Large,42.25611616601236,43.26965825003572,2.0,Animal_Land_Solid_Large,-4.0,,,,,,,,,,,
encoding,image,10,3116635,3117648,3117537.0,3117598.0,62.0,62.0,1919.0,1479.3,1920.0,700.0,Animal_Land_Solid_Large,42.25611616601236,43.26965825003572,2.0,Animal_Land_Solid_Large,-4.0,,,,,,,,,,,
encoding,image,10,3116635,3117648,3117606.0,3117823.0,218.0,42.0,1916.6,1440.6,1920.0,700.0,Animal_Land_Solid_Large,42.25611616601236,43.26965825003572,2.0,Animal_Land_Solid_Large,-4.0,,,,,,,,,,,
encoding,value,10,3117648,3123661,3117846.0,3118007.0,162.0,162.0,1916.1,1343.7,1920.0,700.0,Animal_Land_Solid_Large,43.26979383302387,49.28181195806246,2.0,Animal_Land_Solid_Large,-4.0,,,,,,,,,,,
encoding,value,10,3117648,3123661,3118232.0,3118446.0,215.0,215.0,1932.6,1391.9,1920.0,700.0,Animal_Land_Solid_Large,43.26979383302387,49.28181195806246,2.0,Animal_Land_Solid_Large,-4.0,,,,,,,,,,,
encoding,value,10,3117648,3123661,3118464.0,3118967.0,504.0,504.0,1910.8,1309.8,1920.0,700.0,Animal_Land_Solid_Large,43.26979383302387,49.28181195806246,2.0,Animal_Land_Solid_Large,-4.0,,,,,,,,,,,
encoding,value,10,3117648,3123661,3118980.0,3119219.0,240.0,240.0,1930.8,1368.7,1920.0,700.0,Animal_Land_Solid_Large,43.26979383302387,49.28181195806246,2.0,Animal_Land_Solid_Large,-4.0,,,,,,,,,,,
encoding,value,10,3117648,3123661,3119235.0,3119454.0,220.0,220.0,1930.8,1419.2,1920.0,700.0,Animal_Land_Solid_Large,43.26979383302387,49.28181195806246,2.0,Animal_Land_Solid_Large,-4.0,,,,,,,,,,,
encoding,value,10,3117648,3123661,3119659.0,3119940.0,282.0,282.0,1929.4,1449.4,1920.0,700.0,Animal_Land_Solid_Large,43.26979383302387,49.28181195806246,2.0,Animal_Land_Solid_Large,-4.0,,,,,,,,,,,
encoding,value,10,3117648,3123661,3119960.0,3121506.0,1547.0,1547.0,1892.1,1315.7,1920.0,700.0,Animal_Land_Solid_Large,43.26979383302387,49.28181195806246,2.0,Animal_Land_Solid_Large,-4.0,,,,,,,,,,,
encoding,value,10,3117648,3123661,3121525.0,3121959.0,435.0,435.0,1892.6,1306.2,1920.0,700.0,Animal_Land_Solid_Large,43.26979383302387,49.28181195806246,2.0,Animal_Land_Solid_Large,-4.0,,,,,,,,,,,
encoding,value,10,3117648,3123661,3121971.0,3122007.0,37.0,37.0,1895.9,1330.7,1920.0,700.0,Animal_Land_Solid_Large,43.26979383302387,49.28181195806246,2.0,Animal_Land_Solid_Large,-4.0,,,,,,,,,,,
encoding,value,10,3117648,3123661,3122191.0,3122537.0,347.0,347.0,1878.1,1314.9,1920.0,700.0,Animal_Land_Solid_Large,43.26979383302387,49.28181195806246,2.0,Animal_Land_Solid_Large,-4.0,,,,,,,,,,,
encoding,value,10,3117648,3123661,3122561.0,3122866.0,306.0,306.0,1941.2,1423.2,1920.0,700.0,Animal_Land_Solid_Large,43.26979383302387,49.28181195806246,2.0,Animal_Land_Solid_Large,-4.0,,,,,,,,,,,
encoding,value,10,3117648,3123661,3122876.0,3123237.0,362.0,362.0,1953.5,1450.4,1920.0,700.0,Animal_Land_Solid_Large,43.26979383302387,49.28181195806246,2.0,Animal_Land_Solid_Large,-4.0,,,,,,,,,,,
encoding,value,10,3117648,3123661,3123257.0,3124141.0,885.0,404.0,1893.1,1356.8,1920.0,700.0,Animal_Land_Solid_Large,43.26979383302387,49.28181195806246,2.0,Animal_Land_Solid_Large,-4.0,,,,,,,,,,,
encoding,attention,10,3123661,3126679,3124155.0,3124354.0,200.0,200.0,1848.3,1314.7,1920.0,700.0,Animal_Land_Solid_Large,49.28192641609349,52.29963166604284,2.0,Animal_Land_Solid_Large,-4.0,-4.0,1.0,2.129273333004676,,,,,,,,
encoding,attention,10,3123661,3126679,3124551.0,3124637.0,87.0,87.0,1911.1,1387.9,1920.0,700.0,Animal_Land_Solid_Large,49.28192641609349,52.29963166604284,2.0,Animal_Land_Solid_Large,-4.0,-4.0,1.0,2.129273333004676,,,,,,,,
encoding,attention,10,3123661,3126679,3124837.0,3125137.0,301.0,301.0,1943.0,1403.2,1920.0,700.0,Animal_Land_Solid_Large,49.28192641609349,52.29963166604284,2.0,Animal_Land_Solid_Large,-4.0,-4.0,1.0,2.129273333004676,,,,,,,,
encoding,attention,10,3123661,3126679,3125157.0,3125607.0,451.0,451.0,1931.1,1435.2,1920.0,700.0,Animal_Land_Solid_Large,49.28192641609349,52.29963166604284,2.0,Animal_Land_Solid_Large,-4.0,-4.0,1.0,2.129273333004676,,,,,,,,
encoding,attention,10,3123661,3126679,3125615.0,3126216.0,602.0,602.0,1935.9,1450.4,1920.0,700.0,Animal_Land_Solid_Large,49.28192641609349,52.29963166604284,2.0,Animal_Land_Solid_Large,-4.0,-4.0,1.0,2.129273333004676,,,,,,,,
encoding,attention,10,3123661,3126679,3126419.0,3126553.0,135.0,135.0,1936.2,1454.9,1920.0,700.0,Animal_Land_Solid_Large,49.28192641609349,52.29963166604284,2.0,Animal_Land_Solid_Large,-4.0,-4.0,1.0,2.129273333004676,,,,,,,,
encoding,fixation,11,3126679,3127684,3126816.0,3127082.0,267.0,267.0,1949.8,1389.7,1920.0,700.0,Animal_Land_Solid_Large,52.29980266606435,53.30477875005454,2.0,Object_Sea_Pattern_Small,-4.0,,,,,,,,,,,
encoding,fixation,11,3126679,3127684,3127318.0,3127936.0,619.0,366.0,1968.2,1129.6,1920.0,1080.0,fixation,52.29980266606435,53.30477875005454,2.0,Object_Sea_Pattern_Small,-4.0,,,,,,,,,,,
encoding,image,11,3127684,3128694,3127974.0,3128150.0,177.0,177.0,2258.6,919.5,2249.0,1269.0,Object_Sea_Pattern_Small,53.30489358305931,54.31517104106024,2.0,Object_Sea_Pattern_Small,-4.0,,,,,,,,,,,
encoding,image,11,3127684,3128694,3128361.0,3128781.0,421.0,333.0,2301.4,843.2,2249.0,1269.0,Object_Sea_Pattern_Small,53.30489358305931,54.31517104106024,2.0,Object_Sea_Pattern_Small,-4.0,,,,,,,,,,,
encoding,value,11,3128694,3134706,3129000.0,3129127.0,128.0,128.0,2268.8,821.5,2249.0,1269.0,Object_Sea_Pattern_Small,54.315296333050355,60.326747165992856,2.0,Object_Sea_Pattern_Small,-4.0,,,,,,,,,,,
encoding,value,11,3128694,3134706,3129363.0,3129611.0,249.0,249.0,2276.4,681.0999999999999,2249.0,1269.0,Object_Sea_Pattern_Small,54.315296333050355,60.326747165992856,2.0,Object_Sea_Pattern_Small,-4.0,,,,,,,,,,,
encoding,value,11,3128694,3134706,3129627.0,3129887.0,261.0,261.0,2261.6,826.5,2249.0,1269.0,Object_Sea_Pattern_Small,54.315296333050355,60.326747165992856,2.0,Object_Sea_Pattern_Small,-4.0,,,,,,,,,,,
encoding,value,11,3128694,3134706,3129905.0,3130287.0,383.0,383.0,2302.1,768.0999999999999,2249.0,1269.0,Object_Sea_Pattern_Small,54.315296333050355,60.326747165992856,2.0,Object_Sea_Pattern_Small,-4.0,,,,,,,,,,,
encoding,value,11,3128694,3134706,3130294.0,3130703.0,410.0,410.0,2279.6,771.8,2249.0,1269.0,Object_Sea_Pattern_Small,54.315296333050355,60.326747165992856,2.0,Object_Sea_Pattern_Small,-4.0,,,,,,,,,,,
encoding,value,11,3128694,3134706,3130711.0,3131128.0,418.0,418.0,2288.2,753.5999999999999,2249.0,1269.0,Object_Sea_Pattern_Small,54.315296333050355,60.326747165992856,2.0,Object_Sea_Pattern_Small,-4.0,,,,,,,,,,,
encoding,value,11,3128694,3134706,3131137.0,3132234.0,1098.0,1098.0,2252.4,761.2,2249.0,1269.0,Object_Sea_Pattern_Small,54.315296333050355,60.326747165992856,2.0,Object_Sea_Pattern_Small,-4.0,,,,,,,,,,,
encoding,value,11,3128694,3134706,3132435.0,3132704.0,270.0,270.0,2268.9,634.5,2249.0,1269.0,Object_Sea_Pattern_Small,54.315296333050355,60.326747165992856,2.0,Object_Sea_Pattern_Small,-4.0,,,,,,,,,,,
encoding,value,11,3128694,3134706,3132720.0,3133196.0,477.0,477.0,2256.0,858.4000000000001,2249.0,1269.0,Object_Sea_Pattern_Small,54.315296333050355,60.326747165992856,2.0,Object_Sea_Pattern_Small,-4.0,,,,,,,,,,,
encoding,value,11,3128694,3134706,3133213.0,3133761.0,549.0,549.0,2271.4,774.3,2249.0,1269.0,Object_Sea_Pattern_Small,54.315296333050355,60.326747165992856,2.0,Object_Sea_Pattern_Small,-4.0,,,,,,,,,,,
encoding,value,11,3128694,3134706,3133774.0,3133866.0,93.0,93.0,2269.3,845.2,2249.0,1269.0,Object_Sea_Pattern_Small,54.315296333050355,60.326747165992856,2.0,Object_Sea_Pattern_Small,-4.0,,,,,,,,,,,
encoding,value,11,3128694,3134706,3134124.0,3134692.0,569.0,569.0,2273.9,802.3,2249.0,1269.0,Object_Sea_Pattern_Small,54.315296333050355,60.326747165992856,2.0,Object_Sea_Pattern_Small,-4.0,,,,,,,,,,,
encoding,value,11,3128694,3134706,3134705.0,3134950.0,246.0,1.0,2272.3,757.2,2249.0,1269.0,Object_Sea_Pattern_Small,54.315296333050355,60.326747165992856,2.0,Object_Sea_Pattern_Small,-4.0,,,,,,,,,,,
encoding,attention,11,3134706,3137723,3134959.0,3135112.0,154.0,154.0,2309.6,745.7,2249.0,1269.0,Object_Sea_Pattern_Small,60.32686020806432,63.3435461249901,2.0,Object_Sea_Pattern_Small,-4.0,-4.0,1.0,1.045868624933064,,,,,,,,
encoding,attention,11,3134706,3137723,3135310.0,3135493.0,184.0,184.0,2280.3,786.3,2249.0,1269.0,Object_Sea_Pattern_Small,60.32686020806432,63.3435461249901,2.0,Object_Sea_Pattern_Small,-4.0,-4.0,1.0,1.045868624933064,,,,,,,,
encoding,attention,11,3134706,3137723,3135517.0,3136036.0,520.0,520.0,2190.0,962.2,2249.0,1269.0,Object_Sea_Pattern_Small,60.32686020806432,63.3435461249901,2.0,Object_Sea_Pattern_Small,-4.0,-4.0,1.0,1.045868624933064,,,,,,,,
encoding,attention,11,3134706,3137723,3136058.0,3136316.0,259.0,259.0,2287.9,843.3,2249.0,1269.0,Object_Sea_Pattern_Small,60.32686020806432,63.3435461249901,2.0,Object_Sea_Pattern_Small,-4.0,-4.0,1.0,1.045868624933064,,,,,,,,
encoding,attention,11,3134706,3137723,3136537.0,3136732.0,196.0,196.0,2201.5,876.5,2249.0,1269.0,Object_Sea_Pattern_Small,60.32686020806432,63.3435461249901,2.0,Object_Sea_Pattern_Small,-4.0,-4.0,1.0,1.045868624933064,,,,,,,,
encoding,attention,11,3134706,3137723,3136759.0,3137092.0,334.0,334.0,1998.2,1181.7,2249.0,891.0,Object_Sea_Pattern_Large,60.32686020806432,63.3435461249901,2.0,Object_Sea_Pattern_Small,-4.0,-4.0,1.0,1.045868624933064,,,,,,,,
encoding,attention,11,3134706,3137723,3137131.0,3137431.0,301.0,301.0,1838.2,964.9000000000001,1591.0,1269.0,Animal_Sea_Pattern_Large,60.32686020806432,63.3435461249901,2.0,Object_Sea_Pattern_Small,-4.0,-4.0,1.0,1.045868624933064,,,,,,,,
encoding,fixation,12,3137723,3138228,3138014.0,3138511.0,498.0,214.0,1910.4,1008.5999999999999,1920.0,1460.0,Animal_Land_Solid_Small,63.34370325005147,63.84861170803197,2.0,Object_Land_Solid_Small,-4.0,,,,,,,,,,,
encoding,image,12,3138228,3139239,3138543.0,3138814.0,272.0,272.0,1573.7,1224.4,1591.0,891.0,Object_Land_Solid_Small,63.84873891598545,64.85975070798304,2.0,Object_Land_Solid_Small,-4.0,,,,,,,,,,,
encoding,value,12,3139239,3145251,3139278.0,3139456.0,179.0,179.0,1497.9,1238.5,1591.0,891.0,Object_Land_Solid_Small,64.859864500002,70.87127266603056,2.0,Object_Land_Solid_Small,-4.0,,,,,,,,,,,
encoding,value,12,3139239,3145251,3139644.0,3140042.0,399.0,399.0,1578.3,1184.5,1591.0,891.0,Object_Land_Solid_Small,64.859864500002,70.87127266603056,2.0,Object_Land_Solid_Small,-4.0,,,,,,,,,,,
encoding,value,12,3139239,3145251,3140051.0,3140520.0,470.0,470.0,1559.2,1121.9,1591.0,891.0,Object_Land_Solid_Small,64.859864500002,70.87127266603056,2.0,Object_Land_Solid_Small,-4.0,,,,,,,,,,,
encoding,value,12,3139239,3145251,3140733.0,3140958.0,226.0,226.0,1561.1,1192.1,1591.0,891.0,Object_Land_Solid_Small,64.859864500002,70.87127266603056,2.0,Object_Land_Solid_Small,-4.0,,,,,,,,,,,
encoding,value,12,3139239,3145251,3141181.0,3141564.0,384.0,384.0,1545.9,1158.5,1591.0,891.0,Object_Land_Solid_Small,64.859864500002,70.87127266603056,2.0,Object_Land_Solid_Small,-4.0,,,,,,,,,,,
encoding,value,12,3139239,3145251,3141574.0,3141965.0,392.0,392.0,1584.3,1145.4,1591.0,891.0,Object_Land_Solid_Small,64.859864500002,70.87127266603056,2.0,Object_Land_Solid_Small,-4.0,,,,,,,,,,,
encoding,value,12,3139239,3145251,3141979.0,3142019.0,41.0,41.0,1624.4,1225.5,1591.0,891.0,Object_Land_Solid_Small,64.859864500002,70.87127266603056,2.0,Object_Land_Solid_Small,-4.0,,,,,,,,,,,
encoding,value,12,3139239,3145251,3142231.0,3142504.0,274.0,274.0,1678.1,1208.1,1591.0,891.0,Object_Land_Solid_Small,64.859864500002,70.87127266603056,2.0,Object_Land_Solid_Small,-4.0,,,,,,,,,,,
encoding,value,12,3139239,3145251,3142539.0,3142699.0,161.0,161.0,1997.6,1227.3,1920.0,700.0,Animal_Land_Solid_Large,64.859864500002,70.87127266603056,2.0,Object_Land_Solid_Small,-4.0,,,,,,,,,,,
encoding,value,12,3139239,3145251,3142736.0,3142951.0,216.0,216.0,1612.6,1105.9,1591.0,891.0,Object_Land_Solid_Small,64.859864500002,70.87127266603056,2.0,Object_Land_Solid_Small,-4.0,,,,,,,,,,,
encoding,value,12,3139239,3145251,3142958.0,3143146.0,189.0,189.0,1574.2,1103.7,1591.0,891.0,Object_Land_Solid_Small,64.859864500002,70.87127266603056,2.0,Object_Land_Solid_Small,-4.0,,,,,,,,,,,
encoding,value,12,3139239,3145251,3143375.0,3143903.0,529.0,529.0,1566.9,1145.1,1591.0,891.0,Object_Land_Solid_Small,64.859864500002,70.87127266603056,2.0,Object_Land_Solid_Small,-4.0,,,,,,,,,,,
encoding,value,12,3139239,3145251,3143919.0,3144203.0,285.0,285.0,1676.7,1134.3,1591.0,891.0,Object_Land_Solid_Small,64.859864500002,70.87127266603056,2.0,Object_Land_Solid_Small,-4.0,,,,,,,,,,,
encoding,value,12,3139239,3145251,3144389.0,3144894.0,506.0,506.0,1700.2,1118.2,1591.0,891.0,Object_Land_Solid_Small,64.859864500002,70.87127266603056,2.0,Object_Land_Solid_Small,-4.0,,,,,,,,,,,
encoding,value,12,3139239,3145251,3144914.0,3145137.0,224.0,224.0,1860.5,1086.7,1920.0,1080.0,fixation,64.859864500002,70.87127266603056,2.0,Object_Land_Solid_Small,-4.0,,,,,,,,,,,
encoding,value,12,3139239,3145251,3145163.0,3145709.0,547.0,88.0,1604.5,1112.0,1591.0,891.0,Object_Land_Solid_Small,64.859864500002,70.87127266603056,2.0,Object_Land_Solid_Small,-4.0,,,,,,,,,,,
encoding,attention,12,3145251,3148270,3145723.0,3146134.0,412.0,412.0,1518.5,1115.5,1591.0,891.0,Object_Land_Solid_Small,70.87138087500352,73.88991541601717,2.0,Object_Land_Solid_Small,-4.0,-4.0,1.0,1.2600736670428887,,,,,,,,
encoding,attention,12,3145251,3148270,3146147.0,3146171.0,25.0,25.0,1518.9,1168.6,1591.0,891.0,Object_Land_Solid_Small,70.87138087500352,73.88991541601717,2.0,Object_Land_Solid_Small,-4.0,-4.0,1.0,1.2600736670428887,,,,,,,,
encoding,attention,12,3145251,3148270,3146360.0,3146824.0,465.0,465.0,1573.6,1126.6,1591.0,891.0,Object_Land_Solid_Small,70.87138087500352,73.88991541601717,2.0,Object_Land_Solid_Small,-4.0,-4.0,1.0,1.2600736670428887,,,,,,,,
encoding,attention,12,3145251,3148270,3146850.0,3147267.0,418.0,418.0,1822.7,1204.9,1591.0,891.0,Object_Land_Solid_Small,70.87138087500352,73.88991541601717,2.0,Object_Land_Solid_Small,-4.0,-4.0,1.0,1.2600736670428887,,,,,,,,
encoding,attention,12,3145251,3148270,3147289.0,3147603.0,315.0,315.0,1971.5,1128.4,2249.0,891.0,Object_Sea_Pattern_Large,70.87138087500352,73.88991541601717,2.0,Object_Land_Solid_Small,-4.0,-4.0,1.0,1.2600736670428887,,,,,,,,
encoding,attention,12,3145251,3148270,3147641.0,3147933.0,293.0,293.0,1609.0,1145.8,1591.0,891.0,Object_Land_Solid_Small,70.87138087500352,73.88991541601717,2.0,Object_Land_Solid_Small,-4.0,-4.0,1.0,1.2600736670428887,,,,,,,,
encoding,attention,12,3145251,3148270,3147948.0,3148245.0,298.0,298.0,1697.3,1126.3,1591.0,891.0,Object_Land_Solid_Small,70.87138087500352,73.88991541601717,2.0,Object_Land_Solid_Small,-4.0,-4.0,1.0,1.2600736670428887,,,,,,,,
encoding,fixation,13,3607969,3609475,3608190.0,3608277.0,88.0,88.0,1882.9,1085.5,1920.0,1080.0,fixation,10.563533750013448,12.068790042074395,3.0,Animal_Sea_Pattern_Large,4.0,,,,,,,,,,,
encoding,fixation,13,3607969,3609475,3608431.0,3609094.0,664.0,664.0,1864.2,1162.3,1591.0,891.0,Object_Land_Solid_Small,10.563533750013448,12.068790042074395,3.0,Animal_Sea_Pattern_Large,4.0,,,,,,,,,,,
encoding,fixation,13,3607969,3609475,3609111.0,3609476.0,366.0,364.0,1915.2,1086.9,1920.0,1080.0,fixation,10.563533750013448,12.068790042074395,3.0,Animal_Sea_Pattern_Large,4.0,,,,,,,,,,,
encoding,image,13,3609475,3610487,3609637.0,3609776.0,140.0,140.0,1865.2,1083.3,1920.0,1080.0,fixation,12.068958958028816,13.081185750081204,3.0,Animal_Sea_Pattern_Large,4.0,,,,,,,,,,,
encoding,image,13,3609475,3610487,3609804.0,3610068.0,265.0,265.0,1575.1,872.7,1591.0,1269.0,Animal_Sea_Pattern_Large,12.068958958028816,13.081185750081204,3.0,Animal_Sea_Pattern_Large,4.0,,,,,,,,,,,
encoding,image,13,3609475,3610487,3610076.0,3610174.0,99.0,99.0,1536.2,872.0,1591.0,1269.0,Animal_Sea_Pattern_Large,12.068958958028816,13.081185750081204,3.0,Animal_Sea_Pattern_Large,4.0,,,,,,,,,,,
encoding,image,13,3609475,3610487,3610355.0,3610409.0,55.0,55.0,1538.6,935.3,1591.0,1269.0,Animal_Sea_Pattern_Large,12.068958958028816,13.081185750081204,3.0,Animal_Sea_Pattern_Large,4.0,,,,,,,,,,,
encoding,image,13,3609475,3610487,3610416.0,3610577.0,162.0,71.0,1558.4,880.3,1591.0,1269.0,Animal_Sea_Pattern_Large,12.068958958028816,13.081185750081204,3.0,Animal_Sea_Pattern_Large,4.0,,,,,,,,,,,
encoding,value,13,3610487,3616500,3610586.0,3610731.0,146.0,146.0,1542.5,835.2,1591.0,1269.0,Animal_Sea_Pattern_Large,13.08130349998828,19.09384125005454,3.0,Animal_Sea_Pattern_Large,4.0,,,,,,,,,,,
encoding,value,13,3610487,3616500,3610745.0,3611048.0,304.0,304.0,1561.9,757.0999999999999,1591.0,1269.0,Animal_Sea_Pattern_Large,13.08130349998828,19.09384125005454,3.0,Animal_Sea_Pattern_Large,4.0,,,,,,,,,,,
encoding,value,13,3610487,3616500,3611067.0,3611166.0,100.0,100.0,1548.8,851.9000000000001,1591.0,1269.0,Animal_Sea_Pattern_Large,13.08130349998828,19.09384125005454,3.0,Animal_Sea_Pattern_Large,4.0,,,,,,,,,,,
encoding,value,13,3610487,3616500,3611357.0,3611658.0,302.0,302.0,1583.4,918.5,1591.0,1269.0,Animal_Sea_Pattern_Large,13.08130349998828,19.09384125005454,3.0,Animal_Sea_Pattern_Large,4.0,,,,,,,,,,,
encoding,value,13,3610487,3616500,3611699.0,3611951.0,253.0,253.0,1913.4,1035.7,1920.0,1080.0,fixation,13.08130349998828,19.09384125005454,3.0,Animal_Sea_Pattern_Large,4.0,,,,,,,,,,,
encoding,value,13,3610487,3616500,3611978.0,3612135.0,158.0,158.0,1623.0,885.5,1591.0,1269.0,Animal_Sea_Pattern_Large,13.08130349998828,19.09384125005454,3.0,Animal_Sea_Pattern_Large,4.0,,,,,,,,,,,
encoding,value,13,3610487,3616500,3612335.0,3612402.0,68.0,68.0,1546.9,900.7,1591.0,1269.0,Animal_Sea_Pattern_Large,13.08130349998828,19.09384125005454,3.0,Animal_Sea_Pattern_Large,4.0,,,,,,,,,,,
encoding,value,13,3610487,3616500,3612409.0,3613191.0,783.0,783.0,1573.1,858.5,1591.0,1269.0,Animal_Sea_Pattern_Large,13.08130349998828,19.09384125005454,3.0,Animal_Sea_Pattern_Large,4.0,,,,,,,,,,,
encoding,value,13,3610487,3616500,3613207.0,3613398.0,192.0,192.0,1566.1,918.0999999999999,1591.0,1269.0,Animal_Sea_Pattern_Large,13.08130349998828,19.09384125005454,3.0,Animal_Sea_Pattern_Large,4.0,,,,,,,,,,,
encoding,value,13,3610487,3616500,3613424.0,3613614.0,191.0,191.0,1810.4,1018.2,1591.0,1269.0,Animal_Sea_Pattern_Large,13.08130349998828,19.09384125005454,3.0,Animal_Sea_Pattern_Large,4.0,,,,,,,,,,,
encoding,value,13,3610487,3616500,3613891.0,3614228.0,338.0,338.0,1586.8,897.3,1591.0,1269.0,Animal_Sea_Pattern_Large,13.08130349998828,19.09384125005454,3.0,Animal_Sea_Pattern_Large,4.0,,,,,,,,,,,
encoding,value,13,3610487,3616500,3614241.0,3614261.0,21.0,21.0,1566.6,909.3,1591.0,1269.0,Animal_Sea_Pattern_Large,13.08130349998828,19.09384125005454,3.0,Animal_Sea_Pattern_Large,4.0,,,,,,,,,,,
encoding,value,13,3610487,3616500,3614277.0,3614453.0,177.0,177.0,1581.4,840.9000000000001,1591.0,1269.0,Animal_Sea_Pattern_Large,13.08130349998828,19.09384125005454,3.0,Animal_Sea_Pattern_Large,4.0,,,,,,,,,,,
encoding,value,13,3610487,3616500,3614472.0,3615106.0,635.0,635.0,1561.0,885.2,1591.0,1269.0,Animal_Sea_Pattern_Large,13.08130349998828,19.09384125005454,3.0,Animal_Sea_Pattern_Large,4.0,,,,,,,,,,,
encoding,value,13,3610487,3616500,3615130.0,3615290.0,161.0,161.0,1804.1,946.3,1591.0,1269.0,Animal_Sea_Pattern_Large,13.08130349998828,19.09384125005454,3.0,Animal_Sea_Pattern_Large,4.0,,,,,,,,,,,
encoding,value,13,3610487,3616500,3615314.0,3615684.0,371.0,371.0,1595.8,862.4000000000001,1591.0,1269.0,Animal_Sea_Pattern_Large,13.08130349998828,19.09384125005454,3.0,Animal_Sea_Pattern_Large,4.0,,,,,,,,,,,
encoding,value,13,3610487,3616500,3615692.0,3615897.0,206.0,206.0,1558.6,855.0999999999999,1591.0,1269.0,Animal_Sea_Pattern_Large,13.08130349998828,19.09384125005454,3.0,Animal_Sea_Pattern_Large,4.0,,,,,,,,,,,
encoding,value,13,3610487,3616500,3615930.0,3616095.0,166.0,166.0,1811.3,972.0,1591.0,1269.0,Animal_Sea_Pattern_Large,13.08130349998828,19.09384125005454,3.0,Animal_Sea_Pattern_Large,4.0,,,,,,,,,,,
encoding,value,13,3610487,3616500,3616120.0,3616520.0,401.0,380.0,1575.5,858.7,1591.0,1269.0,Animal_Sea_Pattern_Large,13.08130349998828,19.09384125005454,3.0,Animal_Sea_Pattern_Large,4.0,,,,,,,,,,,
encoding,attention,13,3616500,3619518,3616791.0,3616946.0,156.0,156.0,1551.5,834.5,1591.0,1269.0,Animal_Sea_Pattern_Large,19.093972042086538,22.111860583070666,3.0,Animal_Sea_Pattern_Large,4.0,4.0,1.0,2.185841166996397,,,,,,,,
encoding,attention,13,3616500,3619518,3616957.0,3616984.0,28.0,28.0,1573.9,853.8,1591.0,1269.0,Animal_Sea_Pattern_Large,19.093972042086538,22.111860583070666,3.0,Animal_Sea_Pattern_Large,4.0,4.0,1.0,2.185841166996397,,,,,,,,
encoding,attention,13,3616500,3619518,3616996.0,3617187.0,192.0,192.0,1628.9,788.2,1591.0,1269.0,Animal_Sea_Pattern_Large,19.093972042086538,22.111860583070666,3.0,Animal_Sea_Pattern_Large,4.0,4.0,1.0,2.185841166996397,,,,,,,,
encoding,attention,13,3616500,3619518,3617451.0,3617738.0,288.0,288.0,1631.7,819.8,1591.0,1269.0,Animal_Sea_Pattern_Large,19.093972042086538,22.111860583070666,3.0,Animal_Sea_Pattern_Large,4.0,4.0,1.0,2.185841166996397,,,,,,,,
encoding,attention,13,3616500,3619518,3617752.0,3618130.0,379.0,379.0,1582.2,828.5,1591.0,1269.0,Animal_Sea_Pattern_Large,19.093972042086538,22.111860583070666,3.0,Animal_Sea_Pattern_Large,4.0,4.0,1.0,2.185841166996397,,,,,,,,
encoding,attention,13,3616500,3619518,3618143.0,3618624.0,482.0,482.0,1567.0,889.0999999999999,1591.0,1269.0,Animal_Sea_Pattern_Large,19.093972042086538,22.111860583070666,3.0,Animal_Sea_Pattern_Large,4.0,4.0,1.0,2.185841166996397,,,,,,,,
encoding,attention,13,3616500,3619518,3618804.0,3619000.0,197.0,197.0,1582.5,891.4000000000001,1591.0,1269.0,Animal_Sea_Pattern_Large,19.093972042086538,22.111860583070666,3.0,Animal_Sea_Pattern_Large,4.0,4.0,1.0,2.185841166996397,,,,,,,,
encoding,fixation,14,3619518,3620023,3619564.0,3619866.0,303.0,303.0,1591.2,838.2,1591.0,1269.0,Animal_Sea_Pattern_Large,22.11203012499027,22.617088917060755,3.0,Object_Sea_Solid_Small,-1.0,,,,,,,,,,,
encoding,fixation,14,3619518,3620023,3619907.0,3620220.0,314.0,116.0,1918.5,1136.4,1920.0,1080.0,fixation,22.11203012499027,22.617088917060755,3.0,Object_Sea_Solid_Small,-1.0,,,,,,,,,,,
encoding,image,14,3620023,3621034,3620240.0,3620369.0,130.0,130.0,1903.8,1076.2,1920.0,1080.0,fixation,22.617198541993275,23.62764408299699,3.0,Object_Sea_Solid_Small,-1.0,,,,,,,,,,,
encoding,image,14,3620023,3621034,3620411.0,3620680.0,270.0,270.0,1916.4,690.8,1920.0,1460.0,Object_Sea_Solid_Small,22.617198541993275,23.62764408299699,3.0,Object_Sea_Solid_Small,-1.0,,,,,,,,,,,
encoding,image,14,3620023,3621034,3620887.0,3621430.0,544.0,147.0,1906.1,734.9000000000001,1920.0,1460.0,Object_Sea_Solid_Small,22.617198541993275,23.62764408299699,3.0,Object_Sea_Solid_Small,-1.0,,,,,,,,,,,
encoding,value,14,3621034,3627046,3621437.0,3621710.0,274.0,274.0,1895.2,690.5,1920.0,1460.0,Object_Sea_Solid_Small,23.62775787501596,29.63927166699432,3.0,Object_Sea_Solid_Small,-1.0,,,,,,,,,,,
encoding,value,14,3621034,3627046,3621735.0,3621881.0,147.0,147.0,1869.2,548.0,1920.0,1460.0,Object_Sea_Solid_Small,23.62775787501596,29.63927166699432,3.0,Object_Sea_Solid_Small,-1.0,,,,,,,,,,,
encoding,value,14,3621034,3627046,3621888.0,3622181.0,294.0,294.0,1871.8,577.0,1920.0,1460.0,Object_Sea_Solid_Small,23.62775787501596,29.63927166699432,3.0,Object_Sea_Solid_Small,-1.0,,,,,,,,,,,
encoding,value,14,3621034,3627046,3622201.0,3622798.0,598.0,598.0,1895.7,717.9000000000001,1920.0,1460.0,Object_Sea_Solid_Small,23.62775787501596,29.63927166699432,3.0,Object_Sea_Solid_Small,-1.0,,,,,,,,,,,
encoding,value,14,3621034,3627046,3622806.0,3622968.0,163.0,163.0,1900.3,745.4000000000001,1920.0,1460.0,Object_Sea_Solid_Small,23.62775787501596,29.63927166699432,3.0,Object_Sea_Solid_Small,-1.0,,,,,,,,,,,
encoding,value,14,3621034,3627046,3623178.0,3623365.0,188.0,188.0,1882.4,747.5,1920.0,1460.0,Object_Sea_Solid_Small,23.62775787501596,29.63927166699432,3.0,Object_Sea_Solid_Small,-1.0,,,,,,,,,,,
encoding,value,14,3621034,3627046,3623400.0,3623764.0,365.0,365.0,1885.6,1132.4,1920.0,1080.0,fixation,23.62775787501596,29.63927166699432,3.0,Object_Sea_Solid_Small,-1.0,,,,,,,,,,,
encoding,value,14,3621034,3627046,3623975.0,3624072.0,98.0,98.0,1885.9,769.7,1920.0,1460.0,Object_Sea_Solid_Small,23.62775787501596,29.63927166699432,3.0,Object_Sea_Solid_Small,-1.0,,,,,,,,,,,
encoding,value,14,3621034,3627046,3624098.0,3624413.0,316.0,316.0,1853.2,753.4000000000001,1920.0,1460.0,Object_Sea_Solid_Small,23.62775787501596,29.63927166699432,3.0,Object_Sea_Solid_Small,-1.0,,,,,,,,,,,
encoding,value,14,3621034,3627046,3624420.0,3624988.0,569.0,569.0,1913.2,724.9000000000001,1920.0,1460.0,Object_Sea_Solid_Small,23.62775787501596,29.63927166699432,3.0,Object_Sea_Solid_Small,-1.0,,,,,,,,,,,
encoding,value,14,3621034,3627046,3625007.0,3625248.0,242.0,242.0,1876.5,592.2,1920.0,1460.0,Object_Sea_Solid_Small,23.62775787501596,29.63927166699432,3.0,Object_Sea_Solid_Small,-1.0,,,,,,,,,,,
encoding,value,14,3621034,3627046,3625268.0,3625587.0,320.0,320.0,1896.5,698.8,1920.0,1460.0,Object_Sea_Solid_Small,23.62775787501596,29.63927166699432,3.0,Object_Sea_Solid_Small,-1.0,,,,,,,,,,,
encoding,value,14,3621034,3627046,3625858.0,3626120.0,263.0,263.0,1808.4,525.0,1920.0,1460.0,Object_Sea_Solid_Small,23.62775787501596,29.63927166699432,3.0,Object_Sea_Solid_Small,-1.0,,,,,,,,,,,
encoding,value,14,3621034,3627046,3626128.0,3627197.0,1070.0,918.0,1890.5,718.2,1920.0,1460.0,Object_Sea_Solid_Small,23.62775787501596,29.63927166699432,3.0,Object_Sea_Solid_Small,-1.0,,,,,,,,,,,
encoding,attention,14,3627046,3630063,3627216.0,3627244.0,29.0,29.0,1856.9,568.2,1920.0,1460.0,Object_Sea_Solid_Small,29.639402833068743,32.656158125028014,3.0,Object_Sea_Solid_Small,-1.0,-1.0,1.0,2.7522113339509815,,,,,,,,
encoding,attention,14,3627046,3630063,3627419.0,3627635.0,217.0,217.0,1828.2,471.4000000000001,,,none,29.639402833068743,32.656158125028014,3.0,Object_Sea_Solid_Small,-1.0,-1.0,1.0,2.7522113339509815,,,,,,,,
encoding,attention,14,3627046,3630063,3627721.0,3627767.0,47.0,47.0,1907.2,591.7,1920.0,1460.0,Object_Sea_Solid_Small,29.639402833068743,32.656158125028014,3.0,Object_Sea_Solid_Small,-1.0,-1.0,1.0,2.7522113339509815,,,,,,,,
encoding,attention,14,3627046,3630063,3627789.0,3627867.0,79.0,79.0,1844.2,732.5999999999999,1920.0,1460.0,Object_Sea_Solid_Small,29.639402833068743,32.656158125028014,3.0,Object_Sea_Solid_Small,-1.0,-1.0,1.0,2.7522113339509815,,,,,,,,
encoding,attention,14,3627046,3630063,3628129.0,3628983.0,855.0,855.0,1882.1,695.7,1920.0,1460.0,Object_Sea_Solid_Small,29.639402833068743,32.656158125028014,3.0,Object_Sea_Solid_Small,-1.0,-1.0,1.0,2.7522113339509815,,,,,,,,
encoding,attention,14,3627046,3630063,3628989.0,3629068.0,80.0,80.0,1875.4,766.7,1920.0,1460.0,Object_Sea_Solid_Small,29.639402833068743,32.656158125028014,3.0,Object_Sea_Solid_Small,-1.0,-1.0,1.0,2.7522113339509815,,,,,,,,
encoding,attention,14,3627046,3630063,3629115.0,3629187.0,73.0,73.0,1899.1,741.5999999999999,1920.0,1460.0,Object_Sea_Solid_Small,29.639402833068743,32.656158125028014,3.0,Object_Sea_Solid_Small,-1.0,-1.0,1.0,2.7522113339509815,,,,,,,,
encoding,attention,14,3627046,3630063,3629286.0,3629476.0,191.0,191.0,1898.7,738.4000000000001,1920.0,1460.0,Object_Sea_Solid_Small,29.639402833068743,32.656158125028014,3.0,Object_Sea_Solid_Small,-1.0,-1.0,1.0,2.7522113339509815,,,,,,,,
encoding,attention,14,3627046,3630063,3629487.0,3629669.0,183.0,183.0,1864.4,726.4000000000001,1920.0,1460.0,Object_Sea_Solid_Small,29.639402833068743,32.656158125028014,3.0,Object_Sea_Solid_Small,-1.0,-1.0,1.0,2.7522113339509815,,,,,,,,
encoding,fixation,15,3630063,3631318,3630169.0,3630517.0,349.0,349.0,1774.9,944.4000000000001,1591.0,1269.0,Animal_Sea_Pattern_Large,32.656305417069234,33.91112737508956,3.0,Object_Sea_Solid_Large,-4.0,,,,,,,,,,,
encoding,fixation,15,3630063,3631318,3630538.0,3630677.0,140.0,140.0,1783.3,957.0,1591.0,1269.0,Animal_Sea_Pattern_Large,32.656305417069234,33.91112737508956,3.0,Object_Sea_Solid_Large,-4.0,,,,,,,,,,,
encoding,fixation,15,3630063,3631318,3630693.0,3631014.0,322.0,322.0,1875.3,1010.0999999999999,1591.0,1269.0,Animal_Sea_Pattern_Large,32.656305417069234,33.91112737508956,3.0,Object_Sea_Solid_Large,-4.0,,,,,,,,,,,
encoding,fixation,15,3630063,3631318,3631030.0,3631253.0,224.0,224.0,1783.8,995.2,1591.0,1269.0,Animal_Sea_Pattern_Large,32.656305417069234,33.91112737508956,3.0,Object_Sea_Solid_Large,-4.0,,,,,,,,,,,
encoding,image,15,3631318,3632331,3631460.0,3631634.0,175.0,175.0,1802.8,822.8,1920.0,1460.0,Object_Sea_Solid_Small,33.911262208013795,34.92397691705264,3.0,Object_Sea_Solid_Large,-4.0,,,,,,,,,,,
encoding,image,15,3631318,3632331,3631673.0,3632070.0,398.0,398.0,1864.8,1475.2,1920.0,700.0,Object_Sea_Solid_Large,33.911262208013795,34.92397691705264,3.0,Object_Sea_Solid_Large,-4.0,,,,,,,,,,,
encoding,image,15,3631318,3632331,3632080.0,3632369.0,290.0,251.0,1905.7,1448.4,1920.0,700.0,Object_Sea_Solid_Large,33.911262208013795,34.92397691705264,3.0,Object_Sea_Solid_Large,-4.0,,,,,,,,,,,
encoding,value,15,3632331,3638343,3632394.0,3632632.0,239.0,239.0,1901.4,1273.7,1920.0,700.0,Object_Sea_Solid_Large,34.92408800008707,40.93592150008771,3.0,Object_Sea_Solid_Large,-4.0,,,,,,,,,,,
encoding,value,15,3632331,3638343,3632647.0,3632915.0,269.0,269.0,1899.0,1335.6,1920.0,700.0,Object_Sea_Solid_Large,34.92408800008707,40.93592150008771,3.0,Object_Sea_Solid_Large,-4.0,,,,,,,,,,,
encoding,value,15,3632331,3638343,3633733.0,3634122.0,390.0,390.0,1884.3,1344.2,1920.0,700.0,Object_Sea_Solid_Large,34.92408800008707,40.93592150008771,3.0,Object_Sea_Solid_Large,-4.0,,,,,,,,,,,
encoding,value,15,3632331,3638343,3634322.0,3634736.0,415.0,415.0,1880.3,1400.7,1920.0,700.0,Object_Sea_Solid_Large,34.92408800008707,40.93592150008771,3.0,Object_Sea_Solid_Large,-4.0,,,,,,,,,,,
encoding,value,15,3632331,3638343,3634747.0,3634971.0,225.0,225.0,1859.1,1343.8,1920.0,700.0,Object_Sea_Solid_Large,34.92408800008707,40.93592150008771,3.0,Object_Sea_Solid_Large,-4.0,,,,,,,,,,,
encoding,value,15,3632331,3638343,3635163.0,3636006.0,844.0,844.0,1864.1,1336.6,1920.0,700.0,Object_Sea_Solid_Large,34.92408800008707,40.93592150008771,3.0,Object_Sea_Solid_Large,-4.0,,,,,,,,,,,
encoding,value,15,3632331,3638343,3636240.0,3637277.0,1038.0,1038.0,1862.8,1349.4,1920.0,700.0,Object_Sea_Solid_Large,34.92408800008707,40.93592150008771,3.0,Object_Sea_Solid_Large,-4.0,,,,,,,,,,,
encoding,value,15,3632331,3638343,3637290.0,3637670.0,381.0,381.0,1881.3,1448.8,1920.0,700.0,Object_Sea_Solid_Large,34.92408800008707,40.93592150008771,3.0,Object_Sea_Solid_Large,-4.0,,,,,,,,,,,
encoding,value,15,3632331,3638343,3637688.0,3638579.0,892.0,655.0,1865.5,1311.0,1920.0,700.0,Object_Sea_Solid_Large,34.92408800008707,40.93592150008771,3.0,Object_Sea_Solid_Large,-4.0,,,,,,,,,,,
encoding,attention,15,3638343,3641364,3638590.0,3638736.0,147.0,147.0,1926.5,1299.3,1920.0,700.0,Object_Sea_Solid_Large,40.93607054208405,43.95669095800258,3.0,Object_Sea_Solid_Large,-4.0,-4.0,1.0,2.558563290978782,,,,,,,,
encoding,attention,15,3638343,3641364,3638751.0,3638883.0,133.0,133.0,1834.3,1302.7,1920.0,700.0,Object_Sea_Solid_Large,40.93607054208405,43.95669095800258,3.0,Object_Sea_Solid_Large,-4.0,-4.0,1.0,2.558563290978782,,,,,,,,
encoding,attention,15,3638343,3641364,3639111.0,3640305.0,1195.0,1195.0,1849.2,1314.9,1920.0,700.0,Object_Sea_Solid_Large,40.93607054208405,43.95669095800258,3.0,Object_Sea_Solid_Large,-4.0,-4.0,1.0,2.558563290978782,,,,,,,,
encoding,attention,15,3638343,3641364,3640312.0,3640445.0,134.0,134.0,1838.3,1311.4,1920.0,700.0,Object_Sea_Solid_Large,40.93607054208405,43.95669095800258,3.0,Object_Sea_Solid_Large,-4.0,-4.0,1.0,2.558563290978782,,,,,,,,
encoding,attention,15,3638343,3641364,3640646.0,3640826.0,181.0,181.0,1836.8,1283.8,1920.0,700.0,Object_Sea_Solid_Large,40.93607054208405,43.95669095800258,3.0,Object_Sea_Solid_Large,-4.0,-4.0,1.0,2.558563290978782,,,,,,,,
encoding,attention,15,3638343,3641364,3640842.0,3641288.0,447.0,447.0,1839.0,1315.5,1920.0,700.0,Object_Sea_Solid_Large,40.93607054208405,43.95669095800258,3.0,Object_Sea_Solid_Large,-4.0,-4.0,1.0,2.558563290978782,,,,,,,,
encoding,fixation,16,3641364,3642119,3641627.0,3641741.0,115.0,115.0,1877.7,1026.5,1920.0,1080.0,fixation,43.9568525000941,44.711835292051546,3.0,Animal_Land_Pattern_Small,-6.0,,,,,,,,,,,
encoding,fixation,16,3641364,3642119,3641992.0,3642093.0,102.0,102.0,1876.6,780.8,1920.0,1460.0,Object_Sea_Solid_Small,43.9568525000941,44.711835292051546,3.0,Animal_Land_Pattern_Small,-6.0,,,,,,,,,,,
encoding,fixation,16,3641364,3642119,3642115.0,3642169.0,55.0,4.0,1899.6,883.4000000000001,1920.0,1460.0,Object_Sea_Solid_Small,43.9568525000941,44.711835292051546,3.0,Animal_Land_Pattern_Small,-6.0,,,,,,,,,,,
encoding,image,16,3642119,3643130,3642192.0,3642348.0,157.0,157.0,1871.3,1015.5,1591.0,1269.0,Animal_Sea_Pattern_Large,44.711942375055514,45.72240629198495,3.0,Animal_Land_Pattern_Small,-6.0,,,,,,,,,,,
encoding,image,16,3642119,3643130,3642382.0,3642798.0,417.0,417.0,2201.0,1214.7,2249.0,891.0,Animal_Land_Pattern_Small,44.711942375055514,45.72240629198495,3.0,Animal_Land_Pattern_Small,-6.0,,,,,,,,,,,
encoding,image,16,3642119,3643130,3642818.0,3642984.0,167.0,167.0,2039.4,1179.0,2249.0,891.0,Animal_Land_Pattern_Small,44.711942375055514,45.72240629198495,3.0,Animal_Land_Pattern_Small,-6.0,,,,,,,,,,,
encoding,image,16,3642119,3643130,3643122.0,3643310.0,189.0,8.0,2196.7,1291.8,2249.0,891.0,Animal_Land_Pattern_Small,44.711942375055514,45.72240629198495,3.0,Animal_Land_Pattern_Small,-6.0,,,,,,,,,,,
encoding,value,16,3643130,3649142,3643335.0,3643549.0,215.0,215.0,2203.0,1154.2,2249.0,891.0,Animal_Land_Pattern_Small,45.72256208304316,51.73437925009057,3.0,Animal_Land_Pattern_Small,-6.0,,,,,,,,,,,
encoding,value,16,3643130,3649142,3643771.0,3644056.0,286.0,286.0,2215.4,1170.3,2249.0,891.0,Animal_Land_Pattern_Small,45.72256208304316,51.73437925009057,3.0,Animal_Land_Pattern_Small,-6.0,,,,,,,,,,,
encoding,value,16,3643130,3649142,3644066.0,3644229.0,164.0,164.0,2258.5,1213.4,2249.0,891.0,Animal_Land_Pattern_Small,45.72256208304316,51.73437925009057,3.0,Animal_Land_Pattern_Small,-6.0,,,,,,,,,,,
encoding,value,16,3643130,3649142,3644441.0,3644666.0,226.0,226.0,2236.6,1204.8,2249.0,891.0,Animal_Land_Pattern_Small,45.72256208304316,51.73437925009057,3.0,Animal_Land_Pattern_Small,-6.0,,,,,,,,,,,
encoding,value,16,3643130,3649142,3644913.0,3645600.0,688.0,688.0,2218.2,1111.3,2249.0,891.0,Animal_Land_Pattern_Small,45.72256208304316,51.73437925009057,3.0,Animal_Land_Pattern_Small,-6.0,,,,,,,,,,,
encoding,value,16,3643130,3649142,3645618.0,3645841.0,224.0,224.0,2072.4,1138.6,2249.0,891.0,Animal_Land_Pattern_Small,45.72256208304316,51.73437925009057,3.0,Animal_Land_Pattern_Small,-6.0,,,,,,,,,,,
encoding,value,16,3643130,3649142,3645860.0,3645970.0,111.0,111.0,2197.7,1109.0,2249.0,891.0,Animal_Land_Pattern_Small,45.72256208304316,51.73437925009057,3.0,Animal_Land_Pattern_Small,-6.0,,,,,,,,,,,
encoding,value,16,3643130,3649142,3646166.0,3646612.0,447.0,447.0,2216.9,1118.6,2249.0,891.0,Animal_Land_Pattern_Small,45.72256208304316,51.73437925009057,3.0,Animal_Land_Pattern_Small,-6.0,,,,,,,,,,,
encoding,value,16,3643130,3649142,3646631.0,3646940.0,310.0,310.0,2198.3,1206.5,2249.0,891.0,Animal_Land_Pattern_Small,45.72256208304316,51.73437925009057,3.0,Animal_Land_Pattern_Small,-6.0,,,,,,,,,,,
encoding,value,16,3643130,3649142,3646951.0,3647253.0,303.0,303.0,2253.4,1224.3,2249.0,891.0,Animal_Land_Pattern_Small,45.72256208304316,51.73437925009057,3.0,Animal_Land_Pattern_Small,-6.0,,,,,,,,,,,
encoding,value,16,3643130,3649142,3647451.0,3647677.0,227.0,227.0,2232.4,1155.8,2249.0,891.0,Animal_Land_Pattern_Small,45.72256208304316,51.73437925009057,3.0,Animal_Land_Pattern_Small,-6.0,,,,,,,,,,,
encoding,value,16,3643130,3649142,3647695.0,3648433.0,739.0,739.0,2186.5,1220.7,2249.0,891.0,Animal_Land_Pattern_Small,45.72256208304316,51.73437925009057,3.0,Animal_Land_Pattern_Small,-6.0,,,,,,,,,,,
encoding,value,16,3643130,3649142,3648632.0,3648758.0,127.0,127.0,2182.5,1091.0,2249.0,891.0,Animal_Land_Pattern_Small,45.72256208304316,51.73437925009057,3.0,Animal_Land_Pattern_Small,-6.0,,,,,,,,,,,
encoding,value,16,3643130,3649142,3648765.0,3649085.0,321.0,321.0,2215.1,1156.1,2249.0,891.0,Animal_Land_Pattern_Small,45.72256208304316,51.73437925009057,3.0,Animal_Land_Pattern_Small,-6.0,,,,,,,,,,,
encoding,value,16,3643130,3649142,3649104.0,3649424.0,321.0,38.0,2186.3,1205.6,2249.0,891.0,Animal_Land_Pattern_Small,45.72256208304316,51.73437925009057,3.0,Animal_Land_Pattern_Small,-6.0,,,,,,,,,,,
encoding,attention,16,3649142,3652156,3649438.0,3649932.0,495.0,495.0,2183.7,1135.6,2249.0,891.0,Animal_Land_Pattern_Small,51.734498333069496,54.74820587504655,3.0,Animal_Land_Pattern_Small,-6.0,,,,,,,,,,,
encoding,attention,16,3649142,3652156,3649944.0,3650280.0,337.0,337.0,2240.5,1128.5,2249.0,891.0,Animal_Land_Pattern_Small,51.734498333069496,54.74820587504655,3.0,Animal_Land_Pattern_Small,-6.0,,,,,,,,,,,
encoding,attention,16,3649142,3652156,3650538.0,3650571.0,34.0,34.0,2194.8,977.5,2249.0,1269.0,Animal_Land_Pattern_Large,51.734498333069496,54.74820587504655,3.0,Animal_Land_Pattern_Small,-6.0,,,,,,,,,,,
encoding,attention,16,3649142,3652156,3650793.0,3650975.0,183.0,183.0,2217.1,1181.3,2249.0,891.0,Animal_Land_Pattern_Small,51.734498333069496,54.74820587504655,3.0,Animal_Land_Pattern_Small,-6.0,,,,,,,,,,,
encoding,attention,16,3649142,3652156,3651212.0,3651588.0,377.0,377.0,2212.0,1193.3,2249.0,891.0,Animal_Land_Pattern_Small,51.734498333069496,54.74820587504655,3.0,Animal_Land_Pattern_Small,-6.0,,,,,,,,,,,
encoding,fixation,17,3652156,3653661,3652264.0,3652733.0,470.0,470.0,2182.8,1255.0,2249.0,891.0,Animal_Land_Pattern_Small,54.74832579202484,56.25324700004421,3.0,Object_Land_Solid_Small,9.0,,,,,,,,,,,
encoding,fixation,17,3652156,3653661,3652766.0,3653226.0,461.0,461.0,1924.5,1078.5,1920.0,1080.0,fixation,54.74832579202484,56.25324700004421,3.0,Object_Land_Solid_Small,9.0,,,,,,,,,,,
encoding,fixation,17,3652156,3653661,3653234.0,3653425.0,192.0,192.0,1903.9,1056.2,1920.0,1080.0,fixation,54.74832579202484,56.25324700004421,3.0,Object_Land_Solid_Small,9.0,,,,,,,,,,,
encoding,fixation,17,3652156,3653661,3653602.0,3653915.0,314.0,59.0,1878.0,1060.6,1920.0,1080.0,fixation,54.74832579202484,56.25324700004421,3.0,Object_Land_Solid_Small,9.0,,,,,,,,,,,
encoding,image,17,3653661,3654672,3653946.0,3655081.0,1136.0,726.0,1566.1,1222.8,1591.0,891.0,Object_Land_Solid_Small,56.25335683301091,57.264619958004914,3.0,Object_Land_Solid_Small,9.0,,,,,,,,,,,
encoding,value,17,3654673,3660684,3655099.0,3655400.0,302.0,302.0,1579.1,1146.0,1591.0,891.0,Object_Land_Solid_Small,57.26473437505774,63.27602733299136,3.0,Object_Land_Solid_Small,9.0,,,,,,,,,,,
encoding,value,17,3654673,3660684,3655598.0,3655633.0,36.0,36.0,1561.1,996.0999999999999,1591.0,1269.0,Animal_Sea_Pattern_Large,57.26473437505774,63.27602733299136,3.0,Object_Land_Solid_Small,9.0,,,,,,,,,,,
encoding,value,17,3654673,3660684,3655869.0,3656330.0,462.0,462.0,1562.1,1168.1,1591.0,891.0,Object_Land_Solid_Small,57.26473437505774,63.27602733299136,3.0,Object_Land_Solid_Small,9.0,,,,,,,,,,,
encoding,value,17,3654673,3660684,3656541.0,3656592.0,52.0,52.0,1525.1,1212.4,1591.0,891.0,Object_Land_Solid_Small,57.26473437505774,63.27602733299136,3.0,Object_Land_Solid_Small,9.0,,,,,,,,,,,
encoding,value,17,3654673,3660684,3656605.0,3657503.0,899.0,899.0,1561.0,1143.6,1591.0,891.0,Object_Land_Solid_Small,57.26473437505774,63.27602733299136,3.0,Object_Land_Solid_Small,9.0,,,,,,,,,,,
encoding,value,17,3654673,3660684,3657512.0,3657731.0,220.0,220.0,1548.1,1176.8,1591.0,891.0,Object_Land_Solid_Small,57.26473437505774,63.27602733299136,3.0,Object_Land_Solid_Small,9.0,,,,,,,,,,,
encoding,value,17,3654673,3660684,3657742.0,3657972.0,231.0,231.0,1512.2,1227.5,1591.0,891.0,Object_Land_Solid_Small,57.26473437505774,63.27602733299136,3.0,Object_Land_Solid_Small,9.0,,,,,,,,,,,
encoding,value,17,3654673,3660684,3658178.0,3658306.0,129.0,129.0,1526.2,1197.4,1591.0,891.0,Object_Land_Solid_Small,57.26473437505774,63.27602733299136,3.0,Object_Land_Solid_Small,9.0,,,,,,,,,,,
encoding,value,17,3654673,3660684,3658313.0,3658735.0,423.0,423.0,1559.1,1142.8,1591.0,891.0,Object_Land_Solid_Small,57.26473437505774,63.27602733299136,3.0,Object_Land_Solid_Small,9.0,,,,,,,,,,,
encoding,value,17,3654673,3660684,3658753.0,3659136.0,384.0,384.0,1561.6,1197.7,1591.0,891.0,Object_Land_Solid_Small,57.26473437505774,63.27602733299136,3.0,Object_Land_Solid_Small,9.0,,,,,,,,,,,
encoding,value,17,3654673,3660684,3659339.0,3659778.0,440.0,440.0,1548.2,1191.5,1591.0,891.0,Object_Land_Solid_Small,57.26473437505774,63.27602733299136,3.0,Object_Land_Solid_Small,9.0,,,,,,,,,,,
encoding,value,17,3654673,3660684,3659792.0,3660952.0,1161.0,892.0,1576.7,1119.0,1591.0,891.0,Object_Land_Solid_Small,57.26473437505774,63.27602733299136,3.0,Object_Land_Solid_Small,9.0,,,,,,,,,,,
encoding,attention,17,3660684,3663702,3660965.0,3661223.0,259.0,259.0,1511.2,1110.9,1591.0,891.0,Object_Land_Solid_Small,63.276138375047594,66.29364283301402,3.0,Object_Land_Solid_Small,9.0,9.0,1.0,0.7567785000428557,,,,,,,,
encoding,attention,17,3660684,3663702,3661454.0,3661832.0,379.0,379.0,1515.5,1178.7,1591.0,891.0,Object_Land_Solid_Small,63.276138375047594,66.29364283301402,3.0,Object_Land_Solid_Small,9.0,9.0,1.0,0.7567785000428557,,,,,,,,
encoding,attention,17,3660684,3663702,3661844.0,3662224.0,381.0,381.0,1624.6,1143.8,1591.0,891.0,Object_Land_Solid_Small,63.276138375047594,66.29364283301402,3.0,Object_Land_Solid_Small,9.0,9.0,1.0,0.7567785000428557,,,,,,,,
encoding,attention,17,3660684,3663702,3662239.0,3662532.0,294.0,294.0,1556.1,1136.1,1591.0,891.0,Object_Land_Solid_Small,63.276138375047594,66.29364283301402,3.0,Object_Land_Solid_Small,9.0,9.0,1.0,0.7567785000428557,,,,,,,,
encoding,attention,17,3660684,3663702,3662549.0,3663090.0,542.0,542.0,1558.9,1221.2,1591.0,891.0,Object_Land_Solid_Small,63.276138375047594,66.29364283301402,3.0,Object_Land_Solid_Small,9.0,9.0,1.0,0.7567785000428557,,,,,,,,
encoding,fixation,18,3663702,3664957,3664067.0,3664230.0,164.0,164.0,1878.0,1083.2,1920.0,1080.0,fixation,66.29379904200323,67.5488593330374,3.0,Animal_Land_Pattern_Large,3.0,,,,,,,,,,,
encoding,fixation,18,3663702,3664957,3664443.0,3665169.0,727.0,514.0,1926.1,1051.5,1920.0,1080.0,fixation,66.29379904200323,67.5488593330374,3.0,Animal_Land_Pattern_Large,3.0,,,,,,,,,,,
encoding,image,18,3664957,3665969,3665207.0,3665498.0,292.0,292.0,2255.1,891.5,2249.0,1269.0,Animal_Land_Pattern_Large,67.54895716707688,68.56073458306491,3.0,Animal_Land_Pattern_Large,3.0,,,,,,,,,,,
encoding,image,18,3664957,3665969,3665754.0,3666239.0,486.0,215.0,2241.3,913.5999999999999,2249.0,1269.0,Animal_Land_Pattern_Large,67.54895716707688,68.56073458306491,3.0,Animal_Land_Pattern_Large,3.0,,,,,,,,,,,
encoding,value,18,3665969,3671981,3666266.0,3666455.0,190.0,190.0,2271.6,776.7,2249.0,1269.0,Animal_Land_Pattern_Large,68.56085212505423,74.5724320000736,3.0,Animal_Land_Pattern_Large,3.0,,,,,,,,,,,
encoding,value,18,3665969,3671981,3666723.0,3667059.0,337.0,337.0,2183.2,891.0999999999999,2249.0,1269.0,Animal_Land_Pattern_Large,68.56085212505423,74.5724320000736,3.0,Animal_Land_Pattern_Large,3.0,,,,,,,,,,,
encoding,value,18,3665969,3671981,3667079.0,3667270.0,192.0,192.0,2224.9,778.7,2249.0,1269.0,Animal_Land_Pattern_Large,68.56085212505423,74.5724320000736,3.0,Animal_Land_Pattern_Large,3.0,,,,,,,,,,,
encoding,value,18,3665969,3671981,3667564.0,3668532.0,969.0,969.0,2252.3,794.7,2249.0,1269.0,Animal_Land_Pattern_Large,68.56085212505423,74.5724320000736,3.0,Animal_Land_Pattern_Large,3.0,,,,,,,,,,,
encoding,value,18,3665969,3671981,3668553.0,3669124.0,572.0,572.0,2181.8,852.3,2249.0,1269.0,Animal_Land_Pattern_Large,68.56085212505423,74.5724320000736,3.0,Animal_Land_Pattern_Large,3.0,,,,,,,,,,,
encoding,value,18,3665969,3671981,3669140.0,3669478.0,339.0,339.0,2094.2,890.7,2249.0,1269.0,Animal_Land_Pattern_Large,68.56085212505423,74.5724320000736,3.0,Animal_Land_Pattern_Large,3.0,,,,,,,,,,,
encoding,value,18,3665969,3671981,3669498.0,3669644.0,147.0,147.0,2235.5,817.9000000000001,2249.0,1269.0,Animal_Land_Pattern_Large,68.56085212505423,74.5724320000736,3.0,Animal_Land_Pattern_Large,3.0,,,,,,,,,,,
encoding,value,18,3665969,3671981,3669912.0,3670449.0,538.0,538.0,2244.9,783.9000000000001,2249.0,1269.0,Animal_Land_Pattern_Large,68.56085212505423,74.5724320000736,3.0,Animal_Land_Pattern_Large,3.0,,,,,,,,,,,
encoding,value,18,3665969,3671981,3670463.0,3670768.0,306.0,306.0,2245.0,875.0999999999999,2249.0,1269.0,Animal_Land_Pattern_Large,68.56085212505423,74.5724320000736,3.0,Animal_Land_Pattern_Large,3.0,,,,,,,,,,,
encoding,value,18,3665969,3671981,3670775.0,3671219.0,445.0,445.0,2277.5,851.0999999999999,2249.0,1269.0,Animal_Land_Pattern_Large,68.56085212505423,74.5724320000736,3.0,Animal_Land_Pattern_Large,3.0,,,,,,,,,,,
encoding,value,18,3665969,3671981,3671238.0,3671627.0,390.0,390.0,2263.1,722.5999999999999,2249.0,1269.0,Animal_Land_Pattern_Large,68.56085212505423,74.5724320000736,3.0,Animal_Land_Pattern_Large,3.0,,,,,,,,,,,
encoding,value,18,3665969,3671981,3671792.0,3672284.0,493.0,189.0,2254.7,845.4000000000001,2249.0,1269.0,Animal_Land_Pattern_Large,68.56085212505423,74.5724320000736,3.0,Animal_Land_Pattern_Large,3.0,,,,,,,,,,,
encoding,attention,18,3671981,3674999,3672302.0,3672575.0,274.0,274.0,2195.8,765.8,2249.0,1269.0,Animal_Land_Pattern_Large,74.57255954202265,77.58995933306869,3.0,Animal_Land_Pattern_Large,3.0,3.0,1.0,1.874591749976389,,,,,,,,
encoding,attention,18,3671981,3674999,3672862.0,3673029.0,168.0,168.0,2214.5,764.0999999999999,2249.0,1269.0,Animal_Land_Pattern_Large,74.57255954202265,77.58995933306869,3.0,Animal_Land_Pattern_Large,3.0,3.0,1.0,1.874591749976389,,,,,,,,
encoding,attention,18,3671981,3674999,3673257.0,3673897.0,641.0,641.0,2196.8,775.3,2249.0,1269.0,Animal_Land_Pattern_Large,74.57255954202265,77.58995933306869,3.0,Animal_Land_Pattern_Large,3.0,3.0,1.0,1.874591749976389,,,,,,,,
encoding,attention,18,3671981,3674999,3673906.0,3674413.0,508.0,508.0,2186.2,758.0999999999999,2249.0,1269.0,Animal_Land_Pattern_Large,74.57255954202265,77.58995933306869,3.0,Animal_Land_Pattern_Large,3.0,3.0,1.0,1.874591749976389,,,,,,,,
encoding,attention,18,3671981,3674999,3674425.0,3674815.0,391.0,391.0,2279.8,734.9000000000001,2249.0,1269.0,Animal_Land_Pattern_Large,74.57255954202265,77.58995933306869,3.0,Animal_Land_Pattern_Large,3.0,3.0,1.0,1.874591749976389,,,,,,,,
encoding,fixation,19,4160255,4161261,4160326.0,4160509.0,184.0,184.0,1957.3,1166.9,1920.0,700.0,Animal_Sea_Pattern_Small,14.60468641598709,15.610316041042095,4.0,Animal_Sea_Solid_Large,7.0,,,,,,,,,,,
encoding,fixation,19,4160255,4161261,4160528.0,4161125.0,598.0,598.0,1891.1,1097.4,1920.0,1080.0,fixation,14.60468641598709,15.610316041042095,4.0,Animal_Sea_Solid_Large,7.0,,,,,,,,,,,
encoding,fixation,19,4160255,4161261,4161139.0,4161517.0,379.0,122.0,1905.2,1037.6,1920.0,1080.0,fixation,14.60468641598709,15.610316041042095,4.0,Animal_Sea_Solid_Large,7.0,,,,,,,,,,,
encoding,image,19,4161261,4162273,4161555.0,4161755.0,201.0,201.0,1894.7,720.4000000000001,1920.0,1460.0,Animal_Sea_Solid_Large,15.610421290970407,16.622444416047074,4.0,Animal_Sea_Solid_Large,7.0,,,,,,,,,,,
encoding,image,19,4161261,4162273,4161768.0,4162169.0,402.0,402.0,1919.7,667.2,1920.0,1460.0,Animal_Sea_Solid_Large,15.610421290970407,16.622444416047074,4.0,Animal_Sea_Solid_Large,7.0,,,,,,,,,,,
encoding,value,19,4162273,4168287,4162360.0,4162464.0,105.0,105.0,1919.0,717.7,1920.0,1460.0,Animal_Sea_Solid_Large,16.62257270794362,22.63571858301293,4.0,Animal_Sea_Solid_Large,7.0,,,,,,,,,,,
encoding,value,19,4162273,4168287,4162487.0,4162540.0,54.0,54.0,1902.4,575.4000000000001,1920.0,1460.0,Animal_Sea_Solid_Large,16.62257270794362,22.63571858301293,4.0,Animal_Sea_Solid_Large,7.0,,,,,,,,,,,
encoding,value,19,4162273,4168287,4162760.0,4162918.0,159.0,159.0,1892.3,609.8,1920.0,1460.0,Animal_Sea_Solid_Large,16.62257270794362,22.63571858301293,4.0,Animal_Sea_Solid_Large,7.0,,,,,,,,,,,
encoding,value,19,4162273,4168287,4162935.0,4163117.0,183.0,183.0,1908.2,607.9000000000001,1920.0,1460.0,Animal_Sea_Solid_Large,16.62257270794362,22.63571858301293,4.0,Animal_Sea_Solid_Large,7.0,,,,,,,,,,,
encoding,value,19,4162273,4168287,4163408.0,4163950.0,543.0,543.0,1912.9,754.3,1920.0,1460.0,Animal_Sea_Solid_Large,16.62257270794362,22.63571858301293,4.0,Animal_Sea_Solid_Large,7.0,,,,,,,,,,,
encoding,value,19,4162273,4168287,4164190.0,4165308.0,1119.0,1119.0,1885.7,741.7,1920.0,1460.0,Animal_Sea_Solid_Large,16.62257270794362,22.63571858301293,4.0,Animal_Sea_Solid_Large,7.0,,,,,,,,,,,
encoding,value,19,4162273,4168287,4165318.0,4165559.0,242.0,242.0,1886.4,727.8,1920.0,1460.0,Animal_Sea_Solid_Large,16.62257270794362,22.63571858301293,4.0,Animal_Sea_Solid_Large,7.0,,,,,,,,,,,
encoding,value,19,4162273,4168287,4165667.0,4165699.0,33.0,33.0,1883.2,799.0999999999999,1920.0,1460.0,Animal_Sea_Solid_Large,16.62257270794362,22.63571858301293,4.0,Animal_Sea_Solid_Large,7.0,,,,,,,,,,,
encoding,value,19,4162273,4168287,4165705.0,4165865.0,161.0,161.0,1874.1,806.8,1920.0,1460.0,Animal_Sea_Solid_Large,16.62257270794362,22.63571858301293,4.0,Animal_Sea_Solid_Large,7.0,,,,,,,,,,,
encoding,value,19,4162273,4168287,4165933.0,4166209.0,277.0,277.0,1908.7,748.3,1920.0,1460.0,Animal_Sea_Solid_Large,16.62257270794362,22.63571858301293,4.0,Animal_Sea_Solid_Large,7.0,,,,,,,,,,,
encoding,value,19,4162273,4168287,4166217.0,4166648.0,432.0,432.0,1899.4,691.4000000000001,1920.0,1460.0,Animal_Sea_Solid_Large,16.62257270794362,22.63571858301293,4.0,Animal_Sea_Solid_Large,7.0,,,,,,,,,,,
encoding,value,19,4162273,4168287,4166663.0,4166904.0,242.0,242.0,1902.9,599.8,1920.0,1460.0,Animal_Sea_Solid_Large,16.62257270794362,22.63571858301293,4.0,Animal_Sea_Solid_Large,7.0,,,,,,,,,,,
encoding,value,19,4162273,4168287,4167199.0,4167740.0,542.0,542.0,1896.4,638.4000000000001,1920.0,1460.0,Animal_Sea_Solid_Large,16.62257270794362,22.63571858301293,4.0,Animal_Sea_Solid_Large,7.0,,,,,,,,,,,
encoding,value,19,4162273,4168287,4167932.0,4168194.0,263.0,263.0,1905.0,661.0999999999999,1920.0,1460.0,Animal_Sea_Solid_Large,16.62257270794362,22.63571858301293,4.0,Animal_Sea_Solid_Large,7.0,,,,,,,,,,,
encoding,value,19,4162273,4168287,4168204.0,4168792.0,589.0,83.0,1920.8,605.7,1920.0,1460.0,Animal_Sea_Solid_Large,16.62257270794362,22.63571858301293,4.0,Animal_Sea_Solid_Large,7.0,,,,,,,,,,,
encoding,attention,19,4168287,4171305,4168825.0,4169116.0,292.0,292.0,1861.5,593.5999999999999,1920.0,1460.0,Animal_Sea_Solid_Large,22.63582962495275,25.653609583037905,4.0,Animal_Sea_Solid_Large,7.0,7.0,1.0,1.3425480839796364,,,,,,,,
encoding,attention,19,4168287,4171305,4169413.0,4170239.0,827.0,827.0,1860.2,607.2,1920.0,1460.0,Animal_Sea_Solid_Large,22.63582962495275,25.653609583037905,4.0,Animal_Sea_Solid_Large,7.0,7.0,1.0,1.3425480839796364,,,,,,,,
encoding,fixation,20,4171305,4172060,4171700.0,4171838.0,139.0,139.0,1951.8,1074.9,1920.0,1080.0,fixation,25.65376404102426,26.40886850003153,4.0,Animal_Sea_Solid_Small,-7.0,,,,,,,,,,,
encoding,image,20,4172060,4173072,4172103.0,4172277.0,175.0,175.0,1932.0,1114.8,1920.0,1080.0,fixation,26.408994249999523,27.420498415944166,4.0,Animal_Sea_Solid_Small,-7.0,,,,,,,,,,,
encoding,image,20,4172060,4173072,4172314.0,4172504.0,191.0,191.0,2244.3,931.5,2249.0,1269.0,Animal_Sea_Solid_Small,26.408994249999523,27.420498415944166,4.0,Animal_Sea_Solid_Small,-7.0,,,,,,,,,,,
encoding,image,20,4172060,4173072,4172513.0,4172551.0,39.0,39.0,2266.9,892.0999999999999,2249.0,1269.0,Animal_Sea_Solid_Small,26.408994249999523,27.420498415944166,4.0,Animal_Sea_Solid_Small,-7.0,,,,,,,,,,,
encoding,image,20,4172060,4173072,4172747.0,4172781.0,35.0,35.0,2272.5,919.0999999999999,2249.0,1269.0,Animal_Sea_Solid_Small,26.408994249999523,27.420498415944166,4.0,Animal_Sea_Solid_Small,-7.0,,,,,,,,,,,
encoding,image,20,4172060,4173072,4173013.0,4173129.0,117.0,59.0,2278.6,882.9000000000001,2249.0,1269.0,Animal_Sea_Solid_Small,26.408994249999523,27.420498415944166,4.0,Animal_Sea_Solid_Small,-7.0,,,,,,,,,,,
encoding,value,20,4173072,4179084,4173371.0,4173737.0,367.0,367.0,2277.2,730.0,2249.0,1269.0,Animal_Sea_Solid_Small,27.42061074997764,33.43239924998488,4.0,Animal_Sea_Solid_Small,-7.0,,,,,,,,,,,
encoding,value,20,4173072,4179084,4173962.0,4174127.0,166.0,166.0,2272.1,896.2,2249.0,1269.0,Animal_Sea_Solid_Small,27.42061074997764,33.43239924998488,4.0,Animal_Sea_Solid_Small,-7.0,,,,,,,,,,,
encoding,value,20,4173072,4179084,4174377.0,4174593.0,217.0,217.0,2235.2,902.2,2249.0,1269.0,Animal_Sea_Solid_Small,27.42061074997764,33.43239924998488,4.0,Animal_Sea_Solid_Small,-7.0,,,,,,,,,,,
encoding,value,20,4173072,4179084,4174873.0,4175267.0,395.0,395.0,2285.5,815.9000000000001,2249.0,1269.0,Animal_Sea_Solid_Small,27.42061074997764,33.43239924998488,4.0,Animal_Sea_Solid_Small,-7.0,,,,,,,,,,,
encoding,value,20,4173072,4179084,4175285.0,4175402.0,118.0,118.0,2264.6,881.8,2249.0,1269.0,Animal_Sea_Solid_Small,27.42061074997764,33.43239924998488,4.0,Animal_Sea_Solid_Small,-7.0,,,,,,,,,,,
encoding,value,20,4173072,4179084,4175626.0,4177067.0,1442.0,1442.0,2255.7,858.7,2249.0,1269.0,Animal_Sea_Solid_Small,27.42061074997764,33.43239924998488,4.0,Animal_Sea_Solid_Small,-7.0,,,,,,,,,,,
encoding,value,20,4173072,4179084,4177312.0,4177547.0,236.0,236.0,2275.2,824.4000000000001,2249.0,1269.0,Animal_Sea_Solid_Small,27.42061074997764,33.43239924998488,4.0,Animal_Sea_Solid_Small,-7.0,,,,,,,,,,,
encoding,value,20,4173072,4179084,4177561.0,4179370.0,1810.0,1523.0,2261.7,767.0999999999999,2249.0,1269.0,Animal_Sea_Solid_Small,27.42061074997764,33.43239924998488,4.0,Animal_Sea_Solid_Small,-7.0,,,,,,,,,,,
encoding,attention,20,4179084,4182101,4179380.0,4179712.0,333.0,333.0,2187.0,797.8,2249.0,1269.0,Animal_Sea_Solid_Small,33.432509375037625,36.4497060830472,4.0,Animal_Sea_Solid_Small,-7.0,-7.0,1.0,0.981006250018254,,,,,,,,
encoding,attention,20,4179084,4182101,4179723.0,4179884.0,162.0,162.0,2254.0,819.5,2249.0,1269.0,Animal_Sea_Solid_Small,33.432509375037625,36.4497060830472,4.0,Animal_Sea_Solid_Small,-7.0,-7.0,1.0,0.981006250018254,,,,,,,,
encoding,attention,20,4179084,4182101,4180114.0,4180653.0,540.0,540.0,2207.3,804.0999999999999,2249.0,1269.0,Animal_Sea_Solid_Small,33.432509375037625,36.4497060830472,4.0,Animal_Sea_Solid_Small,-7.0,-7.0,1.0,0.981006250018254,,,,,,,,
encoding,attention,20,4179084,4182101,4180888.0,4181100.0,213.0,213.0,2052.7,881.7,2249.0,1269.0,Animal_Sea_Solid_Small,33.432509375037625,36.4497060830472,4.0,Animal_Sea_Solid_Small,-7.0,-7.0,1.0,0.981006250018254,,,,,,,,
encoding,attention,20,4179084,4182101,4181122.0,4181492.0,371.0,371.0,2203.5,834.0999999999999,2249.0,1269.0,Animal_Sea_Solid_Small,33.432509375037625,36.4497060830472,4.0,Animal_Sea_Solid_Small,-7.0,-7.0,1.0,0.981006250018254,,,,,,,,
encoding,attention,20,4179084,4182101,4181513.0,4182035.0,523.0,523.0,2036.0,939.5,2249.0,1269.0,Animal_Sea_Solid_Small,33.432509375037625,36.4497060830472,4.0,Animal_Sea_Solid_Small,-7.0,-7.0,1.0,0.981006250018254,,,,,,,,
encoding,fixation,21,4182101,4183607,4182346.0,4182592.0,247.0,247.0,1884.7,1118.8,1920.0,1080.0,fixation,36.449851499986835,37.95492195803672,4.0,Animal_Sea_Pattern_Small,7.0,,,,,,,,,,,
encoding,fixation,21,4182101,4183607,4182836.0,4183835.0,1000.0,771.0,1902.1,1112.3,1920.0,1080.0,fixation,36.449851499986835,37.95492195803672,4.0,Animal_Sea_Pattern_Small,7.0,,,,,,,,,,,
encoding,image,21,4183607,4184618,4183862.0,4184132.0,271.0,271.0,1859.6,1428.3,1920.0,700.0,Animal_Sea_Pattern_Small,37.95503395795822,38.96609308302868,4.0,Animal_Sea_Pattern_Small,7.0,,,,,,,,,,,
encoding,image,21,4183607,4184618,4184141.0,4184654.0,514.0,477.0,1906.5,1472.6,1920.0,700.0,Animal_Sea_Pattern_Small,37.95503395795822,38.96609308302868,4.0,Animal_Sea_Pattern_Small,7.0,,,,,,,,,,,
encoding,value,21,4184618,4190630,4184664.0,4184849.0,186.0,186.0,1877.3,1378.0,1920.0,700.0,Animal_Sea_Pattern_Small,38.96620237501338,44.97793204104528,4.0,Animal_Sea_Pattern_Small,7.0,,,,,,,,,,,
encoding,value,21,4184618,4190630,4184857.0,4185344.0,488.0,488.0,1902.5,1353.2,1920.0,700.0,Animal_Sea_Pattern_Small,38.96620237501338,44.97793204104528,4.0,Animal_Sea_Pattern_Small,7.0,,,,,,,,,,,
encoding,value,21,4184618,4190630,4185354.0,4185523.0,170.0,170.0,1933.0,1409.1,1920.0,700.0,Animal_Sea_Pattern_Small,38.96620237501338,44.97793204104528,4.0,Animal_Sea_Pattern_Small,7.0,,,,,,,,,,,
encoding,value,21,4184618,4190630,4185648.0,4185842.0,195.0,195.0,1899.5,1390.7,1920.0,700.0,Animal_Sea_Pattern_Small,38.96620237501338,44.97793204104528,4.0,Animal_Sea_Pattern_Small,7.0,,,,,,,,,,,
encoding,value,21,4184618,4190630,4185864.0,4186014.0,151.0,151.0,2109.2,1454.2,1920.0,700.0,Animal_Sea_Pattern_Small,38.96620237501338,44.97793204104528,4.0,Animal_Sea_Pattern_Small,7.0,,,,,,,,,,,
encoding,value,21,4184618,4190630,4186170.0,4186424.0,255.0,255.0,1929.8,1341.8,1920.0,700.0,Animal_Sea_Pattern_Small,38.96620237501338,44.97793204104528,4.0,Animal_Sea_Pattern_Small,7.0,,,,,,,,,,,
encoding,value,21,4184618,4190630,4186431.0,4186616.0,186.0,186.0,1885.0,1350.8,1920.0,700.0,Animal_Sea_Pattern_Small,38.96620237501338,44.97793204104528,4.0,Animal_Sea_Pattern_Small,7.0,,,,,,,,,,,
encoding,value,21,4184618,4190630,4186785.0,4187003.0,219.0,219.0,1877.1,1391.4,1920.0,700.0,Animal_Sea_Pattern_Small,38.96620237501338,44.97793204104528,4.0,Animal_Sea_Pattern_Small,7.0,,,,,,,,,,,
encoding,value,21,4184618,4190630,4187013.0,4187204.0,192.0,192.0,1888.0,1343.3,1920.0,700.0,Animal_Sea_Pattern_Small,38.96620237501338,44.97793204104528,4.0,Animal_Sea_Pattern_Small,7.0,,,,,,,,,,,
encoding,value,21,4184618,4190630,4187220.0,4187852.0,633.0,633.0,1880.3,1413.7,1920.0,700.0,Animal_Sea_Pattern_Small,38.96620237501338,44.97793204104528,4.0,Animal_Sea_Pattern_Small,7.0,,,,,,,,,,,
encoding,value,21,4184618,4190630,4188037.0,4188160.0,124.0,124.0,1878.6,1332.5,1920.0,700.0,Animal_Sea_Pattern_Small,38.96620237501338,44.97793204104528,4.0,Animal_Sea_Pattern_Small,7.0,,,,,,,,,,,
encoding,value,21,4184618,4190630,4188378.0,4190595.0,2218.0,2218.0,1868.0,1347.2,1920.0,700.0,Animal_Sea_Pattern_Small,38.96620237501338,44.97793204104528,4.0,Animal_Sea_Pattern_Small,7.0,,,,,,,,,,,
encoding,value,21,4184618,4190630,4190603.0,4191229.0,627.0,27.0,1860.1,1319.3,1920.0,700.0,Animal_Sea_Pattern_Small,38.96620237501338,44.97793204104528,4.0,Animal_Sea_Pattern_Small,7.0,,,,,,,,,,,
encoding,attention,21,4190630,4193651,4191435.0,4191920.0,486.0,486.0,1864.6,1343.4,1920.0,700.0,Animal_Sea_Pattern_Small,44.978058582986705,47.99848754098639,4.0,Animal_Sea_Pattern_Small,7.0,7.0,1.0,0.8122039589798078,,,,,,,,
encoding,attention,21,4190630,4193651,4191943.0,4192038.0,96.0,96.0,1970.9,1248.4,1920.0,700.0,Animal_Sea_Pattern_Small,44.978058582986705,47.99848754098639,4.0,Animal_Sea_Pattern_Small,7.0,7.0,1.0,0.8122039589798078,,,,,,,,
encoding,attention,21,4190630,4193651,4192309.0,4192424.0,116.0,116.0,1873.8,1302.6,1920.0,700.0,Animal_Sea_Pattern_Small,44.978058582986705,47.99848754098639,4.0,Animal_Sea_Pattern_Small,7.0,7.0,1.0,0.8122039589798078,,,,,,,,
encoding,attention,21,4190630,4193651,4192647.0,4192932.0,286.0,286.0,2012.8,1011.5999999999999,2249.0,1269.0,Animal_Sea_Solid_Small,44.978058582986705,47.99848754098639,4.0,Animal_Sea_Pattern_Small,7.0,7.0,1.0,0.8122039589798078,,,,,,,,
encoding,attention,21,4190630,4193651,4192956.0,4193149.0,194.0,194.0,1839.3,1223.8,1920.0,700.0,Animal_Sea_Pattern_Small,44.978058582986705,47.99848754098639,4.0,Animal_Sea_Pattern_Small,7.0,7.0,1.0,0.8122039589798078,,,,,,,,
encoding,attention,21,4190630,4193651,4193164.0,4193344.0,181.0,181.0,1889.5,1329.2,1920.0,700.0,Animal_Sea_Pattern_Small,44.978058582986705,47.99848754098639,4.0,Animal_Sea_Pattern_Small,7.0,7.0,1.0,0.8122039589798078,,,,,,,,
encoding,fixation,22,4193651,4195156,4194076.0,4194589.0,514.0,514.0,1933.9,1079.4,1920.0,1080.0,fixation,47.99865166598465,49.503792500006966,4.0,Object_Land_Pattern_Small,-2.0,,,,,,,,,,,
encoding,fixation,22,4193651,4195156,4194822.0,4195441.0,620.0,334.0,1905.7,1190.0,1920.0,700.0,Animal_Sea_Pattern_Small,47.99865166598465,49.503792500006966,4.0,Object_Land_Pattern_Small,-2.0,,,,,,,,,,,
encoding,image,22,4195156,4196168,4195481.0,4195652.0,172.0,172.0,1609.0,926.2,1591.0,1269.0,Object_Land_Pattern_Small,49.50389912503306,50.51539108296856,4.0,Object_Land_Pattern_Small,-2.0,,,,,,,,,,,
encoding,value,22,4196168,4202179,4196224.0,4196740.0,517.0,517.0,1567.9,825.2,1591.0,1269.0,Object_Land_Pattern_Small,50.51550837501418,56.52686670795083,4.0,Object_Land_Pattern_Small,-2.0,,,,,,,,,,,
encoding,value,22,4196168,4202179,4196997.0,4197222.0,226.0,226.0,1622.1,930.2,1591.0,1269.0,Object_Land_Pattern_Small,50.51550837501418,56.52686670795083,4.0,Object_Land_Pattern_Small,-2.0,,,,,,,,,,,
encoding,value,22,4196168,4202179,4197248.0,4197549.0,302.0,302.0,1852.4,1097.4,1920.0,1080.0,fixation,50.51550837501418,56.52686670795083,4.0,Object_Land_Pattern_Small,-2.0,,,,,,,,,,,
encoding,value,22,4196168,4202179,4197566.0,4197838.0,273.0,273.0,1883.2,1168.1,1920.0,700.0,Animal_Sea_Pattern_Small,50.51550837501418,56.52686670795083,4.0,Object_Land_Pattern_Small,-2.0,,,,,,,,,,,
encoding,value,22,4196168,4202179,4198090.0,4198612.0,523.0,523.0,1860.9,1005.7,1591.0,1269.0,Object_Land_Pattern_Small,50.51550837501418,56.52686670795083,4.0,Object_Land_Pattern_Small,-2.0,,,,,,,,,,,
encoding,value,22,4196168,4202179,4198634.0,4198695.0,62.0,62.0,1675.1,966.5,1591.0,1269.0,Object_Land_Pattern_Small,50.51550837501418,56.52686670795083,4.0,Object_Land_Pattern_Small,-2.0,,,,,,,,,,,
encoding,value,22,4196168,4202179,4198705.0,4198744.0,40.0,40.0,1698.2,950.0999999999999,1591.0,1269.0,Object_Land_Pattern_Small,50.51550837501418,56.52686670795083,4.0,Object_Land_Pattern_Small,-2.0,,,,,,,,,,,
encoding,value,22,4196168,4202179,4198758.0,4198779.0,22.0,22.0,1695.9,957.7,1591.0,1269.0,Object_Land_Pattern_Small,50.51550837501418,56.52686670795083,4.0,Object_Land_Pattern_Small,-2.0,,,,,,,,,,,
encoding,value,22,4196168,4202179,4198841.0,4199203.0,363.0,363.0,1606.0,827.0999999999999,1591.0,1269.0,Object_Land_Pattern_Small,50.51550837501418,56.52686670795083,4.0,Object_Land_Pattern_Small,-2.0,,,,,,,,,,,
encoding,value,22,4196168,4202179,4199467.0,4199654.0,188.0,188.0,1582.7,850.8,1591.0,1269.0,Object_Land_Pattern_Small,50.51550837501418,56.52686670795083,4.0,Object_Land_Pattern_Small,-2.0,,,,,,,,,,,
encoding,value,22,4196168,4202179,4199951.0,4200493.0,543.0,543.0,1574.7,853.2,1591.0,1269.0,Object_Land_Pattern_Small,50.51550837501418,56.52686670795083,4.0,Object_Land_Pattern_Small,-2.0,,,,,,,,,,,
encoding,value,22,4196168,4202179,4200510.0,4200571.0,62.0,62.0,1553.3,879.0999999999999,1591.0,1269.0,Object_Land_Pattern_Small,50.51550837501418,56.52686670795083,4.0,Object_Land_Pattern_Small,-2.0,,,,,,,,,,,
encoding,value,22,4196168,4202179,4200584.0,4201118.0,535.0,535.0,1570.6,881.0,1591.0,1269.0,Object_Land_Pattern_Small,50.51550837501418,56.52686670795083,4.0,Object_Land_Pattern_Small,-2.0,,,,,,,,,,,
encoding,value,22,4196168,4202179,4201135.0,4201413.0,279.0,279.0,1583.5,891.5999999999999,1591.0,1269.0,Object_Land_Pattern_Small,50.51550837501418,56.52686670795083,4.0,Object_Land_Pattern_Small,-2.0,,,,,,,,,,,
encoding,value,22,4196168,4202179,4201491.0,4201545.0,55.0,55.0,1592.1,881.4000000000001,1591.0,1269.0,Object_Land_Pattern_Small,50.51550837501418,56.52686670795083,4.0,Object_Land_Pattern_Small,-2.0,,,,,,,,,,,
encoding,value,22,4196168,4202179,4201614.0,4202440.0,827.0,565.0,1578.2,879.5999999999999,1591.0,1269.0,Object_Land_Pattern_Small,50.51550837501418,56.52686670795083,4.0,Object_Land_Pattern_Small,-2.0,,,,,,,,,,,
encoding,attention,22,4202179,4205198,4202641.0,4202687.0,47.0,47.0,1580.5,741.4000000000001,1591.0,1269.0,Object_Land_Pattern_Small,56.52699254103936,59.54489324998576,4.0,Object_Land_Pattern_Small,-2.0,-2.0,1.0,1.531820375006646,,,,,,,,
