phase,event,onset,offset,trial_number,game,image,outcome,choice,correct,rt,letter,match,response,option,true_value,true_position,recalled_position,
encoding,fixation,33.3067020829767,34.81715912499931,1,1,Object_Land_Solid_Large,-7,,,,,,,,,,,
encoding,image,34.817289417027496,35.83279558294453,1,1,Object_Land_Solid_Large,-7,,,,,,,,,,,
encoding,value,35.832901041954756,41.84637174999807,1,1,Object_Land_Solid_Large,-7,,,,,,,,,,,
encoding,attention,41.84650237497408,44.863337166956626,1,1,Object_Land_Solid_Large,-7,-7,1,1.601038542110473,,,,,,,,
encoding,fixation,44.86354004195891,46.368578249937855,2,1,Animal_Sea_Solid_Small,-3,,,,,,,,,,,
encoding,image,46.368686291971244,47.37946824997198,2,1,Animal_Sea_Solid_Small,-3,,,,,,,,,,,
encoding,value,47.37958954193164,53.39156133297365,2,1,Animal_Sea_Solid_Small,-3,,,,,,,,,,,
encoding,attention,53.39168841694482,56.4089404999977,2,1,Animal_Sea_Solid_Small,-3,-3,1,0.9568065840285271,,,,,,,,
encoding,fixation,56.40910229203291,57.9141834579641,3,1,Animal_Sea_Solid_Large,6,,,,,,,,,,,
encoding,image,57.914294666959904,58.92720054194797,3,1,Animal_Sea_Solid_Large,6,,,,,,,,,,,
encoding,value,58.92730708303861,64.93939766695257,3,1,Animal_Sea_Solid_Large,6,,,,,,,,,,,
encoding,attention,64.93952016695403,67.95793441694696,3,1,Animal_Sea_Solid_Large,6,+6,1,0.8504655419383198,,,,,,,,
encoding,fixation,67.9580960420426,68.71300958294887,4,1,Object_Land_Pattern_Large,2,,,,,,,,,,,
encoding,image,68.71311937493738,69.72439537500031,4,1,Object_Land_Pattern_Large,2,,,,,,,,,,,
encoding,value,69.72452833293937,75.73713979194872,4,1,Object_Land_Pattern_Large,2,,,,,,,,,,,
encoding,attention,75.73726879199967,78.75472545798402,4,1,Object_Land_Pattern_Large,2,+2,1,0.8302235830342397,,,,,,,,
encoding,fixation,78.75492824998219,80.01030387496576,5,1,Animal_Sea_Pattern_Small,-1,,,,,,,,,,,
encoding,image,80.0104256250197,81.02164841699414,5,1,Animal_Sea_Pattern_Small,-1,,,,,,,,,,,
encoding,value,81.0217549999943,87.0336256249575,5,1,Animal_Sea_Pattern_Small,-1,,,,,,,,,,,
encoding,attention,87.03376141702756,90.08481816702988,5,1,Animal_Sea_Pattern_Small,-1,-1,1,1.0035566670121625,,,,,,,,
encoding,fixation,90.08504687494133,90.59016916702967,6,1,Object_Land_Pattern_Small,3,,,,,,,,,,,
encoding,image,90.59027649997734,91.60126320796553,6,1,Object_Land_Pattern_Small,3,,,,,,,,,,,
encoding,value,91.60137079202104,97.61283370794263,6,1,Object_Land_Pattern_Small,3,,,,,,,,,,,
encoding,attention,97.61294854199514,100.63192787498701,6,1,Object_Land_Pattern_Small,3,+3,1,0.8671149589354172,,,,,,,,
n-back,,,,1,1,,,,1,None,N,False,None,,,,,
n-back,,,,2,1,,,,0,None,X,True,None,,,,,
n-back,,,,3,1,,,,1,None,V,False,None,,,,,
n-back,,,,4,1,,,,1,None,N,False,None,,,,,
n-back,,,,5,1,,,,1,1.2691101249074563,V,True,1,,,,,
n-back,,,,6,1,,,,1,None,V,False,None,,,,,
n-back,,,,7,1,,,,1,None,X,False,None,,,,,
n-back,,,,8,1,,,,1,None,C,False,None,,,,,
n-back,,,,9,1,,,,1,None,V,False,None,,,,,
n-back,,,,10,1,,,,1,None,Z,False,None,,,,,
n-back,,,,11,1,,,,0,None,V,True,None,,,,,
n-back,,,,12,1,,,,1,None,X,False,None,,,,,
n-back,,,,13,1,,,,1,None,X,False,None,,,,,
n-back,,,,14,1,,,,1,None,B,False,None,,,,,
n-back,,,,15,1,,,,0,None,X,True,None,,,,,
n-back,,,,16,1,,,,0,1.4395858329953626,C,False,1,,,,,
n-back,,,,17,1,,,,1,None,N,False,None,,,,,
n-back,,,,18,1,,,,1,None,B,False,None,,,,,
n-back,,,,19,1,,,,1,None,B,False,None,,,,,
n-back,,,,20,1,,,,1,None,Z,False,None,,,,,
n-back,,,,21,1,,,,1,0.7764918750617653,B,True,1,,,,,
n-back,,,,22,1,,,,1,0.7580501670017838,Z,True,1,,,,,
n-back,,,,23,1,,,,1,0.788457041955553,B,True,1,,,,,
n-back,,,,24,1,,,,1,None,B,False,None,,,,,
n-back,,,,25,1,,,,1,None,C,False,None,,,,,
n-back,,,,26,1,,,,1,None,N,False,None,,,,,
n-back,,,,27,1,,,,1,0.5863060409901664,C,True,1,,,,,
n-back,,,,28,1,,,,1,None,B,False,None,,,,,
n-back,,,,29,1,,,,0,None,C,True,None,,,,,
n-back,,,,30,1,,,,1,0.4022099160356447,B,True,1,,,,,
choice,fixation,216.22810354200192,216.98428700002842,1,1,,,,,,,,,Small,,,,
choice,option,216.99365083302837,218.10194233304355,1,1,,,,,,,,,Small,,,,
choice,choice,218.1020580829354,255.5214517499553,1,1,,,2,1,36.40852645796258,,,,Small,,,,
choice,fixation,255.5215951249702,256.02664854202885,2,1,,,,,,,,,Object,,,,
choice,option,256.03648170793895,257.06434079201426,2,1,,,,,,,,,Object,,,,
choice,choice,257.0644599170191,264.425080541987,2,1,,,2,1,6.3512243329314515,,,,Object,,,,
choice,fixation,264.4252264579991,264.93005062500015,3,1,,,,,,,,,Sea,,,,
choice,option,264.93847154197283,265.9658923749812,3,1,,,,,,,,,Sea,,,,
choice,choice,265.966019332991,328.13682258303743,3,1,,,2,0,61.159803041955456,,,,Sea,,,,
choice,fixation,328.1369514169637,328.8920034170151,4,1,,,,,,,,,Large,,,,
choice,option,328.9008798330324,329.9277769170003,4,1,,,,,,,,,Large,,,,
choice,choice,329.92789287504274,357.70674358296674,4,1,,,1,1,26.768211083021015,,,,Large,,,,
choice,fixation,357.70686833304353,358.71180799999274,5,1,,,,,,,,,Pattern,,,,
choice,option,358.72129945794586,359.7489202079596,5,1,,,,,,,,,Pattern,,,,
choice,choice,359.7490497500403,406.44243545795325,5,1,,,1,1,45.682613332988694,,,,Pattern,,,,
choice,fixation,406.44256600004155,407.6975624579936,6,1,,,,,,,,,Animal,,,,
choice,option,407.7071139999898,408.73473987495527,6,1,,,,,,,,,Animal,,,,
choice,choice,408.7348870829446,414.3200982080307,6,1,,,2,0,4.575419208034873,,,,Animal,,,,
choice,fixation,414.3202167919371,415.07753895793576,7,1,,,,,,,,,Land,,,,
choice,option,415.0863001670223,416.11364029196557,7,1,,,,,,,,,Land,,,,
choice,choice,416.11378529202193,428.457489082939,7,1,,,1,0,11.33304287493229,,,,Land,,,,
choice,fixation,428.45761375001166,429.71263099997304,8,1,,,,,,,,,Solid,,,,
choice,option,429.72202350001317,430.7490054999944,8,1,,,,,,,,,Solid,,,,
choice,choice,430.7491973330034,433.608536542044,8,1,,,2,1,1.8497514999471605,,,,Solid,,,,
memory,free_recall,491.9067667500349,519.8910316249821,0,1,,,,,,,,,,,,,
memory,value_recall,566.8964936670382,573.9802499579964,1,1,Object_Land_Pattern_Large,,,,7.0796413329662755,,,,,2,,,
memory,value_recall,576.0274266670458,580.8195805830183,2,1,Animal_Sea_Pattern_Small,,,,4.787854666006751,,,,,-1,,,
memory,value_recall,582.617454332998,588.5950831669616,3,1,Object_Land_Solid_Large,,,,5.973682833020575,,,,,-7,,,
memory,value_recall,589.642587875016,593.3472011249978,4,1,Animal_Sea_Solid_Large,,,,3.7012853329069912,,,,,6,,,
memory,value_recall,594.6430954580428,601.9315236669499,5,1,Animal_Sea_Solid_Small,,,,7.283837791997939,,,,,-3,,,
memory,value_recall,603.2277624999406,609.2681382499868,6,1,Object_Land_Pattern_Small,,,,6.036114000016823,,,,,3,,,
memory,spatial_recall,629.800174916978,633.433657333022,6,1,Object_Land_Pattern_Small,,,1,3.629434874979779,,,,,,"[-329, -190]","[-329, -190]",
memory,spatial_recall,634.9962871669559,641.3987267919583,6,1,Animal_Sea_Solid_Large,,,1,6.398399999947287,,,,,,"[0, -380]","[0, -380]",
memory,spatial_recall,642.7203632920282,645.1294257079717,6,1,Object_Land_Pattern_Large,,,1,2.4033743750769645,,,,,,"[-329, 190]","[-329, 190]",
memory,spatial_recall,646.4357448749943,649.1961973749567,6,1,Animal_Sea_Pattern_Small,,,1,2.7563455840572715,,,,,,"[0, 380]","[0, 380]",
memory,spatial_recall,651.2491237500217,653.2461070419522,6,1,Object_Land_Solid_Large,,,1,1.9927481670165434,,,,,,"[329, 189]","[329, 189]",
memory,spatial_recall,654.3016041249502,656.8997923330171,6,1,Animal_Sea_Solid_Small,,,1,2.5943622500635684,,,,,,"[329, -190]","[329, -190]",
encoding,fixation,8.11253670800943,9.617738666012883,7,2,Animal_Sea_Pattern_Large,2,,,,,,,,,,,
encoding,image,9.617862540995702,10.628765208064578,7,2,Animal_Sea_Pattern_Large,2,,,,,,,,,,,
encoding,value,10.628882333054207,16.641636125044897,7,2,Animal_Sea_Pattern_Large,2,,,,,,,,,,,
encoding,attention,16.641759833088145,19.65882595803123,7,2,Animal_Sea_Pattern_Large,2,+2,1,0.9703773750225082,,,,,,,,
encoding,fixation,19.658993749995716,20.164593624998815,8,2,Animal_Land_Solid_Small,4,,,,,,,,,,,
encoding,image,20.164717208012007,21.176340916077606,8,2,Animal_Land_Solid_Small,4,,,,,,,,,,,
encoding,value,21.17646554100793,27.187778833089396,8,2,Animal_Land_Solid_Small,4,,,,,,,,,,,
encoding,attention,27.187903625075705,30.20473162503913,8,2,Animal_Land_Solid_Small,4,+4,1,2.67394366604276,,,,,,,,
encoding,fixation,30.204901250079274,30.709735915996134,9,2,Object_Sea_Pattern_Large,1,,,,,,,,,,,
encoding,image,30.709881750051863,31.719959791051224,9,2,Object_Sea_Pattern_Large,1,,,,,,,,,,,
encoding,value,31.720072750002146,37.73278875008691,9,2,Object_Sea_Pattern_Large,1,,,,,,,,,,,
encoding,attention,37.732896291068755,40.75076904101297,9,2,Object_Sea_Pattern_Large,1,+1,1,1.9523927080444992,,,,,,,,
encoding,fixation,40.75100729102269,42.256000332999974,10,2,Animal_Land_Solid_Large,-4,,,,,,,,,,,
encoding,image,42.25611616601236,43.26965825003572,10,2,Animal_Land_Solid_Large,-4,,,,,,,,,,,
encoding,value,43.26979383302387,49.28181195806246,10,2,Animal_Land_Solid_Large,-4,,,,,,,,,,,
encoding,attention,49.281926416093484,52.29963166604284,10,2,Animal_Land_Solid_Large,-4,-4,1,2.129273333004676,,,,,,,,
encoding,fixation,52.29980266606435,53.30477875005454,11,2,Object_Sea_Pattern_Small,-4,,,,,,,,,,,
encoding,image,53.30489358305931,54.31517104106024,11,2,Object_Sea_Pattern_Small,-4,,,,,,,,,,,
encoding,value,54.315296333050355,60.326747165992856,11,2,Object_Sea_Pattern_Small,-4,,,,,,,,,,,
encoding,attention,60.32686020806432,63.3435461249901,11,2,Object_Sea_Pattern_Small,-4,-4,1,1.045868624933064,,,,,,,,
encoding,fixation,63.343703250051476,63.84861170803197,12,2,Object_Land_Solid_Small,-4,,,,,,,,,,,
encoding,image,63.84873891598545,64.85975070798304,12,2,Object_Land_Solid_Small,-4,,,,,,,,,,,
encoding,value,64.859864500002,70.87127266603056,12,2,Object_Land_Solid_Small,-4,,,,,,,,,,,
encoding,attention,70.87138087500352,73.88991541601717,12,2,Object_Land_Solid_Small,-4,-4,1,1.2600736670428887,,,,,,,,
n-back,,,,31,2,,,,0,None,V,True,None,,,,,
n-back,,,,32,2,,,,1,None,B,False,None,,,,,
n-back,,,,33,2,,,,1,None,B,False,None,,,,,
n-back,,,,34,2,,,,1,None,V,False,None,,,,,
n-back,,,,35,2,,,,1,None,Z,False,None,,,,,
n-back,,,,36,2,,,,1,None,Z,False,None,,,,,
n-back,,,,37,2,,,,1,None,V,False,None,,,,,
n-back,,,,38,2,,,,1,None,C,False,None,,,,,
n-back,,,,39,2,,,,1,None,X,False,None,,,,,
n-back,,,,40,2,,,,1,None,Z,False,None,,,,,
n-back,,,,41,2,,,,1,None,B,False,None,,,,,
n-back,,,,42,2,,,,1,None,N,False,None,,,,,
n-back,,,,43,2,,,,1,0.6173910830402747,B,True,1,,,,,
n-back,,,,44,2,,,,1,None,B,False,None,,,,,
n-back,,,,45,2,,,,0,None,B,True,None,,,,,
n-back,,,,46,2,,,,1,0.43588729191105813,B,True,1,,,,,
n-back,,,,47,2,,,,1,None,N,False,None,,,,,
n-back,,,,48,2,,,,1,None,X,False,None,,,,,
n-back,,,,49,2,,,,1,0.5810767080402002,N,True,1,,,,,
n-back,,,,50,2,,,,1,None,Z,False,None,,,,,
n-back,,,,51,2,,,,1,None,Z,False,None,,,,,
n-back,,,,52,2,,,,1,None,N,False,None,,,,,
n-back,,,,53,2,,,,1,0.46048841695301235,Z,True,1,,,,,
n-back,,,,54,2,,,,1,1.0394612500676885,N,True,1,,,,,
n-back,,,,55,2,,,,1,None,X,False,None,,,,,
n-back,,,,56,2,,,,1,1.2567505000624806,N,True,1,,,,,
n-back,,,,57,2,,,,0,None,X,True,None,,,,,
n-back,,,,58,2,,,,1,None,X,False,None,,,,,
n-back,,,,59,2,,,,1,0.5430487500270829,X,True,1,,,,,
n-back,,,,60,2,,,,1,None,N,False,None,,,,,
choice,fixation,155.6380467499839,156.89136816607788,9,2,,,,,,,,,Sea,,,,
choice,option,156.89991054101847,157.92720854107756,9,2,,,,,,,,,Sea,,,,
choice,choice,157.92733258299995,166.01018824998755,9,2,,,2,1,7.0729508340591565,,,,Sea,,,,
choice,fixation,166.01032133307308,167.51539604109712,10,2,,,,,,,,,Object,,,,
choice,option,167.52484279102646,168.5532009160379,10,2,,,,,,,,,Object,,,,
choice,choice,168.55331200000364,182.06313908309676,10,2,,,2,1,12.499216625001281,,,,Object,,,,
choice,fixation,182.06326812505722,183.31828170805238,11,2,,,,,,,,,Small,,,,
choice,option,183.32724474999122,184.35402333305683,11,2,,,,,,,,,Small,,,,
choice,choice,184.35413804103155,217.07192229107022,11,2,,,2,1,31.707161916885525,,,,Small,,,,
choice,fixation,217.07206333300564,218.0771044160938,12,2,,,,,,,,,Large,,,,
choice,option,218.08598766603973,219.11266716604587,12,2,,,,,,,,,Large,,,,
choice,choice,219.11278237507213,249.9424725000281,12,2,,,1,0,29.81889737502206,,,,Large,,,,
choice,fixation,249.94260637508705,251.1977907080436,13,2,,,,,,,,,Pattern,,,,
choice,option,251.20719099999405,252.2334990000818,13,2,,,,,,,,,Pattern,,,,
choice,choice,252.2336090829922,267.5042855000356,13,2,,,1,0,14.259572041919455,,,,Pattern,,,,
choice,fixation,267.5044117500074,268.00940662506036,14,2,,,,,,,,,Land,,,,
choice,option,268.0183017910458,269.04507220804226,14,2,,,,,,,,,Land,,,,
choice,choice,269.0451959160855,280.7279678750783,14,2,,,2,1,10.671904999995604,,,,Land,,,,
choice,fixation,280.72808675002307,281.2331442499999,15,2,,,,,,,,,Animal,,,,
choice,option,281.24289570807014,282.2703501660144,15,2,,,,,,,,,Animal,,,,
choice,choice,282.27050862507895,314.4797583750915,15,2,,,1,1,31.198161417036317,,,,Animal,,,,
choice,fixation,314.4799432500731,315.73714979109354,16,2,,,,,,,,,Solid,,,,
choice,option,315.74659637501463,316.77287262503523,16,2,,,,,,,,,Solid,,,,
choice,choice,316.77298075007275,329.5097971659852,16,2,,,2,1,11.725999666959979,,,,Solid,,,,
memory,free_recall,350.37740570807364,375.209382541012,6,2,,,,,,,,,,,,,
memory,value_recall,401.8427630410297,405.60074537503533,7,2,Animal_Land_Solid_Large,,,,3.7539475000230595,,,,,-4,,,
memory,value_recall,407.3964720000513,417.00905250001233,8,2,Animal_Land_Solid_Small,,,,9.606449207989499,,,,,4,,,
memory,value_recall,418.30563437507953,421.03182479098905,9,2,Object_Sea_Pattern_Small,,,,2.7220800410723314,,,,,-4,,,
memory,value_recall,422.82831495802384,427.2968608750962,10,2,Animal_Sea_Pattern_Large,,,,4.464497625012882,,,,,2,,,
memory,value_recall,429.34494991600513,438.2878063330427,11,2,Object_Sea_Pattern_Large,,,,8.93868620810099,,,,,1,,,
memory,value_recall,440.0850554580102,442.1928907079855,12,2,Object_Land_Solid_Small,,,,2.1037903340766206,,,,,-4,,,
memory,spatial_recall,458.7602812499972,460.1896247500554,12,2,Animal_Land_Solid_Large,,,1,1.4254069160670042,,,,,,"[0, 380]","[0, 380]",
memory,spatial_recall,461.4887171660084,462.66055083309766,12,2,Object_Sea_Pattern_Small,,,1,1.1678959579439834,,,,,,"[329, -190]","[329, -190]",
memory,spatial_recall,464.4743411249947,465.98720904102083,12,2,Object_Land_Solid_Small,,,1,1.5089961249614134,,,,,,"[-329, 190]","[-329, 190]",
memory,spatial_recall,467.0326013750164,470.3940896249842,12,2,Animal_Sea_Pattern_Large,,,1,3.3576594999758527,,,,,,"[-329, -190]","[-329, -190]",
memory,spatial_recall,471.70593366608955,472.8398618750507,12,2,Object_Sea_Pattern_Large,,,1,1.129959125071764,,,,,,"[329, 189]","[329, 189]",
memory,spatial_recall,474.64638729102444,475.90950920805335,12,2,Animal_Land_Solid_Small,,,1,1.2562466250965372,,,,,,"[0, -380]","[0, -380]",
encoding,fixation,10.563533750013448,12.068790042074397,13,3,Animal_Sea_Pattern_Large,4,,,,,,,,,,,
encoding,image,12.068958958028816,13.081185750081204,13,3,Animal_Sea_Pattern_Large,4,,,,,,,,,,,
encoding,value,13.08130349998828,19.09384125005454,13,3,Animal_Sea_Pattern_Large,4,,,,,,,,,,,
encoding,attention,19.093972042086534,22.111860583070666,13,3,Animal_Sea_Pattern_Large,4,+4,1,2.185841166996397,,,,,,,,
encoding,fixation,22.11203012499027,22.617088917060755,14,3,Object_Sea_Solid_Small,-1,,,,,,,,,,,
encoding,image,22.617198541993275,23.627644082996994,14,3,Object_Sea_Solid_Small,-1,,,,,,,,,,,
encoding,value,23.62775787501596,29.63927166699432,14,3,Object_Sea_Solid_Small,-1,,,,,,,,,,,
encoding,attention,29.639402833068743,32.656158125028014,14,3,Object_Sea_Solid_Small,-1,-1,1,2.7522113339509815,,,,,,,,
encoding,fixation,32.656305417069234,33.91112737508956,15,3,Object_Sea_Solid_Large,-4,,,,,,,,,,,
encoding,image,33.911262208013795,34.92397691705264,15,3,Object_Sea_Solid_Large,-4,,,,,,,,,,,
encoding,value,34.92408800008707,40.935921500087716,15,3,Object_Sea_Solid_Large,-4,,,,,,,,,,,
encoding,attention,40.93607054208405,43.95669095800258,15,3,Object_Sea_Solid_Large,-4,-4,1,2.558563290978782,,,,,,,,
encoding,fixation,43.9568525000941,44.711835292051546,16,3,Animal_Land_Pattern_Small,-6,,,,,,,,,,,
encoding,image,44.711942375055514,45.72240629198495,16,3,Animal_Land_Pattern_Small,-6,,,,,,,,,,,
encoding,value,45.72256208304316,51.73437925009057,16,3,Animal_Land_Pattern_Small,-6,,,,,,,,,,,
encoding,attention,51.734498333069496,54.74820587504655,16,3,Animal_Land_Pattern_Small,-6,None,None,None,,,,,,,,
encoding,fixation,54.74832579202484,56.25324700004421,17,3,Object_Land_Solid_Small,9,,,,,,,,,,,
encoding,image,56.25335683301091,57.264619958004914,17,3,Object_Land_Solid_Small,9,,,,,,,,,,,
encoding,value,57.26473437505774,63.27602733299136,17,3,Object_Land_Solid_Small,9,,,,,,,,,,,
encoding,attention,63.276138375047594,66.29364283301402,17,3,Object_Land_Solid_Small,9,+9,1,0.7567785000428557,,,,,,,,
encoding,fixation,66.29379904200323,67.5488593330374,18,3,Animal_Land_Pattern_Large,3,,,,,,,,,,,
encoding,image,67.54895716707688,68.56073458306491,18,3,Animal_Land_Pattern_Large,3,,,,,,,,,,,
encoding,value,68.56085212505423,74.5724320000736,18,3,Animal_Land_Pattern_Large,3,,,,,,,,,,,
encoding,attention,74.57255954202265,77.58995933306869,18,3,Animal_Land_Pattern_Large,3,+3,1,1.874591749976389,,,,,,,,
n-back,,,,61,3,,,,1,None,Z,False,None,,,,,
n-back,,,,62,3,,,,0,None,C,True,None,,,,,
n-back,,,,63,3,,,,1,None,C,False,None,,,,,
n-back,,,,64,3,,,,1,0.6433223340427503,C,True,1,,,,,
n-back,,,,65,3,,,,1,0.9085521659580991,C,True,1,,,,,
n-back,,,,66,3,,,,1,None,Z,False,None,,,,,
n-back,,,,67,3,,,,1,None,B,False,None,,,,,
n-back,,,,68,3,,,,1,None,C,False,None,,,,,
n-back,,,,69,3,,,,1,None,N,False,None,,,,,
n-back,,,,70,3,,,,1,None,N,False,None,,,,,
n-back,,,,71,3,,,,1,None,C,False,None,,,,,
n-back,,,,72,3,,,,1,None,C,False,None,,,,,
n-back,,,,73,3,,,,1,None,V,False,None,,,,,
n-back,,,,74,3,,,,1,None,X,False,None,,,,,
n-back,,,,75,3,,,,1,None,Z,False,None,,,,,
n-back,,,,76,3,,,,1,None,C,False,None,,,,,
n-back,,,,77,3,,,,1,0.5904253750341013,Z,True,1,,,,,
n-back,,,,78,3,,,,1,0.8428858750266954,C,True,1,,,,,
n-back,,,,79,3,,,,1,None,V,False,None,,,,,
n-back,,,,80,3,,,,1,None,Z,False,None,,,,,
n-back,,,,81,3,,,,1,0.4521752910222858,V,True,1,,,,,
n-back,,,,82,3,,,,1,None,V,False,None,,,,,
n-back,,,,83,3,,,,1,None,Z,False,None,,,,,
n-back,,,,84,3,,,,1,None,N,False,None,,,,,
n-back,,,,85,3,,,,0,None,Z,True,None,,,,,
n-back,,,,86,3,,,,1,None,Z,False,None,,,,,
n-back,,,,87,3,,,,1,0.3991242080228403,Z,True,1,,,,,
n-back,,,,88,3,,,,1,0.7664217919809744,Z,True,1,,,,,
n-back,,,,89,3,,,,1,0.47529754193965346,Z,True,1,,,,,
n-back,,,,90,3,,,,1,None,B,False,None,,,,,
choice,fixation,156.40027662506327,157.9036639999831,17,3,,,,,,,,,Solid,,,,
choice,option,157.91306308307685,158.9403953750152,17,3,,,,,,,,,Solid,,,,
choice,choice,158.94050829205662,196.9217513750773,17,3,,,1,1,36.96781354106497,,,,Solid,,,,
choice,fixation,196.92188300006092,197.9269397080643,18,3,,,,,,,,,Pattern,,,,
choice,option,197.93596283299848,198.96244750008918,18,3,,,,,,,,,Pattern,,,,
choice,choice,198.96265266707633,210.4247843330959,18,3,,,1,1,10.451914958888665,,,,Pattern,,,,
choice,fixation,210.42490583308972,211.67995025007986,19,3,,,,,,,,,Large,,,,
choice,option,211.6888775830157,212.71610795799643,19,3,,,,,,,,,Large,,,,
choice,choice,212.71622633305378,226.5546231670305,19,3,,,2,0,12.827501707943156,,,,Large,,,,
choice,fixation,226.55475600005593,227.3097702920204,20,3,,,,,,,,,Object,,,,
choice,option,227.3193455830915,228.347736292053,20,3,,,,,,,,,Object,,,,
choice,choice,228.34788595803548,255.3933397079818,20,3,,,1,1,26.03446949995123,,,,Object,,,,
choice,fixation,255.39353566698264,256.3984501250088,21,3,,,,,,,,,Sea,,,,
choice,option,256.40712658304255,257.4339103330858,21,3,,,,,,,,,Sea,,,,
choice,choice,257.4340873330366,263.2083925000625,21,3,,,2,1,4.764671207987703,,,,Sea,,,,
choice,fixation,263.2085128329927,264.46357779204845,22,3,,,,,,,,,Animal,,,,
choice,option,264.47301558300387,265.4998867500108,22,3,,,,,,,,,Animal,,,,
choice,choice,265.4999889580067,280.5924951250199,22,3,,,1,1,14.081840667058714,,,,Animal,,,,
choice,fixation,280.592622791999,281.09773641708307,23,3,,,,,,,,,Land,,,,
choice,option,281.10621450003237,282.13218454201706,23,3,,,,,,,,,Land,,,,
choice,choice,282.1322919999948,299.7380382079864,23,3,,,1,1,16.594895457965322,,,,Land,,,,
choice,fixation,299.7382415829925,300.2432888330659,24,3,,,,,,,,,Small,,,,
choice,option,300.25263904198073,301.2791877500713,24,3,,,,,,,,,Small,,,,
choice,choice,301.2793240000028,315.3695958330063,24,3,,,1,1,13.079513208009303,,,,Small,,,,
memory,free_recall,332.88185662508477,366.0819447080139,12,3,,,,,,,,,,,,,
memory,value_recall,406.9970231670886,413.85039308306295,13,3,Animal_Land_Pattern_Large,,,,6.849242124939337,,,,,3,,,
memory,value_recall,415.89861004205886,423.0984789580107,14,3,Object_Land_Solid_Small,,,,7.195870500057936,,,,,9,,,
memory,value_recall,424.14444533304777,429.7481554580154,15,3,Animal_Land_Pattern_Small,,,,5.6011230000294745,,,,,-6,,,
memory,value_recall,430.7949137920514,436.45152479200624,16,3,Object_Sea_Solid_Large,,,,5.654122916981578,,,,,-4,,,
memory,value_recall,438.24837899999693,444.4340484580025,17,3,Object_Sea_Solid_Small,,,,6.181510834023356,,,,,-1,,,
memory,value_recall,446.4796653330559,450.89901175000705,18,3,Animal_Sea_Pattern_Large,,,,4.4145751249743626,,,,,4,,,
memory,spatial_recall,455.7737522079842,458.47047854203265,18,3,Animal_Land_Pattern_Small,,,1,2.6927194169256836,,,,,,"[329, 189]","[329, 189]",
memory,spatial_recall,459.7848454170162,461.2152478330536,18,3,Animal_Sea_Pattern_Large,,,1,1.426420290954411,,,,,,"[-329, -190]","[-329, -190]",
memory,spatial_recall,462.52178312500473,464.3704165830277,18,3,Object_Land_Solid_Small,,,1,1.8447350829374045,,,,,,"[-329, 190]","[-329, 190]",
memory,spatial_recall,465.6788855830673,471.6708123330027,18,3,Object_Sea_Solid_Small,,,1,5.988133875071071,,,,,,"[0, -380]","[0, -380]",
memory,spatial_recall,473.7323940830538,477.364005542011,18,3,Animal_Land_Pattern_Large,,,1,3.6274329170119017,,,,,,"[329, -190]","[329, -190]",
memory,spatial_recall,478.67224004201125,481.0167430420406,18,3,Object_Sea_Solid_Large,,,1,2.3403656251030043,,,,,,"[0, 380]","[0, 380]",
encoding,fixation,14.60468641598709,15.610316041042097,19,4,Animal_Sea_Solid_Large,7,,,,,,,,,,,
encoding,image,15.610421290970407,16.622444416047074,19,4,Animal_Sea_Solid_Large,7,,,,,,,,,,,
encoding,value,16.62257270794362,22.63571858301293,19,4,Animal_Sea_Solid_Large,7,,,,,,,,,,,
encoding,attention,22.63582962495275,25.653609583037905,19,4,Animal_Sea_Solid_Large,7,+7,1,1.3425480839796364,,,,,,,,
encoding,fixation,25.65376404102426,26.40886850003153,20,4,Animal_Sea_Solid_Small,-7,,,,,,,,,,,
encoding,image,26.408994249999523,27.420498415944166,20,4,Animal_Sea_Solid_Small,-7,,,,,,,,,,,
encoding,value,27.42061074997764,33.43239924998488,20,4,Animal_Sea_Solid_Small,-7,,,,,,,,,,,
encoding,attention,33.432509375037625,36.449706083047204,20,4,Animal_Sea_Solid_Small,-7,-7,1,0.9810062500182539,,,,,,,,
encoding,fixation,36.449851499986835,37.95492195803672,21,4,Animal_Sea_Pattern_Small,7,,,,,,,,,,,
encoding,image,37.95503395795822,38.96609308302868,21,4,Animal_Sea_Pattern_Small,7,,,,,,,,,,,
encoding,value,38.96620237501338,44.97793204104528,21,4,Animal_Sea_Pattern_Small,7,,,,,,,,,,,
encoding,attention,44.978058582986705,47.99848754098639,21,4,Animal_Sea_Pattern_Small,7,+7,1,0.8122039589798078,,,,,,,,
encoding,fixation,47.99865166598465,49.503792500006966,22,4,Object_Land_Pattern_Small,-2,,,,,,,,,,,
encoding,image,49.50389912503306,50.51539108296856,22,4,Object_Land_Pattern_Small,-2,,,,,,,,,,,
encoding,value,50.51550837501418,56.52686670795083,22,4,Object_Land_Pattern_Small,-2,,,,,,,,,,,
encoding,attention,56.52699254103936,59.54489324998576,22,4,Object_Land_Pattern_Small,-2,-2,1,1.531820375006646,,,,,,,,
encoding,fixation,59.545121749979444,60.55021537502762,23,4,Object_Land_Solid_Large,6,,,,,,,,,,,
encoding,image,60.55032325000502,61.56040708301589,23,4,Object_Land_Solid_Large,6,,,,,,,,,,,
encoding,value,61.56052329100203,67.57063112501055,23,4,Object_Land_Solid_Large,6,,,,,,,,,,,
encoding,attention,67.57081145804841,70.58668924996164,23,4,Object_Land_Solid_Large,6,+6,1,1.727565540932119,,,,,,,,
encoding,fixation,70.58684195799287,71.8419935000129,24,4,Object_Land_Pattern_Large,-1,,,,,,,,,,,
encoding,image,71.84211412502918,72.85380095802248,24,4,Object_Land_Pattern_Large,-1,,,,,,,,,,,
encoding,value,72.8539108330151,78.86725637502968,24,4,Object_Land_Pattern_Large,-1,,,,,,,,,,,
encoding,attention,78.86738916602917,81.8859554999508,24,4,Object_Land_Pattern_Large,-1,-1,1,1.5109503340208903,,,,,,,,
n-back,,,,91,4,,,,1,None,B,False,None,,,,,
n-back,,,,92,4,,,,0,None,C,True,None,,,,,
n-back,,,,93,4,,,,1,None,C,False,None,,,,,
n-back,,,,94,4,,,,1,0.9940317920409143,C,True,1,,,,,
n-back,,,,95,4,,,,1,None,Z,False,None,,,,,
n-back,,,,96,4,,,,1,None,Z,False,None,,,,,
n-back,,,,97,4,,,,0,None,Z,True,None,,,,,
n-back,,,,98,4,,,,0,0.639589500031434,V,False,1,,,,,
n-back,,,,99,4,,,,1,None,C,False,None,,,,,
n-back,,,,100,4,,,,1,None,C,False,None,,,,,
n-back,,,,101,4,,,,1,0.36676150001585484,C,True,1,,,,,
n-back,,,,102,4,,,,1,None,V,False,None,,,,,
n-back,,,,103,4,,,,1,None,Z,False,None,,,,,
n-back,,,,104,4,,,,1,None,Z,False,None,,,,,
n-back,,,,105,4,,,,1,0.43382908403873444,Z,True,1,,,,,
n-back,,,,106,4,,,,1,None,X,False,None,,,,,
n-back,,,,107,4,,,,1,0.8917967500165105,Z,True,1,,,,,
n-back,,,,108,4,,,,1,None,C,False,None,,,,,
n-back,,,,109,4,,,,1,0.8618290000595152,Z,True,1,,,,,
n-back,,,,110,4,,,,1,None,Z,False,None,,,,,
n-back,,,,111,4,,,,1,None,V,False,None,,,,,
n-back,,,,112,4,,,,1,1.1812752499245107,Z,True,1,,,,,
n-back,,,,113,4,,,,0,1.1067119580693543,Z,False,1,,,,,
n-back,,,,114,4,,,,1,None,X,False,None,,,,,
n-back,,,,115,4,,,,1,None,C,False,None,,,,,
n-back,,,,116,4,,,,1,None,V,False,None,,,,,
n-back,,,,117,4,,,,1,None,B,False,None,,,,,
n-back,,,,118,4,,,,1,None,Z,False,None,,,,,
n-back,,,,119,4,,,,1,0.9299782500602305,B,True,1,,,,,
n-back,,,,120,4,,,,1,0.9470415830146521,Z,True,1,,,,,
choice,fixation,180.0286896249745,180.53207525005564,25,4,,,,,,,,,Object,,,,
choice,option,180.54129941598512,181.56825341598596,25,4,,,,,,,,,Object,,,,
choice,choice,181.56838275003247,220.71575908304658,25,4,,,2,0,38.13608695799485,,,,Object,,,,
choice,fixation,220.71592850005254,222.21936879097484,26,4,,,,,,,,,Animal,,,,
choice,option,222.2290193750523,223.25635525002144,26,4,,,,,,,,,Animal,,,,
choice,choice,223.25646479101852,235.2602370410459,26,4,,,1,1,10.99285083299037,,,,Animal,,,,
choice,fixation,235.2603755829623,236.51538479095325,27,4,,,,,,,,,Small,,,,
choice,option,236.5243466249667,237.5513121660333,27,4,,,,,,,,,Small,,,,
choice,choice,237.5514154159464,291.7235786250094,27,4,,,1,0,53.16147337493021,,,,Small,,,,
choice,fixation,291.7237372499658,292.72857045801356,28,4,,,,,,,,,Sea,,,,
choice,option,292.7370007910067,293.76365654100664,28,4,,,,,,,,,Sea,,,,
choice,choice,293.7638375409879,301.3162116250023,28,4,,,1,1,6.542615459067747,,,,Sea,,,,
choice,fixation,301.316418915987,302.82147708302364,29,4,,,,,,,,,Solid,,,,
choice,option,302.8307378749596,303.8601054579485,29,4,,,,,,,,,Solid,,,,
choice,choice,303.86030358297285,360.5821410829667,29,4,,,1,1,55.710994916036725,,,,Solid,,,,
choice,fixation,360.58227370795794,361.3372057500528,30,4,,,,,,,,,Pattern,,,,
choice,option,361.34624066599645,362.3728579999879,30,4,,,,,,,,,Pattern,,,,
choice,choice,362.37297966599,374.2846216659527,30,4,,,1,1,10.900822125026025,,,,Pattern,,,,
choice,fixation,374.28475620795507,374.78974945796654,31,4,,,,,,,,,Large,,,,
choice,option,374.7992682909826,375.82713191595394,31,4,,,,,,,,,Large,,,,
choice,choice,375.82724895805586,390.9990314160241,31,4,,,1,1,14.160994125064462,,,,Large,,,,
choice,fixation,390.9991663330002,391.7540932500269,32,4,,,,,,,,,Land,,,,
choice,option,391.7630290410016,392.7894387500128,32,4,,,,,,,,,Land,,,,
choice,choice,392.7895600410411,423.98267545795534,32,4,,,2,0,30.182720207958482,,,,Land,,,,
memory,free_recall,436.3650051249424,465.7343636660371,18,4,,,,,,,,,,,,,
memory,value_recall,476.81043037504423,501.6943179999944,19,4,Object_Land_Solid_Large,,,,24.879893124918453,,,,,6,,,
memory,value_recall,503.24128287495114,517.5098650000291,20,4,Object_Land_Pattern_Small,,,,14.264448708039708,,,,,-2,,,
memory,value_recall,519.055731749977,521.5571595829679,21,4,Animal_Sea_Pattern_Small,,,,2.497365541057661,,,,,7,,,
memory,value_recall,523.1040357080055,525.1491605000338,22,4,Animal_Sea_Solid_Large,,,,2.041038583032787,,,,,7,,,
memory,value_recall,526.6954882909777,528.8255230409559,23,4,Animal_Sea_Solid_Small,,,,2.1258969999616966,,,,,-7,,,
memory,value_recall,530.6213705829578,533.6145136660198,24,4,Object_Land_Pattern_Large,,,,2.9879569999175146,,,,,-1,,,
memory,spatial_recall,540.204478041036,541.8174505829811,24,4,Object_Land_Solid_Large,,,1,1.6089302080217749,,,,,,"[329, 189]","[329, 189]",
memory,spatial_recall,542.8791968330042,544.5771528329933,24,4,Object_Land_Pattern_Large,,,1,1.6956635839305818,,,,,,"[-329, 190]","[-329, 190]",
memory,spatial_recall,545.8820596659789,546.763324041036,24,4,Animal_Sea_Solid_Large,,,1,0.8773725419305265,,,,,,"[0, -380]","[0, -380]",
memory,spatial_recall,548.0677010000218,549.2682437499752,24,4,Object_Land_Pattern_Small,,,1,1.1964945830404758,,,,,,"[-329, -190]","[-329, -190]",
memory,spatial_recall,551.3308289999841,552.6630987910321,24,4,Animal_Sea_Pattern_Small,,,1,1.3284165830118582,,,,,,"[0, 380]","[0, 380]",
memory,spatial_recall,554.7200452079996,555.7008680000436,24,4,Animal_Sea_Solid_Small,,,1,0.9745214170543477,,,,,,"[329, -190]","[329, -190]",
encoding,fixation,8.107639166060835,9.362891375087202,25,5,Animal_Sea_Pattern_Large,8,,,,,,,,,,,
encoding,image,9.362999666016549,10.373500291025266,25,5,Animal_Sea_Pattern_Large,8,,,,,,,,,,,
encoding,value,10.373642541002482,16.385882916045375,25,5,Animal_Sea_Pattern_Large,8,,,,,,,,,,,
encoding,attention,16.386002958053723,19.40551512502134,25,5,Animal_Sea_Pattern_Large,8,+8,1,0.7539492909563705,,,,,,,,
encoding,fixation,19.40565950004384,20.91106545808725,26,5,Animal_Land_Solid_Large,-8,,,,,,,,,,,
encoding,image,20.911188666010275,21.923291208106093,26,5,Animal_Land_Solid_Large,-8,,,,,,,,,,,
encoding,value,21.923415000084788,27.934945583110675,26,5,Animal_Land_Solid_Large,-8,,,,,,,,,,,
encoding,attention,27.93507175007835,30.953746833023615,26,5,Animal_Land_Solid_Large,-8,-8,1,1.7240522080101073,,,,,,,,
encoding,fixation,30.953904750058427,31.959286708035506,27,5,Object_Sea_Pattern_Small,-8,,,,,,,,,,,
encoding,image,31.959419875056483,32.97028383309953,27,5,Object_Sea_Pattern_Small,-8,,,,,,,,,,,
encoding,value,32.97041462501511,38.981534250080585,27,5,Object_Sea_Pattern_Small,-8,,,,,,,,,,,
encoding,attention,38.98164695804007,42.001679916051216,27,5,Object_Sea_Pattern_Small,-8,-8,1,1.8063002079725266,,,,,,,,
encoding,fixation,42.001840125070885,42.75703575008083,28,5,Object_Sea_Pattern_Large,-7,,,,,,,,,,,
encoding,image,42.75713783304673,43.768436833051965,28,5,Object_Sea_Pattern_Large,-7,,,,,,,,,,,
encoding,value,43.768540875054896,49.78107870800886,28,5,Object_Sea_Pattern_Large,-7,,,,,,,,,,,
encoding,attention,49.781191000016406,52.799465666059405,28,5,Object_Sea_Pattern_Large,-7,-7,1,1.2212692080065608,,,,,,,,
encoding,fixation,52.799706208053976,53.30480916600209,29,5,Animal_Land_Solid_Small,2,,,,,,,,,,,
encoding,image,53.304943666094914,54.315352333011106,29,5,Animal_Land_Solid_Small,2,,,,,,,,,,,
encoding,value,54.3154973750934,60.3268937910907,29,5,Animal_Land_Solid_Small,2,,,,,,,,,,,
encoding,attention,60.32701762509532,63.34405120811425,29,5,Animal_Land_Solid_Small,2,+2,1,2.1012812920380384,,,,,,,,
encoding,fixation,63.344284582999535,64.5993235410424,30,5,Object_Land_Solid_Small,5,,,,,,,,,,,
encoding,image,64.59943966602441,65.61032287508715,30,5,Object_Land_Solid_Small,5,,,,,,,,,,,
encoding,value,65.61043337511364,71.6220459160395,30,5,Object_Land_Solid_Small,5,,,,,,,,,,,
encoding,attention,71.62221454107203,74.63886200007983,30,5,Object_Land_Solid_Small,5,+5,1,1.0151989170117304,,,,,,,,
n-back,,,,121,5,,,,1,None,V,False,None,,,,,
n-back,,,,122,5,,,,0,None,Z,True,None,,,,,
n-back,,,,123,5,,,,1,None,N,False,None,,,,,
n-back,,,,124,5,,,,1,None,C,False,None,,,,,
n-back,,,,125,5,,,,0,None,N,True,None,,,,,
n-back,,,,126,5,,,,1,1.1219661249779165,C,True,1,,,,,
n-back,,,,127,5,,,,1,0.9624261250719428,N,True,1,,,,,
n-back,,,,128,5,,,,1,None,B,False,None,,,,,
n-back,,,,129,5,,,,1,None,V,False,None,,,,,
n-back,,,,130,5,,,,1,None,N,False,None,,,,,
n-back,,,,131,5,,,,1,0.9005851250840351,V,True,1,,,,,
n-back,,,,132,5,,,,1,None,Z,False,None,,,,,
n-back,,,,133,5,,,,1,None,Z,False,None,,,,,
n-back,,,,134,5,,,,1,None,B,False,None,,,,,
n-back,,,,135,5,,,,1,None,X,False,None,,,,,
n-back,,,,136,5,,,,1,0.9019392920890823,B,True,1,,,,,
n-back,,,,137,5,,,,0,1.1133132498944178,V,False,1,,,,,
n-back,,,,138,5,,,,1,0.7147395409410819,B,True,1,,,,,
n-back,,,,139,5,,,,1,None,C,False,None,,,,,
n-back,,,,140,5,,,,0,None,B,True,None,,,,,
n-back,,,,141,5,,,,1,None,Z,False,None,,,,,
n-back,,,,142,5,,,,1,None,X,False,None,,,,,
n-back,,,,143,5,,,,0,None,Z,True,None,,,,,
n-back,,,,144,5,,,,1,None,V,False,None,,,,,
n-back,,,,145,5,,,,1,None,N,False,None,,,,,
n-back,,,,146,5,,,,1,0.7198091250611469,V,True,1,,,,,
n-back,,,,147,5,,,,1,None,C,False,None,,,,,
n-back,,,,148,5,,,,1,None,N,False,None,,,,,
n-back,,,,149,5,,,,1,None,V,False,None,,,,,
n-back,,,,150,5,,,,1,None,B,False,None,,,,,
choice,fixation,157.69896300008986,158.2022984160576,33,5,,,,,,,,,Land,,,,
choice,option,158.2109902080847,159.2376836660551,33,5,,,,,,,,,Land,,,,
choice,choice,159.23779816611204,187.1984221660532,33,5,,,2,1,26.949847000068985,,,,Land,,,,
choice,fixation,187.1986305830069,187.95358150009997,34,5,,,,,,,,,Small,,,,
choice,option,187.96286237507593,188.98984687507618,34,5,,,,,,,,,Small,,,,
choice,choice,188.98996750009246,220.6384317500051,34,5,,,1,0,30.637354957987554,,,,Small,,,,
choice,fixation,220.63857162510976,221.64364791603293,35,5,,,,,,,,,Sea,,,,
choice,option,221.65201708301902,222.6793944160454,35,5,,,,,,,,,Sea,,,,
choice,choice,222.67951029108372,234.94308329105843,35,5,,,2,1,11.251887790975161,,,,Sea,,,,
choice,fixation,234.94322629109956,236.19826575007755,36,5,,,,,,,,,Object,,,,
choice,option,236.20768112502992,237.23561658302788,36,5,,,,,,,,,Object,,,,
choice,choice,237.23577608307824,256.3179668330122,36,5,,,2,1,18.071415374986827,,,,Object,,,,
choice,fixation,256.31807929102797,257.8229094580747,37,5,,,,,,,,,Animal,,,,
choice,option,257.832388291019,258.85951179102995,37,5,,,,,,,,,Animal,,,,
choice,choice,258.8596500410931,267.7352487500757,37,5,,,1,1,7.865392875042744,,,,Animal,,,,
choice,fixation,267.735377166071,268.7404160000151,38,5,,,,,,,,,Solid,,,,
choice,option,268.75004337506834,269.7767299580155,38,5,,,,,,,,,Solid,,,,
choice,choice,269.7768530000467,296.70301437505987,38,5,,,2,1,25.915246332995594,,,,Solid,,,,
choice,fixation,296.7031412080396,297.2103798330063,39,5,,,,,,,,,Large,,,,
choice,option,297.219113750034,298.2463515830459,39,5,,,,,,,,,Large,,,,
choice,choice,298.24648012500256,304.49378791602794,39,5,,,2,1,5.237419082899578,,,,Large,,,,
choice,fixation,304.4939118750626,305.2497175830649,40,5,,,,,,,,,Pattern,,,,
choice,option,305.2593112080358,306.28600887500215,40,5,,,,,,,,,Pattern,,,,
choice,choice,306.28613704105373,330.8710222080117,40,5,,,2,1,23.57500908302609,,,,Pattern,,,,
memory,free_recall,351.1839246660238,406.84010845806915,24,5,,,,,,,,,,,,,
memory,value_recall,413.62426916603,419.61727620800957,25,5,Object_Sea_Pattern_Large,,,,5.988906209007837,,,,,-7,,,
memory,value_recall,420.91241908306256,423.8475257080281,26,5,Object_Land_Solid_Small,,,,2.9310243340441957,,,,,5,,,
memory,value_recall,425.893644958036,430.183491166099,27,5,Animal_Sea_Pattern_Large,,,,4.285362041089684,,,,,8,,,
memory,value_recall,431.2301922501065,434.1765546660172,28,5,Animal_Land_Solid_Large,,,,2.9438617079285905,,,,,-8,,,
memory,value_recall,435.9721328330925,441.06448875006754,29,5,Object_Sea_Pattern_Small,,,,5.087816792074591,,,,,-8,,,
memory,value_recall,442.6105650831014,445.1773098750273,30,5,Animal_Land_Solid_Small,,,,2.562528792070225,,,,,2,,,
memory,spatial_recall,450.5694360410562,452.8951070830226,30,5,Object_Sea_Pattern_Large,,,1,2.3197011249139905,,,,,,"[329, 189]","[329, 189]",
memory,spatial_recall,453.9524979580892,457.2103160000406,30,5,Animal_Land_Solid_Small,,,1,3.2531188330613077,,,,,,"[0, -380]","[0, -380]",
memory,spatial_recall,458.51604641601443,459.7789171660552,30,5,Object_Land_Solid_Small,,,1,1.2588221658952534,,,,,,"[-329, 190]","[-329, 190]",
memory,spatial_recall,461.8347822080832,462.7153583330801,30,5,Object_Sea_Pattern_Small,,,1,0.8765875420067459,,,,,,"[329, -190]","[329, -190]",
memory,spatial_recall,464.0205936250277,466.06598708301317,30,5,Animal_Land_Solid_Large,,,1,2.0415036669000983,,,,,,"[0, 380]","[0, 380]",
memory,spatial_recall,467.62557358306367,468.8427732910495,30,5,Animal_Sea_Pattern_Large,,,1,1.2130372080719098,,,,,,"[-329, -190]","[-329, -190]",
encoding,fixation,5.018492624978535,6.274221624946222,31,6,Object_Land_Solid_Small,-7,,,,,,,,,,,
encoding,image,6.27435629197862,7.286705999984406,31,6,Object_Land_Solid_Small,-7,,,,,,,,,,,
encoding,value,7.2868832919048145,13.300056249951012,31,6,Object_Land_Solid_Small,-7,,,,,,,,,,,
encoding,attention,13.300164124928415,16.31793087499682,31,6,Object_Land_Solid_Small,-7,-7,1,1.0652268750127405,,,,,,,,
encoding,fixation,16.318075207993388,17.32431858300697,32,6,Object_Sea_Solid_Large,6,,,,,,,,,,,
encoding,image,17.32444312493317,18.33663924993016,32,6,Object_Sea_Solid_Large,6,,,,,,,,,,,
encoding,value,18.33674216689542,24.348809416987933,32,6,Object_Sea_Solid_Large,6,,,,,,,,,,,
encoding,attention,24.34893966699019,27.366360916988924,32,6,Object_Sea_Solid_Large,6,+6,1,1.1842521249782294,,,,,,,,
encoding,fixation,27.366513874963857,28.122121916967444,33,6,Animal_Sea_Pattern_Large,-6,,,,,,,,,,,
encoding,image,28.1222408330068,29.132791582960635,33,6,Animal_Sea_Pattern_Large,-6,,,,,,,,,,,
encoding,value,29.132934666937217,35.14371737500187,33,6,Animal_Sea_Pattern_Large,-6,,,,,,,,,,,
encoding,attention,35.14383624994662,38.15994766692165,33,6,Animal_Sea_Pattern_Large,-6,-6,1,0.9983790420228615,,,,,,,,
encoding,fixation,38.160121291992255,38.915873749996535,34,6,Animal_Land_Pattern_Small,2,,,,,,,,,,,
encoding,image,38.91597162489779,39.926740582915954,34,6,Animal_Land_Pattern_Small,2,,,,,,,,,,,
encoding,value,39.92687774996739,45.94133708300069,34,6,Animal_Land_Pattern_Small,2,,,,,,,,,,,
encoding,attention,45.94148387492169,48.95825862500351,34,6,Animal_Land_Pattern_Small,2,+2,1,1.0560479999985546,,,,,,,,
encoding,fixation,48.95842099993024,49.46382633293979,35,6,Object_Sea_Solid_Small,2,,,,,,,,,,,
encoding,image,49.46395212493371,50.4744761249749,35,6,Object_Sea_Solid_Small,2,,,,,,,,,,,
encoding,value,50.47459324996453,56.484961916925386,35,6,Object_Sea_Solid_Small,2,,,,,,,,,,,
encoding,attention,56.48507545795292,59.50096362491604,35,6,Object_Sea_Solid_Small,2,+2,1,0.8185638329014182,,,,,,,,
encoding,fixation,59.50111433293205,60.75710716692265,36,6,Animal_Land_Pattern_Large,2,,,,,,,,,,,
encoding,image,60.75723033293616,61.76811479195021,36,6,Animal_Land_Pattern_Large,2,,,,,,,,,,,
encoding,value,61.76824658294208,67.77963737491518,36,6,Animal_Land_Pattern_Large,2,,,,,,,,,,,
encoding,attention,67.77979395794682,70.79774370789528,36,6,Animal_Land_Pattern_Large,2,+2,1,2.034312832984142,,,,,,,,
n-back,,,,151,6,,,,0,None,V,True,None,,,,,
n-back,,,,152,6,,,,0,None,B,True,None,,,,,
n-back,,,,153,6,,,,1,None,C,False,None,,,,,
n-back,,,,154,6,,,,1,None,X,False,None,,,,,
n-back,,,,155,6,,,,0,None,C,True,None,,,,,
n-back,,,,156,6,,,,1,0.732116041937843,X,True,1,,,,,
n-back,,,,157,6,,,,1,None,V,False,None,,,,,
n-back,,,,158,6,,,,1,None,V,False,None,,,,,
n-back,,,,159,6,,,,1,0.48452220892068,V,True,1,,,,,
n-back,,,,160,6,,,,1,None,B,False,None,,,,,
n-back,,,,161,6,,,,1,None,C,False,None,,,,,
n-back,,,,162,6,,,,1,None,V,False,None,,,,,
n-back,,,,163,6,,,,1,None,B,False,None,,,,,
n-back,,,,164,6,,,,1,0.7143391669960693,V,True,1,,,,,
n-back,,,,165,6,,,,1,None,C,False,None,,,,,
n-back,,,,166,6,,,,1,None,B,False,None,,,,,
n-back,,,,167,6,,,,1,None,B,False,None,,,,,
n-back,,,,168,6,,,,1,None,Z,False,None,,,,,
n-back,,,,169,6,,,,1,0.5689272920135409,B,True,1,,,,,
n-back,,,,170,6,,,,1,None,X,False,None,,,,,
n-back,,,,171,6,,,,0,None,B,True,None,,,,,
n-back,,,,172,6,,,,0,None,X,True,None,,,,,
n-back,,,,173,6,,,,1,None,C,False,None,,,,,
n-back,,,,174,6,,,,1,None,Z,False,None,,,,,
n-back,,,,175,6,,,,1,None,B,False,None,,,,,
n-back,,,,176,6,,,,1,None,V,False,None,,,,,
n-back,,,,177,6,,,,1,None,C,False,None,,,,,
n-back,,,,178,6,,,,1,None,X,False,None,,,,,
n-back,,,,179,6,,,,0,None,C,True,None,,,,,
n-back,,,,180,6,,,,1,None,B,False,None,,,,,
choice,fixation,155.16153662500437,156.4153007499408,41,6,,,,,,,,,Sea,,,,
choice,option,156.42344391695224,157.4511653749505,41,6,,,,,,,,,Sea,,,,
choice,choice,157.45128716691397,242.5529244999634,41,6,,,1,1,84.08818441699259,,,,Sea,,,,
choice,fixation,242.5530616249889,243.3072595829144,42,6,,,,,,,,,Pattern,,,,
choice,option,243.31674308294896,244.34409116697498,42,6,,,,,,,,,Pattern,,,,
choice,choice,244.34421174996532,299.0715687919874,42,6,,,2,1,53.716488917008974,,,,Pattern,,,,
choice,fixation,299.0717157499166,300.5759542499436,43,6,,,,,,,,,Land,,,,
choice,option,300.5849774579983,301.6125484169461,43,6,,,,,,,,,Land,,,,
choice,choice,301.6127174999565,332.9594743750058,43,6,,,2,1,30.335439749993384,,,,Land,,,,
choice,fixation,332.95961791696027,334.21512487495784,44,6,,,,,,,,,Object,,,,
choice,option,334.2247213749215,335.25176891696174,44,6,,,,,,,,,Object,,,,
choice,choice,335.2518767080037,366.5035846249666,44,6,,,2,0,30.24083475000225,,,,Object,,,,
choice,fixation,366.5037492919946,367.50877341697924,45,6,,,,,,,,,Small,,,,
choice,option,367.5183089999482,368.5446069169557,45,6,,,,,,,,,Small,,,,
choice,choice,368.5447214168962,425.3448165829759,45,6,,,2,1,55.789463542052545,,,,Small,,,,
choice,fixation,425.3449391669128,426.3499421669403,46,6,,,,,,,,,Animal,,,,
choice,option,426.3599167499924,427.38689470791724,46,6,,,,,,,,,Animal,,,,
choice,choice,427.38701391697396,444.56728283292614,46,6,,,2,1,16.169065332971513,,,,Animal,,,,
choice,fixation,444.56742508290336,445.3247057918925,47,6,,,,,,,,,Large,,,,
choice,option,445.3334047079552,446.3608944999287,47,6,,,,,,,,,Large,,,,
choice,choice,446.36101654195227,492.68129133293405,47,6,,,1,1,45.309584917034954,,,,Large,,,,
choice,fixation,492.6814190829173,493.18665608298033,48,6,,,,,,,,,Solid,,,,
choice,option,493.1962041669758,494.22480904194526,48,6,,,,,,,,,Solid,,,,
choice,choice,494.22491904196795,542.967281499994,48,6,,,1,1,47.731565250083804,,,,Solid,,,,
memory,free_recall,555.489688374917,578.7943155829562,30,6,,,,,,,,,,,,,
memory,value_recall,588.3691159579903,592.0808091670042,31,6,Animal_Land_Pattern_Large,,,,3.706793542020023,,,,,2,,,
memory,value_recall,593.1256376669044,602.1054496249417,32,6,Object_Sea_Solid_Small,,,,8.976514125009999,,,,,2,,,
memory,value_recall,603.4019358329242,607.7853804579936,33,6,Object_Sea_Solid_Large,,,,4.3794412079732865,,,,,6,,,
memory,value_recall,609.5813048329437,613.7284472499741,34,6,Object_Land_Solid_Small,,,,4.143006332917139,,,,,-7,,,
memory,value_recall,615.2737933329772,620.9254253329709,35,6,Animal_Land_Pattern_Small,,,,5.64746845792979,,,,,2,,,
memory,value_recall,622.7215149999829,626.9458734579384,36,6,Animal_Sea_Pattern_Large,,,,4.220174458925612,,,,,-6,,,
memory,spatial_recall,635.606772457948,636.7603951669298,36,6,Animal_Sea_Pattern_Large,,,1,1.1495809579500929,,,,,,"[-329, -190]","[-329, -190]",
memory,spatial_recall,638.0680174579611,639.7772587079089,36,6,Object_Sea_Solid_Large,,,1,1.7042321249609813,,,,,,"[0, 380]","[0, 380]",
memory,spatial_recall,641.5799892499344,643.893722207984,36,6,Object_Sea_Solid_Small,,,1,2.3097512499662116,,,,,,"[0, -380]","[0, -380]",
memory,spatial_recall,644.9491010829806,647.4274843329331,36,6,Animal_Land_Pattern_Small,,,1,2.4760367079870775,,,,,,"[329, 189]","[329, 189]",
memory,spatial_recall,649.2338933330029,650.8909769169986,36,6,Object_Land_Solid_Small,,,1,1.6506259579909965,,,,,,"[-329, 190]","[-329, 190]",
memory,spatial_recall,652.9467249579029,654.796685499954,36,6,Animal_Land_Pattern_Large,,,1,1.8459878750145435,,,,,,"[329, -190]","[329, -190]",
encoding,fixation,17.820760499918833,19.326860415982082,37,7,Object_Land_Pattern_Small,-6,,,,,,,,,,,
encoding,image,19.32699137495365,20.338718040962704,37,7,Object_Land_Pattern_Small,-6,,,,,,,,,,,
encoding,value,20.338844374986365,26.35187912499532,37,7,Object_Land_Pattern_Small,-6,,,,,,,,,,,
encoding,attention,26.35198458295781,29.36967475002166,37,7,Object_Land_Pattern_Small,-6,-6,1,0.9324218749534339,,,,,,,,
encoding,fixation,29.36983695800882,30.87518333294429,38,7,Object_Land_Pattern_Large,-1,,,,,,,,,,,
encoding,image,30.875296458019875,31.88899487501476,38,7,Object_Land_Pattern_Large,-1,,,,,,,,,,,
encoding,value,31.88913258293178,37.90177449991461,38,7,Object_Land_Pattern_Large,-1,,,,,,,,,,,
encoding,attention,37.901890165987425,40.92025070800446,38,7,Object_Land_Pattern_Large,-1,-1,1,1.2308780000312254,,,,,,,,
encoding,fixation,40.92040208296385,41.42544266593177,39,7,Animal_Sea_Solid_Small,-3,,,,,,,,,,,
encoding,image,41.42555716598872,42.4362738749478,39,7,Animal_Sea_Solid_Small,-3,,,,,,,,,,,
encoding,value,42.43640083295759,48.448149957926944,39,7,Animal_Sea_Solid_Small,-3,,,,,,,,,,,
encoding,attention,48.448260374949314,51.46410545799881,39,7,Animal_Sea_Solid_Small,-3,-3,1,2.94141862494871,,,,,,,,
encoding,fixation,51.4642541250214,52.717725957976654,40,7,Animal_Sea_Pattern_Small,8,,,,,,,,,,,
encoding,image,52.71782879100647,53.72782533301506,40,7,Animal_Sea_Pattern_Small,8,,,,,,,,,,,
encoding,value,53.72794420795981,59.73978349997196,40,7,Animal_Sea_Pattern_Small,8,,,,,,,,,,,
encoding,attention,59.739976207958534,62.75832033297047,40,7,Animal_Sea_Pattern_Small,8,+8,1,1.1448893329361454,,,,,,,,
encoding,fixation,62.75846375001129,64.01387283299118,41,7,Object_Land_Solid_Large,8,,,,,,,,,,,
encoding,image,64.0139880409697,65.02415091590956,41,7,Object_Land_Solid_Large,8,,,,,,,,,,,
encoding,value,65.02426562493201,71.03483041597065,41,7,Object_Land_Solid_Large,8,,,,,,,,,,,
encoding,attention,71.03496062499471,74.05174833291676,41,7,Object_Land_Solid_Large,8,+8,1,0.9870489579625428,,,,,,,,
encoding,fixation,74.05191712500528,75.30694079096429,42,7,Animal_Sea_Solid_Large,-4,,,,,,,,,,,
encoding,image,75.30704591597896,76.31786620791536,42,7,Animal_Sea_Solid_Large,-4,,,,,,,,,,,
encoding,value,76.3179678330198,82.32977149996441,42,7,Animal_Sea_Solid_Large,-4,,,,,,,,,,,
encoding,attention,82.32996541599277,85.34717329090927,42,7,Animal_Sea_Solid_Large,-4,-4,1,1.9321017500478774,,,,,,,,
n-back,,,,181,7,,,,1,None,V,False,None,,,,,
n-back,,,,182,7,,,,1,None,Z,False,None,,,,,
n-back,,,,183,7,,,,1,None,N,False,None,,,,,
n-back,,,,184,7,,,,1,1.3930520419962704,Z,True,1,,,,,
n-back,,,,185,7,,,,1,None,X,False,None,,,,,
n-back,,,,186,7,,,,1,0.8702942919917405,Z,True,1,,,,,
n-back,,,,187,7,,,,1,0.8139133339282125,X,True,1,,,,,
n-back,,,,188,7,,,,1,0.8841800420777872,Z,True,1,,,,,
n-back,,,,189,7,,,,1,None,N,False,None,,,,,
n-back,,,,190,7,,,,1,None,N,False,None,,,,,
n-back,,,,191,7,,,,1,0.5521933330455795,N,True,1,,,,,
n-back,,,,192,7,,,,1,0.4786155419424176,N,True,1,,,,,
n-back,,,,193,7,,,,1,None,V,False,None,,,,,
n-back,,,,194,7,,,,1,0.3967307499842718,N,True,1,,,,,
n-back,,,,195,7,,,,1,None,C,False,None,,,,,
n-back,,,,196,7,,,,1,None,X,False,None,,,,,
n-back,,,,197,7,,,,1,None,B,False,None,,,,,
n-back,,,,198,7,,,,1,None,C,False,None,,,,,
n-back,,,,199,7,,,,1,None,Z,False,None,,,,,
n-back,,,,200,7,,,,1,None,N,False,None,,,,,
n-back,,,,201,7,,,,1,None,C,False,None,,,,,
n-back,,,,202,7,,,,1,None,V,False,None,,,,,
n-back,,,,203,7,,,,1,None,Z,False,None,,,,,
n-back,,,,204,7,,,,1,None,Z,False,None,,,,,
n-back,,,,205,7,,,,1,None,B,False,None,,,,,
n-back,,,,206,7,,,,1,None,C,False,None,,,,,
n-back,,,,207,7,,,,1,None,C,False,None,,,,,
n-back,,,,208,7,,,,1,0.5508250829298049,C,True,1,,,,,
n-back,,,,209,7,,,,1,0.6948107499629259,C,True,1,,,,,
n-back,,,,210,7,,,,1,0.39042958396021277,C,True,1,,,,,
choice,fixation,166.29608529096004,167.0495930829784,49,7,,,,,,,,,Small,,,,
choice,option,167.0582532909466,168.08409787493292,49,7,,,,,,,,,Small,,,,
choice,choice,168.08424712496344,252.32865312497597,49,7,,,2,1,83.23389812500682,,,,Small,,,,
choice,fixation,252.32878654100932,253.58404479094315,50,7,,,,,,,,,Object,,,,
choice,option,253.59323695790954,254.62297283299267,50,7,,,,,,,,,Object,,,,
choice,choice,254.6230807909742,288.95239499991294,50,7,,,1,1,33.31862162507605,,,,Object,,,,
choice,fixation,288.952561040991,289.9578573749168,51,7,,,,,,,,,Pattern,,,,
choice,option,289.96709304093383,290.9934359579347,51,7,,,,,,,,,Pattern,,,,
choice,choice,290.99356283294037,317.7595514159184,51,7,,,2,0,25.75464070797898,,,,Pattern,,,,
choice,fixation,317.75971183297224,319.0147261249367,52,7,,,,,,,,,Land,,,,
choice,option,319.02345383295324,320.0495138330152,52,7,,,,,,,,,Land,,,,
choice,choice,320.0496276660124,380.4079629579792,52,7,,,2,0,59.34695058304351,,,,Land,,,,
choice,fixation,380.40809370798524,381.6630552499555,53,7,,,,,,,,,Solid,,,,
choice,option,381.67254991596565,382.6995148329297,53,7,,,,,,,,,Solid,,,,
choice,choice,382.6996241249144,422.71194900001865,53,7,,,2,0,39.00034604105167,,,,Solid,,,,
choice,fixation,422.71215024997946,423.46714837499894,54,7,,,,,,,,,Sea,,,,
choice,option,423.4754401249811,424.502276291023,54,7,,,,,,,,,Sea,,,,
choice,choice,424.5023846249096,449.9050043330062,54,7,,,2,0,24.391205542022362,,,,Sea,,,,
choice,fixation,449.90513062500395,450.65999729093164,55,7,,,,,,,,,Large,,,,
choice,option,450.6687872079201,451.69914808298927,55,7,,,,,,,,,Large,,,,
choice,choice,451.69928974995855,503.0489920829423,55,7,,,2,0,50.33835962496232,,,,Large,,,,
choice,fixation,503.049144999939,504.5562036249321,56,7,,,,,,,,,Animal,,,,
choice,option,504.565523999976,505.5931058329297,56,7,,,,,,,,,Animal,,,,
choice,choice,505.5932482499629,520.2742586659733,56,7,,,2,0,13.667119416058995,,,,Animal,,,,
memory,free_recall,536.8251334159868,556.93907962495,36,7,,,,,,,,,,,,,
memory,value_recall,562.2979667079635,566.9221505409805,37,7,Object_Land_Solid_Large,,,,4.620786833926104,,,,,8,,,
memory,value_recall,568.7175534159178,570.6888249159092,38,7,Object_Land_Pattern_Large,,,,1.9669937080470845,,,,,-1,,,
memory,value_recall,572.7344037910225,579.0976669159718,39,7,Animal_Sea_Pattern_Small,,,,6.3592939170775935,,,,,8,,,
memory,value_recall,580.1429881249787,591.8261345829815,40,7,Animal_Sea_Solid_Large,,,,11.680445541045628,,,,,-4,,,
memory,value_recall,593.8735766659956,600.7729589159135,41,7,Object_Land_Pattern_Small,,,,6.895276625058614,,,,,-6,,,
memory,value_recall,602.8797895829193,607.2020226659952,42,7,Animal_Sea_Solid_Small,,,,4.318085375009105,,,,,-3,,,
memory,spatial_recall,612.2543792499928,619.3303515829612,42,7,Animal_Sea_Solid_Large,,,1,7.071914542000741,,,,,,"[0, -380]","[0, -380]",
memory,spatial_recall,621.3986409580102,622.2140430000145,42,7,Object_Land_Pattern_Large,,,1,0.8114845410455018,,,,,,"[-329, 190]","[-329, 190]",
memory,spatial_recall,624.0220451659989,626.1786202909425,42,7,Animal_Sea_Solid_Small,,,1,2.152379332925193,,,,,,"[329, -190]","[329, -190]",
memory,spatial_recall,627.9928139579715,629.7925509579945,42,7,Object_Land_Pattern_Small,,,1,1.7957700419938192,,,,,,"[-329, -190]","[-329, -190]",
memory,spatial_recall,630.849088500021,632.0753873329377,42,7,Animal_Sea_Pattern_Small,,,1,1.2238856659969315,,,,,,"[0, 380]","[0, 380]",
memory,spatial_recall,633.8787155830069,635.125038624974,42,7,Object_Land_Solid_Large,,,1,1.2423195419833064,,,,,,"[329, 189]","[329, 189]",
