subject,phase,event,trial_number,game,option,choice,rt,roi_content,item_index,is_center,is_relevant,fix_start,fix_end,fix_duration_bounded
116,choice,choice,1,1.0,Small,2.0,36.40852645796258,Animal_Sea_Pattern_Small,0,0,1,2571038.0,2571367.0,329.0
116,choice,choice,1,1.0,Small,2.0,36.40852645796258,fixation,-1,1,0,2571509.0,2573805.0,2296.0
116,choice,choice,1,1.0,Small,2.0,36.40852645796258,Animal_Sea_Pattern_Small,0,0,1,2573821.0,2573919.0,98.0
116,choice,choice,1,1.0,Small,2.0,36.40852645796258,Object_Land_Solid_Large,1,0,0,2574106.0,2574335.0,229.0
116,choice,choice,1,1.0,Small,2.0,36.40852645796258,Animal_Sea_Pattern_Small,0,0,1,2574357.0,2575237.0,880.0
116,choice,choice,1,1.0,Small,2.0,36.40852645796258,Object_Land_Solid_Large,1,0,0,2575443.0,2575854.0,411.0
116,choice,choice,1,1.0,Small,2.0,36.40852645796258,Animal_Sea_Solid_Small,2,0,1,2576092.0,2576448.0,356.0
116,choice,choice,1,1.0,Small,2.0,36.40852645796258,Object_Land_Solid_Large,1,0,0,2577038.0,2577419.0,381.0
116,choice,choice,1,1.0,Small,2.0,36.40852645796258,fixation,-1,1,0,2577460.0,2577672.0,212.0
116,choice,choice,1,1.0,Small,2.0,36.40852645796258,Object_Land_Pattern_Small,3,0,1,2577692.0,2578067.0,375.0
116,choice,choice,1,1.0,Small,2.0,36.40852645796258,fixation,-1,1,0,2579067.0,2579433.0,366.0
116,choice,choice,1,1.0,Small,2.0,36.40852645796258,Object_Land_Solid_Large,1,0,0,2579455.0,2579995.0,540.0
116,choice,choice,1,1.0,Small,2.0,36.40852645796258,Object_Land_Pattern_Large,4,0,0,2580231.0,2580948.0,717.0
116,choice,choice,1,1.0,Small,2.0,36.40852645796258,fixation,-1,1,0,2581441.0,2581471.0,30.0
116,choice,choice,1,1.0,Small,2.0,36.40852645796258,Object_Land_Solid_Large,1,0,0,2581658.0,2582031.0,373.0
116,choice,choice,1,1.0,Small,2.0,36.40852645796258,Animal_Sea_Solid_Small,2,0,1,2582054.0,2582184.0,130.0
116,choice,choice,1,1.0,Small,2.0,36.40852645796258,Object_Land_Solid_Large,1,0,0,2582420.0,2585653.0,3233.0
116,choice,choice,1,1.0,Small,2.0,36.40852645796258,Animal_Sea_Solid_Small,2,0,1,2586645.0,2586984.0,339.0
116,choice,choice,1,1.0,Small,2.0,36.40852645796258,Object_Land_Pattern_Small,3,0,1,2587004.0,2587639.0,635.0
116,choice,choice,1,1.0,Small,2.0,36.40852645796258,fixation,-1,1,0,2587650.0,2588056.0,406.0
116,choice,choice,1,1.0,Small,2.0,36.40852645796258,Animal_Sea_Solid_Small,2,0,1,2588081.0,2588366.0,285.0
116,choice,choice,1,1.0,Small,2.0,36.40852645796258,Animal_Sea_Pattern_Small,0,0,1,2588631.0,2589225.0,594.0
116,choice,choice,1,1.0,Small,2.0,36.40852645796258,Object_Land_Pattern_Large,4,0,0,2589274.0,2589557.0,283.0
116,choice,choice,1,1.0,Small,2.0,36.40852645796258,Object_Land_Pattern_Small,3,0,1,2589785.0,2590130.0,345.0
116,choice,choice,1,1.0,Small,2.0,36.40852645796258,Object_Land_Pattern_Large,4,0,0,2590599.0,2591708.0,1109.0
116,choice,choice,1,1.0,Small,2.0,36.40852645796258,fixation,-1,1,0,2591729.0,2591998.0,269.0
116,choice,choice,1,1.0,Small,2.0,36.40852645796258,Animal_Sea_Solid_Small,2,0,1,2592033.0,2592647.0,614.0
116,choice,choice,1,1.0,Small,2.0,36.40852645796258,fixation,-1,1,0,2592722.0,2592891.0,169.0
116,choice,choice,1,1.0,Small,2.0,36.40852645796258,Object_Land_Solid_Large,1,0,0,2592914.0,2593110.0,196.0
116,choice,choice,1,1.0,Small,2.0,36.40852645796258,Animal_Sea_Pattern_Small,0,0,1,2593124.0,2593523.0,399.0
116,choice,choice,1,1.0,Small,2.0,36.40852645796258,Object_Land_Pattern_Small,3,0,1,2593572.0,2593730.0,158.0
116,choice,choice,1,1.0,Small,2.0,36.40852645796258,Animal_Sea_Solid_Large,5,0,0,2593765.0,2595287.0,1522.0
116,choice,choice,1,1.0,Small,2.0,36.40852645796258,Animal_Sea_Solid_Small,2,0,1,2595353.0,2595962.0,609.0
116,choice,choice,1,1.0,Small,2.0,36.40852645796258,Object_Land_Solid_Large,1,0,0,2596004.0,2598823.0,2819.0
116,choice,choice,1,1.0,Small,2.0,36.40852645796258,Animal_Sea_Solid_Small,2,0,1,2600139.0,2601505.0,1366.0
116,choice,choice,1,1.0,Small,2.0,36.40852645796258,Object_Land_Solid_Large,1,0,0,2601974.0,2602958.0,984.0
116,choice,choice,1,1.0,Small,2.0,36.40852645796258,Animal_Sea_Pattern_Small,0,0,1,2603044.0,2604182.0,1138.0
116,choice,choice,1,1.0,Small,2.0,36.40852645796258,fixation,-1,1,0,2605122.0,2605396.0,274.0
116,choice,choice,1,1.0,Small,2.0,36.40852645796258,Object_Land_Pattern_Small,3,0,1,2605420.0,2605899.0,479.0
116,choice,choice,1,1.0,Small,2.0,36.40852645796258,Animal_Sea_Solid_Large,5,0,0,2606302.0,2606452.0,150.0
116,choice,choice,1,1.0,Small,2.0,36.40852645796258,Animal_Sea_Solid_Small,2,0,1,2606617.0,2606730.0,113.0
116,choice,choice,1,1.0,Small,2.0,36.40852645796258,Object_Land_Solid_Large,1,0,0,2606878.0,2607152.0,274.0
116,choice,choice,1,1.0,Small,2.0,36.40852645796258,fixation,-1,1,0,2607173.0,2607349.0,176.0
116,choice,choice,2,1.0,Object,2.0,6.3512243329314515,Animal_Sea_Pattern_Small,0,0,0,2610107.0,2610416.0,309.0
116,choice,choice,2,1.0,Object,2.0,6.3512243329314515,Animal_Sea_Solid_Small,2,0,0,2611042.0,2611081.0,39.0
116,choice,choice,2,1.0,Object,2.0,6.3512243329314515,Object_Land_Solid_Large,1,0,1,2611331.0,2612165.0,834.0
116,choice,choice,2,1.0,Object,2.0,6.3512243329314515,Animal_Sea_Pattern_Small,0,0,0,2612226.0,2612426.0,200.0
116,choice,choice,2,1.0,Object,2.0,6.3512243329314515,Object_Land_Pattern_Large,4,0,1,2612619.0,2612997.0,378.0
116,choice,choice,2,1.0,Object,2.0,6.3512243329314515,Object_Land_Pattern_Small,3,0,1,2613028.0,2613288.0,260.0
116,choice,choice,2,1.0,Object,2.0,6.3512243329314515,fixation,-1,1,0,2613300.0,2613555.0,255.0
116,choice,choice,2,1.0,Object,2.0,6.3512243329314515,Object_Land_Pattern_Small,3,0,1,2613747.0,2613804.0,57.0
116,choice,choice,2,1.0,Object,2.0,6.3512243329314515,Object_Land_Solid_Large,1,0,1,2613970.0,2614198.0,228.0
116,choice,choice,2,1.0,Object,2.0,6.3512243329314515,Object_Land_Pattern_Small,3,0,1,2614432.0,2614693.0,261.0
116,choice,choice,2,1.0,Object,2.0,6.3512243329314515,Animal_Sea_Solid_Small,2,0,0,2615001.0,2615656.0,655.0
116,choice,choice,2,1.0,Object,2.0,6.3512243329314515,Object_Land_Pattern_Large,4,0,1,2615718.0,2616254.0,536.0
116,choice,choice,3,1.0,Sea,2.0,61.159803041955456,Animal_Sea_Pattern_Small,0,0,1,2619521.0,2619886.0,365.0
116,choice,choice,3,1.0,Sea,2.0,61.159803041955456,Object_Land_Solid_Large,1,0,0,2620129.0,2620259.0,130.0
116,choice,choice,3,1.0,Sea,2.0,61.159803041955456,Animal_Sea_Pattern_Small,0,0,1,2620484.0,2621167.0,683.0
116,choice,choice,3,1.0,Sea,2.0,61.159803041955456,Object_Land_Solid_Large,1,0,0,2621942.0,2622193.0,251.0
116,choice,choice,3,1.0,Sea,2.0,61.159803041955456,Animal_Sea_Pattern_Small,0,0,1,2622215.0,2622831.0,616.0
116,choice,choice,3,1.0,Sea,2.0,61.159803041955456,Object_Land_Solid_Large,1,0,0,2622871.0,2623768.0,897.0
116,choice,choice,3,1.0,Sea,2.0,61.159803041955456,Animal_Sea_Pattern_Small,0,0,1,2624249.0,2624819.0,570.0
116,choice,choice,3,1.0,Sea,2.0,61.159803041955456,Object_Land_Solid_Large,1,0,0,2625065.0,2626225.0,1160.0
116,choice,choice,3,1.0,Sea,2.0,61.159803041955456,Animal_Sea_Pattern_Small,0,0,1,2626460.0,2626897.0,437.0
116,choice,choice,3,1.0,Sea,2.0,61.159803041955456,Animal_Sea_Solid_Small,2,0,1,2627170.0,2627898.0,728.0
116,choice,choice,3,1.0,Sea,2.0,61.159803041955456,Animal_Sea_Solid_Large,5,0,1,2628394.0,2628707.0,313.0
116,choice,choice,3,1.0,Sea,2.0,61.159803041955456,Object_Land_Pattern_Small,3,0,0,2628744.0,2629328.0,584.0
116,choice,choice,3,1.0,Sea,2.0,61.159803041955456,Object_Land_Pattern_Large,4,0,0,2629375.0,2630230.0,855.0
116,choice,choice,3,1.0,Sea,2.0,61.159803041955456,Object_Land_Pattern_Small,3,0,0,2630513.0,2631743.0,1230.0
116,choice,choice,3,1.0,Sea,2.0,61.159803041955456,fixation,-1,1,0,2631761.0,2633859.0,2098.0
116,choice,choice,3,1.0,Sea,2.0,61.159803041955456,Object_Land_Solid_Large,1,0,0,2633886.0,2634603.0,717.0
116,choice,choice,3,1.0,Sea,2.0,61.159803041955456,Animal_Sea_Solid_Small,2,0,1,2634625.0,2635154.0,529.0
116,choice,choice,3,1.0,Sea,2.0,61.159803041955456,Object_Land_Solid_Large,1,0,0,2635176.0,2635335.0,159.0
116,choice,choice,3,1.0,Sea,2.0,61.159803041955456,Animal_Sea_Pattern_Small,0,0,1,2635365.0,2636272.0,907.0
116,choice,choice,3,1.0,Sea,2.0,61.159803041955456,Object_Land_Solid_Large,1,0,0,2636583.0,2636849.0,266.0
116,choice,choice,3,1.0,Sea,2.0,61.159803041955456,Animal_Sea_Pattern_Small,0,0,1,2636867.0,2637824.0,957.0
116,choice,choice,3,1.0,Sea,2.0,61.159803041955456,Object_Land_Solid_Large,1,0,0,2638180.0,2638430.0,250.0
116,choice,choice,3,1.0,Sea,2.0,61.159803041955456,Animal_Sea_Solid_Small,2,0,1,2638641.0,2639569.0,928.0
116,choice,choice,3,1.0,Sea,2.0,61.159803041955456,fixation,-1,1,0,2640228.0,2640494.0,266.0
116,choice,choice,3,1.0,Sea,2.0,61.159803041955456,Animal_Sea_Solid_Small,2,0,1,2640689.0,2642054.0,1365.0
116,choice,choice,3,1.0,Sea,2.0,61.159803041955456,Animal_Sea_Solid_Large,5,0,1,2644412.0,2644513.0,101.0
116,choice,choice,3,1.0,Sea,2.0,61.159803041955456,Animal_Sea_Solid_Small,2,0,1,2644945.0,2646512.0,1567.0
116,choice,choice,3,1.0,Sea,2.0,61.159803041955456,Object_Land_Solid_Large,1,0,0,2646784.0,2649497.0,2713.0
116,choice,choice,3,1.0,Sea,2.0,61.159803041955456,Animal_Sea_Pattern_Small,0,0,1,2650968.0,2651513.0,545.0
116,choice,choice,3,1.0,Sea,2.0,61.159803041955456,Object_Land_Pattern_Large,4,0,0,2651732.0,2652279.0,547.0
116,choice,choice,3,1.0,Sea,2.0,61.159803041955456,Object_Land_Pattern_Small,3,0,0,2652297.0,2653134.0,837.0
116,choice,choice,3,1.0,Sea,2.0,61.159803041955456,fixation,-1,1,0,2653332.0,2653376.0,44.0
116,choice,choice,3,1.0,Sea,2.0,61.159803041955456,Animal_Sea_Pattern_Small,0,0,1,2653588.0,2653881.0,293.0
116,choice,choice,3,1.0,Sea,2.0,61.159803041955456,Object_Land_Pattern_Large,4,0,0,2653904.0,2654971.0,1067.0
116,choice,choice,3,1.0,Sea,2.0,61.159803041955456,Animal_Sea_Pattern_Small,0,0,1,2655019.0,2655310.0,291.0
116,choice,choice,3,1.0,Sea,2.0,61.159803041955456,Object_Land_Pattern_Large,4,0,0,2655333.0,2656968.0,1635.0
116,choice,choice,3,1.0,Sea,2.0,61.159803041955456,Object_Land_Pattern_Small,3,0,0,2657905.0,2658264.0,359.0
116,choice,choice,3,1.0,Sea,2.0,61.159803041955456,Object_Land_Pattern_Large,4,0,0,2658497.0,2659771.0,1274.0
116,choice,choice,3,1.0,Sea,2.0,61.159803041955456,Object_Land_Pattern_Small,3,0,0,2659814.0,2664376.0,4562.0
116,choice,choice,3,1.0,Sea,2.0,61.159803041955456,Animal_Sea_Solid_Small,2,0,1,2664746.0,2665745.0,999.0
116,choice,choice,3,1.0,Sea,2.0,61.159803041955456,Object_Land_Pattern_Small,3,0,0,2666211.0,2666517.0,306.0
116,choice,choice,3,1.0,Sea,2.0,61.159803041955456,Object_Land_Solid_Large,1,0,0,2666726.0,2667032.0,306.0
116,choice,choice,3,1.0,Sea,2.0,61.159803041955456,fixation,-1,1,0,2667047.0,2667321.0,274.0
116,choice,choice,3,1.0,Sea,2.0,61.159803041955456,Object_Land_Pattern_Small,3,0,0,2667585.0,2667726.0,141.0
116,choice,choice,3,1.0,Sea,2.0,61.159803041955456,Animal_Sea_Solid_Large,5,0,1,2667760.0,2667790.0,30.0
116,choice,choice,3,1.0,Sea,2.0,61.159803041955456,Object_Land_Solid_Large,1,0,0,2668026.0,2668465.0,439.0
116,choice,choice,3,1.0,Sea,2.0,61.159803041955456,fixation,-1,1,0,2668481.0,2669332.0,851.0
116,choice,choice,3,1.0,Sea,2.0,61.159803041955456,Animal_Sea_Solid_Large,5,0,1,2669367.0,2670336.0,969.0
116,choice,choice,3,1.0,Sea,2.0,61.159803041955456,Animal_Sea_Solid_Small,2,0,1,2670371.0,2670916.0,545.0
116,choice,choice,3,1.0,Sea,2.0,61.159803041955456,Object_Land_Pattern_Large,4,0,0,2670948.0,2671212.0,264.0
116,choice,choice,3,1.0,Sea,2.0,61.159803041955456,fixation,-1,1,0,2671229.0,2671565.0,336.0
116,choice,choice,3,1.0,Sea,2.0,61.159803041955456,Object_Land_Pattern_Large,4,0,0,2671589.0,2672023.0,434.0
116,choice,choice,3,1.0,Sea,2.0,61.159803041955456,Object_Land_Pattern_Small,3,0,0,2672233.0,2672353.0,120.0
116,choice,choice,3,1.0,Sea,2.0,61.159803041955456,Animal_Sea_Solid_Small,2,0,1,2672541.0,2674135.0,1594.0
116,choice,choice,3,1.0,Sea,2.0,61.159803041955456,Object_Land_Solid_Large,1,0,0,2674788.0,2675545.0,757.0
116,choice,choice,3,1.0,Sea,2.0,61.159803041955456,Animal_Sea_Solid_Small,2,0,1,2675571.0,2675752.0,181.0
116,choice,choice,3,1.0,Sea,2.0,61.159803041955456,Object_Land_Pattern_Small,3,0,0,2675785.0,2675903.0,118.0
116,choice,choice,3,1.0,Sea,2.0,61.159803041955456,Animal_Sea_Solid_Large,5,0,1,2676134.0,2676435.0,301.0
116,choice,choice,3,1.0,Sea,2.0,61.159803041955456,Object_Land_Pattern_Large,4,0,0,2676676.0,2677510.0,834.0
116,choice,choice,3,1.0,Sea,2.0,61.159803041955456,Object_Land_Solid_Large,1,0,0,2677760.0,2679491.0,1731.0
116,choice,choice,4,1.0,Large,1.0,26.768211083021015,Object_Land_Solid_Large,1,0,1,2682930.0,2683636.0,706.0
116,choice,choice,4,1.0,Large,1.0,26.768211083021015,Animal_Sea_Pattern_Small,0,0,0,2684106.0,2684812.0,706.0
116,choice,choice,4,1.0,Large,1.0,26.768211083021015,Object_Land_Pattern_Large,4,0,1,2685044.0,2685579.0,535.0
116,choice,choice,4,1.0,Large,1.0,26.768211083021015,Object_Land_Pattern_Small,3,0,0,2685793.0,2686748.0,955.0
116,choice,choice,4,1.0,Large,1.0,26.768211083021015,Object_Land_Pattern_Large,4,0,1,2686947.0,2687659.0,712.0
116,choice,choice,4,1.0,Large,1.0,26.768211083021015,Object_Land_Solid_Large,1,0,1,2687932.0,2688277.0,345.0
116,choice,choice,4,1.0,Large,1.0,26.768211083021015,fixation,-1,1,0,2688296.0,2688609.0,313.0
116,choice,choice,4,1.0,Large,1.0,26.768211083021015,Animal_Sea_Pattern_Small,0,0,0,2688630.0,2689133.0,503.0
116,choice,choice,4,1.0,Large,1.0,26.768211083021015,Object_Land_Pattern_Large,4,0,1,2689152.0,2689423.0,271.0
116,choice,choice,4,1.0,Large,1.0,26.768211083021015,fixation,-1,1,0,2689437.0,2690170.0,733.0
116,choice,choice,4,1.0,Large,1.0,26.768211083021015,Object_Land_Solid_Large,1,0,1,2690194.0,2690509.0,315.0
116,choice,choice,4,1.0,Large,1.0,26.768211083021015,Animal_Sea_Pattern_Small,0,0,0,2690532.0,2690658.0,126.0
116,choice,choice,4,1.0,Large,1.0,26.768211083021015,Object_Land_Pattern_Large,4,0,1,2690908.0,2691437.0,529.0
116,choice,choice,4,1.0,Large,1.0,26.768211083021015,fixation,-1,1,0,2691468.0,2692333.0,865.0
116,choice,choice,4,1.0,Large,1.0,26.768211083021015,Object_Land_Pattern_Large,4,0,1,2692345.0,2692450.0,105.0
116,choice,choice,4,1.0,Large,1.0,26.768211083021015,Object_Land_Pattern_Small,3,0,0,2692685.0,2692712.0,27.0
116,choice,choice,4,1.0,Large,1.0,26.768211083021015,Object_Land_Pattern_Large,4,0,1,2692932.0,2693803.0,871.0
116,choice,choice,4,1.0,Large,1.0,26.768211083021015,Animal_Sea_Pattern_Small,0,0,0,2694169.0,2694678.0,509.0
116,choice,choice,4,1.0,Large,1.0,26.768211083021015,Object_Land_Solid_Large,1,0,1,2695189.0,2695562.0,373.0
116,choice,choice,4,1.0,Large,1.0,26.768211083021015,Animal_Sea_Pattern_Small,0,0,0,2695588.0,2696217.0,629.0
116,choice,choice,4,1.0,Large,1.0,26.768211083021015,fixation,-1,1,0,2696250.0,2697479.0,1229.0
116,choice,choice,4,1.0,Large,1.0,26.768211083021015,Object_Land_Pattern_Large,4,0,1,2697523.0,2698050.0,527.0
116,choice,choice,4,1.0,Large,1.0,26.768211083021015,fixation,-1,1,0,2698070.0,2698868.0,798.0
116,choice,choice,4,1.0,Large,1.0,26.768211083021015,Object_Land_Pattern_Large,4,0,1,2699120.0,2699612.0,492.0
116,choice,choice,4,1.0,Large,1.0,26.768211083021015,fixation,-1,1,0,2699649.0,2700326.0,677.0
116,choice,choice,4,1.0,Large,1.0,26.768211083021015,Animal_Sea_Pattern_Small,0,0,0,2700541.0,2700814.0,273.0
116,choice,choice,4,1.0,Large,1.0,26.768211083021015,Object_Land_Pattern_Large,4,0,1,2700834.0,2701566.0,732.0
116,choice,choice,4,1.0,Large,1.0,26.768211083021015,fixation,-1,1,0,2701634.0,2701807.0,173.0
116,choice,choice,4,1.0,Large,1.0,26.768211083021015,Object_Land_Solid_Large,1,0,1,2701968.0,2702189.0,221.0
116,choice,choice,4,1.0,Large,1.0,26.768211083021015,fixation,-1,1,0,2702371.0,2703060.0,689.0
116,choice,choice,4,1.0,Large,1.0,26.768211083021015,Object_Land_Pattern_Large,4,0,1,2703075.0,2703254.0,179.0
116,choice,choice,4,1.0,Large,1.0,26.768211083021015,fixation,-1,1,0,2703263.0,2703776.0,513.0
116,choice,choice,4,1.0,Large,1.0,26.768211083021015,Object_Land_Pattern_Large,4,0,1,2703802.0,2704410.0,608.0
116,choice,choice,4,1.0,Large,1.0,26.768211083021015,fixation,-1,1,0,2704814.0,2704977.0,163.0
116,choice,choice,4,1.0,Large,1.0,26.768211083021015,Object_Land_Solid_Large,1,0,1,2705178.0,2705803.0,625.0
116,choice,choice,4,1.0,Large,1.0,26.768211083021015,Animal_Sea_Solid_Small,2,0,0,2706060.0,2706430.0,370.0
116,choice,choice,4,1.0,Large,1.0,26.768211083021015,Object_Land_Solid_Large,1,0,1,2706451.0,2706702.0,251.0
116,choice,choice,4,1.0,Large,1.0,26.768211083021015,Animal_Sea_Solid_Small,2,0,0,2706946.0,2707165.0,219.0
116,choice,choice,4,1.0,Large,1.0,26.768211083021015,fixation,-1,1,0,2707182.0,2707473.0,291.0
116,choice,choice,4,1.0,Large,1.0,26.768211083021015,Object_Land_Solid_Large,1,0,1,2707510.0,2708306.0,796.0
116,choice,choice,4,1.0,Large,1.0,26.768211083021015,Animal_Sea_Pattern_Small,0,0,0,2708511.0,2708699.0,188.0
116,choice,choice,4,1.0,Large,1.0,26.768211083021015,Object_Land_Pattern_Large,4,0,1,2708864.0,2708976.0,112.0
116,choice,choice,4,1.0,Large,1.0,26.768211083021015,Object_Land_Pattern_Small,3,0,0,2709167.0,2709524.0,357.0
116,choice,choice,5,1.0,Pattern,1.0,45.682613332988694,Animal_Sea_Pattern_Small,0,0,1,2713072.0,2715077.0,2005.0
116,choice,choice,5,1.0,Pattern,1.0,45.682613332988694,Object_Land_Solid_Large,1,0,0,2716078.0,2716640.0,562.0
116,choice,choice,5,1.0,Pattern,1.0,45.682613332988694,Animal_Sea_Pattern_Small,0,0,1,2716676.0,2716885.0,209.0
116,choice,choice,5,1.0,Pattern,1.0,45.682613332988694,Animal_Sea_Solid_Large,5,0,0,2717423.0,2717491.0,68.0
116,choice,choice,5,1.0,Pattern,1.0,45.682613332988694,Animal_Sea_Solid_Small,2,0,0,2717763.0,2718080.0,317.0
116,choice,choice,5,1.0,Pattern,1.0,45.682613332988694,Object_Land_Solid_Large,1,0,0,2718109.0,2719075.0,966.0
116,choice,choice,5,1.0,Pattern,1.0,45.682613332988694,Object_Land_Pattern_Large,4,0,1,2720400.0,2720588.0,188.0
116,choice,choice,5,1.0,Pattern,1.0,45.682613332988694,fixation,-1,1,0,2720780.0,2721005.0,225.0
116,choice,choice,5,1.0,Pattern,1.0,45.682613332988694,Animal_Sea_Solid_Small,2,0,0,2721528.0,2722010.0,482.0
116,choice,choice,5,1.0,Pattern,1.0,45.682613332988694,Animal_Sea_Solid_Large,5,0,0,2722289.0,2722613.0,324.0
116,choice,choice,5,1.0,Pattern,1.0,45.682613332988694,Object_Land_Pattern_Small,3,0,1,2722632.0,2722964.0,332.0
116,choice,choice,5,1.0,Pattern,1.0,45.682613332988694,Object_Land_Pattern_Large,4,0,1,2723180.0,2723528.0,348.0
116,choice,choice,5,1.0,Pattern,1.0,45.682613332988694,Animal_Sea_Solid_Large,5,0,0,2723878.0,2724199.0,321.0
116,choice,choice,5,1.0,Pattern,1.0,45.682613332988694,fixation,-1,1,0,2724429.0,2724854.0,425.0
116,choice,choice,5,1.0,Pattern,1.0,45.682613332988694,Animal_Sea_Solid_Large,5,0,0,2724889.0,2725200.0,311.0
116,choice,choice,5,1.0,Pattern,1.0,45.682613332988694,Object_Land_Pattern_Small,3,0,1,2725227.0,2725492.0,265.0
116,choice,choice,5,1.0,Pattern,1.0,45.682613332988694,Object_Land_Pattern_Large,4,0,1,2725509.0,2726815.0,1306.0
116,choice,choice,5,1.0,Pattern,1.0,45.682613332988694,Object_Land_Pattern_Small,3,0,1,2727082.0,2727358.0,276.0
116,choice,choice,5,1.0,Pattern,1.0,45.682613332988694,Animal_Sea_Solid_Small,2,0,0,2727393.0,2727546.0,153.0
116,choice,choice,5,1.0,Pattern,1.0,45.682613332988694,Object_Land_Solid_Large,1,0,0,2727561.0,2728703.0,1142.0
116,choice,choice,5,1.0,Pattern,1.0,45.682613332988694,Animal_Sea_Solid_Small,2,0,0,2728929.0,2729048.0,119.0
116,choice,choice,5,1.0,Pattern,1.0,45.682613332988694,Object_Land_Pattern_Large,4,0,1,2729256.0,2730035.0,779.0
116,choice,choice,5,1.0,Pattern,1.0,45.682613332988694,Animal_Sea_Solid_Small,2,0,0,2730094.0,2730738.0,644.0
116,choice,choice,5,1.0,Pattern,1.0,45.682613332988694,Object_Land_Solid_Large,1,0,0,2730988.0,2732990.0,2002.0
116,choice,choice,5,1.0,Pattern,1.0,45.682613332988694,Animal_Sea_Pattern_Small,0,0,1,2733492.0,2733635.0,143.0
116,choice,choice,5,1.0,Pattern,1.0,45.682613332988694,Object_Land_Pattern_Small,3,0,1,2733919.0,2734186.0,267.0
116,choice,choice,5,1.0,Pattern,1.0,45.682613332988694,Animal_Sea_Solid_Large,5,0,0,2734521.0,2734548.0,27.0
116,choice,choice,5,1.0,Pattern,1.0,45.682613332988694,Object_Land_Pattern_Small,3,0,1,2734869.0,2737356.0,2487.0
116,choice,choice,5,1.0,Pattern,1.0,45.682613332988694,Animal_Sea_Solid_Small,2,0,0,2737915.0,2738187.0,272.0
116,choice,choice,5,1.0,Pattern,1.0,45.682613332988694,Object_Land_Pattern_Small,3,0,1,2738206.0,2738527.0,321.0
116,choice,choice,5,1.0,Pattern,1.0,45.682613332988694,Object_Land_Pattern_Large,4,0,1,2738543.0,2738957.0,414.0
116,choice,choice,5,1.0,Pattern,1.0,45.682613332988694,Animal_Sea_Pattern_Small,0,0,1,2738974.0,2739357.0,383.0
116,choice,choice,5,1.0,Pattern,1.0,45.682613332988694,Object_Land_Solid_Large,1,0,0,2739650.0,2739824.0,174.0
116,choice,choice,5,1.0,Pattern,1.0,45.682613332988694,Animal_Sea_Pattern_Small,0,0,1,2739849.0,2740279.0,430.0
116,choice,choice,5,1.0,Pattern,1.0,45.682613332988694,Object_Land_Pattern_Large,4,0,1,2740299.0,2740876.0,577.0
116,choice,choice,5,1.0,Pattern,1.0,45.682613332988694,Object_Land_Pattern_Small,3,0,1,2741150.0,2741387.0,237.0
116,choice,choice,5,1.0,Pattern,1.0,45.682613332988694,Animal_Sea_Solid_Large,5,0,0,2741407.0,2741783.0,376.0
116,choice,choice,5,1.0,Pattern,1.0,45.682613332988694,Object_Land_Pattern_Small,3,0,1,2741797.0,2742030.0,233.0
116,choice,choice,5,1.0,Pattern,1.0,45.682613332988694,fixation,-1,1,0,2742046.0,2742384.0,338.0
116,choice,choice,5,1.0,Pattern,1.0,45.682613332988694,Object_Land_Solid_Large,1,0,0,2742668.0,2743238.0,570.0
116,choice,choice,5,1.0,Pattern,1.0,45.682613332988694,Object_Land_Pattern_Small,3,0,1,2743300.0,2743654.0,354.0
116,choice,choice,5,1.0,Pattern,1.0,45.682613332988694,Animal_Sea_Solid_Large,5,0,0,2743671.0,2743846.0,175.0
116,choice,choice,5,1.0,Pattern,1.0,45.682613332988694,Animal_Sea_Solid_Small,2,0,0,2744044.0,2744681.0,637.0
116,choice,choice,5,1.0,Pattern,1.0,45.682613332988694,Animal_Sea_Solid_Large,5,0,0,2744730.0,2745038.0,308.0
116,choice,choice,5,1.0,Pattern,1.0,45.682613332988694,Object_Land_Pattern_Large,4,0,1,2745063.0,2745203.0,140.0
116,choice,choice,5,1.0,Pattern,1.0,45.682613332988694,Object_Land_Pattern_Small,3,0,1,2745487.0,2745649.0,162.0
116,choice,choice,5,1.0,Pattern,1.0,45.682613332988694,Object_Land_Pattern_Large,4,0,1,2745669.0,2745996.0,327.0
116,choice,choice,5,1.0,Pattern,1.0,45.682613332988694,fixation,-1,1,0,2746008.0,2746249.0,241.0
116,choice,choice,5,1.0,Pattern,1.0,45.682613332988694,Object_Land_Pattern_Large,4,0,1,2746479.0,2746727.0,248.0
116,choice,choice,5,1.0,Pattern,1.0,45.682613332988694,fixation,-1,1,0,2746747.0,2746832.0,85.0
116,choice,choice,5,1.0,Pattern,1.0,45.682613332988694,Object_Land_Pattern_Small,3,0,1,2747117.0,2747185.0,68.0
116,choice,choice,5,1.0,Pattern,1.0,45.682613332988694,Animal_Sea_Pattern_Small,0,0,1,2747320.0,2747986.0,666.0
116,choice,choice,5,1.0,Pattern,1.0,45.682613332988694,Object_Land_Solid_Large,1,0,0,2748199.0,2748447.0,248.0
116,choice,choice,5,1.0,Pattern,1.0,45.682613332988694,Animal_Sea_Pattern_Small,0,0,1,2748470.0,2748756.0,286.0
116,choice,choice,5,1.0,Pattern,1.0,45.682613332988694,fixation,-1,1,0,2748776.0,2750239.0,1463.0
116,choice,choice,5,1.0,Pattern,1.0,45.682613332988694,Object_Land_Pattern_Large,4,0,1,2750282.0,2750605.0,323.0
116,choice,choice,5,1.0,Pattern,1.0,45.682613332988694,Animal_Sea_Pattern_Small,0,0,1,2750640.0,2751360.0,720.0
116,choice,choice,5,1.0,Pattern,1.0,45.682613332988694,fixation,-1,1,0,2751382.0,2751964.0,582.0
116,choice,choice,5,1.0,Pattern,1.0,45.682613332988694,Animal_Sea_Solid_Small,2,0,0,2751998.0,2753744.0,1746.0
116,choice,choice,5,1.0,Pattern,1.0,45.682613332988694,Animal_Sea_Pattern_Small,0,0,1,2754287.0,2754363.0,76.0
116,choice,choice,5,1.0,Pattern,1.0,45.682613332988694,Object_Land_Solid_Large,1,0,0,2754559.0,2754796.0,237.0
116,choice,choice,5,1.0,Pattern,1.0,45.682613332988694,Animal_Sea_Pattern_Small,0,0,1,2754819.0,2755180.0,361.0
116,choice,choice,5,1.0,Pattern,1.0,45.682613332988694,fixation,-1,1,0,2755195.0,2755764.0,569.0
116,choice,choice,5,1.0,Pattern,1.0,45.682613332988694,Object_Land_Solid_Large,1,0,0,2755799.0,2756220.0,421.0
116,choice,choice,5,1.0,Pattern,1.0,45.682613332988694,Animal_Sea_Pattern_Small,0,0,1,2756641.0,2756835.0,194.0
116,choice,choice,5,1.0,Pattern,1.0,45.682613332988694,fixation,-1,1,0,2757037.0,2757091.0,54.0
116,choice,choice,5,1.0,Pattern,1.0,45.682613332988694,Object_Land_Pattern_Large,4,0,1,2757332.0,2757629.0,297.0
116,choice,choice,5,1.0,Pattern,1.0,45.682613332988694,Animal_Sea_Pattern_Small,0,0,1,2757651.0,2758144.0,493.0
116,choice,choice,5,1.0,Pattern,1.0,45.682613332988694,Object_Land_Solid_Large,1,0,0,2758166.0,2758276.0,110.0
116,choice,choice,6,1.0,Animal,2.0,4.575419208034873,Animal_Sea_Pattern_Small,0,0,1,2761978.0,2762126.0,148.0
116,choice,choice,6,1.0,Animal,2.0,4.575419208034873,fixation,-1,1,0,2762334.0,2762377.0,43.0
116,choice,choice,6,1.0,Animal,2.0,4.575419208034873,Object_Land_Solid_Large,1,0,0,2762574.0,2762690.0,116.0
116,choice,choice,6,1.0,Animal,2.0,4.575419208034873,Animal_Sea_Pattern_Small,0,0,1,2762898.0,2763035.0,137.0
116,choice,choice,6,1.0,Animal,2.0,4.575419208034873,Object_Land_Solid_Large,1,0,0,2763236.0,2763992.0,756.0
116,choice,choice,6,1.0,Animal,2.0,4.575419208034873,Animal_Sea_Pattern_Small,0,0,1,2764736.0,2765019.0,283.0
116,choice,choice,6,1.0,Animal,2.0,4.575419208034873,Object_Land_Pattern_Large,4,0,0,2765037.0,2765223.0,186.0
116,choice,choice,6,1.0,Animal,2.0,4.575419208034873,fixation,-1,1,0,2765476.0,2765567.0,91.0
116,choice,choice,6,1.0,Animal,2.0,4.575419208034873,Object_Land_Solid_Large,1,0,0,2765757.0,2766155.0,398.0
116,choice,choice,7,1.0,Land,1.0,11.33304287493229,Animal_Sea_Pattern_Small,0,0,0,2769410.0,2769769.0,359.0
116,choice,choice,7,1.0,Land,1.0,11.33304287493229,Object_Land_Solid_Large,1,0,1,2769985.0,2770847.0,862.0
116,choice,choice,7,1.0,Land,1.0,11.33304287493229,fixation,-1,1,0,2771582.0,2771691.0,109.0
116,choice,choice,7,1.0,Land,1.0,11.33304287493229,Object_Land_Solid_Large,1,0,1,2771714.0,2772051.0,337.0
116,choice,choice,7,1.0,Land,1.0,11.33304287493229,Animal_Sea_Pattern_Small,0,0,0,2772085.0,2772396.0,311.0
116,choice,choice,7,1.0,Land,1.0,11.33304287493229,Object_Land_Pattern_Large,4,0,1,2772416.0,2772627.0,211.0
116,choice,choice,7,1.0,Land,1.0,11.33304287493229,fixation,-1,1,0,2772889.0,2773072.0,183.0
116,choice,choice,7,1.0,Land,1.0,11.33304287493229,Animal_Sea_Pattern_Small,0,0,0,2773320.0,2773671.0,351.0
116,choice,choice,7,1.0,Land,1.0,11.33304287493229,Object_Land_Pattern_Large,4,0,1,2773688.0,2774314.0,626.0
116,choice,choice,7,1.0,Land,1.0,11.33304287493229,Object_Land_Solid_Large,1,0,1,2774612.0,2774827.0,215.0
116,choice,choice,7,1.0,Land,1.0,11.33304287493229,Animal_Sea_Solid_Large,5,0,0,2775096.0,2775238.0,142.0
116,choice,choice,7,1.0,Land,1.0,11.33304287493229,fixation,-1,1,0,2776251.0,2776860.0,609.0
116,choice,choice,7,1.0,Land,1.0,11.33304287493229,Object_Land_Solid_Large,1,0,1,2777106.0,2777400.0,294.0
116,choice,choice,7,1.0,Land,1.0,11.33304287493229,Object_Land_Pattern_Small,3,0,1,2777451.0,2778659.0,1208.0
116,choice,choice,7,1.0,Land,1.0,11.33304287493229,fixation,-1,1,0,2778883.0,2779044.0,161.0
116,choice,choice,7,1.0,Land,1.0,11.33304287493229,Object_Land_Pattern_Small,3,0,1,2779334.0,2779412.0,78.0
116,choice,choice,7,1.0,Land,1.0,11.33304287493229,fixation,-1,1,0,2779744.0,2780134.0,390.0
116,choice,choice,7,1.0,Land,1.0,11.33304287493229,Animal_Sea_Pattern_Small,0,0,0,2780156.0,2780292.0,136.0
116,choice,choice,8,1.0,Solid,2.0,1.8497514999471605,fixation,-1,1,0,2783981.0,2784208.0,227.0
116,choice,choice,8,1.0,Solid,2.0,1.8497514999471605,Animal_Sea_Solid_Small,2,0,1,2784446.0,2785097.0,651.0
116,choice,choice,8,1.0,Solid,2.0,1.8497514999471605,Object_Land_Solid_Large,1,0,1,2785336.0,2785445.0,109.0
116,choice,choice,9,2.0,Sea,2.0,7.0729508340591565,Object_Sea_Pattern_Small,0,0,1,3232397.0,3232444.0,47.0
116,choice,choice,9,2.0,Sea,2.0,7.0729508340591565,Animal_Sea_Pattern_Large,1,0,1,3232669.0,3232899.0,230.0
116,choice,choice,9,2.0,Sea,2.0,7.0729508340591565,Animal_Land_Solid_Small,2,0,0,3232931.0,3233410.0,479.0
116,choice,choice,9,2.0,Sea,2.0,7.0729508340591565,fixation,-1,1,0,3233432.0,3233916.0,484.0
116,choice,choice,9,2.0,Sea,2.0,7.0729508340591565,Object_Land_Solid_Small,3,0,0,3234171.0,3234389.0,218.0
116,choice,choice,9,2.0,Sea,2.0,7.0729508340591565,Animal_Land_Solid_Large,4,0,0,3234600.0,3235180.0,580.0
116,choice,choice,9,2.0,Sea,2.0,7.0729508340591565,Object_Land_Solid_Small,3,0,0,3235477.0,3235803.0,326.0
116,choice,choice,9,2.0,Sea,2.0,7.0729508340591565,fixation,-1,1,0,3235821.0,3236297.0,476.0
116,choice,choice,9,2.0,Sea,2.0,7.0729508340591565,Animal_Sea_Pattern_Large,1,0,1,3236309.0,3236453.0,144.0
116,choice,choice,9,2.0,Sea,2.0,7.0729508340591565,Object_Land_Solid_Small,3,0,0,3236650.0,3236911.0,261.0
116,choice,choice,9,2.0,Sea,2.0,7.0729508340591565,fixation,-1,1,0,3236930.0,3237249.0,319.0
116,choice,choice,9,2.0,Sea,2.0,7.0729508340591565,Object_Land_Solid_Small,3,0,0,3237270.0,3238011.0,741.0
116,choice,choice,9,2.0,Sea,2.0,7.0729508340591565,Animal_Land_Solid_Small,2,0,0,3238240.0,3238334.0,94.0
116,choice,choice,9,2.0,Sea,2.0,7.0729508340591565,Object_Sea_Pattern_Large,5,0,1,3238536.0,3238738.0,202.0
116,choice,choice,9,2.0,Sea,2.0,7.0729508340591565,fixation,-1,1,0,3238957.0,3239389.0,432.0
116,choice,choice,10,2.0,Object,2.0,12.49921662500128,fixation,-1,1,0,3243968.0,3244089.0,121.0
116,choice,choice,10,2.0,Object,2.0,12.49921662500128,Animal_Land_Solid_Large,4,0,0,3244277.0,3244937.0,660.0
116,choice,choice,10,2.0,Object,2.0,12.49921662500128,Object_Land_Solid_Small,3,0,1,3245428.0,3245710.0,282.0
116,choice,choice,10,2.0,Object,2.0,12.49921662500128,Animal_Land_Solid_Large,4,0,0,3245745.0,3246276.0,531.0
116,choice,choice,10,2.0,Object,2.0,12.49921662500128,Object_Sea_Pattern_Large,5,0,1,3246774.0,3247013.0,239.0
116,choice,choice,10,2.0,Object,2.0,12.49921662500128,Animal_Land_Solid_Large,4,0,0,3247034.0,3247357.0,323.0
116,choice,choice,10,2.0,Object,2.0,12.49921662500128,Object_Land_Solid_Small,3,0,1,3247379.0,3247476.0,97.0
116,choice,choice,10,2.0,Object,2.0,12.49921662500128,Animal_Sea_Pattern_Large,1,0,0,3247699.0,3247860.0,161.0
116,choice,choice,10,2.0,Object,2.0,12.49921662500128,Animal_Land_Solid_Large,4,0,0,3247888.0,3248167.0,279.0
116,choice,choice,10,2.0,Object,2.0,12.49921662500128,Object_Sea_Pattern_Large,5,0,1,3248189.0,3248337.0,148.0
116,choice,choice,10,2.0,Object,2.0,12.49921662500128,Animal_Land_Solid_Large,4,0,0,3248573.0,3248934.0,361.0
116,choice,choice,10,2.0,Object,2.0,12.49921662500128,Object_Sea_Pattern_Small,0,0,1,3248977.0,3249605.0,628.0
116,choice,choice,10,2.0,Object,2.0,12.49921662500128,Object_Land_Solid_Small,3,0,1,3249684.0,3250369.0,685.0
116,choice,choice,10,2.0,Object,2.0,12.49921662500128,Animal_Sea_Pattern_Large,1,0,0,3250836.0,3251060.0,224.0
116,choice,choice,10,2.0,Object,2.0,12.49921662500128,Animal_Land_Solid_Small,2,0,0,3251281.0,3251706.0,425.0
116,choice,choice,10,2.0,Object,2.0,12.49921662500128,Animal_Sea_Pattern_Large,1,0,0,3251725.0,3253495.0,1770.0
116,choice,choice,10,2.0,Object,2.0,12.49921662500128,Object_Sea_Pattern_Small,0,0,1,3253737.0,3253902.0,165.0
116,choice,choice,10,2.0,Object,2.0,12.49921662500128,Object_Sea_Pattern_Large,5,0,1,3253926.0,3254774.0,848.0
116,choice,choice,10,2.0,Object,2.0,12.49921662500128,Animal_Land_Solid_Small,2,0,0,3255048.0,3255441.0,393.0
116,choice,choice,11,2.0,Small,2.0,31.707161916885525,Animal_Sea_Pattern_Large,1,0,0,3258853.0,3259256.0,403.0
116,choice,choice,11,2.0,Small,2.0,31.707161916885525,Animal_Land_Solid_Large,4,0,0,3259511.0,3260020.0,509.0
116,choice,choice,11,2.0,Small,2.0,31.707161916885525,Object_Sea_Pattern_Large,5,0,0,3260067.0,3261327.0,1260.0
116,choice,choice,11,2.0,Small,2.0,31.707161916885525,Animal_Land_Solid_Large,4,0,0,3262303.0,3262425.0,122.0
116,choice,choice,11,2.0,Small,2.0,31.707161916885525,Object_Land_Solid_Small,3,0,1,3262447.0,3262812.0,365.0
116,choice,choice,11,2.0,Small,2.0,31.707161916885525,Animal_Land_Solid_Large,4,0,0,3262838.0,3263192.0,354.0
116,choice,choice,11,2.0,Small,2.0,31.707161916885525,Object_Land_Solid_Small,3,0,1,3263212.0,3263441.0,229.0
116,choice,choice,11,2.0,Small,2.0,31.707161916885525,Object_Sea_Pattern_Small,0,0,1,3263478.0,3264115.0,637.0
116,choice,choice,11,2.0,Small,2.0,31.707161916885525,fixation,-1,1,0,3264127.0,3264309.0,182.0
116,choice,choice,11,2.0,Small,2.0,31.707161916885525,Object_Sea_Pattern_Small,0,0,1,3264574.0,3265911.0,1337.0
116,choice,choice,11,2.0,Small,2.0,31.707161916885525,Object_Sea_Pattern_Large,5,0,0,3267274.0,3267518.0,244.0
116,choice,choice,11,2.0,Small,2.0,31.707161916885525,Object_Sea_Pattern_Small,0,0,1,3267539.0,3267758.0,219.0
116,choice,choice,11,2.0,Small,2.0,31.707161916885525,fixation,-1,1,0,3267775.0,3268091.0,316.0
116,choice,choice,11,2.0,Small,2.0,31.707161916885525,Object_Sea_Pattern_Small,0,0,1,3268114.0,3268250.0,136.0
116,choice,choice,11,2.0,Small,2.0,31.707161916885525,Object_Sea_Pattern_Large,5,0,0,3268440.0,3268727.0,287.0
116,choice,choice,11,2.0,Small,2.0,31.707161916885525,Object_Sea_Pattern_Small,0,0,1,3268751.0,3269918.0,1167.0
116,choice,choice,11,2.0,Small,2.0,31.707161916885525,fixation,-1,1,0,3270208.0,3270332.0,124.0
116,choice,choice,11,2.0,Small,2.0,31.707161916885525,Object_Sea_Pattern_Small,0,0,1,3270559.0,3271058.0,499.0
116,choice,choice,11,2.0,Small,2.0,31.707161916885525,Object_Sea_Pattern_Large,5,0,0,3271947.0,3272252.0,305.0
116,choice,choice,11,2.0,Small,2.0,31.707161916885525,fixation,-1,1,0,3272264.0,3272587.0,323.0
116,choice,choice,11,2.0,Small,2.0,31.707161916885525,Object_Sea_Pattern_Small,0,0,1,3272843.0,3273021.0,178.0
116,choice,choice,11,2.0,Small,2.0,31.707161916885525,fixation,-1,1,0,3273040.0,3273581.0,541.0
116,choice,choice,11,2.0,Small,2.0,31.707161916885525,Object_Sea_Pattern_Small,0,0,1,3273606.0,3273983.0,377.0
116,choice,choice,11,2.0,Small,2.0,31.707161916885525,fixation,-1,1,0,3274250.0,3274860.0,610.0
116,choice,choice,11,2.0,Small,2.0,31.707161916885525,Object_Sea_Pattern_Large,5,0,0,3274881.0,3275311.0,430.0
116,choice,choice,11,2.0,Small,2.0,31.707161916885525,Object_Sea_Pattern_Small,0,0,1,3275643.0,3276814.0,1171.0
116,choice,choice,11,2.0,Small,2.0,31.707161916885525,fixation,-1,1,0,3276863.0,3277085.0,222.0
116,choice,choice,11,2.0,Small,2.0,31.707161916885525,Object_Land_Solid_Small,3,0,1,3277336.0,3277850.0,514.0
116,choice,choice,11,2.0,Small,2.0,31.707161916885525,Animal_Land_Solid_Large,4,0,0,3277897.0,3278481.0,584.0
116,choice,choice,11,2.0,Small,2.0,31.707161916885525,Object_Land_Solid_Small,3,0,1,3278751.0,3278957.0,206.0
116,choice,choice,11,2.0,Small,2.0,31.707161916885525,Animal_Land_Solid_Large,4,0,0,3278982.0,3279164.0,182.0
116,choice,choice,11,2.0,Small,2.0,31.707161916885525,Object_Sea_Pattern_Large,5,0,0,3279425.0,3279561.0,136.0
116,choice,choice,11,2.0,Small,2.0,31.707161916885525,Object_Sea_Pattern_Small,0,0,1,3279587.0,3279786.0,199.0
116,choice,choice,11,2.0,Small,2.0,31.707161916885525,fixation,-1,1,0,3279812.0,3280005.0,193.0
116,choice,choice,11,2.0,Small,2.0,31.707161916885525,Animal_Sea_Pattern_Large,1,0,0,3280030.0,3281602.0,1572.0
116,choice,choice,11,2.0,Small,2.0,31.707161916885525,Animal_Land_Solid_Small,2,0,1,3281868.0,3282182.0,314.0
116,choice,choice,11,2.0,Small,2.0,31.707161916885525,Object_Sea_Pattern_Large,5,0,0,3282438.0,3282860.0,422.0
116,choice,choice,11,2.0,Small,2.0,31.707161916885525,Animal_Land_Solid_Large,4,0,0,3282882.0,3283054.0,172.0
116,choice,choice,11,2.0,Small,2.0,31.707161916885525,Object_Land_Solid_Small,3,0,1,3283295.0,3284332.0,1037.0
116,choice,choice,11,2.0,Small,2.0,31.707161916885525,Animal_Land_Solid_Large,4,0,0,3284391.0,3285013.0,622.0
116,choice,choice,11,2.0,Small,2.0,31.707161916885525,Object_Sea_Pattern_Large,5,0,0,3285034.0,3286396.0,1362.0
116,choice,choice,11,2.0,Small,2.0,31.707161916885525,Animal_Sea_Pattern_Large,1,0,0,3286949.0,3287897.0,948.0
116,choice,choice,11,2.0,Small,2.0,31.707161916885525,fixation,-1,1,0,3288317.0,3288638.0,321.0
116,choice,choice,11,2.0,Small,2.0,31.707161916885525,Object_Sea_Pattern_Small,0,0,1,3288657.0,3288780.0,123.0
116,choice,choice,11,2.0,Small,2.0,31.707161916885525,Animal_Sea_Pattern_Large,1,0,0,3289023.0,3289653.0,630.0
116,choice,choice,11,2.0,Small,2.0,31.707161916885525,Animal_Land_Solid_Small,2,0,1,3289691.0,3289855.0,164.0
116,choice,choice,11,2.0,Small,2.0,31.707161916885525,Object_Sea_Pattern_Large,5,0,0,3289881.0,3290105.0,224.0
116,choice,choice,11,2.0,Small,2.0,31.707161916885525,Object_Land_Solid_Small,3,0,1,3290143.0,3290364.0,221.0
116,choice,choice,12,2.0,Large,1.0,29.81889737502206,Animal_Land_Solid_Large,4,0,1,3293827.0,3294187.0,360.0
116,choice,choice,12,2.0,Large,1.0,29.81889737502206,Object_Sea_Pattern_Small,0,0,0,3294486.0,3294680.0,194.0
116,choice,choice,12,2.0,Large,1.0,29.81889737502206,Animal_Land_Solid_Small,2,0,0,3294959.0,3295134.0,175.0
116,choice,choice,12,2.0,Large,1.0,29.81889737502206,Animal_Sea_Pattern_Large,1,0,1,3295168.0,3295489.0,321.0
116,choice,choice,12,2.0,Large,1.0,29.81889737502206,fixation,-1,1,0,3295514.0,3295761.0,247.0
116,choice,choice,12,2.0,Large,1.0,29.81889737502206,Animal_Land_Solid_Large,4,0,1,3296006.0,3296939.0,933.0
116,choice,choice,12,2.0,Large,1.0,29.81889737502206,Object_Sea_Pattern_Small,0,0,0,3297367.0,3297435.0,68.0
116,choice,choice,12,2.0,Large,1.0,29.81889737502206,Animal_Land_Solid_Small,2,0,0,3297642.0,3297758.0,116.0
116,choice,choice,12,2.0,Large,1.0,29.81889737502206,Object_Sea_Pattern_Large,5,0,1,3297999.0,3298370.0,371.0
116,choice,choice,12,2.0,Large,1.0,29.81889737502206,Object_Land_Solid_Small,3,0,0,3298394.0,3298915.0,521.0
116,choice,choice,12,2.0,Large,1.0,29.81889737502206,fixation,-1,1,0,3298940.0,3299144.0,204.0
116,choice,choice,12,2.0,Large,1.0,29.81889737502206,Object_Sea_Pattern_Small,0,0,0,3299379.0,3300069.0,690.0
116,choice,choice,12,2.0,Large,1.0,29.81889737502206,Object_Sea_Pattern_Large,5,0,1,3300335.0,3300978.0,643.0
116,choice,choice,12,2.0,Large,1.0,29.81889737502206,Animal_Land_Solid_Large,4,0,1,3301535.0,3304172.0,2637.0
116,choice,choice,12,2.0,Large,1.0,29.81889737502206,Object_Sea_Pattern_Large,5,0,1,3305546.0,3307738.0,2192.0
116,choice,choice,12,2.0,Large,1.0,29.81889737502206,Animal_Land_Solid_Large,4,0,1,3309005.0,3309264.0,259.0
116,choice,choice,12,2.0,Large,1.0,29.81889737502206,Animal_Sea_Pattern_Large,1,0,1,3309290.0,3310252.0,962.0
116,choice,choice,12,2.0,Large,1.0,29.81889737502206,Animal_Land_Solid_Small,2,0,0,3310498.0,3311226.0,728.0
116,choice,choice,12,2.0,Large,1.0,29.81889737502206,Animal_Sea_Pattern_Large,1,0,1,3311564.0,3312524.0,960.0
116,choice,choice,12,2.0,Large,1.0,29.81889737502206,Object_Sea_Pattern_Large,5,0,1,3312600.0,3315012.0,2412.0
116,choice,choice,12,2.0,Large,1.0,29.81889737502206,Object_Sea_Pattern_Small,0,0,0,3315075.0,3315492.0,417.0
116,choice,choice,12,2.0,Large,1.0,29.81889737502206,Object_Sea_Pattern_Large,5,0,1,3315502.0,3320239.0,4737.0
116,choice,choice,12,2.0,Large,1.0,29.81889737502206,fixation,-1,1,0,3321907.0,3322323.0,416.0
116,choice,choice,12,2.0,Large,1.0,29.81889737502206,Animal_Sea_Pattern_Large,1,0,1,3322539.0,3322724.0,185.0
116,choice,choice,12,2.0,Large,1.0,29.81889737502206,fixation,-1,1,0,3322929.0,3323238.0,309.0
116,choice,choice,13,2.0,Pattern,1.0,14.259572041919457,Animal_Sea_Pattern_Large,1,0,1,3326924.0,3326975.0,51.0
116,choice,choice,13,2.0,Pattern,1.0,14.259572041919457,Object_Land_Solid_Small,3,0,0,3327222.0,3327360.0,138.0
116,choice,choice,13,2.0,Pattern,1.0,14.259572041919457,Animal_Land_Solid_Large,4,0,0,3327599.0,3328183.0,584.0
116,choice,choice,13,2.0,Pattern,1.0,14.259572041919457,Object_Sea_Pattern_Large,5,0,1,3328449.0,3328658.0,209.0
116,choice,choice,13,2.0,Pattern,1.0,14.259572041919457,Object_Land_Solid_Small,3,0,0,3328894.0,3329556.0,662.0
116,choice,choice,13,2.0,Pattern,1.0,14.259572041919457,Object_Sea_Pattern_Small,0,0,1,3329593.0,3330039.0,446.0
116,choice,choice,13,2.0,Pattern,1.0,14.259572041919457,Animal_Land_Solid_Small,2,0,0,3330568.0,3330614.0,46.0
116,choice,choice,13,2.0,Pattern,1.0,14.259572041919457,Object_Sea_Pattern_Small,0,0,1,3330677.0,3332620.0,1943.0
116,choice,choice,13,2.0,Pattern,1.0,14.259572041919457,fixation,-1,1,0,3334790.0,3335556.0,766.0
116,choice,choice,13,2.0,Pattern,1.0,14.259572041919457,Object_Sea_Pattern_Small,0,0,1,3335781.0,3336479.0,698.0
116,choice,choice,13,2.0,Pattern,1.0,14.259572041919457,fixation,-1,1,0,3336791.0,3337028.0,237.0
116,choice,choice,13,2.0,Pattern,1.0,14.259572041919457,Object_Sea_Pattern_Small,0,0,1,3337357.0,3338437.0,1080.0
116,choice,choice,13,2.0,Pattern,1.0,14.259572041919457,Animal_Sea_Pattern_Large,1,0,1,3338807.0,3340039.0,1232.0
116,choice,choice,14,2.0,Land,2.0,10.671904999995604,Object_Land_Solid_Small,3,0,1,3343734.0,3343966.0,232.0
116,choice,choice,14,2.0,Land,2.0,10.671904999995604,fixation,-1,1,0,3344206.0,3344581.0,375.0
116,choice,choice,14,2.0,Land,2.0,10.671904999995604,Object_Land_Solid_Small,3,0,1,3345131.0,3345228.0,97.0
116,choice,choice,14,2.0,Land,2.0,10.671904999995604,Animal_Land_Solid_Large,4,0,1,3345544.0,3345880.0,336.0
116,choice,choice,14,2.0,Land,2.0,10.671904999995604,Object_Sea_Pattern_Small,0,0,0,3346476.0,3347266.0,790.0
116,choice,choice,14,2.0,Land,2.0,10.671904999995604,Object_Sea_Pattern_Large,5,0,0,3347807.0,3348381.0,574.0
116,choice,choice,14,2.0,Land,2.0,10.671904999995604,fixation,-1,1,0,3348396.0,3348620.0,224.0
116,choice,choice,14,2.0,Land,2.0,10.671904999995604,Object_Sea_Pattern_Large,5,0,0,3348853.0,3349879.0,1026.0
116,choice,choice,14,2.0,Land,2.0,10.671904999995604,Object_Sea_Pattern_Small,0,0,0,3350585.0,3351480.0,895.0
116,choice,choice,14,2.0,Land,2.0,10.671904999995604,fixation,-1,1,0,3351813.0,3351956.0,143.0
116,choice,choice,14,2.0,Land,2.0,10.671904999995604,Object_Sea_Pattern_Large,5,0,0,3352214.0,3353263.0,1049.0
116,choice,choice,14,2.0,Land,2.0,10.671904999995604,Animal_Land_Solid_Small,2,0,1,3353768.0,3354111.0,343.0
116,choice,choice,15,2.0,Animal,1.0,31.198161417036317,Animal_Sea_Pattern_Large,1,0,1,3357249.0,3357524.0,275.0
116,choice,choice,15,2.0,Animal,1.0,31.198161417036317,fixation,-1,1,0,3357538.0,3357944.0,406.0
116,choice,choice,15,2.0,Animal,1.0,31.198161417036317,Object_Land_Solid_Small,3,0,0,3357957.0,3358076.0,119.0
116,choice,choice,15,2.0,Animal,1.0,31.198161417036317,fixation,-1,1,0,3358390.0,3358563.0,173.0
116,choice,choice,15,2.0,Animal,1.0,31.198161417036317,Animal_Land_Solid_Large,4,0,1,3358825.0,3358999.0,174.0
116,choice,choice,15,2.0,Animal,1.0,31.198161417036317,Object_Sea_Pattern_Large,5,0,0,3359252.0,3359807.0,555.0
116,choice,choice,15,2.0,Animal,1.0,31.198161417036317,Animal_Land_Solid_Large,4,0,1,3360090.0,3360549.0,459.0
116,choice,choice,15,2.0,Animal,1.0,31.198161417036317,Animal_Land_Solid_Small,2,0,1,3360815.0,3360899.0,84.0
116,choice,choice,15,2.0,Animal,1.0,31.198161417036317,Object_Sea_Pattern_Small,0,0,0,3361128.0,3361416.0,288.0
116,choice,choice,15,2.0,Animal,1.0,31.198161417036317,fixation,-1,1,0,3361436.0,3361816.0,380.0
116,choice,choice,15,2.0,Animal,1.0,31.198161417036317,Animal_Land_Solid_Small,2,0,1,3362074.0,3362148.0,74.0
116,choice,choice,15,2.0,Animal,1.0,31.198161417036317,Object_Sea_Pattern_Small,0,0,0,3362394.0,3362669.0,275.0
116,choice,choice,15,2.0,Animal,1.0,31.198161417036317,fixation,-1,1,0,3362687.0,3362848.0,161.0
116,choice,choice,15,2.0,Animal,1.0,31.198161417036317,Object_Sea_Pattern_Large,5,0,0,3363107.0,3363658.0,551.0
116,choice,choice,15,2.0,Animal,1.0,31.198161417036317,Animal_Land_Solid_Small,2,0,1,3363939.0,3364182.0,243.0
116,choice,choice,15,2.0,Animal,1.0,31.198161417036317,Object_Sea_Pattern_Small,0,0,0,3364199.0,3365673.0,1474.0
116,choice,choice,15,2.0,Animal,1.0,31.198161417036317,fixation,-1,1,0,3366178.0,3366594.0,416.0
116,choice,choice,15,2.0,Animal,1.0,31.198161417036317,Animal_Land_Solid_Large,4,0,1,3366849.0,3367446.0,597.0
116,choice,choice,15,2.0,Animal,1.0,31.198161417036317,Animal_Land_Solid_Small,2,0,1,3367900.0,3368241.0,341.0
116,choice,choice,15,2.0,Animal,1.0,31.198161417036317,fixation,-1,1,0,3368275.0,3368768.0,493.0
116,choice,choice,15,2.0,Animal,1.0,31.198161417036317,Object_Sea_Pattern_Large,5,0,0,3368797.0,3370118.0,1321.0
116,choice,choice,15,2.0,Animal,1.0,31.198161417036317,fixation,-1,1,0,3370462.0,3370684.0,222.0
116,choice,choice,15,2.0,Animal,1.0,31.198161417036317,Object_Sea_Pattern_Large,5,0,0,3370980.0,3371167.0,187.0
116,choice,choice,15,2.0,Animal,1.0,31.198161417036317,Object_Sea_Pattern_Small,0,0,0,3371189.0,3371396.0,207.0
116,choice,choice,15,2.0,Animal,1.0,31.198161417036317,fixation,-1,1,0,3371413.0,3371577.0,164.0
116,choice,choice,15,2.0,Animal,1.0,31.198161417036317,Animal_Sea_Pattern_Large,1,0,1,3371602.0,3371920.0,318.0
116,choice,choice,15,2.0,Animal,1.0,31.198161417036317,Animal_Land_Solid_Small,2,0,1,3372409.0,3372470.0,61.0
116,choice,choice,15,2.0,Animal,1.0,31.198161417036317,Object_Sea_Pattern_Small,0,0,0,3373055.0,3373431.0,376.0
116,choice,choice,15,2.0,Animal,1.0,31.198161417036317,Animal_Land_Solid_Small,2,0,1,3373714.0,3374320.0,606.0
116,choice,choice,15,2.0,Animal,1.0,31.198161417036317,Object_Sea_Pattern_Large,5,0,0,3374562.0,3374785.0,223.0
116,choice,choice,15,2.0,Animal,1.0,31.198161417036317,fixation,-1,1,0,3374798.0,3374928.0,130.0
116,choice,choice,15,2.0,Animal,1.0,31.198161417036317,Object_Sea_Pattern_Small,0,0,0,3375193.0,3375315.0,122.0
116,choice,choice,15,2.0,Animal,1.0,31.198161417036317,Animal_Land_Solid_Small,2,0,1,3375340.0,3375643.0,303.0
116,choice,choice,15,2.0,Animal,1.0,31.198161417036317,Object_Sea_Pattern_Small,0,0,0,3375666.0,3376166.0,500.0
116,choice,choice,15,2.0,Animal,1.0,31.198161417036317,Animal_Land_Solid_Large,4,0,1,3376199.0,3376525.0,326.0
116,choice,choice,15,2.0,Animal,1.0,31.198161417036317,Object_Land_Solid_Small,3,0,0,3376548.0,3376728.0,180.0
116,choice,choice,15,2.0,Animal,1.0,31.198161417036317,Object_Sea_Pattern_Large,5,0,0,3377000.0,3377676.0,676.0
116,choice,choice,15,2.0,Animal,1.0,31.198161417036317,Animal_Land_Solid_Large,4,0,1,3377699.0,3378092.0,393.0
116,choice,choice,15,2.0,Animal,1.0,31.198161417036317,Object_Land_Solid_Small,3,0,0,3378331.0,3378505.0,174.0
116,choice,choice,15,2.0,Animal,1.0,31.198161417036317,fixation,-1,1,0,3378761.0,3379069.0,308.0
116,choice,choice,15,2.0,Animal,1.0,31.198161417036317,Object_Sea_Pattern_Small,0,0,0,3379094.0,3380975.0,1881.0
116,choice,choice,15,2.0,Animal,1.0,31.198161417036317,fixation,-1,1,0,3381734.0,3382013.0,279.0
116,choice,choice,15,2.0,Animal,1.0,31.198161417036317,Object_Land_Solid_Small,3,0,0,3382038.0,3382485.0,447.0
116,choice,choice,15,2.0,Animal,1.0,31.198161417036317,Animal_Land_Solid_Large,4,0,1,3383033.0,3383334.0,301.0
116,choice,choice,15,2.0,Animal,1.0,31.198161417036317,Object_Sea_Pattern_Large,5,0,0,3383357.0,3383786.0,429.0
116,choice,choice,15,2.0,Animal,1.0,31.198161417036317,Object_Sea_Pattern_Small,0,0,0,3384284.0,3385040.0,756.0
116,choice,choice,15,2.0,Animal,1.0,31.198161417036317,fixation,-1,1,0,3385073.0,3385790.0,717.0
116,choice,choice,15,2.0,Animal,1.0,31.198161417036317,Object_Sea_Pattern_Small,0,0,0,3385803.0,3386086.0,283.0
116,choice,choice,15,2.0,Animal,1.0,31.198161417036317,fixation,-1,1,0,3386313.0,3386690.0,377.0
116,choice,choice,15,2.0,Animal,1.0,31.198161417036317,Object_Sea_Pattern_Small,0,0,0,3386712.0,3387058.0,346.0
116,choice,choice,15,2.0,Animal,1.0,31.198161417036317,Object_Sea_Pattern_Large,5,0,0,3387323.0,3387760.0,437.0
116,choice,choice,15,2.0,Animal,1.0,31.198161417036317,Object_Land_Solid_Small,3,0,0,3387796.0,3387864.0,68.0
116,choice,choice,16,2.0,Solid,2.0,11.72599966695998,Animal_Sea_Pattern_Large,1,0,0,3391751.0,3391875.0,124.0
116,choice,choice,16,2.0,Solid,2.0,11.72599966695998,fixation,-1,1,0,3391880.0,3392214.0,334.0
116,choice,choice,16,2.0,Solid,2.0,11.72599966695998,Animal_Land_Solid_Large,4,0,1,3392237.0,3393066.0,829.0
116,choice,choice,16,2.0,Solid,2.0,11.72599966695998,fixation,-1,1,0,3393366.0,3393422.0,56.0
116,choice,choice,16,2.0,Solid,2.0,11.72599966695998,Animal_Land_Solid_Large,4,0,1,3393695.0,3393981.0,286.0
116,choice,choice,16,2.0,Solid,2.0,11.72599966695998,Object_Sea_Pattern_Large,5,0,0,3394003.0,3394629.0,626.0
116,choice,choice,16,2.0,Solid,2.0,11.72599966695998,fixation,-1,1,0,3394875.0,3396000.0,1125.0
116,choice,choice,16,2.0,Solid,2.0,11.72599966695998,Object_Land_Solid_Small,3,0,1,3396015.0,3396190.0,175.0
116,choice,choice,16,2.0,Solid,2.0,11.72599966695998,Animal_Land_Solid_Large,4,0,1,3396475.0,3396732.0,257.0
116,choice,choice,16,2.0,Solid,2.0,11.72599966695998,fixation,-1,1,0,3397013.0,3397245.0,232.0
116,choice,choice,16,2.0,Solid,2.0,11.72599966695998,Animal_Land_Solid_Large,4,0,1,3397265.0,3398442.0,1177.0
116,choice,choice,16,2.0,Solid,2.0,11.72599966695998,Object_Sea_Pattern_Small,0,0,0,3398951.0,3399665.0,714.0
116,choice,choice,16,2.0,Solid,2.0,11.72599966695998,Object_Sea_Pattern_Large,5,0,0,3400159.0,3400337.0,178.0
116,choice,choice,16,2.0,Solid,2.0,11.72599966695998,Object_Land_Solid_Small,3,0,1,3400362.0,3400744.0,382.0
116,choice,choice,16,2.0,Solid,2.0,11.72599966695998,Object_Sea_Pattern_Small,0,0,0,3400988.0,3401546.0,558.0
116,choice,choice,16,2.0,Solid,2.0,11.72599966695998,Animal_Land_Solid_Small,2,0,1,3401580.0,3402291.0,711.0
116,choice,choice,16,2.0,Solid,2.0,11.72599966695998,Animal_Sea_Pattern_Large,1,0,0,3402486.0,3402649.0,163.0
116,choice,choice,17,3.0,Solid,1.0,36.96781354106497,Object_Sea_Solid_Large,0,0,1,3756848.0,3757041.0,193.0
116,choice,choice,17,3.0,Solid,1.0,36.96781354106497,Animal_Land_Pattern_Small,1,0,0,3757253.0,3757648.0,395.0
116,choice,choice,17,3.0,Solid,1.0,36.96781354106497,Object_Land_Solid_Small,2,0,1,3757665.0,3758104.0,439.0
116,choice,choice,17,3.0,Solid,1.0,36.96781354106497,Animal_Sea_Pattern_Large,3,0,0,3758323.0,3758440.0,117.0
116,choice,choice,17,3.0,Solid,1.0,36.96781354106497,Animal_Land_Pattern_Small,1,0,0,3758641.0,3759097.0,456.0
116,choice,choice,17,3.0,Solid,1.0,36.96781354106497,fixation,-1,1,0,3759118.0,3759300.0,182.0
116,choice,choice,17,3.0,Solid,1.0,36.96781354106497,Animal_Sea_Pattern_Large,3,0,0,3759536.0,3759600.0,64.0
116,choice,choice,17,3.0,Solid,1.0,36.96781354106497,Object_Land_Solid_Small,2,0,1,3759822.0,3760050.0,228.0
116,choice,choice,17,3.0,Solid,1.0,36.96781354106497,Animal_Sea_Pattern_Large,3,0,0,3760068.0,3760315.0,247.0
116,choice,choice,17,3.0,Solid,1.0,36.96781354106497,Object_Sea_Solid_Small,4,0,1,3760569.0,3761011.0,442.0
116,choice,choice,17,3.0,Solid,1.0,36.96781354106497,Animal_Sea_Pattern_Large,3,0,0,3761028.0,3761426.0,398.0
116,choice,choice,17,3.0,Solid,1.0,36.96781354106497,Object_Land_Solid_Small,2,0,1,3761670.0,3761876.0,206.0
116,choice,choice,17,3.0,Solid,1.0,36.96781354106497,Animal_Land_Pattern_Large,5,0,0,3761900.0,3762041.0,141.0
116,choice,choice,17,3.0,Solid,1.0,36.96781354106497,Object_Sea_Solid_Small,4,0,1,3762283.0,3763111.0,828.0
116,choice,choice,17,3.0,Solid,1.0,36.96781354106497,Animal_Land_Pattern_Small,1,0,0,3763356.0,3764001.0,645.0
116,choice,choice,17,3.0,Solid,1.0,36.96781354106497,fixation,-1,1,0,3764024.0,3764182.0,158.0
116,choice,choice,17,3.0,Solid,1.0,36.96781354106497,Object_Land_Solid_Small,2,0,1,3764387.0,3764667.0,280.0
116,choice,choice,17,3.0,Solid,1.0,36.96781354106497,fixation,-1,1,0,3764682.0,3765374.0,692.0
116,choice,choice,17,3.0,Solid,1.0,36.96781354106497,Object_Land_Solid_Small,2,0,1,3765389.0,3765738.0,349.0
116,choice,choice,17,3.0,Solid,1.0,36.96781354106497,fixation,-1,1,0,3765935.0,3766296.0,361.0
116,choice,choice,17,3.0,Solid,1.0,36.96781354106497,Animal_Sea_Pattern_Large,3,0,0,3766311.0,3766527.0,216.0
116,choice,choice,17,3.0,Solid,1.0,36.96781354106497,fixation,-1,1,0,3766722.0,3767401.0,679.0
116,choice,choice,17,3.0,Solid,1.0,36.96781354106497,Object_Land_Solid_Small,2,0,1,3767423.0,3767797.0,374.0
116,choice,choice,17,3.0,Solid,1.0,36.96781354106497,Animal_Land_Pattern_Small,1,0,0,3768239.0,3769221.0,982.0
116,choice,choice,17,3.0,Solid,1.0,36.96781354106497,fixation,-1,1,0,3769464.0,3769738.0,274.0
116,choice,choice,17,3.0,Solid,1.0,36.96781354106497,Object_Land_Solid_Small,2,0,1,3769978.0,3770174.0,196.0
116,choice,choice,17,3.0,Solid,1.0,36.96781354106497,Object_Sea_Solid_Large,0,0,1,3770419.0,3771047.0,628.0
116,choice,choice,17,3.0,Solid,1.0,36.96781354106497,Object_Land_Solid_Small,2,0,1,3771060.0,3771384.0,324.0
116,choice,choice,17,3.0,Solid,1.0,36.96781354106497,fixation,-1,1,0,3771401.0,3772701.0,1300.0
116,choice,choice,17,3.0,Solid,1.0,36.96781354106497,Object_Sea_Solid_Large,0,0,1,3773189.0,3773894.0,705.0
116,choice,choice,17,3.0,Solid,1.0,36.96781354106497,Animal_Land_Pattern_Large,5,0,0,3774123.0,3774524.0,401.0
116,choice,choice,17,3.0,Solid,1.0,36.96781354106497,Animal_Land_Pattern_Small,1,0,0,3774547.0,3774936.0,389.0
116,choice,choice,17,3.0,Solid,1.0,36.96781354106497,fixation,-1,1,0,3775486.0,3775770.0,284.0
116,choice,choice,17,3.0,Solid,1.0,36.96781354106497,Animal_Land_Pattern_Large,5,0,0,3776092.0,3778227.0,2135.0
116,choice,choice,17,3.0,Solid,1.0,36.96781354106497,fixation,-1,1,0,3779536.0,3780165.0,629.0
116,choice,choice,17,3.0,Solid,1.0,36.96781354106497,Animal_Land_Pattern_Large,5,0,0,3780374.0,3781487.0,1113.0
116,choice,choice,17,3.0,Solid,1.0,36.96781354106497,Object_Sea_Solid_Large,0,0,1,3781782.0,3782506.0,724.0
116,choice,choice,17,3.0,Solid,1.0,36.96781354106497,Animal_Land_Pattern_Large,5,0,0,3782762.0,3783187.0,425.0
116,choice,choice,17,3.0,Solid,1.0,36.96781354106497,Animal_Land_Pattern_Small,1,0,0,3784126.0,3784273.0,147.0
116,choice,choice,17,3.0,Solid,1.0,36.96781354106497,Object_Sea_Solid_Large,0,0,1,3784297.0,3785681.0,1384.0
116,choice,choice,17,3.0,Solid,1.0,36.96781354106497,fixation,-1,1,0,3786185.0,3787161.0,976.0
116,choice,choice,17,3.0,Solid,1.0,36.96781354106497,Animal_Land_Pattern_Small,1,0,0,3787422.0,3787600.0,178.0
116,choice,choice,17,3.0,Solid,1.0,36.96781354106497,Object_Sea_Solid_Large,0,0,1,3787841.0,3788318.0,477.0
116,choice,choice,17,3.0,Solid,1.0,36.96781354106497,Animal_Land_Pattern_Small,1,0,0,3788361.0,3788476.0,115.0
116,choice,choice,17,3.0,Solid,1.0,36.96781354106497,Object_Sea_Solid_Large,0,0,1,3788718.0,3789011.0,293.0
116,choice,choice,17,3.0,Solid,1.0,36.96781354106497,Animal_Land_Pattern_Small,1,0,0,3789033.0,3789210.0,177.0
116,choice,choice,17,3.0,Solid,1.0,36.96781354106497,Object_Sea_Solid_Large,0,0,1,3789467.0,3790081.0,614.0
116,choice,choice,17,3.0,Solid,1.0,36.96781354106497,Animal_Land_Pattern_Small,1,0,0,3790359.0,3790913.0,554.0
116,choice,choice,17,3.0,Solid,1.0,36.96781354106497,Object_Sea_Solid_Large,0,0,1,3791163.0,3791615.0,452.0
116,choice,choice,17,3.0,Solid,1.0,36.96781354106497,Object_Land_Solid_Small,2,0,1,3791636.0,3792651.0,1015.0
116,choice,choice,17,3.0,Solid,1.0,36.96781354106497,fixation,-1,1,0,3792869.0,3792984.0,115.0
116,choice,choice,17,3.0,Solid,1.0,36.96781354106497,Animal_Land_Pattern_Small,1,0,0,3793203.0,3793329.0,126.0
116,choice,choice,18,3.0,Pattern,1.0,10.451914958888665,Object_Sea_Solid_Small,4,0,0,3796993.0,3797031.0,38.0
116,choice,choice,18,3.0,Pattern,1.0,10.451914958888665,fixation,-1,1,0,3797284.0,3797685.0,401.0
116,choice,choice,18,3.0,Pattern,1.0,10.451914958888665,Animal_Land_Pattern_Small,1,0,1,3797917.0,3798192.0,275.0
116,choice,choice,18,3.0,Pattern,1.0,10.451914958888665,Object_Land_Solid_Small,2,0,0,3798400.0,3799042.0,642.0
116,choice,choice,18,3.0,Pattern,1.0,10.451914958888665,Animal_Land_Pattern_Small,1,0,1,3799272.0,3799882.0,610.0
116,choice,choice,18,3.0,Pattern,1.0,10.451914958888665,Object_Land_Solid_Small,2,0,0,3800088.0,3800434.0,346.0
116,choice,choice,18,3.0,Pattern,1.0,10.451914958888665,Animal_Land_Pattern_Small,1,0,1,3800623.0,3801176.0,553.0
116,choice,choice,18,3.0,Pattern,1.0,10.451914958888665,fixation,-1,1,0,3801392.0,3801782.0,390.0
116,choice,choice,18,3.0,Pattern,1.0,10.451914958888665,Animal_Land_Pattern_Large,5,0,1,3801806.0,3802035.0,229.0
116,choice,choice,18,3.0,Pattern,1.0,10.451914958888665,Animal_Land_Pattern_Small,1,0,1,3802225.0,3804945.0,2720.0
116,choice,choice,18,3.0,Pattern,1.0,10.451914958888665,fixation,-1,1,0,3805915.0,3806587.0,672.0
116,choice,choice,18,3.0,Pattern,1.0,10.451914958888665,Animal_Sea_Pattern_Large,3,0,1,3806603.0,3806784.0,181.0
116,choice,choice,19,3.0,Large,2.0,12.827501707943156,Animal_Sea_Pattern_Large,3,0,1,3810479.0,3810675.0,196.0
116,choice,choice,19,3.0,Large,2.0,12.827501707943156,Animal_Land_Pattern_Large,5,0,1,3810754.0,3810978.0,224.0
116,choice,choice,19,3.0,Large,2.0,12.827501707943156,fixation,-1,1,0,3810999.0,3811367.0,368.0
116,choice,choice,19,3.0,Large,2.0,12.827501707943156,Animal_Land_Pattern_Small,1,0,0,3811381.0,3811926.0,545.0
116,choice,choice,19,3.0,Large,2.0,12.827501707943156,Object_Sea_Solid_Large,0,0,1,3812189.0,3812598.0,409.0
116,choice,choice,19,3.0,Large,2.0,12.827501707943156,Object_Land_Solid_Small,2,0,0,3812629.0,3812879.0,250.0
116,choice,choice,19,3.0,Large,2.0,12.827501707943156,fixation,-1,1,0,3813102.0,3813642.0,540.0
116,choice,choice,19,3.0,Large,2.0,12.827501707943156,Animal_Land_Pattern_Large,5,0,1,3813656.0,3813971.0,315.0
116,choice,choice,19,3.0,Large,2.0,12.827501707943156,Object_Sea_Solid_Small,4,0,0,3814205.0,3814455.0,250.0
116,choice,choice,19,3.0,Large,2.0,12.827501707943156,fixation,-1,1,0,3814469.0,3815732.0,1263.0
116,choice,choice,19,3.0,Large,2.0,12.827501707943156,Animal_Land_Pattern_Small,1,0,0,3815766.0,3816046.0,280.0
116,choice,choice,19,3.0,Large,2.0,12.827501707943156,fixation,-1,1,0,3816277.0,3816611.0,334.0
116,choice,choice,19,3.0,Large,2.0,12.827501707943156,Animal_Land_Pattern_Large,5,0,1,3816635.0,3817230.0,595.0
116,choice,choice,19,3.0,Large,2.0,12.827501707943156,fixation,-1,1,0,3817293.0,3817519.0,226.0
116,choice,choice,19,3.0,Large,2.0,12.827501707943156,Object_Sea_Solid_Large,0,0,1,3817545.0,3817841.0,296.0
116,choice,choice,19,3.0,Large,2.0,12.827501707943156,Animal_Land_Pattern_Large,5,0,1,3817985.0,3818948.0,963.0
116,choice,choice,19,3.0,Large,2.0,12.827501707943156,Object_Sea_Solid_Large,0,0,1,3819207.0,3819690.0,483.0
116,choice,choice,19,3.0,Large,2.0,12.827501707943156,Animal_Land_Pattern_Small,1,0,0,3819710.0,3820017.0,307.0
116,choice,choice,19,3.0,Large,2.0,12.827501707943156,Object_Land_Solid_Small,2,0,0,3820035.0,3820121.0,86.0
116,choice,choice,19,3.0,Large,2.0,12.827501707943156,fixation,-1,1,0,3820352.0,3820625.0,273.0
116,choice,choice,19,3.0,Large,2.0,12.827501707943156,Object_Sea_Solid_Small,4,0,0,3820645.0,3821165.0,520.0
116,choice,choice,19,3.0,Large,2.0,12.827501707943156,Animal_Sea_Pattern_Large,3,0,1,3821187.0,3821913.0,726.0
116,choice,choice,19,3.0,Large,2.0,12.827501707943156,fixation,-1,1,0,3822384.0,3822868.0,484.0
116,choice,choice,19,3.0,Large,2.0,12.827501707943156,Animal_Sea_Pattern_Large,3,0,1,3822898.0,3822963.0,65.0
116,choice,choice,20,3.0,Object,1.0,26.03446949995123,Object_Land_Solid_Small,2,0,1,3826046.0,3826077.0,31.0
116,choice,choice,20,3.0,Object,1.0,26.03446949995123,Animal_Sea_Pattern_Large,3,0,0,3826353.0,3826588.0,235.0
116,choice,choice,20,3.0,Object,1.0,26.03446949995123,fixation,-1,1,0,3826607.0,3826804.0,197.0
116,choice,choice,20,3.0,Object,1.0,26.03446949995123,Object_Land_Solid_Small,2,0,1,3826829.0,3827161.0,332.0
116,choice,choice,20,3.0,Object,1.0,26.03446949995123,fixation,-1,1,0,3827416.0,3827639.0,223.0
116,choice,choice,20,3.0,Object,1.0,26.03446949995123,Object_Land_Solid_Small,2,0,1,3827655.0,3828692.0,1037.0
116,choice,choice,20,3.0,Object,1.0,26.03446949995123,Object_Sea_Solid_Large,0,0,1,3828720.0,3829193.0,473.0
116,choice,choice,20,3.0,Object,1.0,26.03446949995123,Animal_Sea_Pattern_Large,3,0,0,3829255.0,3829475.0,220.0
116,choice,choice,20,3.0,Object,1.0,26.03446949995123,Object_Sea_Solid_Large,0,0,1,3829503.0,3830202.0,699.0
116,choice,choice,20,3.0,Object,1.0,26.03446949995123,Object_Land_Solid_Small,2,0,1,3830236.0,3830632.0,396.0
116,choice,choice,20,3.0,Object,1.0,26.03446949995123,Object_Sea_Solid_Large,0,0,1,3831146.0,3831378.0,232.0
116,choice,choice,20,3.0,Object,1.0,26.03446949995123,Object_Land_Solid_Small,2,0,1,3831396.0,3831635.0,239.0
116,choice,choice,20,3.0,Object,1.0,26.03446949995123,Object_Sea_Solid_Large,0,0,1,3831659.0,3831894.0,235.0
116,choice,choice,20,3.0,Object,1.0,26.03446949995123,Animal_Land_Pattern_Small,1,0,0,3832087.0,3832619.0,532.0
116,choice,choice,20,3.0,Object,1.0,26.03446949995123,Object_Land_Solid_Small,2,0,1,3832679.0,3832787.0,108.0
116,choice,choice,20,3.0,Object,1.0,26.03446949995123,Object_Sea_Solid_Large,0,0,1,3833034.0,3833229.0,195.0
116,choice,choice,20,3.0,Object,1.0,26.03446949995123,Object_Land_Solid_Small,2,0,1,3833255.0,3833447.0,192.0
116,choice,choice,20,3.0,Object,1.0,26.03446949995123,Animal_Land_Pattern_Small,1,0,0,3833484.0,3834396.0,912.0
116,choice,choice,20,3.0,Object,1.0,26.03446949995123,Animal_Sea_Pattern_Large,3,0,0,3834937.0,3835415.0,478.0
116,choice,choice,20,3.0,Object,1.0,26.03446949995123,Object_Sea_Solid_Small,4,0,1,3835650.0,3837040.0,1390.0
116,choice,choice,20,3.0,Object,1.0,26.03446949995123,fixation,-1,1,0,3837859.0,3838066.0,207.0
116,choice,choice,20,3.0,Object,1.0,26.03446949995123,Object_Sea_Solid_Small,4,0,1,3838340.0,3838783.0,443.0
116,choice,choice,20,3.0,Object,1.0,26.03446949995123,fixation,-1,1,0,3838835.0,3839681.0,846.0
116,choice,choice,20,3.0,Object,1.0,26.03446949995123,Animal_Land_Pattern_Large,5,0,0,3840035.0,3840157.0,122.0
116,choice,choice,20,3.0,Object,1.0,26.03446949995123,Animal_Sea_Pattern_Large,3,0,0,3840384.0,3840412.0,28.0
116,choice,choice,20,3.0,Object,1.0,26.03446949995123,Object_Land_Solid_Small,2,0,1,3840428.0,3840547.0,119.0
116,choice,choice,20,3.0,Object,1.0,26.03446949995123,fixation,-1,1,0,3840561.0,3840889.0,328.0
116,choice,choice,20,3.0,Object,1.0,26.03446949995123,Object_Sea_Solid_Large,0,0,1,3840921.0,3841330.0,409.0
116,choice,choice,20,3.0,Object,1.0,26.03446949995123,Animal_Land_Pattern_Small,1,0,0,3841349.0,3841649.0,300.0
116,choice,choice,20,3.0,Object,1.0,26.03446949995123,Animal_Sea_Pattern_Large,3,0,0,3841989.0,3842386.0,397.0
116,choice,choice,20,3.0,Object,1.0,26.03446949995123,fixation,-1,1,0,3843012.0,3843671.0,659.0
116,choice,choice,20,3.0,Object,1.0,26.03446949995123,Object_Land_Solid_Small,2,0,1,3843992.0,3845143.0,1151.0
116,choice,choice,20,3.0,Object,1.0,26.03446949995123,Object_Sea_Solid_Large,0,0,1,3845491.0,3845625.0,134.0
116,choice,choice,20,3.0,Object,1.0,26.03446949995123,Animal_Land_Pattern_Small,1,0,0,3845659.0,3845889.0,230.0
116,choice,choice,20,3.0,Object,1.0,26.03446949995123,Object_Sea_Solid_Large,0,0,1,3845915.0,3847239.0,1324.0
116,choice,choice,20,3.0,Object,1.0,26.03446949995123,Object_Land_Solid_Small,2,0,1,3847651.0,3849057.0,1406.0
116,choice,choice,20,3.0,Object,1.0,26.03446949995123,Animal_Sea_Pattern_Large,3,0,0,3849362.0,3849858.0,496.0
116,choice,choice,20,3.0,Object,1.0,26.03446949995123,Object_Sea_Solid_Small,4,0,1,3849886.0,3850146.0,260.0
116,choice,choice,20,3.0,Object,1.0,26.03446949995123,Animal_Land_Pattern_Large,5,0,0,3850171.0,3851261.0,1090.0
116,choice,choice,20,3.0,Object,1.0,26.03446949995123,fixation,-1,1,0,3851337.0,3851410.0,73.0
116,choice,choice,21,3.0,Sea,2.0,4.764671207987703,Animal_Sea_Pattern_Large,3,0,1,3855388.0,3855565.0,177.0
116,choice,choice,21,3.0,Sea,2.0,4.764671207987703,Object_Sea_Solid_Large,0,0,1,3855783.0,3856069.0,286.0
116,choice,choice,21,3.0,Sea,2.0,4.764671207987703,Animal_Land_Pattern_Small,1,0,0,3856107.0,3856265.0,158.0
116,choice,choice,21,3.0,Sea,2.0,4.764671207987703,fixation,-1,1,0,3856520.0,3856567.0,47.0
116,choice,choice,21,3.0,Sea,2.0,4.764671207987703,Animal_Land_Pattern_Small,1,0,0,3856857.0,3857092.0,235.0
116,choice,choice,21,3.0,Sea,2.0,4.764671207987703,Animal_Sea_Pattern_Large,3,0,1,3857116.0,3857954.0,838.0
116,choice,choice,21,3.0,Sea,2.0,4.764671207987703,fixation,-1,1,0,3857978.0,3858264.0,286.0
116,choice,choice,21,3.0,Sea,2.0,4.764671207987703,Animal_Land_Pattern_Small,1,0,0,3858288.0,3858545.0,257.0
116,choice,choice,21,3.0,Sea,2.0,4.764671207987703,Animal_Land_Pattern_Large,5,0,0,3858786.0,3859128.0,342.0
116,choice,choice,21,3.0,Sea,2.0,4.764671207987703,Object_Sea_Solid_Small,4,0,1,3859361.0,3859546.0,185.0
116,choice,choice,22,3.0,Animal,1.0,14.081840667058714,fixation,-1,1,0,3863244.0,3863565.0,321.0
116,choice,choice,22,3.0,Animal,1.0,14.081840667058714,Object_Land_Solid_Small,2,0,0,3863849.0,3864037.0,188.0
116,choice,choice,22,3.0,Animal,1.0,14.081840667058714,Object_Sea_Solid_Small,4,0,0,3864381.0,3864597.0,216.0
116,choice,choice,22,3.0,Animal,1.0,14.081840667058714,fixation,-1,1,0,3864605.0,3865668.0,1063.0
116,choice,choice,22,3.0,Animal,1.0,14.081840667058714,Animal_Land_Pattern_Small,1,0,1,3865699.0,3866220.0,521.0
116,choice,choice,22,3.0,Animal,1.0,14.081840667058714,Animal_Sea_Pattern_Large,3,0,1,3866502.0,3866633.0,131.0
116,choice,choice,22,3.0,Animal,1.0,14.081840667058714,fixation,-1,1,0,3866673.0,3867527.0,854.0
116,choice,choice,22,3.0,Animal,1.0,14.081840667058714,Animal_Sea_Pattern_Large,3,0,1,3867547.0,3868497.0,950.0
116,choice,choice,22,3.0,Animal,1.0,14.081840667058714,fixation,-1,1,0,3868802.0,3869278.0,476.0
116,choice,choice,22,3.0,Animal,1.0,14.081840667058714,Animal_Land_Pattern_Small,1,0,1,3869321.0,3870400.0,1079.0
116,choice,choice,22,3.0,Animal,1.0,14.081840667058714,Object_Sea_Solid_Large,0,0,0,3871292.0,3871653.0,361.0
116,choice,choice,22,3.0,Animal,1.0,14.081840667058714,Animal_Land_Pattern_Small,1,0,1,3871674.0,3871791.0,117.0
116,choice,choice,22,3.0,Animal,1.0,14.081840667058714,fixation,-1,1,0,3872008.0,3872731.0,723.0
116,choice,choice,22,3.0,Animal,1.0,14.081840667058714,Animal_Land_Pattern_Large,5,0,1,3872753.0,3873079.0,326.0
116,choice,choice,22,3.0,Animal,1.0,14.081840667058714,Animal_Land_Pattern_Small,1,0,1,3873555.0,3873769.0,214.0
116,choice,choice,22,3.0,Animal,1.0,14.081840667058714,Object_Sea_Solid_Large,0,0,0,3874009.0,3874228.0,219.0
116,choice,choice,22,3.0,Animal,1.0,14.081840667058714,Animal_Land_Pattern_Large,5,0,1,3874457.0,3874801.0,344.0
116,choice,choice,22,3.0,Animal,1.0,14.081840667058714,Animal_Land_Pattern_Small,1,0,1,3875048.0,3875289.0,241.0
116,choice,choice,22,3.0,Animal,1.0,14.081840667058714,fixation,-1,1,0,3875530.0,3875841.0,311.0
116,choice,choice,22,3.0,Animal,1.0,14.081840667058714,Animal_Sea_Pattern_Large,3,0,1,3875859.0,3876210.0,351.0
116,choice,choice,22,3.0,Animal,1.0,14.081840667058714,Object_Sea_Solid_Small,4,0,0,3876662.0,3876972.0,310.0
116,choice,choice,23,3.0,Land,1.0,16.594895457965322,fixation,-1,1,0,3879820.0,3880687.0,867.0
116,choice,choice,23,3.0,Land,1.0,16.594895457965322,Object_Sea_Solid_Large,0,0,0,3881308.0,3881596.0,288.0
116,choice,choice,23,3.0,Land,1.0,16.594895457965322,fixation,-1,1,0,3881616.0,3882077.0,461.0
116,choice,choice,23,3.0,Land,1.0,16.594895457965322,Object_Land_Solid_Small,2,0,1,3882323.0,3882672.0,349.0
116,choice,choice,23,3.0,Land,1.0,16.594895457965322,fixation,-1,1,0,3882688.0,3882858.0,170.0
116,choice,choice,23,3.0,Land,1.0,16.594895457965322,Object_Sea_Solid_Large,0,0,0,3883051.0,3883301.0,250.0
116,choice,choice,23,3.0,Land,1.0,16.594895457965322,fixation,-1,1,0,3883314.0,3883755.0,441.0
116,choice,choice,23,3.0,Land,1.0,16.594895457965322,Object_Land_Solid_Small,2,0,1,3883769.0,3884107.0,338.0
116,choice,choice,23,3.0,Land,1.0,16.594895457965322,Object_Sea_Solid_Large,0,0,0,3884377.0,3884642.0,265.0
116,choice,choice,23,3.0,Land,1.0,16.594895457965322,fixation,-1,1,0,3884661.0,3884824.0,163.0
116,choice,choice,23,3.0,Land,1.0,16.594895457965322,Object_Sea_Solid_Large,0,0,0,3885013.0,3885464.0,451.0
116,choice,choice,23,3.0,Land,1.0,16.594895457965322,Animal_Sea_Pattern_Large,3,0,0,3885486.0,3886370.0,884.0
116,choice,choice,23,3.0,Land,1.0,16.594895457965322,fixation,-1,1,0,3886390.0,3886906.0,516.0
116,choice,choice,23,3.0,Land,1.0,16.594895457965322,Animal_Land_Pattern_Small,1,0,1,3886926.0,3887536.0,610.0
116,choice,choice,23,3.0,Land,1.0,16.594895457965322,Object_Land_Solid_Small,2,0,1,3888031.0,3888330.0,299.0
116,choice,choice,23,3.0,Land,1.0,16.594895457965322,Animal_Land_Pattern_Large,5,0,1,3888348.0,3888468.0,120.0
116,choice,choice,23,3.0,Land,1.0,16.594895457965322,Animal_Land_Pattern_Small,1,0,1,3888736.0,3889525.0,789.0
116,choice,choice,23,3.0,Land,1.0,16.594895457965322,Animal_Land_Pattern_Large,5,0,1,3889551.0,3890029.0,478.0
116,choice,choice,23,3.0,Land,1.0,16.594895457965322,Object_Sea_Solid_Small,4,0,0,3890045.0,3890515.0,470.0
116,choice,choice,23,3.0,Land,1.0,16.594895457965322,Animal_Land_Pattern_Large,5,0,1,3890848.0,3891055.0,207.0
116,choice,choice,23,3.0,Land,1.0,16.594895457965322,Object_Sea_Solid_Small,4,0,0,3891342.0,3891700.0,358.0
116,choice,choice,23,3.0,Land,1.0,16.594895457965322,fixation,-1,1,0,3891968.0,3892200.0,232.0
116,choice,choice,23,3.0,Land,1.0,16.594895457965322,Animal_Land_Pattern_Large,5,0,1,3892225.0,3893357.0,1132.0
116,choice,choice,23,3.0,Land,1.0,16.594895457965322,Animal_Land_Pattern_Small,1,0,1,3894167.0,3894416.0,249.0
116,choice,choice,23,3.0,Land,1.0,16.594895457965322,Animal_Land_Pattern_Large,5,0,1,3894436.0,3894893.0,457.0
116,choice,choice,23,3.0,Land,1.0,16.594895457965322,fixation,-1,1,0,3895361.0,3895878.0,517.0
116,choice,choice,23,3.0,Land,1.0,16.594895457965322,Animal_Sea_Pattern_Large,3,0,0,3895904.0,3896110.0,206.0
116,choice,choice,24,3.0,Small,1.0,13.079513208009304,fixation,-1,1,0,3899166.0,3900084.0,918.0
116,choice,choice,24,3.0,Small,1.0,13.079513208009304,Object_Sea_Solid_Small,4,0,1,3900406.0,3900435.0,29.0
116,choice,choice,24,3.0,Small,1.0,13.079513208009304,fixation,-1,1,0,3900452.0,3900483.0,31.0
116,choice,choice,24,3.0,Small,1.0,13.079513208009304,Object_Sea_Solid_Small,4,0,1,3900762.0,3900857.0,95.0
116,choice,choice,24,3.0,Small,1.0,13.079513208009304,fixation,-1,1,0,3900868.0,3901378.0,510.0
116,choice,choice,24,3.0,Small,1.0,13.079513208009304,Object_Sea_Solid_Large,0,0,0,3901687.0,3901912.0,225.0
116,choice,choice,24,3.0,Small,1.0,13.079513208009304,fixation,-1,1,0,3901924.0,3903033.0,1109.0
116,choice,choice,24,3.0,Small,1.0,13.079513208009304,Object_Sea_Solid_Large,0,0,0,3903340.0,3904068.0,728.0
116,choice,choice,24,3.0,Small,1.0,13.079513208009304,Animal_Land_Pattern_Large,5,0,0,3904348.0,3905040.0,692.0
116,choice,choice,24,3.0,Small,1.0,13.079513208009304,fixation,-1,1,0,3905319.0,3905614.0,295.0
116,choice,choice,24,3.0,Small,1.0,13.079513208009304,Object_Land_Solid_Small,2,0,1,3905953.0,3906996.0,1043.0
116,choice,choice,24,3.0,Small,1.0,13.079513208009304,Animal_Sea_Pattern_Large,3,0,0,3907123.0,3907459.0,336.0
116,choice,choice,24,3.0,Small,1.0,13.079513208009304,Object_Land_Solid_Small,2,0,1,3907497.0,3908099.0,602.0
116,choice,choice,24,3.0,Small,1.0,13.079513208009304,Animal_Sea_Pattern_Large,3,0,0,3908128.0,3908636.0,508.0
116,choice,choice,24,3.0,Small,1.0,13.079513208009304,Object_Land_Solid_Small,2,0,1,3908668.0,3909613.0,945.0
116,choice,choice,24,3.0,Small,1.0,13.079513208009304,Animal_Sea_Pattern_Large,3,0,0,3909658.0,3910254.0,596.0
116,choice,choice,24,3.0,Small,1.0,13.079513208009304,Object_Land_Solid_Small,2,0,1,3910542.0,3910775.0,233.0
116,choice,choice,24,3.0,Small,1.0,13.079513208009304,fixation,-1,1,0,3910791.0,3911136.0,345.0
116,choice,choice,24,3.0,Small,1.0,13.079513208009304,Animal_Sea_Pattern_Large,3,0,0,3911622.0,3911728.0,106.0
116,choice,choice,25,4.0,Object,2.0,38.13608695799485,Object_Land_Pattern_Large,0,0,1,4327467.0,4327690.0,223.0
116,choice,choice,25,4.0,Object,2.0,38.13608695799485,Animal_Sea_Pattern_Small,1,0,0,4327711.0,4328097.0,386.0
116,choice,choice,25,4.0,Object,2.0,38.13608695799485,Object_Land_Solid_Large,2,0,1,4328128.0,4328304.0,176.0
116,choice,choice,25,4.0,Object,2.0,38.13608695799485,Animal_Sea_Solid_Small,3,0,0,4328697.0,4329374.0,677.0
116,choice,choice,25,4.0,Object,2.0,38.13608695799485,Animal_Sea_Solid_Large,4,0,0,4329417.0,4330395.0,978.0
116,choice,choice,25,4.0,Object,2.0,38.13608695799485,Animal_Sea_Solid_Small,3,0,0,4331145.0,4331661.0,516.0
116,choice,choice,25,4.0,Object,2.0,38.13608695799485,Animal_Sea_Pattern_Small,1,0,0,4331719.0,4332619.0,900.0
116,choice,choice,25,4.0,Object,2.0,38.13608695799485,Object_Land_Pattern_Large,0,0,1,4333034.0,4333201.0,167.0
116,choice,choice,25,4.0,Object,2.0,38.13608695799485,Animal_Sea_Solid_Small,3,0,0,4333241.0,4333679.0,438.0
116,choice,choice,25,4.0,Object,2.0,38.13608695799485,Object_Land_Solid_Large,2,0,1,4333716.0,4333984.0,268.0
116,choice,choice,25,4.0,Object,2.0,38.13608695799485,Animal_Sea_Pattern_Small,1,0,0,4334004.0,4334345.0,341.0
116,choice,choice,25,4.0,Object,2.0,38.13608695799485,Object_Land_Pattern_Large,0,0,1,4334360.0,4334854.0,494.0
116,choice,choice,25,4.0,Object,2.0,38.13608695799485,Animal_Sea_Pattern_Small,1,0,0,4335282.0,4335686.0,404.0
116,choice,choice,25,4.0,Object,2.0,38.13608695799485,fixation,-1,1,0,4335703.0,4335968.0,265.0
116,choice,choice,25,4.0,Object,2.0,38.13608695799485,Animal_Sea_Pattern_Small,1,0,0,4336184.0,4336657.0,473.0
116,choice,choice,25,4.0,Object,2.0,38.13608695799485,Object_Land_Solid_Large,2,0,1,4336681.0,4337128.0,447.0
116,choice,choice,25,4.0,Object,2.0,38.13608695799485,fixation,-1,1,0,4337361.0,4337990.0,629.0
116,choice,choice,25,4.0,Object,2.0,38.13608695799485,Object_Land_Pattern_Large,0,0,1,4338237.0,4338629.0,392.0
116,choice,choice,25,4.0,Object,2.0,38.13608695799485,Object_Land_Solid_Large,2,0,1,4338648.0,4339001.0,353.0
116,choice,choice,25,4.0,Object,2.0,38.13608695799485,Animal_Sea_Pattern_Small,1,0,0,4339210.0,4339446.0,236.0
116,choice,choice,25,4.0,Object,2.0,38.13608695799485,Object_Land_Pattern_Large,0,0,1,4339463.0,4340677.0,1214.0
116,choice,choice,25,4.0,Object,2.0,38.13608695799485,Object_Land_Pattern_Small,5,0,1,4340932.0,4341378.0,446.0
116,choice,choice,25,4.0,Object,2.0,38.13608695799485,Object_Land_Solid_Large,2,0,1,4341395.0,4341913.0,518.0
116,choice,choice,25,4.0,Object,2.0,38.13608695799485,Object_Land_Pattern_Large,0,0,1,4342148.0,4342367.0,219.0
116,choice,choice,25,4.0,Object,2.0,38.13608695799485,fixation,-1,1,0,4342389.0,4342513.0,124.0
116,choice,choice,25,4.0,Object,2.0,38.13608695799485,Animal_Sea_Solid_Large,4,0,0,4342763.0,4342991.0,228.0
116,choice,choice,25,4.0,Object,2.0,38.13608695799485,Animal_Sea_Pattern_Small,1,0,0,4343225.0,4343431.0,206.0
116,choice,choice,25,4.0,Object,2.0,38.13608695799485,Object_Land_Pattern_Large,0,0,1,4343452.0,4344070.0,618.0
116,choice,choice,25,4.0,Object,2.0,38.13608695799485,Animal_Sea_Solid_Small,3,0,0,4344385.0,4344412.0,27.0
116,choice,choice,25,4.0,Object,2.0,38.13608695799485,Object_Land_Solid_Large,2,0,1,4344676.0,4345123.0,447.0
116,choice,choice,25,4.0,Object,2.0,38.13608695799485,Animal_Sea_Solid_Small,3,0,0,4345148.0,4345954.0,806.0
116,choice,choice,25,4.0,Object,2.0,38.13608695799485,Object_Land_Pattern_Large,0,0,1,4346193.0,4346987.0,794.0
116,choice,choice,25,4.0,Object,2.0,38.13608695799485,Object_Land_Pattern_Small,5,0,1,4347010.0,4348035.0,1025.0
116,choice,choice,25,4.0,Object,2.0,38.13608695799485,Animal_Sea_Pattern_Small,1,0,0,4348385.0,4348675.0,290.0
116,choice,choice,25,4.0,Object,2.0,38.13608695799485,Object_Land_Solid_Large,2,0,1,4348697.0,4349643.0,946.0
116,choice,choice,25,4.0,Object,2.0,38.13608695799485,Animal_Sea_Pattern_Small,1,0,0,4350111.0,4350896.0,785.0
116,choice,choice,25,4.0,Object,2.0,38.13608695799485,fixation,-1,1,0,4351135.0,4352137.0,1002.0
116,choice,choice,25,4.0,Object,2.0,38.13608695799485,Object_Land_Pattern_Large,0,0,1,4352166.0,4352426.0,260.0
116,choice,choice,25,4.0,Object,2.0,38.13608695799485,Animal_Sea_Pattern_Small,1,0,0,4352613.0,4352825.0,212.0
116,choice,choice,25,4.0,Object,2.0,38.13608695799485,Object_Land_Solid_Large,2,0,1,4352850.0,4353546.0,696.0
116,choice,choice,25,4.0,Object,2.0,38.13608695799485,Animal_Sea_Pattern_Small,1,0,0,4353766.0,4354108.0,342.0
116,choice,choice,25,4.0,Object,2.0,38.13608695799485,fixation,-1,1,0,4354125.0,4354522.0,397.0
116,choice,choice,25,4.0,Object,2.0,38.13608695799485,Object_Land_Solid_Large,2,0,1,4354772.0,4355168.0,396.0
116,choice,choice,25,4.0,Object,2.0,38.13608695799485,fixation,-1,1,0,4355183.0,4355511.0,328.0
116,choice,choice,25,4.0,Object,2.0,38.13608695799485,Animal_Sea_Solid_Large,4,0,0,4355659.0,4355870.0,211.0
116,choice,choice,25,4.0,Object,2.0,38.13608695799485,Animal_Sea_Pattern_Small,1,0,0,4355920.0,4356073.0,153.0
116,choice,choice,25,4.0,Object,2.0,38.13608695799485,Animal_Sea_Solid_Large,4,0,0,4356140.0,4356169.0,29.0
116,choice,choice,25,4.0,Object,2.0,38.13608695799485,Animal_Sea_Solid_Small,3,0,0,4356179.0,4356524.0,345.0
116,choice,choice,25,4.0,Object,2.0,38.13608695799485,Object_Land_Solid_Large,2,0,1,4356544.0,4356665.0,121.0
116,choice,choice,25,4.0,Object,2.0,38.13608695799485,fixation,-1,1,0,4356878.0,4357337.0,459.0
116,choice,choice,25,4.0,Object,2.0,38.13608695799485,Object_Land_Solid_Large,2,0,1,4357392.0,4357923.0,531.0
116,choice,choice,25,4.0,Object,2.0,38.13608695799485,Object_Land_Pattern_Small,5,0,1,4358173.0,4358750.0,577.0
116,choice,choice,25,4.0,Object,2.0,38.13608695799485,fixation,-1,1,0,4359003.0,4359097.0,94.0
116,choice,choice,25,4.0,Object,2.0,38.13608695799485,Animal_Sea_Solid_Large,4,0,0,4359381.0,4359734.0,353.0
116,choice,choice,25,4.0,Object,2.0,38.13608695799485,Object_Land_Pattern_Small,5,0,1,4360203.0,4361561.0,1358.0
116,choice,choice,25,4.0,Object,2.0,38.13608695799485,Object_Land_Pattern_Large,0,0,1,4361798.0,4361956.0,158.0
116,choice,choice,25,4.0,Object,2.0,38.13608695799485,fixation,-1,1,0,4361969.0,4362943.0,974.0
116,choice,choice,25,4.0,Object,2.0,38.13608695799485,Object_Land_Pattern_Small,5,0,1,4363154.0,4363673.0,519.0
116,choice,choice,25,4.0,Object,2.0,38.13608695799485,fixation,-1,1,0,4363681.0,4364120.0,439.0
116,choice,choice,25,4.0,Object,2.0,38.13608695799485,Object_Land_Pattern_Large,0,0,1,4364377.0,4364563.0,186.0
116,choice,choice,25,4.0,Object,2.0,38.13608695799485,Object_Land_Solid_Large,2,0,1,4364597.0,4365350.0,753.0
116,choice,choice,26,4.0,Animal,1.0,10.99285083299037,fixation,-1,1,0,4369402.0,4369601.0,199.0
116,choice,choice,26,4.0,Animal,1.0,10.99285083299037,Animal_Sea_Solid_Small,3,0,1,4369852.0,4370084.0,232.0
116,choice,choice,26,4.0,Animal,1.0,10.99285083299037,Animal_Sea_Pattern_Small,1,0,1,4370295.0,4370594.0,299.0
116,choice,choice,26,4.0,Animal,1.0,10.99285083299037,Animal_Sea_Solid_Small,3,0,1,4370905.0,4371359.0,454.0
116,choice,choice,26,4.0,Animal,1.0,10.99285083299037,fixation,-1,1,0,4371674.0,4372406.0,732.0
116,choice,choice,26,4.0,Animal,1.0,10.99285083299037,Animal_Sea_Pattern_Small,1,0,1,4372444.0,4372527.0,83.0
116,choice,choice,26,4.0,Animal,1.0,10.99285083299037,fixation,-1,1,0,4372551.0,4372592.0,41.0
116,choice,choice,26,4.0,Animal,1.0,10.99285083299037,Animal_Sea_Pattern_Small,1,0,1,4372613.0,4374112.0,1499.0
116,choice,choice,26,4.0,Animal,1.0,10.99285083299037,Object_Land_Solid_Large,2,0,0,4374814.0,4375106.0,292.0
116,choice,choice,26,4.0,Animal,1.0,10.99285083299037,Animal_Sea_Pattern_Small,1,0,1,4375304.0,4376273.0,969.0
116,choice,choice,26,4.0,Animal,1.0,10.99285083299037,Object_Land_Pattern_Large,0,0,0,4376514.0,4376780.0,266.0
116,choice,choice,26,4.0,Animal,1.0,10.99285083299037,Animal_Sea_Pattern_Small,1,0,1,4376796.0,4377527.0,731.0
116,choice,choice,26,4.0,Animal,1.0,10.99285083299037,Object_Land_Solid_Large,2,0,0,4377760.0,4377980.0,220.0
116,choice,choice,26,4.0,Animal,1.0,10.99285083299037,Animal_Sea_Pattern_Small,1,0,1,4378402.0,4378719.0,317.0
116,choice,choice,26,4.0,Animal,1.0,10.99285083299037,fixation,-1,1,0,4378744.0,4379258.0,514.0
116,choice,choice,26,4.0,Animal,1.0,10.99285083299037,Animal_Sea_Pattern_Small,1,0,1,4379472.0,4379909.0,437.0
116,choice,choice,27,4.0,Small,1.0,53.16147337493021,Animal_Sea_Pattern_Small,1,0,1,4383465.0,4383927.0,462.0
116,choice,choice,27,4.0,Small,1.0,53.16147337493021,Animal_Sea_Solid_Large,4,0,0,4384188.0,4384697.0,509.0
116,choice,choice,27,4.0,Small,1.0,53.16147337493021,Animal_Sea_Pattern_Small,1,0,1,4384757.0,4385036.0,279.0
116,choice,choice,27,4.0,Small,1.0,53.16147337493021,Object_Land_Solid_Large,2,0,0,4385072.0,4385186.0,114.0
116,choice,choice,27,4.0,Small,1.0,53.16147337493021,Animal_Sea_Solid_Small,3,0,1,4385367.0,4385902.0,535.0
116,choice,choice,27,4.0,Small,1.0,53.16147337493021,Animal_Sea_Pattern_Small,1,0,1,4386048.0,4386423.0,375.0
116,choice,choice,27,4.0,Small,1.0,53.16147337493021,Animal_Sea_Solid_Small,3,0,1,4386686.0,4387042.0,356.0
116,choice,choice,27,4.0,Small,1.0,53.16147337493021,fixation,-1,1,0,4387062.0,4387307.0,245.0
116,choice,choice,27,4.0,Small,1.0,53.16147337493021,Animal_Sea_Pattern_Small,1,0,1,4387340.0,4387720.0,380.0
116,choice,choice,27,4.0,Small,1.0,53.16147337493021,fixation,-1,1,0,4387945.0,4388101.0,156.0
116,choice,choice,27,4.0,Small,1.0,53.16147337493021,Object_Land_Pattern_Large,0,0,0,4388372.0,4388959.0,587.0
116,choice,choice,27,4.0,Small,1.0,53.16147337493021,Animal_Sea_Solid_Small,3,0,1,4388997.0,4389352.0,355.0
116,choice,choice,27,4.0,Small,1.0,53.16147337493021,Object_Land_Pattern_Large,0,0,0,4389408.0,4389979.0,571.0
116,choice,choice,27,4.0,Small,1.0,53.16147337493021,Animal_Sea_Solid_Large,4,0,0,4390049.0,4390230.0,181.0
116,choice,choice,27,4.0,Small,1.0,53.16147337493021,Object_Land_Solid_Large,2,0,0,4390269.0,4390468.0,199.0
116,choice,choice,27,4.0,Small,1.0,53.16147337493021,Object_Land_Pattern_Small,5,0,1,4390520.0,4390874.0,354.0
116,choice,choice,27,4.0,Small,1.0,53.16147337493021,Object_Land_Pattern_Large,0,0,0,4390976.0,4392221.0,1245.0
116,choice,choice,27,4.0,Small,1.0,53.16147337493021,Animal_Sea_Pattern_Small,1,0,1,4392296.0,4392434.0,138.0
116,choice,choice,27,4.0,Small,1.0,53.16147337493021,Object_Land_Solid_Large,2,0,0,4392475.0,4392897.0,422.0
116,choice,choice,27,4.0,Small,1.0,53.16147337493021,Object_Land_Pattern_Small,5,0,1,4393181.0,4394060.0,879.0
116,choice,choice,27,4.0,Small,1.0,53.16147337493021,Object_Land_Pattern_Large,0,0,0,4394068.0,4394335.0,267.0
116,choice,choice,27,4.0,Small,1.0,53.16147337493021,Object_Land_Solid_Large,2,0,0,4394649.0,4395540.0,891.0
116,choice,choice,27,4.0,Small,1.0,53.16147337493021,Object_Land_Pattern_Large,0,0,0,4395816.0,4396364.0,548.0
116,choice,choice,27,4.0,Small,1.0,53.16147337493021,Object_Land_Pattern_Small,5,0,1,4396388.0,4397272.0,884.0
116,choice,choice,27,4.0,Small,1.0,53.16147337493021,Object_Land_Solid_Large,2,0,0,4397598.0,4398666.0,1068.0
116,choice,choice,27,4.0,Small,1.0,53.16147337493021,Object_Land_Pattern_Large,0,0,0,4398989.0,4399071.0,82.0
116,choice,choice,27,4.0,Small,1.0,53.16147337493021,Object_Land_Pattern_Small,5,0,1,4399086.0,4399626.0,540.0
116,choice,choice,27,4.0,Small,1.0,53.16147337493021,Object_Land_Pattern_Large,0,0,0,4399634.0,4400060.0,426.0
116,choice,choice,27,4.0,Small,1.0,53.16147337493021,Animal_Sea_Pattern_Small,1,0,1,4400101.0,4400129.0,28.0
116,choice,choice,27,4.0,Small,1.0,53.16147337493021,Object_Land_Solid_Large,2,0,0,4400374.0,4401929.0,1555.0
116,choice,choice,27,4.0,Small,1.0,53.16147337493021,Object_Land_Pattern_Large,0,0,0,4403169.0,4403446.0,277.0
116,choice,choice,27,4.0,Small,1.0,53.16147337493021,fixation,-1,1,0,4403480.0,4403707.0,227.0
116,choice,choice,27,4.0,Small,1.0,53.16147337493021,Object_Land_Pattern_Large,0,0,0,4403938.0,4404234.0,296.0
116,choice,choice,27,4.0,Small,1.0,53.16147337493021,fixation,-1,1,0,4404252.0,4404716.0,464.0
116,choice,choice,27,4.0,Small,1.0,53.16147337493021,Object_Land_Pattern_Large,0,0,0,4404953.0,4405167.0,214.0
116,choice,choice,27,4.0,Small,1.0,53.16147337493021,Animal_Sea_Pattern_Small,1,0,1,4405374.0,4405737.0,363.0
116,choice,choice,27,4.0,Small,1.0,53.16147337493021,fixation,-1,1,0,4406219.0,4406813.0,594.0
116,choice,choice,27,4.0,Small,1.0,53.16147337493021,Object_Land_Solid_Large,2,0,0,4407040.0,4412174.0,5134.0
116,choice,choice,27,4.0,Small,1.0,53.16147337493021,Animal_Sea_Pattern_Small,1,0,1,4414608.0,4414831.0,223.0
116,choice,choice,27,4.0,Small,1.0,53.16147337493021,Object_Land_Solid_Large,2,0,0,4414860.0,4415133.0,273.0
116,choice,choice,27,4.0,Small,1.0,53.16147337493021,Animal_Sea_Pattern_Small,1,0,1,4415328.0,4415737.0,409.0
116,choice,choice,27,4.0,Small,1.0,53.16147337493021,Animal_Sea_Solid_Small,3,0,1,4415991.0,4416184.0,193.0
116,choice,choice,27,4.0,Small,1.0,53.16147337493021,fixation,-1,1,0,4416199.0,4417447.0,1248.0
116,choice,choice,27,4.0,Small,1.0,53.16147337493021,Object_Land_Solid_Large,2,0,0,4417481.0,4417977.0,496.0
116,choice,choice,27,4.0,Small,1.0,53.16147337493021,Animal_Sea_Solid_Small,3,0,1,4418253.0,4418296.0,43.0
116,choice,choice,27,4.0,Small,1.0,53.16147337493021,fixation,-1,1,0,4418509.0,4419137.0,628.0
116,choice,choice,27,4.0,Small,1.0,53.16147337493021,Animal_Sea_Solid_Small,3,0,1,4419168.0,4419322.0,154.0
116,choice,choice,27,4.0,Small,1.0,53.16147337493021,Object_Land_Solid_Large,2,0,0,4419601.0,4423491.0,3890.0
116,choice,choice,27,4.0,Small,1.0,53.16147337493021,Animal_Sea_Pattern_Small,1,0,1,4425024.0,4425349.0,325.0
116,choice,choice,27,4.0,Small,1.0,53.16147337493021,Object_Land_Pattern_Large,0,0,0,4425595.0,4426430.0,835.0
116,choice,choice,27,4.0,Small,1.0,53.16147337493021,Object_Land_Pattern_Small,5,0,1,4426893.0,4427812.0,919.0
116,choice,choice,27,4.0,Small,1.0,53.16147337493021,fixation,-1,1,0,4427853.0,4428174.0,321.0
116,choice,choice,27,4.0,Small,1.0,53.16147337493021,Object_Land_Pattern_Small,5,0,1,4428191.0,4428815.0,624.0
116,choice,choice,27,4.0,Small,1.0,53.16147337493021,Object_Land_Pattern_Large,0,0,0,4429042.0,4429509.0,467.0
116,choice,choice,27,4.0,Small,1.0,53.16147337493021,Object_Land_Solid_Large,2,0,0,4429771.0,4430110.0,339.0
116,choice,choice,27,4.0,Small,1.0,53.16147337493021,Animal_Sea_Pattern_Small,1,0,1,4430132.0,4430446.0,314.0
116,choice,choice,27,4.0,Small,1.0,53.16147337493021,Object_Land_Solid_Large,2,0,0,4430466.0,4430684.0,218.0
116,choice,choice,27,4.0,Small,1.0,53.16147337493021,Object_Land_Pattern_Small,5,0,1,4431037.0,4431779.0,742.0
116,choice,choice,27,4.0,Small,1.0,53.16147337493021,Object_Land_Solid_Large,2,0,0,4431823.0,4432510.0,687.0
116,choice,choice,27,4.0,Small,1.0,53.16147337493021,Object_Land_Pattern_Small,5,0,1,4432722.0,4434221.0,1499.0
116,choice,choice,27,4.0,Small,1.0,53.16147337493021,Object_Land_Solid_Large,2,0,0,4435301.0,4435786.0,485.0
116,choice,choice,27,4.0,Small,1.0,53.16147337493021,fixation,-1,1,0,4436203.0,4436380.0,177.0
116,choice,choice,28,4.0,Sea,1.0,6.542615459067747,Animal_Sea_Solid_Large,4,0,1,4439940.0,4440030.0,90.0
116,choice,choice,28,4.0,Sea,1.0,6.542615459067747,fixation,-1,1,0,4440289.0,4440707.0,418.0
116,choice,choice,28,4.0,Sea,1.0,6.542615459067747,Animal_Sea_Pattern_Small,1,0,1,4440748.0,4441009.0,261.0
116,choice,choice,28,4.0,Sea,1.0,6.542615459067747,Object_Land_Solid_Large,2,0,0,4441057.0,4441380.0,323.0
116,choice,choice,28,4.0,Sea,1.0,6.542615459067747,fixation,-1,1,0,4441685.0,4442204.0,519.0
116,choice,choice,28,4.0,Sea,1.0,6.542615459067747,Animal_Sea_Solid_Small,3,0,1,4442448.0,4443022.0,574.0
116,choice,choice,28,4.0,Sea,1.0,6.542615459067747,fixation,-1,1,0,4443036.0,4443426.0,390.0
116,choice,choice,28,4.0,Sea,1.0,6.542615459067747,Animal_Sea_Solid_Large,4,0,1,4443638.0,4444058.0,420.0
116,choice,choice,28,4.0,Sea,1.0,6.542615459067747,fixation,-1,1,0,4444072.0,4444853.0,781.0
116,choice,choice,28,4.0,Sea,1.0,6.542615459067747,Animal_Sea_Solid_Small,3,0,1,4445095.0,4445282.0,187.0
116,choice,choice,28,4.0,Sea,1.0,6.542615459067747,fixation,-1,1,0,4445517.0,4445891.0,374.0
116,choice,choice,29,4.0,Solid,1.0,55.710994916036725,Animal_Sea_Solid_Large,4,0,1,4450029.0,4450748.0,719.0
116,choice,choice,29,4.0,Solid,1.0,55.710994916036725,Animal_Sea_Solid_Small,3,0,1,4451337.0,4451649.0,312.0
116,choice,choice,29,4.0,Solid,1.0,55.710994916036725,Animal_Sea_Solid_Large,4,0,1,4451662.0,4451809.0,147.0
116,choice,choice,29,4.0,Solid,1.0,55.710994916036725,fixation,-1,1,0,4452028.0,4452652.0,624.0
116,choice,choice,29,4.0,Solid,1.0,55.710994916036725,Animal_Sea_Solid_Large,4,0,1,4452686.0,4452929.0,243.0
116,choice,choice,29,4.0,Solid,1.0,55.710994916036725,fixation,-1,1,0,4453309.0,4453635.0,326.0
116,choice,choice,29,4.0,Solid,1.0,55.710994916036725,Animal_Sea_Solid_Large,4,0,1,4453897.0,4454288.0,391.0
116,choice,choice,29,4.0,Solid,1.0,55.710994916036725,Animal_Sea_Solid_Small,3,0,1,4454313.0,4454474.0,161.0
116,choice,choice,29,4.0,Solid,1.0,55.710994916036725,Animal_Sea_Pattern_Small,1,0,0,4454512.0,4454952.0,440.0
116,choice,choice,29,4.0,Solid,1.0,55.710994916036725,Object_Land_Pattern_Large,0,0,0,4455365.0,4455558.0,193.0
116,choice,choice,29,4.0,Solid,1.0,55.710994916036725,fixation,-1,1,0,4455574.0,4455670.0,96.0
116,choice,choice,29,4.0,Solid,1.0,55.710994916036725,Animal_Sea_Pattern_Small,1,0,0,4455956.0,4456130.0,174.0
116,choice,choice,29,4.0,Solid,1.0,55.710994916036725,Animal_Sea_Solid_Large,4,0,1,4456411.0,4456533.0,122.0
116,choice,choice,29,4.0,Solid,1.0,55.710994916036725,Object_Land_Pattern_Large,0,0,0,4456571.0,4456820.0,249.0
116,choice,choice,29,4.0,Solid,1.0,55.710994916036725,Animal_Sea_Pattern_Small,1,0,0,4457037.0,4457351.0,314.0
116,choice,choice,29,4.0,Solid,1.0,55.710994916036725,fixation,-1,1,0,4457578.0,4457816.0,238.0
116,choice,choice,29,4.0,Solid,1.0,55.710994916036725,Animal_Sea_Pattern_Small,1,0,0,4458036.0,4458508.0,472.0
116,choice,choice,29,4.0,Solid,1.0,55.710994916036725,fixation,-1,1,0,4458527.0,4458676.0,149.0
116,choice,choice,29,4.0,Solid,1.0,55.710994916036725,Object_Land_Pattern_Small,5,0,0,4458882.0,4459223.0,341.0
116,choice,choice,29,4.0,Solid,1.0,55.710994916036725,Animal_Sea_Pattern_Small,1,0,0,4459460.0,4460207.0,747.0
116,choice,choice,29,4.0,Solid,1.0,55.710994916036725,Object_Land_Pattern_Small,5,0,0,4460743.0,4461191.0,448.0
116,choice,choice,29,4.0,Solid,1.0,55.710994916036725,Animal_Sea_Pattern_Small,1,0,0,4461214.0,4461575.0,361.0
116,choice,choice,29,4.0,Solid,1.0,55.710994916036725,fixation,-1,1,0,4461868.0,4462201.0,333.0
116,choice,choice,29,4.0,Solid,1.0,55.710994916036725,Animal_Sea_Solid_Large,4,0,1,4462224.0,4462616.0,392.0
116,choice,choice,29,4.0,Solid,1.0,55.710994916036725,fixation,-1,1,0,4462651.0,4462790.0,139.0
116,choice,choice,29,4.0,Solid,1.0,55.710994916036725,Object_Land_Solid_Large,2,0,1,4462813.0,4463045.0,232.0
116,choice,choice,29,4.0,Solid,1.0,55.710994916036725,Animal_Sea_Pattern_Small,1,0,0,4463061.0,4463330.0,269.0
116,choice,choice,29,4.0,Solid,1.0,55.710994916036725,Object_Land_Solid_Large,2,0,1,4463856.0,4464396.0,540.0
116,choice,choice,29,4.0,Solid,1.0,55.710994916036725,Animal_Sea_Pattern_Small,1,0,0,4464436.0,4465175.0,739.0
116,choice,choice,29,4.0,Solid,1.0,55.710994916036725,Object_Land_Pattern_Small,5,0,0,4465450.0,4465951.0,501.0
116,choice,choice,29,4.0,Solid,1.0,55.710994916036725,Animal_Sea_Solid_Large,4,0,1,4466002.0,4467135.0,1133.0
116,choice,choice,29,4.0,Solid,1.0,55.710994916036725,Object_Land_Pattern_Small,5,0,0,4467175.0,4468039.0,864.0
116,choice,choice,29,4.0,Solid,1.0,55.710994916036725,Animal_Sea_Solid_Large,4,0,1,4468563.0,4468716.0,153.0
116,choice,choice,29,4.0,Solid,1.0,55.710994916036725,Animal_Sea_Solid_Small,3,0,1,4468945.0,4469406.0,461.0
116,choice,choice,29,4.0,Solid,1.0,55.710994916036725,Animal_Sea_Solid_Large,4,0,1,4469427.0,4470763.0,1336.0
116,choice,choice,29,4.0,Solid,1.0,55.710994916036725,fixation,-1,1,0,4471029.0,4471314.0,285.0
116,choice,choice,29,4.0,Solid,1.0,55.710994916036725,Animal_Sea_Solid_Small,3,0,1,4471320.0,4471449.0,129.0
116,choice,choice,29,4.0,Solid,1.0,55.710994916036725,Object_Land_Solid_Large,2,0,1,4471718.0,4471872.0,154.0
116,choice,choice,29,4.0,Solid,1.0,55.710994916036725,Animal_Sea_Solid_Small,3,0,1,4472087.0,4472237.0,150.0
116,choice,choice,29,4.0,Solid,1.0,55.710994916036725,Animal_Sea_Solid_Large,4,0,1,4472521.0,4472678.0,157.0
116,choice,choice,29,4.0,Solid,1.0,55.710994916036725,Object_Land_Solid_Large,2,0,1,4472692.0,4472883.0,191.0
116,choice,choice,29,4.0,Solid,1.0,55.710994916036725,Object_Land_Pattern_Large,0,0,0,4472915.0,4473145.0,230.0
116,choice,choice,29,4.0,Solid,1.0,55.710994916036725,fixation,-1,1,0,4473369.0,4473648.0,279.0
116,choice,choice,29,4.0,Solid,1.0,55.710994916036725,Object_Land_Solid_Large,2,0,1,4473685.0,4473975.0,290.0
116,choice,choice,29,4.0,Solid,1.0,55.710994916036725,Animal_Sea_Solid_Small,3,0,1,4474232.0,4474469.0,237.0
116,choice,choice,29,4.0,Solid,1.0,55.710994916036725,Object_Land_Pattern_Small,5,0,0,4474509.0,4474884.0,375.0
116,choice,choice,29,4.0,Solid,1.0,55.710994916036725,Animal_Sea_Solid_Large,4,0,1,4475193.0,4475213.0,20.0
116,choice,choice,29,4.0,Solid,1.0,55.710994916036725,Animal_Sea_Solid_Small,3,0,1,4475253.0,4475431.0,178.0
116,choice,choice,29,4.0,Solid,1.0,55.710994916036725,Object_Land_Solid_Large,2,0,1,4475457.0,4475679.0,222.0
116,choice,choice,29,4.0,Solid,1.0,55.710994916036725,Animal_Sea_Pattern_Small,1,0,0,4475705.0,4476011.0,306.0
116,choice,choice,29,4.0,Solid,1.0,55.710994916036725,Object_Land_Pattern_Small,5,0,0,4476441.0,4477245.0,804.0
116,choice,choice,29,4.0,Solid,1.0,55.710994916036725,Object_Land_Solid_Large,2,0,1,4477346.0,4478528.0,1182.0
116,choice,choice,29,4.0,Solid,1.0,55.710994916036725,fixation,-1,1,0,4478850.0,4479627.0,777.0
116,choice,choice,29,4.0,Solid,1.0,55.710994916036725,Object_Land_Solid_Large,2,0,1,4480074.0,4482308.0,2234.0
116,choice,choice,29,4.0,Solid,1.0,55.710994916036725,Animal_Sea_Pattern_Small,1,0,0,4483793.0,4484064.0,271.0
116,choice,choice,29,4.0,Solid,1.0,55.710994916036725,Object_Land_Solid_Large,2,0,1,4484096.0,4485608.0,1512.0
116,choice,choice,29,4.0,Solid,1.0,55.710994916036725,fixation,-1,1,0,4486411.0,4486933.0,522.0
116,choice,choice,29,4.0,Solid,1.0,55.710994916036725,Object_Land_Solid_Large,2,0,1,4486952.0,4487970.0,1018.0
116,choice,choice,29,4.0,Solid,1.0,55.710994916036725,Animal_Sea_Pattern_Small,1,0,0,4488640.0,4489225.0,585.0
116,choice,choice,29,4.0,Solid,1.0,55.710994916036725,Object_Land_Solid_Large,2,0,1,4489238.0,4490367.0,1129.0
116,choice,choice,29,4.0,Solid,1.0,55.710994916036725,Animal_Sea_Solid_Large,4,0,1,4491068.0,4491108.0,40.0
116,choice,choice,29,4.0,Solid,1.0,55.710994916036725,Object_Land_Solid_Large,2,0,1,4491363.0,4495834.0,4471.0
116,choice,choice,29,4.0,Solid,1.0,55.710994916036725,fixation,-1,1,0,4497731.0,4498248.0,517.0
116,choice,choice,29,4.0,Solid,1.0,55.710994916036725,Object_Land_Solid_Large,2,0,1,4498467.0,4499102.0,635.0
116,choice,choice,29,4.0,Solid,1.0,55.710994916036725,Object_Land_Pattern_Large,0,0,0,4499346.0,4501135.0,1789.0
116,choice,choice,29,4.0,Solid,1.0,55.710994916036725,Animal_Sea_Pattern_Small,1,0,0,4501839.0,4502058.0,219.0
116,choice,choice,29,4.0,Solid,1.0,55.710994916036725,fixation,-1,1,0,4502298.0,4502523.0,225.0
116,choice,choice,29,4.0,Solid,1.0,55.710994916036725,Object_Land_Pattern_Large,0,0,0,4502548.0,4502906.0,358.0
116,choice,choice,29,4.0,Solid,1.0,55.710994916036725,fixation,-1,1,0,4503163.0,4503346.0,183.0
116,choice,choice,29,4.0,Solid,1.0,55.710994916036725,Object_Land_Pattern_Large,0,0,0,4503371.0,4503566.0,195.0
116,choice,choice,29,4.0,Solid,1.0,55.710994916036725,Animal_Sea_Pattern_Small,1,0,0,4503589.0,4505241.0,1652.0
116,choice,choice,30,4.0,Pattern,1.0,10.900822125026025,Object_Land_Pattern_Small,5,0,1,4508584.0,4508660.0,76.0
116,choice,choice,30,4.0,Pattern,1.0,10.900822125026025,fixation,-1,1,0,4508915.0,4509164.0,249.0
116,choice,choice,30,4.0,Pattern,1.0,10.900822125026025,Animal_Sea_Pattern_Small,1,0,1,4509396.0,4509929.0,533.0
116,choice,choice,30,4.0,Pattern,1.0,10.900822125026025,Object_Land_Solid_Large,2,0,0,4510180.0,4510571.0,391.0
116,choice,choice,30,4.0,Pattern,1.0,10.900822125026025,Animal_Sea_Solid_Small,3,0,0,4510834.0,4511150.0,316.0
116,choice,choice,30,4.0,Pattern,1.0,10.900822125026025,fixation,-1,1,0,4511443.0,4511845.0,402.0
116,choice,choice,30,4.0,Pattern,1.0,10.900822125026025,Object_Land_Solid_Large,2,0,0,4511869.0,4511895.0,26.0
116,choice,choice,30,4.0,Pattern,1.0,10.900822125026025,Animal_Sea_Pattern_Small,1,0,1,4512148.0,4512338.0,190.0
116,choice,choice,30,4.0,Pattern,1.0,10.900822125026025,Object_Land_Solid_Large,2,0,0,4512362.0,4512705.0,343.0
116,choice,choice,30,4.0,Pattern,1.0,10.900822125026025,Animal_Sea_Pattern_Small,1,0,1,4512739.0,4513240.0,501.0
116,choice,choice,30,4.0,Pattern,1.0,10.900822125026025,Object_Land_Solid_Large,2,0,0,4513281.0,4514009.0,728.0
116,choice,choice,30,4.0,Pattern,1.0,10.900822125026025,Animal_Sea_Pattern_Small,1,0,1,4514254.0,4515331.0,1077.0
116,choice,choice,30,4.0,Pattern,1.0,10.900822125026025,Object_Land_Pattern_Large,0,0,1,4516026.0,4516207.0,181.0
116,choice,choice,30,4.0,Pattern,1.0,10.900822125026025,fixation,-1,1,0,4516226.0,4516789.0,563.0
116,choice,choice,30,4.0,Pattern,1.0,10.900822125026025,Object_Land_Pattern_Small,5,0,1,4516810.0,4517978.0,1168.0
116,choice,choice,30,4.0,Pattern,1.0,10.900822125026025,Animal_Sea_Solid_Small,3,0,0,4518497.0,4518602.0,105.0
116,choice,choice,30,4.0,Pattern,1.0,10.900822125026025,Object_Land_Pattern_Small,5,0,1,4518845.0,4518944.0,99.0
116,choice,choice,31,4.0,Large,1.0,14.160994125064462,fixation,-1,1,0,4522161.0,4522602.0,441.0
116,choice,choice,31,4.0,Large,1.0,14.160994125064462,Object_Land_Pattern_Large,0,0,1,4522847.0,4523373.0,526.0
116,choice,choice,31,4.0,Large,1.0,14.160994125064462,Object_Land_Solid_Large,2,0,1,4523408.0,4523461.0,53.0
116,choice,choice,31,4.0,Large,1.0,14.160994125064462,Animal_Sea_Solid_Small,3,0,0,4523721.0,4523783.0,62.0
116,choice,choice,31,4.0,Large,1.0,14.160994125064462,Object_Land_Pattern_Small,5,0,0,4524146.0,4524811.0,665.0
116,choice,choice,31,4.0,Large,1.0,14.160994125064462,Object_Land_Pattern_Large,0,0,1,4524926.0,4524996.0,70.0
116,choice,choice,31,4.0,Large,1.0,14.160994125064462,Animal_Sea_Solid_Large,4,0,1,4525041.0,4525081.0,40.0
116,choice,choice,31,4.0,Large,1.0,14.160994125064462,Object_Land_Solid_Large,2,0,1,4525352.0,4526165.0,813.0
116,choice,choice,31,4.0,Large,1.0,14.160994125064462,Animal_Sea_Solid_Small,3,0,0,4526215.0,4527018.0,803.0
116,choice,choice,31,4.0,Large,1.0,14.160994125064462,Object_Land_Pattern_Small,5,0,0,4527264.0,4528058.0,794.0
116,choice,choice,31,4.0,Large,1.0,14.160994125064462,Animal_Sea_Solid_Large,4,0,1,4528098.0,4528193.0,95.0
116,choice,choice,31,4.0,Large,1.0,14.160994125064462,Animal_Sea_Solid_Small,3,0,0,4528476.0,4528886.0,410.0
116,choice,choice,31,4.0,Large,1.0,14.160994125064462,Animal_Sea_Pattern_Small,1,0,0,4528911.0,4529448.0,537.0
116,choice,choice,31,4.0,Large,1.0,14.160994125064462,Object_Land_Pattern_Small,5,0,0,4529700.0,4529918.0,218.0
116,choice,choice,31,4.0,Large,1.0,14.160994125064462,Object_Land_Pattern_Large,0,0,1,4529967.0,4530354.0,387.0
116,choice,choice,31,4.0,Large,1.0,14.160994125064462,Animal_Sea_Pattern_Small,1,0,0,4530374.0,4530541.0,167.0
116,choice,choice,31,4.0,Large,1.0,14.160994125064462,Object_Land_Solid_Large,2,0,1,4530780.0,4531759.0,979.0
116,choice,choice,31,4.0,Large,1.0,14.160994125064462,Object_Land_Pattern_Large,0,0,1,4532041.0,4532381.0,340.0
116,choice,choice,31,4.0,Large,1.0,14.160994125064462,Object_Land_Solid_Large,2,0,1,4532396.0,4532464.0,68.0
116,choice,choice,31,4.0,Large,1.0,14.160994125064462,fixation,-1,1,0,4532679.0,4533977.0,1298.0
116,choice,choice,31,4.0,Large,1.0,14.160994125064462,Object_Land_Pattern_Small,5,0,0,4534269.0,4535427.0,1158.0
116,choice,choice,32,4.0,Land,2.0,30.18272020795848,fixation,-1,1,0,4538487.0,4538724.0,237.0
116,choice,choice,32,4.0,Land,2.0,30.18272020795848,Object_Land_Pattern_Large,0,0,1,4538747.0,4539239.0,492.0
116,choice,choice,32,4.0,Land,2.0,30.18272020795848,fixation,-1,1,0,4539253.0,4539640.0,387.0
116,choice,choice,32,4.0,Land,2.0,30.18272020795848,Animal_Sea_Solid_Large,4,0,0,4539673.0,4540939.0,1266.0
116,choice,choice,32,4.0,Land,2.0,30.18272020795848,Object_Land_Pattern_Large,0,0,1,4541916.0,4543346.0,1430.0
116,choice,choice,32,4.0,Land,2.0,30.18272020795848,Object_Land_Pattern_Small,5,0,1,4543614.0,4543748.0,134.0
116,choice,choice,32,4.0,Land,2.0,30.18272020795848,Object_Land_Pattern_Large,0,0,1,4543763.0,4544017.0,254.0
116,choice,choice,32,4.0,Land,2.0,30.18272020795848,Animal_Sea_Pattern_Small,1,0,0,4544251.0,4544422.0,171.0
