phase,event,trial_number,eyetracker_onset,eyetracker_offset,fix_start,fix_end,fix_duration_full,fix_duration_bounded,fix_x,fix_y,roi_x,roi_y,roi_content,onset,offset,game,image,outcome,choice,correct,rt,letter,match,response,option,true_value,true_position,recalled_position,Unnamed: 18
encoding,fixation,1,3324090,3324603,3324403.0,3324598.0,196.0,196.0,1925.1,1131.6,1920.0,1080.0,fixation,24.403955250047147,24.916112166945823,1.0,Object_Sea_Solid_Large,-1.0,,,,,,,,,,,
encoding,image,1,3324603,3325620,3324712.0,3324879.0,168.0,168.0,1889.1,1306.0,1920.0,700.0,Animal_Land_Solid_Small,24.91629974998068,25.93312187504489,1.0,Object_Sea_Solid_Large,-1.0,,,,,,,,,,,
encoding,image,1,3324603,3325620,3324940.0,3325862.0,923.0,680.0,1908.2,690.4000000000001,1920.0,1460.0,Object_Sea_Solid_Large,24.91629974998068,25.93312187504489,1.0,Object_Sea_Solid_Large,-1.0,,,,,,,,,,,
encoding,value,1,3325620,3331635,3325889.0,3326079.0,191.0,191.0,1909.2,609.0,1920.0,1460.0,Object_Sea_Solid_Large,25.933238417026587,31.947719541960396,1.0,Object_Sea_Solid_Large,-1.0,,,,,,,,,,,
encoding,value,1,3325620,3331635,3326097.0,3326490.0,394.0,394.0,1894.9,699.0999999999999,1920.0,1460.0,Object_Sea_Solid_Large,25.933238417026587,31.947719541960396,1.0,Object_Sea_Solid_Large,-1.0,,,,,,,,,,,
encoding,value,1,3325620,3331635,3326497.0,3327365.0,869.0,869.0,1901.8,718.0999999999999,1920.0,1460.0,Object_Sea_Solid_Large,25.933238417026587,31.947719541960396,1.0,Object_Sea_Solid_Large,-1.0,,,,,,,,,,,
encoding,value,1,3325620,3331635,3327390.0,3327642.0,253.0,253.0,1919.3,615.4000000000001,1920.0,1460.0,Object_Sea_Solid_Large,25.933238417026587,31.947719541960396,1.0,Object_Sea_Solid_Large,-1.0,,,,,,,,,,,
encoding,value,1,3325620,3331635,3327661.0,3328017.0,357.0,357.0,1915.1,679.3,1920.0,1460.0,Object_Sea_Solid_Large,25.933238417026587,31.947719541960396,1.0,Object_Sea_Solid_Large,-1.0,,,,,,,,,,,
encoding,value,1,3325620,3331635,3328026.0,3328224.0,199.0,199.0,1893.9,702.8,1920.0,1460.0,Object_Sea_Solid_Large,25.933238417026587,31.947719541960396,1.0,Object_Sea_Solid_Large,-1.0,,,,,,,,,,,
encoding,value,1,3325620,3331635,3328231.0,3329382.0,1152.0,1152.0,1890.3,724.9000000000001,1920.0,1460.0,Object_Sea_Solid_Large,25.933238417026587,31.947719541960396,1.0,Object_Sea_Solid_Large,-1.0,,,,,,,,,,,
encoding,value,1,3325620,3331635,3329390.0,3329990.0,601.0,601.0,1876.3,711.7,1920.0,1460.0,Object_Sea_Solid_Large,25.933238417026587,31.947719541960396,1.0,Object_Sea_Solid_Large,-1.0,,,,,,,,,,,
encoding,value,1,3325620,3331635,3330171.0,3330341.0,171.0,171.0,1872.0,763.3,1920.0,1460.0,Object_Sea_Solid_Large,25.933238417026587,31.947719541960396,1.0,Object_Sea_Solid_Large,-1.0,,,,,,,,,,,
encoding,value,1,3325620,3331635,3330380.0,3330600.0,221.0,221.0,1878.6,1141.4,1591.0,891.0,Object_Land_Solid_Small,25.933238417026587,31.947719541960396,1.0,Object_Sea_Solid_Large,-1.0,,,,,,,,,,,
encoding,value,1,3325620,3331635,3330653.0,3330894.0,242.0,242.0,1879.6,716.5999999999999,1920.0,1460.0,Object_Sea_Solid_Large,25.933238417026587,31.947719541960396,1.0,Object_Sea_Solid_Large,-1.0,,,,,,,,,,,
encoding,value,1,3325620,3331635,3330926.0,3331085.0,160.0,160.0,1878.2,619.0999999999999,1920.0,1460.0,Object_Sea_Solid_Large,25.933238417026587,31.947719541960396,1.0,Object_Sea_Solid_Large,-1.0,,,,,,,,,,,
encoding,value,1,3325620,3331635,3331104.0,3331305.0,202.0,202.0,1880.1,699.8,1920.0,1460.0,Object_Sea_Solid_Large,25.933238417026587,31.947719541960396,1.0,Object_Sea_Solid_Large,-1.0,,,,,,,,,,,
encoding,value,1,3325620,3331635,3331314.0,3331830.0,517.0,321.0,1869.8,743.3,1920.0,1460.0,Object_Sea_Solid_Large,25.933238417026587,31.947719541960396,1.0,Object_Sea_Solid_Large,-1.0,,,,,,,,,,,
encoding,attention,1,3331635,3334653,3331854.0,3331989.0,136.0,136.0,1874.7,668.3,1920.0,1460.0,Object_Sea_Solid_Large,31.94789499999024,34.96607145899907,1.0,Object_Sea_Solid_Large,-1.0,-1.0,1.0,1.1011984589276835,,,,,,,,
encoding,attention,1,3331635,3334653,3332000.0,3332162.0,163.0,163.0,1902.8,643.5999999999999,1920.0,1460.0,Object_Sea_Solid_Large,31.94789499999024,34.96607145899907,1.0,Object_Sea_Solid_Large,-1.0,-1.0,1.0,1.1011984589276835,,,,,,,,
encoding,attention,1,3331635,3334653,3332182.0,3332523.0,342.0,342.0,1850.0,633.8,1920.0,1460.0,Object_Sea_Solid_Large,31.94789499999024,34.96607145899907,1.0,Object_Sea_Solid_Large,-1.0,-1.0,1.0,1.1011984589276835,,,,,,,,
encoding,attention,1,3331635,3334653,3332536.0,3333193.0,658.0,658.0,1847.6,686.5,1920.0,1460.0,Object_Sea_Solid_Large,31.94789499999024,34.96607145899907,1.0,Object_Sea_Solid_Large,-1.0,-1.0,1.0,1.1011984589276835,,,,,,,,
encoding,attention,1,3331635,3334653,3333208.0,3333392.0,185.0,185.0,1878.6,737.5,1920.0,1460.0,Object_Sea_Solid_Large,31.94789499999024,34.96607145899907,1.0,Object_Sea_Solid_Large,-1.0,-1.0,1.0,1.1011984589276835,,,,,,,,
encoding,attention,1,3331635,3334653,3333692.0,3333874.0,183.0,183.0,1935.0,1195.8,1920.0,700.0,Animal_Land_Solid_Small,31.94789499999024,34.96607145899907,1.0,Object_Sea_Solid_Large,-1.0,-1.0,1.0,1.1011984589276835,,,,,,,,
encoding,fixation,2,3334653,3335659,3334712.0,3334890.0,179.0,179.0,1900.1,714.0999999999999,1920.0,1460.0,Object_Sea_Solid_Large,34.966236499953084,35.97176833404228,1.0,Animal_Land_Solid_Small,-5.0,,,,,,,,,,,
encoding,fixation,2,3334653,3335659,3334943.0,3335304.0,362.0,362.0,1880.0,1226.5,1920.0,700.0,Animal_Land_Solid_Small,34.966236499953084,35.97176833404228,1.0,Animal_Land_Solid_Small,-5.0,,,,,,,,,,,
encoding,fixation,2,3334653,3335659,3335325.0,3335818.0,494.0,334.0,1844.0,1329.4,1920.0,700.0,Animal_Land_Solid_Small,34.966236499953084,35.97176833404228,1.0,Animal_Land_Solid_Small,-5.0,,,,,,,,,,,
encoding,image,2,3335659,3336670,3335840.0,3336019.0,180.0,180.0,1890.3,1451.4,1920.0,700.0,Animal_Land_Solid_Small,35.97189212497324,36.9832460420439,1.0,Animal_Land_Solid_Small,-5.0,,,,,,,,,,,
encoding,image,2,3335659,3336670,3336029.0,3336552.0,524.0,524.0,1922.1,1495.0,1920.0,700.0,Animal_Land_Solid_Small,35.97189212497324,36.9832460420439,1.0,Animal_Land_Solid_Small,-5.0,,,,,,,,,,,
encoding,image,2,3335659,3336670,3336563.0,3336845.0,283.0,107.0,1907.0,1466.5,1920.0,700.0,Animal_Land_Solid_Small,35.97189212497324,36.9832460420439,1.0,Animal_Land_Solid_Small,-5.0,,,,,,,,,,,
encoding,value,2,3336670,3342682,3336866.0,3337367.0,502.0,502.0,1905.5,1380.1,1920.0,700.0,Animal_Land_Solid_Small,36.98335637501441,42.99483245902229,1.0,Animal_Land_Solid_Small,-5.0,,,,,,,,,,,
encoding,value,2,3336670,3342682,3337385.0,3337543.0,159.0,159.0,1880.8,1417.7,1920.0,700.0,Animal_Land_Solid_Small,36.98335637501441,42.99483245902229,1.0,Animal_Land_Solid_Small,-5.0,,,,,,,,,,,
encoding,value,2,3336670,3342682,3337688.0,3338188.0,501.0,501.0,1912.7,1491.8,1920.0,700.0,Animal_Land_Solid_Small,36.98335637501441,42.99483245902229,1.0,Animal_Land_Solid_Small,-5.0,,,,,,,,,,,
encoding,value,2,3336670,3342682,3338213.0,3338556.0,344.0,344.0,1904.4,1379.0,1920.0,700.0,Animal_Land_Solid_Small,36.98335637501441,42.99483245902229,1.0,Animal_Land_Solid_Small,-5.0,,,,,,,,,,,
encoding,value,2,3336670,3342682,3338743.0,3338981.0,239.0,239.0,1899.9,1377.7,1920.0,700.0,Animal_Land_Solid_Small,36.98335637501441,42.99483245902229,1.0,Animal_Land_Solid_Small,-5.0,,,,,,,,,,,
encoding,value,2,3336670,3342682,3338994.0,3339646.0,653.0,653.0,1908.4,1342.4,1920.0,700.0,Animal_Land_Solid_Small,36.98335637501441,42.99483245902229,1.0,Animal_Land_Solid_Small,-5.0,,,,,,,,,,,
encoding,value,2,3336670,3342682,3339817.0,3339952.0,136.0,136.0,1920.7,1332.8,1920.0,700.0,Animal_Land_Solid_Small,36.98335637501441,42.99483245902229,1.0,Animal_Land_Solid_Small,-5.0,,,,,,,,,,,
encoding,value,2,3336670,3342682,3339960.0,3340437.0,478.0,478.0,1891.0,1354.3,1920.0,700.0,Animal_Land_Solid_Small,36.98335637501441,42.99483245902229,1.0,Animal_Land_Solid_Small,-5.0,,,,,,,,,,,
encoding,value,2,3336670,3342682,3340462.0,3340988.0,527.0,527.0,1907.9,1501.9,1920.0,700.0,Animal_Land_Solid_Small,36.98335637501441,42.99483245902229,1.0,Animal_Land_Solid_Small,-5.0,,,,,,,,,,,
encoding,value,2,3336670,3342682,3341012.0,3341249.0,238.0,238.0,1892.1,1403.4,1920.0,700.0,Animal_Land_Solid_Small,36.98335637501441,42.99483245902229,1.0,Animal_Land_Solid_Small,-5.0,,,,,,,,,,,
encoding,value,2,3336670,3342682,3341595.0,3341818.0,224.0,224.0,1875.2,1409.1,1920.0,700.0,Animal_Land_Solid_Small,36.98335637501441,42.99483245902229,1.0,Animal_Land_Solid_Small,-5.0,,,,,,,,,,,
encoding,value,2,3336670,3342682,3341838.0,3342237.0,400.0,400.0,1908.4,1477.9,1920.0,700.0,Animal_Land_Solid_Small,36.98335637501441,42.99483245902229,1.0,Animal_Land_Solid_Small,-5.0,,,,,,,,,,,
encoding,value,2,3336670,3342682,3342261.0,3342461.0,201.0,201.0,1893.3,1364.3,1920.0,700.0,Animal_Land_Solid_Small,36.98335637501441,42.99483245902229,1.0,Animal_Land_Solid_Small,-5.0,,,,,,,,,,,
encoding,value,2,3336670,3342682,3342480.0,3342865.0,386.0,202.0,1894.3,1464.8,1920.0,700.0,Animal_Land_Solid_Small,36.98335637501441,42.99483245902229,1.0,Animal_Land_Solid_Small,-5.0,,,,,,,,,,,
encoding,attention,2,3342682,3345700,3342888.0,3343069.0,182.0,182.0,1874.1,1397.4,1920.0,700.0,Animal_Land_Solid_Small,42.994935041991994,46.01231749996077,1.0,Animal_Land_Solid_Small,-5.0,-5.0,1.0,0.9719480000203476,,,,,,,,
encoding,attention,2,3342682,3345700,3343077.0,3343461.0,385.0,385.0,1914.1,1382.4,1920.0,700.0,Animal_Land_Solid_Small,42.994935041991994,46.01231749996077,1.0,Animal_Land_Solid_Small,-5.0,-5.0,1.0,0.9719480000203476,,,,,,,,
encoding,attention,2,3342682,3345700,3343469.0,3343918.0,450.0,450.0,1950.1,1388.0,1920.0,700.0,Animal_Land_Solid_Small,42.994935041991994,46.01231749996077,1.0,Animal_Land_Solid_Small,-5.0,-5.0,1.0,0.9719480000203476,,,,,,,,
encoding,attention,2,3342682,3345700,3343944.0,3344185.0,242.0,242.0,1908.8,1506.1,1920.0,700.0,Animal_Land_Solid_Small,42.994935041991994,46.01231749996077,1.0,Animal_Land_Solid_Small,-5.0,-5.0,1.0,0.9719480000203476,,,,,,,,
encoding,attention,2,3342682,3345700,3344205.0,3344464.0,260.0,260.0,1882.1,1412.9,1920.0,700.0,Animal_Land_Solid_Small,42.994935041991994,46.01231749996077,1.0,Animal_Land_Solid_Small,-5.0,-5.0,1.0,0.9719480000203476,,,,,,,,
encoding,fixation,3,3345700,3346205,,,,,,,,,none,46.012480166973546,46.51755166705698,1.0,Object_Sea_Pattern_Large,-3.0,,,,,,,,,,,
encoding,image,3,3346205,3347216,3346256.0,3346446.0,191.0,191.0,1879.2,1067.8,1920.0,1080.0,fixation,46.517652875045314,47.528165417024866,1.0,Object_Sea_Pattern_Large,-3.0,,,,,,,,,,,
encoding,image,3,3346205,3347216,3346484.0,3346757.0,274.0,274.0,2244.6,1282.3,2249.0,891.0,Object_Sea_Pattern_Large,46.517652875045314,47.528165417024866,1.0,Object_Sea_Pattern_Large,-3.0,,,,,,,,,,,
encoding,image,3,3346205,3347216,3346766.0,3348004.0,1239.0,450.0,2242.4,1253.0,2249.0,891.0,Object_Sea_Pattern_Large,46.517652875045314,47.528165417024866,1.0,Object_Sea_Pattern_Large,-3.0,,,,,,,,,,,
encoding,value,3,3347216,3353229,3348018.0,3348204.0,187.0,187.0,2232.9,1222.9,2249.0,891.0,Object_Sea_Pattern_Large,47.52829395898152,53.54110308398958,1.0,Object_Sea_Pattern_Large,-3.0,,,,,,,,,,,
encoding,value,3,3347216,3353229,3348892.0,3349282.0,391.0,391.0,1994.2,1143.7,2249.0,891.0,Object_Sea_Pattern_Large,47.52829395898152,53.54110308398958,1.0,Object_Sea_Pattern_Large,-3.0,,,,,,,,,,,
encoding,value,3,3347216,3353229,3349310.0,3349660.0,351.0,351.0,2246.1,1228.0,2249.0,891.0,Object_Sea_Pattern_Large,47.52829395898152,53.54110308398958,1.0,Object_Sea_Pattern_Large,-3.0,,,,,,,,,,,
encoding,value,3,3347216,3353229,3349681.0,3349977.0,297.0,297.0,2203.7,1207.5,2249.0,891.0,Object_Sea_Pattern_Large,47.52829395898152,53.54110308398958,1.0,Object_Sea_Pattern_Large,-3.0,,,,,,,,,,,
encoding,value,3,3347216,3353229,3349987.0,3350189.0,203.0,203.0,2227.2,1186.4,2249.0,891.0,Object_Sea_Pattern_Large,47.52829395898152,53.54110308398958,1.0,Object_Sea_Pattern_Large,-3.0,,,,,,,,,,,
encoding,value,3,3347216,3353229,3350200.0,3350605.0,406.0,406.0,2216.8,1220.8,2249.0,891.0,Object_Sea_Pattern_Large,47.52829395898152,53.54110308398958,1.0,Object_Sea_Pattern_Large,-3.0,,,,,,,,,,,
encoding,value,3,3347216,3353229,3350959.0,3351270.0,312.0,312.0,2217.4,1238.3,2249.0,891.0,Object_Sea_Pattern_Large,47.52829395898152,53.54110308398958,1.0,Object_Sea_Pattern_Large,-3.0,,,,,,,,,,,
encoding,value,3,3347216,3353229,3351287.0,3351833.0,547.0,547.0,2230.2,1184.5,2249.0,891.0,Object_Sea_Pattern_Large,47.52829395898152,53.54110308398958,1.0,Object_Sea_Pattern_Large,-3.0,,,,,,,,,,,
encoding,value,3,3347216,3353229,3351842.0,3352075.0,234.0,234.0,2229.0,1172.7,2249.0,891.0,Object_Sea_Pattern_Large,47.52829395898152,53.54110308398958,1.0,Object_Sea_Pattern_Large,-3.0,,,,,,,,,,,
encoding,value,3,3347216,3353229,3352088.0,3352393.0,306.0,306.0,2213.8,1210.1,2249.0,891.0,Object_Sea_Pattern_Large,47.52829395898152,53.54110308398958,1.0,Object_Sea_Pattern_Large,-3.0,,,,,,,,,,,
encoding,value,3,3347216,3353229,3352406.0,3352635.0,230.0,230.0,2221.8,1170.4,2249.0,891.0,Object_Sea_Pattern_Large,47.52829395898152,53.54110308398958,1.0,Object_Sea_Pattern_Large,-3.0,,,,,,,,,,,
encoding,value,3,3347216,3353229,3352655.0,3353479.0,825.0,574.0,2198.0,1203.7,2249.0,891.0,Object_Sea_Pattern_Large,47.52829395898152,53.54110308398958,1.0,Object_Sea_Pattern_Large,-3.0,,,,,,,,,,,
encoding,attention,3,3353229,3356248,3353491.0,3353804.0,314.0,314.0,2245.9,1182.5,2249.0,891.0,Object_Sea_Pattern_Large,53.54122112505138,56.56015575001947,1.0,Object_Sea_Pattern_Large,-3.0,-3.0,1.0,1.12749291700311,,,,,,,,
encoding,attention,3,3353229,3356248,3353815.0,3354201.0,387.0,387.0,2229.0,1209.5,2249.0,891.0,Object_Sea_Pattern_Large,53.54122112505138,56.56015575001947,1.0,Object_Sea_Pattern_Large,-3.0,-3.0,1.0,1.12749291700311,,,,,,,,
encoding,attention,3,3353229,3356248,3354216.0,3354684.0,469.0,469.0,2268.0,1187.2,2249.0,891.0,Object_Sea_Pattern_Large,53.54122112505138,56.56015575001947,1.0,Object_Sea_Pattern_Large,-3.0,-3.0,1.0,1.12749291700311,,,,,,,,
encoding,attention,3,3353229,3356248,3354945.0,3355116.0,172.0,172.0,2234.6,1268.2,2249.0,891.0,Object_Sea_Pattern_Large,53.54122112505138,56.56015575001947,1.0,Object_Sea_Pattern_Large,-3.0,-3.0,1.0,1.12749291700311,,,,,,,,
encoding,attention,3,3353229,3356248,3355140.0,3355376.0,237.0,237.0,2190.0,1162.3,2249.0,891.0,Object_Sea_Pattern_Large,53.54122112505138,56.56015575001947,1.0,Object_Sea_Pattern_Large,-3.0,-3.0,1.0,1.12749291700311,,,,,,,,
encoding,attention,3,3353229,3356248,3355394.0,3355590.0,197.0,197.0,2284.8,1162.6,2249.0,891.0,Object_Sea_Pattern_Large,53.54122112505138,56.56015575001947,1.0,Object_Sea_Pattern_Large,-3.0,-3.0,1.0,1.12749291700311,,,,,,,,
encoding,fixation,4,3356248,3357254,3356826.0,3356946.0,121.0,121.0,1935.1,1180.8,1920.0,700.0,Animal_Land_Solid_Small,56.56030291703064,57.565534292021766,1.0,Animal_Sea_Pattern_Small,5.0,,,,,,,,,,,
encoding,fixation,4,3356248,3357254,3356968.0,3357169.0,202.0,202.0,1898.1,1124.0,1920.0,1080.0,fixation,56.56030291703064,57.565534292021766,1.0,Animal_Sea_Pattern_Small,5.0,,,,,,,,,,,
encoding,fixation,4,3356248,3357254,3357195.0,3357462.0,268.0,59.0,1828.7,1278.7,1920.0,700.0,Animal_Land_Solid_Small,56.56030291703064,57.565534292021766,1.0,Animal_Sea_Pattern_Small,5.0,,,,,,,,,,,
encoding,image,4,3357254,3358265,3357517.0,3357691.0,175.0,175.0,2177.6,942.8,2249.0,1269.0,Animal_Sea_Pattern_Small,57.56573579204269,58.576918666949496,1.0,Animal_Sea_Pattern_Small,5.0,,,,,,,,,,,
encoding,image,4,3357254,3358265,3357703.0,3358172.0,470.0,470.0,2201.8,902.7,2249.0,1269.0,Animal_Sea_Pattern_Small,57.56573579204269,58.576918666949496,1.0,Animal_Sea_Pattern_Small,5.0,,,,,,,,,,,
encoding,image,4,3357254,3358265,3358199.0,3358380.0,182.0,66.0,1949.4,989.3,1920.0,1460.0,Object_Sea_Solid_Large,57.56573579204269,58.576918666949496,1.0,Animal_Sea_Pattern_Small,5.0,,,,,,,,,,,
encoding,value,4,3358265,3364278,3358422.0,3358576.0,155.0,155.0,2197.1,890.0999999999999,2249.0,1269.0,Animal_Sea_Pattern_Small,58.5770388339879,64.58961716701742,1.0,Animal_Sea_Pattern_Small,5.0,,,,,,,,,,,
encoding,value,4,3358265,3364278,3358600.0,3358876.0,277.0,277.0,2227.5,786.5999999999999,2249.0,1269.0,Animal_Sea_Pattern_Small,58.5770388339879,64.58961716701742,1.0,Animal_Sea_Pattern_Small,5.0,,,,,,,,,,,
encoding,value,4,3358265,3364278,3358890.0,3358933.0,44.0,44.0,2203.7,832.5999999999999,2249.0,1269.0,Animal_Sea_Pattern_Small,58.5770388339879,64.58961716701742,1.0,Animal_Sea_Pattern_Small,5.0,,,,,,,,,,,
encoding,value,4,3358265,3364278,3359107.0,3359564.0,458.0,458.0,2262.2,900.2,2249.0,1269.0,Animal_Sea_Pattern_Small,58.5770388339879,64.58961716701742,1.0,Animal_Sea_Pattern_Small,5.0,,,,,,,,,,,
encoding,value,4,3358265,3364278,3359576.0,3359772.0,197.0,197.0,2232.1,864.7,2249.0,1269.0,Animal_Sea_Pattern_Small,58.5770388339879,64.58961716701742,1.0,Animal_Sea_Pattern_Small,5.0,,,,,,,,,,,
encoding,value,4,3358265,3364278,3359791.0,3360860.0,1070.0,1070.0,2240.8,785.9000000000001,2249.0,1269.0,Animal_Sea_Pattern_Small,58.5770388339879,64.58961716701742,1.0,Animal_Sea_Pattern_Small,5.0,,,,,,,,,,,
encoding,value,4,3358265,3364278,3360873.0,3361102.0,230.0,230.0,2202.5,836.2,2249.0,1269.0,Animal_Sea_Pattern_Small,58.5770388339879,64.58961716701742,1.0,Animal_Sea_Pattern_Small,5.0,,,,,,,,,,,
encoding,value,4,3358265,3364278,3361114.0,3361388.0,275.0,275.0,2203.9,874.8,2249.0,1269.0,Animal_Sea_Pattern_Small,58.5770388339879,64.58961716701742,1.0,Animal_Sea_Pattern_Small,5.0,,,,,,,,,,,
encoding,value,4,3358265,3364278,3361409.0,3361607.0,199.0,199.0,2240.9,802.8,2249.0,1269.0,Animal_Sea_Pattern_Small,58.5770388339879,64.58961716701742,1.0,Animal_Sea_Pattern_Small,5.0,,,,,,,,,,,
encoding,value,4,3358265,3364278,3361621.0,3361935.0,315.0,315.0,2198.5,842.4000000000001,2249.0,1269.0,Animal_Sea_Pattern_Small,58.5770388339879,64.58961716701742,1.0,Animal_Sea_Pattern_Small,5.0,,,,,,,,,,,
encoding,value,4,3358265,3364278,3362129.0,3362384.0,256.0,256.0,2224.2,811.7,2249.0,1269.0,Animal_Sea_Pattern_Small,58.5770388339879,64.58961716701742,1.0,Animal_Sea_Pattern_Small,5.0,,,,,,,,,,,
encoding,value,4,3358265,3364278,3362404.0,3362652.0,249.0,249.0,2193.5,833.0999999999999,2249.0,1269.0,Animal_Sea_Pattern_Small,58.5770388339879,64.58961716701742,1.0,Animal_Sea_Pattern_Small,5.0,,,,,,,,,,,
encoding,value,4,3358265,3364278,3362661.0,3362935.0,275.0,275.0,2203.9,875.9000000000001,2249.0,1269.0,Animal_Sea_Pattern_Small,58.5770388339879,64.58961716701742,1.0,Animal_Sea_Pattern_Small,5.0,,,,,,,,,,,
encoding,value,4,3358265,3364278,3362955.0,3363193.0,239.0,239.0,2239.7,813.0,2249.0,1269.0,Animal_Sea_Pattern_Small,58.5770388339879,64.58961716701742,1.0,Animal_Sea_Pattern_Small,5.0,,,,,,,,,,,
encoding,value,4,3358265,3364278,3363207.0,3363558.0,352.0,352.0,2217.7,854.0999999999999,2249.0,1269.0,Animal_Sea_Pattern_Small,58.5770388339879,64.58961716701742,1.0,Animal_Sea_Pattern_Small,5.0,,,,,,,,,,,
encoding,value,4,3358265,3364278,3363568.0,3363715.0,148.0,148.0,2236.0,815.0999999999999,2249.0,1269.0,Animal_Sea_Pattern_Small,58.5770388339879,64.58961716701742,1.0,Animal_Sea_Pattern_Small,5.0,,,,,,,,,,,
encoding,value,4,3358265,3364278,3363732.0,3364116.0,385.0,385.0,2239.8,879.8,2249.0,1269.0,Animal_Sea_Pattern_Small,58.5770388339879,64.58961716701742,1.0,Animal_Sea_Pattern_Small,5.0,,,,,,,,,,,
encoding,value,4,3358265,3364278,3364124.0,3364527.0,404.0,154.0,2217.3,878.2,2249.0,1269.0,Animal_Sea_Pattern_Small,58.5770388339879,64.58961716701742,1.0,Animal_Sea_Pattern_Small,5.0,,,,,,,,,,,
encoding,attention,4,3364278,3367298,3364544.0,3364719.0,176.0,176.0,2211.0,820.5,2249.0,1269.0,Animal_Sea_Pattern_Small,64.58981191704515,67.60993841697928,1.0,Animal_Sea_Pattern_Small,5.0,5.0,1.0,0.9659779169596732,,,,,,,,
encoding,attention,4,3364278,3367298,3364737.0,3365554.0,818.0,818.0,2292.4,795.0,2249.0,1269.0,Animal_Sea_Pattern_Small,64.58981191704515,67.60993841697928,1.0,Animal_Sea_Pattern_Small,5.0,5.0,1.0,0.9659779169596732,,,,,,,,
encoding,attention,4,3364278,3367298,3365957.0,3366170.0,214.0,214.0,1884.5,1252.0,1920.0,700.0,Animal_Land_Solid_Small,64.58981191704515,67.60993841697928,1.0,Animal_Sea_Pattern_Small,5.0,5.0,1.0,0.9659779169596732,,,,,,,,
encoding,attention,4,3364278,3367298,3366197.0,3366392.0,196.0,196.0,2158.5,1044.0,2249.0,1269.0,Animal_Sea_Pattern_Small,64.58981191704515,67.60993841697928,1.0,Animal_Sea_Pattern_Small,5.0,5.0,1.0,0.9659779169596732,,,,,,,,
encoding,attention,4,3364278,3367298,3366420.0,3366637.0,218.0,218.0,1913.8,1081.5,1920.0,1080.0,fixation,64.58981191704515,67.60993841697928,1.0,Animal_Sea_Pattern_Small,5.0,5.0,1.0,0.9659779169596732,,,,,,,,
encoding,attention,4,3364278,3367298,3366662.0,3367096.0,435.0,435.0,2122.2,1214.3,2249.0,891.0,Object_Sea_Pattern_Large,64.58981191704515,67.60993841697928,1.0,Animal_Sea_Pattern_Small,5.0,5.0,1.0,0.9659779169596732,,,,,,,,
encoding,fixation,5,3367299,3368054,3367763.0,3367804.0,42.0,42.0,1865.4,1065.2,1920.0,1080.0,fixation,67.61010187503416,68.365475708968,1.0,Animal_Land_Pattern_Large,1.0,,,,,,,,,,,
encoding,fixation,5,3367299,3368054,3368003.0,3368123.0,121.0,51.0,1853.4,1090.6,1920.0,1080.0,fixation,67.61010187503416,68.365475708968,1.0,Animal_Land_Pattern_Large,1.0,,,,,,,,,,,
encoding,image,5,3368054,3369065,3368133.0,3368258.0,126.0,126.0,1883.9,1068.4,1920.0,1080.0,fixation,68.36558358394541,69.37646429205779,1.0,Animal_Land_Pattern_Large,1.0,,,,,,,,,,,
encoding,image,5,3368054,3369065,3368305.0,3369168.0,864.0,760.0,1534.2,879.9000000000001,1591.0,1269.0,Animal_Land_Pattern_Large,68.36558358394541,69.37646429205779,1.0,Animal_Land_Pattern_Large,1.0,,,,,,,,,,,
encoding,value,5,3369065,3375077,3369177.0,3369472.0,296.0,296.0,1563.2,880.5,1591.0,1269.0,Animal_Land_Pattern_Large,69.37658045894932,75.38831983401906,1.0,Animal_Land_Pattern_Large,1.0,,,,,,,,,,,
encoding,value,5,3369065,3375077,3369479.0,3369753.0,275.0,275.0,1535.6,892.5,1591.0,1269.0,Animal_Land_Pattern_Large,69.37658045894932,75.38831983401906,1.0,Animal_Land_Pattern_Large,1.0,,,,,,,,,,,
encoding,value,5,3369065,3375077,3370037.0,3370344.0,308.0,308.0,1546.4,896.0,1591.0,1269.0,Animal_Land_Pattern_Large,69.37658045894932,75.38831983401906,1.0,Animal_Land_Pattern_Large,1.0,,,,,,,,,,,
encoding,value,5,3369065,3375077,3370352.0,3370622.0,271.0,271.0,1523.2,863.9000000000001,1591.0,1269.0,Animal_Land_Pattern_Large,69.37658045894932,75.38831983401906,1.0,Animal_Land_Pattern_Large,1.0,,,,,,,,,,,
encoding,value,5,3369065,3375077,3370640.0,3370882.0,243.0,243.0,1576.3,790.4000000000001,1591.0,1269.0,Animal_Land_Pattern_Large,69.37658045894932,75.38831983401906,1.0,Animal_Land_Pattern_Large,1.0,,,,,,,,,,,
encoding,value,5,3369065,3375077,3370891.0,3371047.0,157.0,157.0,1577.2,762.4000000000001,1591.0,1269.0,Animal_Land_Pattern_Large,69.37658045894932,75.38831983401906,1.0,Animal_Land_Pattern_Large,1.0,,,,,,,,,,,
encoding,value,5,3369065,3375077,3371070.0,3371400.0,331.0,331.0,1526.2,878.0,1591.0,1269.0,Animal_Land_Pattern_Large,69.37658045894932,75.38831983401906,1.0,Animal_Land_Pattern_Large,1.0,,,,,,,,,,,
encoding,value,5,3369065,3375077,3371442.0,3371636.0,195.0,195.0,1926.2,1079.2,1920.0,1080.0,fixation,69.37658045894932,75.38831983401906,1.0,Animal_Land_Pattern_Large,1.0,,,,,,,,,,,
encoding,value,5,3369065,3375077,3371670.0,3371883.0,214.0,214.0,1600.8,840.0,1591.0,1269.0,Animal_Land_Pattern_Large,69.37658045894932,75.38831983401906,1.0,Animal_Land_Pattern_Large,1.0,,,,,,,,,,,
encoding,value,5,3369065,3375077,3371900.0,3372080.0,181.0,181.0,1567.0,786.7,1591.0,1269.0,Animal_Land_Pattern_Large,69.37658045894932,75.38831983401906,1.0,Animal_Land_Pattern_Large,1.0,,,,,,,,,,,
encoding,value,5,3369065,3375077,3372098.0,3372441.0,344.0,344.0,1531.6,865.9000000000001,1591.0,1269.0,Animal_Land_Pattern_Large,69.37658045894932,75.38831983401906,1.0,Animal_Land_Pattern_Large,1.0,,,,,,,,,,,
encoding,value,5,3369065,3375077,3372451.0,3372800.0,350.0,350.0,1581.0,874.5,1591.0,1269.0,Animal_Land_Pattern_Large,69.37658045894932,75.38831983401906,1.0,Animal_Land_Pattern_Large,1.0,,,,,,,,,,,
encoding,value,5,3369065,3375077,3372819.0,3372978.0,160.0,160.0,1561.0,804.5,1591.0,1269.0,Animal_Land_Pattern_Large,69.37658045894932,75.38831983401906,1.0,Animal_Land_Pattern_Large,1.0,,,,,,,,,,,
encoding,value,5,3369065,3375077,3372999.0,3373607.0,609.0,609.0,1531.6,882.3,1591.0,1269.0,Animal_Land_Pattern_Large,69.37658045894932,75.38831983401906,1.0,Animal_Land_Pattern_Large,1.0,,,,,,,,,,,
encoding,value,5,3369065,3375077,3373798.0,3374123.0,326.0,326.0,1563.5,844.5,1591.0,1269.0,Animal_Land_Pattern_Large,69.37658045894932,75.38831983401906,1.0,Animal_Land_Pattern_Large,1.0,,,,,,,,,,,
encoding,value,5,3369065,3375077,3374140.0,3374313.0,174.0,174.0,1580.7,774.9000000000001,1591.0,1269.0,Animal_Land_Pattern_Large,69.37658045894932,75.38831983401906,1.0,Animal_Land_Pattern_Large,1.0,,,,,,,,,,,
encoding,value,5,3369065,3375077,3374336.0,3374810.0,475.0,475.0,1529.4,891.8,1591.0,1269.0,Animal_Land_Pattern_Large,69.37658045894932,75.38831983401906,1.0,Animal_Land_Pattern_Large,1.0,,,,,,,,,,,
encoding,value,5,3369065,3375077,3374828.0,3375053.0,226.0,226.0,1579.0,818.2,1591.0,1269.0,Animal_Land_Pattern_Large,69.37658045894932,75.38831983401906,1.0,Animal_Land_Pattern_Large,1.0,,,,,,,,,,,
encoding,value,5,3369065,3375077,3375069.0,3375338.0,270.0,8.0,1555.3,891.3,1591.0,1269.0,Animal_Land_Pattern_Large,69.37658045894932,75.38831983401906,1.0,Animal_Land_Pattern_Large,1.0,,,,,,,,,,,
encoding,attention,5,3375077,3378129,3375360.0,3375582.0,223.0,223.0,1613.3,807.7,1591.0,1269.0,Animal_Land_Pattern_Large,75.38844054203946,78.4406238750089,1.0,Animal_Land_Pattern_Large,1.0,1.0,1.0,0.8057126669446006,,,,,,,,
encoding,attention,5,3375077,3378129,3375605.0,3375789.0,185.0,185.0,1542.1,768.9000000000001,1591.0,1269.0,Animal_Land_Pattern_Large,75.38844054203946,78.4406238750089,1.0,Animal_Land_Pattern_Large,1.0,1.0,1.0,0.8057126669446006,,,,,,,,
encoding,attention,5,3375077,3378129,3375814.0,3376208.0,395.0,395.0,1539.7,888.7,1591.0,1269.0,Animal_Land_Pattern_Large,75.38844054203946,78.4406238750089,1.0,Animal_Land_Pattern_Large,1.0,1.0,1.0,0.8057126669446006,,,,,,,,
encoding,attention,5,3375077,3378129,3376231.0,3376494.0,264.0,264.0,1532.9,787.0999999999999,1591.0,1269.0,Animal_Land_Pattern_Large,75.38844054203946,78.4406238750089,1.0,Animal_Land_Pattern_Large,1.0,1.0,1.0,0.8057126669446006,,,,,,,,
encoding,attention,5,3375077,3378129,3376840.0,3377283.0,444.0,444.0,1738.5,941.3,1591.0,1269.0,Animal_Land_Pattern_Large,75.38844054203946,78.4406238750089,1.0,Animal_Land_Pattern_Large,1.0,1.0,1.0,0.8057126669446006,,,,,,,,
encoding,attention,5,3375077,3378129,3377322.0,3377626.0,305.0,305.0,1559.1,814.3,1591.0,1269.0,Animal_Land_Pattern_Large,75.38844054203946,78.4406238750089,1.0,Animal_Land_Pattern_Large,1.0,1.0,1.0,0.8057126669446006,,,,,,,,
encoding,fixation,6,3378129,3379635,3378358.0,3378774.0,417.0,417.0,1914.3,1060.3,1920.0,1080.0,fixation,78.4407760000322,79.94597074994817,1.0,Object_Land_Solid_Small,3.0,,,,,,,,,,,
encoding,image,6,3379635,3380646,3380166.0,3380267.0,102.0,102.0,1696.0,1233.4,1591.0,891.0,Object_Land_Solid_Small,79.94610291696154,80.95712662499864,1.0,Object_Land_Solid_Small,3.0,,,,,,,,,,,
encoding,image,6,3379635,3380646,3380292.0,3380838.0,547.0,354.0,1582.6,1257.9,1591.0,891.0,Object_Land_Solid_Small,79.94610291696154,80.95712662499864,1.0,Object_Land_Solid_Small,3.0,,,,,,,,,,,
encoding,value,6,3380646,3386658,3380853.0,3381247.0,395.0,395.0,1582.1,1174.8,1591.0,891.0,Object_Land_Solid_Small,80.95724195905495,86.96856537496205,1.0,Object_Land_Solid_Small,3.0,,,,,,,,,,,
encoding,value,6,3380646,3386658,3381395.0,3381653.0,259.0,259.0,1593.6,1269.2,1591.0,891.0,Object_Land_Solid_Small,80.95724195905495,86.96856537496205,1.0,Object_Land_Solid_Small,3.0,,,,,,,,,,,
encoding,value,6,3380646,3386658,3381660.0,3382103.0,444.0,444.0,1571.5,1257.8,1591.0,891.0,Object_Land_Solid_Small,80.95724195905495,86.96856537496205,1.0,Object_Land_Solid_Small,3.0,,,,,,,,,,,
encoding,value,6,3380646,3386658,3382123.0,3382328.0,206.0,206.0,1730.2,1204.0,1591.0,891.0,Object_Land_Solid_Small,80.95724195905495,86.96856537496205,1.0,Object_Land_Solid_Small,3.0,,,,,,,,,,,
encoding,value,6,3380646,3386658,3382447.0,3382682.0,236.0,236.0,1661.0,1305.8,1591.0,891.0,Object_Land_Solid_Small,80.95724195905495,86.96856537496205,1.0,Object_Land_Solid_Small,3.0,,,,,,,,,,,
encoding,value,6,3380646,3386658,3382707.0,3384082.0,1376.0,1376.0,1574.4,1253.5,1591.0,891.0,Object_Land_Solid_Small,80.95724195905495,86.96856537496205,1.0,Object_Land_Solid_Small,3.0,,,,,,,,,,,
encoding,value,6,3380646,3386658,3384099.0,3384381.0,283.0,283.0,1569.8,1187.5,1591.0,891.0,Object_Land_Solid_Small,80.95724195905495,86.96856537496205,1.0,Object_Land_Solid_Small,3.0,,,,,,,,,,,
encoding,value,6,3380646,3386658,3384388.0,3385581.0,1194.0,1194.0,1571.7,1148.6,1591.0,891.0,Object_Land_Solid_Small,80.95724195905495,86.96856537496205,1.0,Object_Land_Solid_Small,3.0,,,,,,,,,,,
encoding,value,6,3380646,3386658,3385596.0,3385933.0,338.0,338.0,1571.5,1205.5,1591.0,891.0,Object_Land_Solid_Small,80.95724195905495,86.96856537496205,1.0,Object_Land_Solid_Small,3.0,,,,,,,,,,,
encoding,value,6,3380646,3386658,3385945.0,3386881.0,937.0,713.0,1565.6,1155.5,1591.0,891.0,Object_Land_Solid_Small,80.95724195905495,86.96856537496205,1.0,Object_Land_Solid_Small,3.0,,,,,,,,,,,
encoding,attention,6,3386658,3389675,3386889.0,3387235.0,347.0,347.0,1600.3,1153.3,1591.0,891.0,Object_Land_Solid_Small,86.96869108395185,89.98550220904872,1.0,Object_Land_Solid_Small,3.0,3.0,1.0,1.1585360409226269,,,,,,,,
encoding,attention,6,3386658,3389675,3387255.0,3387822.0,568.0,568.0,1533.5,1159.5,1591.0,891.0,Object_Land_Solid_Small,86.96869108395185,89.98550220904872,1.0,Object_Land_Solid_Small,3.0,3.0,1.0,1.1585360409226269,,,,,,,,
encoding,attention,6,3386658,3389675,3387833.0,3388178.0,346.0,346.0,1584.5,1169.7,1591.0,891.0,Object_Land_Solid_Small,86.96869108395185,89.98550220904872,1.0,Object_Land_Solid_Small,3.0,3.0,1.0,1.1585360409226269,,,,,,,,
encoding,attention,6,3386658,3389675,3388198.0,3388226.0,29.0,29.0,1624.8,1275.9,1591.0,891.0,Object_Land_Solid_Small,86.96869108395185,89.98550220904872,1.0,Object_Land_Solid_Small,3.0,3.0,1.0,1.1585360409226269,,,,,,,,
encoding,attention,6,3386658,3389675,3388597.0,3388686.0,90.0,90.0,1691.0,1348.9,1591.0,891.0,Object_Land_Solid_Small,86.96869108395185,89.98550220904872,1.0,Object_Land_Solid_Small,3.0,3.0,1.0,1.1585360409226269,,,,,,,,
encoding,attention,6,3386658,3389675,3388719.0,3389153.0,435.0,435.0,1586.9,1258.3,1591.0,891.0,Object_Land_Solid_Small,86.96869108395185,89.98550220904872,1.0,Object_Land_Solid_Small,3.0,3.0,1.0,1.1585360409226269,,,,,,,,
encoding,fixation,7,3873105,3873861,3873121.0,3873293.0,173.0,173.0,2072.2,1112.3,2249.0,891.0,Animal_Sea_Pattern_Large,37.21676283306442,37.97304979106411,2.0,Object_Sea_Pattern_Small,-2.0,,,,,,,,,,,
encoding,fixation,7,3873105,3873861,3873318.0,3873646.0,329.0,329.0,1921.2,1092.2,1920.0,1080.0,fixation,37.21676283306442,37.97304979106411,2.0,Object_Sea_Pattern_Small,-2.0,,,,,,,,,,,
encoding,image,7,3873861,3874872,3873862.0,3874045.0,184.0,184.0,1880.5,1351.0,1920.0,700.0,Object_Sea_Solid_Small,37.973166208015755,38.983980374992825,2.0,Object_Sea_Pattern_Small,-2.0,,,,,,,,,,,
encoding,image,7,3873861,3874872,3874085.0,3874212.0,128.0,128.0,1631.0,1278.4,1591.0,891.0,Object_Sea_Pattern_Small,37.973166208015755,38.983980374992825,2.0,Object_Sea_Pattern_Small,-2.0,,,,,,,,,,,
encoding,image,7,3873861,3874872,3874220.0,3874805.0,586.0,586.0,1590.7,1247.2,1591.0,891.0,Object_Sea_Pattern_Small,37.973166208015755,38.983980374992825,2.0,Object_Sea_Pattern_Small,-2.0,,,,,,,,,,,
encoding,image,7,3873861,3874872,3874814.0,3875126.0,313.0,58.0,1568.0,1214.8,1591.0,891.0,Object_Sea_Pattern_Small,37.973166208015755,38.983980374992825,2.0,Object_Sea_Pattern_Small,-2.0,,,,,,,,,,,
encoding,value,7,3874872,3880885,3875143.0,3875979.0,837.0,837.0,1566.6,1167.0,1591.0,891.0,Object_Sea_Pattern_Small,38.98410141596105,44.996593666030094,2.0,Object_Sea_Pattern_Small,-2.0,,,,,,,,,,,
encoding,value,7,3874872,3880885,3875994.0,3876377.0,384.0,384.0,1564.9,1249.0,1591.0,891.0,Object_Sea_Pattern_Small,38.98410141596105,44.996593666030094,2.0,Object_Sea_Pattern_Small,-2.0,,,,,,,,,,,
encoding,value,7,3874872,3880885,3876396.0,3876661.0,266.0,266.0,1572.0,1175.1,1591.0,891.0,Object_Sea_Pattern_Small,38.98410141596105,44.996593666030094,2.0,Object_Sea_Pattern_Small,-2.0,,,,,,,,,,,
encoding,value,7,3874872,3880885,3876680.0,3876997.0,318.0,318.0,1567.4,1257.5,1591.0,891.0,Object_Sea_Pattern_Small,38.98410141596105,44.996593666030094,2.0,Object_Sea_Pattern_Small,-2.0,,,,,,,,,,,
encoding,value,7,3874872,3880885,3877017.0,3877290.0,274.0,274.0,1561.5,1186.3,1591.0,891.0,Object_Sea_Pattern_Small,38.98410141596105,44.996593666030094,2.0,Object_Sea_Pattern_Small,-2.0,,,,,,,,,,,
encoding,value,7,3874872,3880885,3877305.0,3877629.0,325.0,325.0,1559.2,1230.6,1591.0,891.0,Object_Sea_Pattern_Small,38.98410141596105,44.996593666030094,2.0,Object_Sea_Pattern_Small,-2.0,,,,,,,,,,,
encoding,value,7,3874872,3880885,3877646.0,3877923.0,278.0,278.0,1576.6,1163.3,1591.0,891.0,Object_Sea_Pattern_Small,38.98410141596105,44.996593666030094,2.0,Object_Sea_Pattern_Small,-2.0,,,,,,,,,,,
encoding,value,7,3874872,3880885,3878076.0,3878306.0,231.0,231.0,1589.0,1191.4,1591.0,891.0,Object_Sea_Pattern_Small,38.98410141596105,44.996593666030094,2.0,Object_Sea_Pattern_Small,-2.0,,,,,,,,,,,
encoding,value,7,3874872,3880885,3878316.0,3878678.0,363.0,363.0,1575.9,1151.1,1591.0,891.0,Object_Sea_Pattern_Small,38.98410141596105,44.996593666030094,2.0,Object_Sea_Pattern_Small,-2.0,,,,,,,,,,,
encoding,value,7,3874872,3880885,3878687.0,3878721.0,35.0,35.0,1545.3,1165.2,1591.0,891.0,Object_Sea_Pattern_Small,38.98410141596105,44.996593666030094,2.0,Object_Sea_Pattern_Small,-2.0,,,,,,,,,,,
encoding,value,7,3874872,3880885,3878910.0,3879253.0,344.0,344.0,1584.0,1229.8,1591.0,891.0,Object_Sea_Pattern_Small,38.98410141596105,44.996593666030094,2.0,Object_Sea_Pattern_Small,-2.0,,,,,,,,,,,
encoding,value,7,3874872,3880885,3879261.0,3880012.0,752.0,752.0,1554.2,1204.5,1591.0,891.0,Object_Sea_Pattern_Small,38.98410141596105,44.996593666030094,2.0,Object_Sea_Pattern_Small,-2.0,,,,,,,,,,,
encoding,value,7,3874872,3880885,3880020.0,3880455.0,436.0,436.0,1557.9,1241.0,1591.0,891.0,Object_Sea_Pattern_Small,38.98410141596105,44.996593666030094,2.0,Object_Sea_Pattern_Small,-2.0,,,,,,,,,,,
encoding,value,7,3874872,3880885,3880477.0,3880906.0,430.0,408.0,1559.6,1169.0,1591.0,891.0,Object_Sea_Pattern_Small,38.98410141596105,44.996593666030094,2.0,Object_Sea_Pattern_Small,-2.0,,,,,,,,,,,
encoding,attention,7,3880885,3883904,3880926.0,3881208.0,283.0,283.0,1566.5,1260.1,1591.0,891.0,Object_Sea_Pattern_Small,44.99671158299316,48.01580987498164,2.0,Object_Sea_Pattern_Small,-2.0,-2.0,1.0,1.1827327500795946,,,,,,,,
encoding,attention,7,3880885,3883904,3881230.0,3882373.0,1144.0,1144.0,1593.2,1172.6,1591.0,891.0,Object_Sea_Pattern_Small,44.99671158299316,48.01580987498164,2.0,Object_Sea_Pattern_Small,-2.0,-2.0,1.0,1.1827327500795946,,,,,,,,
encoding,attention,7,3880885,3883904,3882390.0,3882644.0,255.0,255.0,1553.8,1235.3,1591.0,891.0,Object_Sea_Pattern_Small,44.99671158299316,48.01580987498164,2.0,Object_Sea_Pattern_Small,-2.0,-2.0,1.0,1.1827327500795946,,,,,,,,
encoding,attention,7,3880885,3883904,3882998.0,3883317.0,320.0,320.0,1854.5,1276.4,1920.0,700.0,Object_Sea_Solid_Small,44.99671158299316,48.01580987498164,2.0,Object_Sea_Pattern_Small,-2.0,-2.0,1.0,1.1827327500795946,,,,,,,,
encoding,attention,7,3880885,3883904,3883341.0,3883519.0,179.0,179.0,1643.9,1246.1,1591.0,891.0,Object_Sea_Pattern_Small,44.99671158299316,48.01580987498164,2.0,Object_Sea_Pattern_Small,-2.0,-2.0,1.0,1.1827327500795946,,,,,,,,
encoding,attention,7,3880885,3883904,3883548.0,3883882.0,335.0,335.0,2022.6,1397.5,1920.0,700.0,Object_Sea_Solid_Small,44.99671158299316,48.01580987498164,2.0,Object_Sea_Pattern_Small,-2.0,-2.0,1.0,1.1827327500795946,,,,,,,,
encoding,fixation,8,3883904,3884910,3883919.0,3884141.0,223.0,223.0,1841.9,1327.4,1920.0,700.0,Object_Sea_Solid_Small,48.015986416023225,49.021205125027336,2.0,Object_Sea_Solid_Small,-1.0,,,,,,,,,,,
encoding,fixation,8,3883904,3884910,3884162.0,3884568.0,407.0,407.0,1935.7,1344.1,1920.0,700.0,Object_Sea_Solid_Small,48.015986416023225,49.021205125027336,2.0,Object_Sea_Solid_Small,-1.0,,,,,,,,,,,
encoding,fixation,8,3883904,3884910,3884587.0,3885005.0,419.0,323.0,1889.2,1388.8,1920.0,700.0,Object_Sea_Solid_Small,48.015986416023225,49.021205125027336,2.0,Object_Sea_Solid_Small,-1.0,,,,,,,,,,,
encoding,image,8,3884910,3885921,3885022.0,3885122.0,101.0,101.0,1846.5,1419.7,1920.0,700.0,Object_Sea_Solid_Small,49.02132249996066,50.0325806660112,2.0,Object_Sea_Solid_Small,-1.0,,,,,,,,,,,
encoding,image,8,3884910,3885921,3885139.0,3885693.0,555.0,555.0,1885.7,1471.7,1920.0,700.0,Object_Sea_Solid_Small,49.02132249996066,50.0325806660112,2.0,Object_Sea_Solid_Small,-1.0,,,,,,,,,,,
encoding,image,8,3884910,3885921,3885704.0,3886127.0,424.0,217.0,1900.6,1444.5,1920.0,700.0,Object_Sea_Solid_Small,49.02132249996066,50.0325806660112,2.0,Object_Sea_Solid_Small,-1.0,,,,,,,,,,,
encoding,value,8,3885921,3891933,3886141.0,3887618.0,1478.0,1478.0,1886.3,1381.7,1920.0,700.0,Object_Sea_Solid_Small,50.032693375018425,56.04456449998543,2.0,Object_Sea_Solid_Small,-1.0,,,,,,,,,,,
encoding,value,8,3885921,3891933,3887632.0,3887847.0,216.0,216.0,1888.6,1326.2,1920.0,700.0,Object_Sea_Solid_Small,50.032693375018425,56.04456449998543,2.0,Object_Sea_Solid_Small,-1.0,,,,,,,,,,,
encoding,value,8,3885921,3891933,3887855.0,3888070.0,216.0,216.0,1870.7,1333.9,1920.0,700.0,Object_Sea_Solid_Small,50.032693375018425,56.04456449998543,2.0,Object_Sea_Solid_Small,-1.0,,,,,,,,,,,
encoding,value,8,3885921,3891933,3888092.0,3888366.0,275.0,275.0,1870.8,1408.9,1920.0,700.0,Object_Sea_Solid_Small,50.032693375018425,56.04456449998543,2.0,Object_Sea_Solid_Small,-1.0,,,,,,,,,,,
encoding,value,8,3885921,3891933,3888379.0,3888784.0,406.0,406.0,1861.0,1476.3,1920.0,700.0,Object_Sea_Solid_Small,50.032693375018425,56.04456449998543,2.0,Object_Sea_Solid_Small,-1.0,,,,,,,,,,,
encoding,value,8,3885921,3891933,3888806.0,3889066.0,261.0,261.0,1872.5,1389.7,1920.0,700.0,Object_Sea_Solid_Small,50.032693375018425,56.04456449998543,2.0,Object_Sea_Solid_Small,-1.0,,,,,,,,,,,
encoding,value,8,3885921,3891933,3889080.0,3889274.0,195.0,195.0,1856.9,1441.3,1920.0,700.0,Object_Sea_Solid_Small,50.032693375018425,56.04456449998543,2.0,Object_Sea_Solid_Small,-1.0,,,,,,,,,,,
encoding,value,8,3885921,3891933,3889443.0,3889659.0,217.0,217.0,1869.2,1409.4,1920.0,700.0,Object_Sea_Solid_Small,50.032693375018425,56.04456449998543,2.0,Object_Sea_Solid_Small,-1.0,,,,,,,,,,,
encoding,value,8,3885921,3891933,3889668.0,3890155.0,488.0,488.0,1867.7,1435.7,1920.0,700.0,Object_Sea_Solid_Small,50.032693375018425,56.04456449998543,2.0,Object_Sea_Solid_Small,-1.0,,,,,,,,,,,
encoding,value,8,3885921,3891933,3890172.0,3890806.0,635.0,635.0,1867.2,1355.8,1920.0,700.0,Object_Sea_Solid_Small,50.032693375018425,56.04456449998543,2.0,Object_Sea_Solid_Small,-1.0,,,,,,,,,,,
encoding,value,8,3885921,3891933,3890852.0,3891152.0,301.0,301.0,1874.0,1113.6,1920.0,1080.0,fixation,50.032693375018425,56.04456449998543,2.0,Object_Sea_Solid_Small,-1.0,,,,,,,,,,,
encoding,value,8,3885921,3891933,3891178.0,3891309.0,132.0,132.0,1862.6,1321.6,1920.0,700.0,Object_Sea_Solid_Small,50.032693375018425,56.04456449998543,2.0,Object_Sea_Solid_Small,-1.0,,,,,,,,,,,
encoding,value,8,3885921,3891933,3891326.0,3891525.0,200.0,200.0,1871.4,1373.3,1920.0,700.0,Object_Sea_Solid_Small,50.032693375018425,56.04456449998543,2.0,Object_Sea_Solid_Small,-1.0,,,,,,,,,,,
encoding,value,8,3885921,3891933,3891542.0,3891990.0,449.0,391.0,1866.5,1466.7,1920.0,700.0,Object_Sea_Solid_Small,50.032693375018425,56.04456449998543,2.0,Object_Sea_Solid_Small,-1.0,,,,,,,,,,,
encoding,attention,8,3891933,3894952,3892008.0,3892210.0,203.0,203.0,1919.9,1546.5,1920.0,700.0,Object_Sea_Solid_Small,56.04469066602178,59.06317120802123,2.0,Object_Sea_Solid_Small,-1.0,-1.0,1.0,2.5452437080675736,,,,,,,,
encoding,attention,8,3891933,3894952,3892238.0,3892489.0,252.0,252.0,1869.1,1388.6,1920.0,700.0,Object_Sea_Solid_Small,56.04469066602178,59.06317120802123,2.0,Object_Sea_Solid_Small,-1.0,-1.0,1.0,2.5452437080675736,,,,,,,,
encoding,attention,8,3891933,3894952,3892498.0,3892689.0,192.0,192.0,1911.3,1390.0,1920.0,700.0,Object_Sea_Solid_Small,56.04469066602178,59.06317120802123,2.0,Object_Sea_Solid_Small,-1.0,-1.0,1.0,2.5452437080675736,,,,,,,,
encoding,attention,8,3891933,3894952,3892707.0,3893089.0,383.0,383.0,1882.2,1463.7,1920.0,700.0,Object_Sea_Solid_Small,56.04469066602178,59.06317120802123,2.0,Object_Sea_Solid_Small,-1.0,-1.0,1.0,2.5452437080675736,,,,,,,,
encoding,attention,8,3891933,3894952,3893109.0,3893501.0,393.0,393.0,1839.9,1406.1,1920.0,700.0,Object_Sea_Solid_Small,56.04469066602178,59.06317120802123,2.0,Object_Sea_Solid_Small,-1.0,-1.0,1.0,2.5452437080675736,,,,,,,,
encoding,attention,8,3891933,3894952,3893520.0,3894167.0,648.0,648.0,1880.3,1503.4,1920.0,700.0,Object_Sea_Solid_Small,56.04469066602178,59.06317120802123,2.0,Object_Sea_Solid_Small,-1.0,-1.0,1.0,2.5452437080675736,,,,,,,,
encoding,attention,8,3891933,3894952,3894190.0,3894751.0,562.0,562.0,1924.2,1414.9,1920.0,700.0,Object_Sea_Solid_Small,56.04469066602178,59.06317120802123,2.0,Object_Sea_Solid_Small,-1.0,-1.0,1.0,2.5452437080675736,,,,,,,,
encoding,attention,8,3891933,3894952,3894766.0,3894945.0,180.0,180.0,1875.2,1416.8,1920.0,700.0,Object_Sea_Solid_Small,56.04469066602178,59.06317120802123,2.0,Object_Sea_Solid_Small,-1.0,-1.0,1.0,2.5452437080675736,,,,,,,,
encoding,fixation,9,3894952,3895456,3894956.0,3895206.0,251.0,251.0,1822.7,1402.5,1920.0,700.0,Object_Sea_Solid_Small,59.06334087497089,59.56734625005629,2.0,Object_Land_Solid_Large,6.0,,,,,,,,,,,
encoding,image,9,3895456,3896466,3895599.0,3895775.0,177.0,177.0,1891.4,1182.1,1920.0,700.0,Object_Sea_Solid_Small,59.567450750037096,60.577506166067906,2.0,Object_Land_Solid_Large,6.0,,,,,,,,,,,
encoding,image,9,3895456,3896466,3895805.0,3895955.0,151.0,151.0,2159.9,994.3,2249.0,1269.0,Object_Land_Solid_Large,59.567450750037096,60.577506166067906,2.0,Object_Land_Solid_Large,6.0,,,,,,,,,,,
encoding,image,9,3895456,3896466,3895971.0,3896313.0,343.0,343.0,2199.4,907.2,2249.0,1269.0,Object_Land_Solid_Large,59.567450750037096,60.577506166067906,2.0,Object_Land_Solid_Large,6.0,,,,,,,,,,,
encoding,image,9,3895456,3896466,3896335.0,3896622.0,288.0,131.0,2144.9,879.5,2249.0,1269.0,Object_Land_Solid_Large,59.567450750037096,60.577506166067906,2.0,Object_Land_Solid_Large,6.0,,,,,,,,,,,
encoding,value,9,3896466,3902477,3896635.0,3897245.0,611.0,611.0,2185.3,871.3,2249.0,1269.0,Object_Land_Solid_Large,60.57762554101646,66.58805829100311,2.0,Object_Land_Solid_Large,6.0,,,,,,,,,,,
encoding,value,9,3896466,3902477,3897264.0,3897637.0,374.0,374.0,2216.2,830.8,2249.0,1269.0,Object_Land_Solid_Large,60.57762554101646,66.58805829100311,2.0,Object_Land_Solid_Large,6.0,,,,,,,,,,,
encoding,value,9,3896466,3902477,3897651.0,3898154.0,504.0,504.0,2192.7,877.2,2249.0,1269.0,Object_Land_Solid_Large,60.57762554101646,66.58805829100311,2.0,Object_Land_Solid_Large,6.0,,,,,,,,,,,
encoding,value,9,3896466,3902477,3898170.0,3898492.0,323.0,323.0,2221.6,842.2,2249.0,1269.0,Object_Land_Solid_Large,60.57762554101646,66.58805829100311,2.0,Object_Land_Solid_Large,6.0,,,,,,,,,,,
encoding,value,9,3896466,3902477,3898512.0,3898747.0,236.0,236.0,2184.0,868.0999999999999,2249.0,1269.0,Object_Land_Solid_Large,60.57762554101646,66.58805829100311,2.0,Object_Land_Solid_Large,6.0,,,,,,,,,,,
encoding,value,9,3896466,3902477,3898897.0,3899125.0,229.0,229.0,2215.1,867.0,2249.0,1269.0,Object_Land_Solid_Large,60.57762554101646,66.58805829100311,2.0,Object_Land_Solid_Large,6.0,,,,,,,,,,,
encoding,value,9,3896466,3902477,3899144.0,3899761.0,618.0,618.0,2172.5,886.4000000000001,2249.0,1269.0,Object_Land_Solid_Large,60.57762554101646,66.58805829100311,2.0,Object_Land_Solid_Large,6.0,,,,,,,,,,,
encoding,value,9,3896466,3902477,3899778.0,3900074.0,297.0,297.0,2223.9,848.5999999999999,2249.0,1269.0,Object_Land_Solid_Large,60.57762554101646,66.58805829100311,2.0,Object_Land_Solid_Large,6.0,,,,,,,,,,,
encoding,value,9,3896466,3902477,3900092.0,3900417.0,326.0,326.0,2177.0,901.5999999999999,2249.0,1269.0,Object_Land_Solid_Large,60.57762554101646,66.58805829100311,2.0,Object_Land_Solid_Large,6.0,,,,,,,,,,,
encoding,value,9,3896466,3902477,3900428.0,3900698.0,271.0,271.0,2199.3,862.3,2249.0,1269.0,Object_Land_Solid_Large,60.57762554101646,66.58805829100311,2.0,Object_Land_Solid_Large,6.0,,,,,,,,,,,
encoding,value,9,3896466,3902477,3900711.0,3901313.0,603.0,603.0,2172.4,925.2,2249.0,1269.0,Object_Land_Solid_Large,60.57762554101646,66.58805829100311,2.0,Object_Land_Solid_Large,6.0,,,,,,,,,,,
encoding,value,9,3896466,3902477,3901325.0,3901990.0,666.0,666.0,2217.2,899.3,2249.0,1269.0,Object_Land_Solid_Large,60.57762554101646,66.58805829100311,2.0,Object_Land_Solid_Large,6.0,,,,,,,,,,,
encoding,value,9,3896466,3902477,3902009.0,3902185.0,177.0,177.0,2195.1,891.8,2249.0,1269.0,Object_Land_Solid_Large,60.57762554101646,66.58805829100311,2.0,Object_Land_Solid_Large,6.0,,,,,,,,,,,
encoding,value,9,3896466,3902477,3902195.0,3902951.0,757.0,282.0,2187.6,923.5999999999999,2249.0,1269.0,Object_Land_Solid_Large,60.57762554101646,66.58805829100311,2.0,Object_Land_Solid_Large,6.0,,,,,,,,,,,
encoding,attention,9,3902477,3905489,3903235.0,3903430.0,196.0,196.0,2215.2,924.5,2249.0,1269.0,Object_Land_Solid_Large,66.58817508304492,69.59924695803784,2.0,Object_Land_Solid_Large,6.0,,,,,,,,,,,
encoding,attention,9,3902477,3905489,3903455.0,3903684.0,230.0,230.0,1963.6,1006.4000000000001,2249.0,1269.0,Object_Land_Solid_Large,66.58817508304492,69.59924695803784,2.0,Object_Land_Solid_Large,6.0,,,,,,,,,,,
encoding,attention,9,3902477,3905489,3903710.0,3903996.0,287.0,287.0,2206.7,884.3,2249.0,1269.0,Object_Land_Solid_Large,66.58817508304492,69.59924695803784,2.0,Object_Land_Solid_Large,6.0,,,,,,,,,,,
encoding,attention,9,3902477,3905489,3904017.0,3904354.0,338.0,338.0,2168.2,832.0,2249.0,1269.0,Object_Land_Solid_Large,66.58817508304492,69.59924695803784,2.0,Object_Land_Solid_Large,6.0,,,,,,,,,,,
encoding,attention,9,3902477,3905489,3904372.0,3904660.0,289.0,289.0,2187.8,929.9000000000001,2249.0,1269.0,Object_Land_Solid_Large,66.58817508304492,69.59924695803784,2.0,Object_Land_Solid_Large,6.0,,,,,,,,,,,
encoding,attention,9,3902477,3905489,3904679.0,3905223.0,545.0,545.0,2147.5,933.4000000000001,2249.0,1269.0,Object_Land_Solid_Large,66.58817508304492,69.59924695803784,2.0,Object_Land_Solid_Large,6.0,,,,,,,,,,,
encoding,fixation,10,3905489,3906244,3905540.0,3906092.0,553.0,553.0,2169.7,886.4000000000001,2249.0,1269.0,Object_Land_Solid_Large,69.59955104102846,70.35478100006003,2.0,Animal_Land_Solid_Large,-9.0,,,,,,,,,,,
encoding,fixation,10,3905489,3906244,3906120.0,3906553.0,434.0,124.0,1906.7,1051.5,1920.0,1080.0,fixation,69.59955104102846,70.35478100006003,2.0,Animal_Land_Solid_Large,-9.0,,,,,,,,,,,
encoding,image,10,3906244,3907255,3906749.0,3906841.0,93.0,93.0,1894.1,781.5999999999999,1920.0,1460.0,Animal_Land_Solid_Large,70.35490091599058,71.36563424998894,2.0,Animal_Land_Solid_Large,-9.0,,,,,,,,,,,
encoding,image,10,3906244,3907255,3906855.0,3908107.0,1253.0,400.0,1902.8,730.7,1920.0,1460.0,Animal_Land_Solid_Large,70.35490091599058,71.36563424998894,2.0,Animal_Land_Solid_Large,-9.0,,,,,,,,,,,
encoding,value,10,3907255,3913268,3908125.0,3908302.0,178.0,178.0,1880.4,678.3,1920.0,1460.0,Animal_Land_Solid_Large,71.36576366599184,77.37845433305483,2.0,Animal_Land_Solid_Large,-9.0,,,,,,,,,,,
encoding,value,10,3907255,3913268,3908315.0,3908711.0,397.0,397.0,1908.3,731.8,1920.0,1460.0,Animal_Land_Solid_Large,71.36576366599184,77.37845433305483,2.0,Animal_Land_Solid_Large,-9.0,,,,,,,,,,,
encoding,value,10,3907255,3913268,3908728.0,3908897.0,170.0,170.0,1878.5,650.8,1920.0,1460.0,Animal_Land_Solid_Large,71.36576366599184,77.37845433305483,2.0,Animal_Land_Solid_Large,-9.0,,,,,,,,,,,
encoding,value,10,3907255,3913268,3908912.0,3909426.0,515.0,515.0,1907.0,717.3,1920.0,1460.0,Animal_Land_Solid_Large,71.36576366599184,77.37845433305483,2.0,Animal_Land_Solid_Large,-9.0,,,,,,,,,,,
encoding,value,10,3907255,3913268,3909447.0,3909811.0,365.0,365.0,1878.9,630.7,1920.0,1460.0,Animal_Land_Solid_Large,71.36576366599184,77.37845433305483,2.0,Animal_Land_Solid_Large,-9.0,,,,,,,,,,,
encoding,value,10,3907255,3913268,3909824.0,3910180.0,357.0,357.0,1888.7,695.7,1920.0,1460.0,Animal_Land_Solid_Large,71.36576366599184,77.37845433305483,2.0,Animal_Land_Solid_Large,-9.0,,,,,,,,,,,
encoding,value,10,3907255,3913268,3910191.0,3911089.0,899.0,899.0,1900.9,738.2,1920.0,1460.0,Animal_Land_Solid_Large,71.36576366599184,77.37845433305483,2.0,Animal_Land_Solid_Large,-9.0,,,,,,,,,,,
encoding,value,10,3907255,3913268,3911277.0,3911838.0,562.0,562.0,1904.0,722.3,1920.0,1460.0,Animal_Land_Solid_Large,71.36576366599184,77.37845433305483,2.0,Animal_Land_Solid_Large,-9.0,,,,,,,,,,,
encoding,value,10,3907255,3913268,3911860.0,3912276.0,417.0,417.0,1879.5,599.0,1920.0,1460.0,Animal_Land_Solid_Large,71.36576366599184,77.37845433305483,2.0,Animal_Land_Solid_Large,-9.0,,,,,,,,,,,
encoding,value,10,3907255,3913268,3912296.0,3912665.0,370.0,370.0,1899.7,722.5999999999999,1920.0,1460.0,Animal_Land_Solid_Large,71.36576366599184,77.37845433305483,2.0,Animal_Land_Solid_Large,-9.0,,,,,,,,,,,
encoding,value,10,3907255,3913268,3912688.0,3912929.0,242.0,242.0,1873.1,624.5999999999999,1920.0,1460.0,Animal_Land_Solid_Large,71.36576366599184,77.37845433305483,2.0,Animal_Land_Solid_Large,-9.0,,,,,,,,,,,
encoding,value,10,3907255,3913268,3912939.0,3913812.0,874.0,329.0,1885.2,600.9000000000001,1920.0,1460.0,Animal_Land_Solid_Large,71.36576366599184,77.37845433305483,2.0,Animal_Land_Solid_Large,-9.0,,,,,,,,,,,
encoding,attention,10,3913268,3916285,3913827.0,3914324.0,498.0,498.0,1868.4,596.8,1920.0,1460.0,Animal_Land_Solid_Large,77.37857337505557,80.39535529096611,2.0,Animal_Land_Solid_Large,-9.0,-9.0,1.0,0.7073100410634652,,,,,,,,
encoding,attention,10,3913268,3916285,3915043.0,3915210.0,168.0,168.0,1939.0,942.0,1920.0,1460.0,Animal_Land_Solid_Large,77.37857337505557,80.39535529096611,2.0,Animal_Land_Solid_Large,-9.0,-9.0,1.0,0.7073100410634652,,,,,,,,
encoding,attention,10,3913268,3916285,3915253.0,3915438.0,186.0,186.0,1874.7,714.5,1920.0,1460.0,Animal_Land_Solid_Large,77.37857337505557,80.39535529096611,2.0,Animal_Land_Solid_Large,-9.0,-9.0,1.0,0.7073100410634652,,,,,,,,
encoding,attention,10,3913268,3916285,3915476.0,3915731.0,256.0,256.0,1856.5,1208.3,1920.0,700.0,Object_Sea_Solid_Small,77.37857337505557,80.39535529096611,2.0,Animal_Land_Solid_Large,-9.0,-9.0,1.0,0.7073100410634652,,,,,,,,
encoding,attention,10,3913268,3916285,3915757.0,3916025.0,269.0,269.0,1881.1,1073.0,1920.0,1080.0,fixation,77.37857337505557,80.39535529096611,2.0,Animal_Land_Solid_Large,-9.0,-9.0,1.0,0.7073100410634652,,,,,,,,
encoding,fixation,11,3916285,3917791,3916521.0,3916664.0,144.0,144.0,1922.8,1160.9,1920.0,700.0,Object_Sea_Solid_Small,80.39551525004208,81.90082016598899,2.0,Animal_Land_Pattern_Small,6.0,,,,,,,,,,,
encoding,fixation,11,3916285,3917791,3916681.0,3917101.0,421.0,421.0,1892.1,1101.8,1920.0,1080.0,fixation,80.39551525004208,81.90082016598899,2.0,Animal_Land_Pattern_Small,6.0,,,,,,,,,,,
encoding,fixation,11,3916285,3917791,3917144.0,3917369.0,226.0,226.0,2206.0,1240.3,2249.0,891.0,Animal_Sea_Pattern_Large,80.39551525004208,81.90082016598899,2.0,Animal_Land_Pattern_Small,6.0,,,,,,,,,,,
encoding,fixation,11,3916285,3917791,3917411.0,3917605.0,195.0,195.0,1910.2,1146.1,1920.0,1080.0,fixation,80.39551525004208,81.90082016598899,2.0,Animal_Land_Pattern_Small,6.0,,,,,,,,,,,
encoding,fixation,11,3916285,3917791,3917625.0,3917812.0,188.0,166.0,1890.5,1103.4,1920.0,1080.0,fixation,80.39551525004208,81.90082016598899,2.0,Animal_Land_Pattern_Small,6.0,,,,,,,,,,,
encoding,image,11,3917791,3918801,3917836.0,3918008.0,173.0,173.0,2017.4,1314.7,1920.0,700.0,Object_Sea_Solid_Small,81.90094416600186,82.91149708302692,2.0,Animal_Land_Pattern_Small,6.0,,,,,,,,,,,
encoding,image,11,3917791,3918801,3918045.0,3918174.0,130.0,130.0,1615.1,978.9000000000001,1591.0,1269.0,Animal_Land_Pattern_Small,81.90094416600186,82.91149708302692,2.0,Animal_Land_Pattern_Small,6.0,,,,,,,,,,,
encoding,image,11,3917791,3918801,3918195.0,3918982.0,788.0,606.0,1585.7,895.3,1591.0,1269.0,Animal_Land_Pattern_Small,81.90094416600186,82.91149708302692,2.0,Animal_Land_Pattern_Small,6.0,,,,,,,,,,,
encoding,value,11,3918801,3924814,3919001.0,3919382.0,382.0,382.0,1577.9,816.3,1591.0,1269.0,Animal_Land_Pattern_Small,82.91163070802577,88.92388166603632,2.0,Animal_Land_Pattern_Small,6.0,,,,,,,,,,,
encoding,value,11,3918801,3924814,3919398.0,3919553.0,156.0,156.0,1583.9,898.0999999999999,1591.0,1269.0,Animal_Land_Pattern_Small,82.91163070802577,88.92388166603632,2.0,Animal_Land_Pattern_Small,6.0,,,,,,,,,,,
encoding,value,11,3918801,3924814,3919578.0,3919889.0,312.0,312.0,1877.1,1082.8,1920.0,1080.0,fixation,82.91163070802577,88.92388166603632,2.0,Animal_Land_Pattern_Small,6.0,,,,,,,,,,,
encoding,value,11,3918801,3924814,3920338.0,3921662.0,1325.0,1325.0,1602.9,894.4000000000001,1591.0,1269.0,Animal_Land_Pattern_Small,82.91163070802577,88.92388166603632,2.0,Animal_Land_Pattern_Small,6.0,,,,,,,,,,,
encoding,value,11,3918801,3924814,3921682.0,3922211.0,530.0,530.0,1565.5,800.8,1591.0,1269.0,Animal_Land_Pattern_Small,82.91163070802577,88.92388166603632,2.0,Animal_Land_Pattern_Small,6.0,,,,,,,,,,,
encoding,value,11,3918801,3924814,3922233.0,3922752.0,520.0,520.0,1583.7,879.5,1591.0,1269.0,Animal_Land_Pattern_Small,82.91163070802577,88.92388166603632,2.0,Animal_Land_Pattern_Small,6.0,,,,,,,,,,,
encoding,value,11,3918801,3924814,3922771.0,3923087.0,317.0,317.0,1563.4,821.5999999999999,1591.0,1269.0,Animal_Land_Pattern_Small,82.91163070802577,88.92388166603632,2.0,Animal_Land_Pattern_Small,6.0,,,,,,,,,,,
encoding,value,11,3918801,3924814,3923096.0,3923344.0,249.0,249.0,1570.8,795.2,1591.0,1269.0,Animal_Land_Pattern_Small,82.91163070802577,88.92388166603632,2.0,Animal_Land_Pattern_Small,6.0,,,,,,,,,,,
encoding,value,11,3918801,3924814,3923359.0,3923651.0,293.0,293.0,1551.7,865.3,1591.0,1269.0,Animal_Land_Pattern_Small,82.91163070802577,88.92388166603632,2.0,Animal_Land_Pattern_Small,6.0,,,,,,,,,,,
encoding,value,11,3918801,3924814,3923666.0,3923931.0,266.0,266.0,1556.2,808.3,1591.0,1269.0,Animal_Land_Pattern_Small,82.91163070802577,88.92388166603632,2.0,Animal_Land_Pattern_Small,6.0,,,,,,,,,,,
encoding,value,11,3918801,3924814,3923948.0,3924301.0,354.0,354.0,1564.8,880.5999999999999,1591.0,1269.0,Animal_Land_Pattern_Small,82.91163070802577,88.92388166603632,2.0,Animal_Land_Pattern_Small,6.0,,,,,,,,,,,
encoding,value,11,3918801,3924814,3924320.0,3924613.0,294.0,294.0,1559.8,805.5999999999999,1591.0,1269.0,Animal_Land_Pattern_Small,82.91163070802577,88.92388166603632,2.0,Animal_Land_Pattern_Small,6.0,,,,,,,,,,,
encoding,value,11,3918801,3924814,3924628.0,3925178.0,551.0,186.0,1580.2,863.2,1591.0,1269.0,Animal_Land_Pattern_Small,82.91163070802577,88.92388166603632,2.0,Animal_Land_Pattern_Small,6.0,,,,,,,,,,,
encoding,attention,11,3924814,3927832,3925187.0,3925228.0,42.0,42.0,1559.1,840.7,1591.0,1269.0,Animal_Land_Pattern_Small,88.9239984160522,91.94162216596304,2.0,Animal_Land_Pattern_Small,6.0,6.0,1.0,1.7129750419408083,,,,,,,,
encoding,attention,11,3924814,3927832,3925425.0,3926109.0,685.0,685.0,1536.7,805.4000000000001,1591.0,1269.0,Animal_Land_Pattern_Small,88.9239984160522,91.94162216596304,2.0,Animal_Land_Pattern_Small,6.0,6.0,1.0,1.7129750419408083,,,,,,,,
encoding,attention,11,3924814,3927832,3926132.0,3926860.0,729.0,729.0,1584.2,904.5,1591.0,1269.0,Animal_Land_Pattern_Small,88.9239984160522,91.94162216596304,2.0,Animal_Land_Pattern_Small,6.0,6.0,1.0,1.7129750419408083,,,,,,,,
encoding,attention,11,3924814,3927832,3926879.0,3927033.0,155.0,155.0,1605.0,843.0,1591.0,1269.0,Animal_Land_Pattern_Small,88.9239984160522,91.94162216596304,2.0,Animal_Land_Pattern_Small,6.0,6.0,1.0,1.7129750419408083,,,,,,,,
encoding,attention,11,3924814,3927832,3927051.0,3927201.0,151.0,151.0,1591.0,899.8,1591.0,1269.0,Animal_Land_Pattern_Small,88.9239984160522,91.94162216596304,2.0,Animal_Land_Pattern_Small,6.0,6.0,1.0,1.7129750419408083,,,,,,,,
encoding,attention,11,3924814,3927832,3927420.0,3927566.0,147.0,147.0,1734.5,1032.3,1591.0,1269.0,Animal_Land_Pattern_Small,88.9239984160522,91.94162216596304,2.0,Animal_Land_Pattern_Small,6.0,6.0,1.0,1.7129750419408083,,,,,,,,
encoding,fixation,12,3927832,3928337,3928104.0,3928498.0,395.0,233.0,1905.5,1087.8,1920.0,1080.0,fixation,91.9417774999747,92.44681324996054,2.0,Animal_Sea_Pattern_Large,9.0,,,,,,,,,,,
encoding,image,12,3928337,3929348,3928533.0,3928715.0,183.0,183.0,2240.2,1253.6,2249.0,891.0,Animal_Sea_Pattern_Large,92.4469236660516,93.45740720804316,2.0,Animal_Sea_Pattern_Large,9.0,,,,,,,,,,,
encoding,image,12,3928337,3929348,3928735.0,3928949.0,215.0,215.0,2204.1,1272.3,2249.0,891.0,Animal_Sea_Pattern_Large,92.4469236660516,93.45740720804316,2.0,Animal_Sea_Pattern_Large,9.0,,,,,,,,,,,
encoding,image,12,3928337,3929348,3928956.0,3929261.0,306.0,306.0,2173.5,1287.6,2249.0,891.0,Animal_Sea_Pattern_Large,92.4469236660516,93.45740720804316,2.0,Animal_Sea_Pattern_Large,9.0,,,,,,,,,,,
encoding,value,12,3929348,3935359,3929671.0,3929823.0,153.0,153.0,2133.3,1236.6,2249.0,891.0,Animal_Sea_Pattern_Large,93.45751491596457,99.46789666602854,2.0,Animal_Sea_Pattern_Large,9.0,,,,,,,,,,,
encoding,value,12,3929348,3935359,3929842.0,3930259.0,418.0,418.0,2223.6,1183.6,2249.0,891.0,Animal_Sea_Pattern_Large,93.45751491596457,99.46789666602854,2.0,Animal_Sea_Pattern_Large,9.0,,,,,,,,,,,
encoding,value,12,3929348,3935359,3930281.0,3931117.0,837.0,837.0,2204.7,1277.7,2249.0,891.0,Animal_Sea_Pattern_Large,93.45751491596457,99.46789666602854,2.0,Animal_Sea_Pattern_Large,9.0,,,,,,,,,,,
encoding,value,12,3929348,3935359,3931131.0,3931495.0,365.0,365.0,2227.7,1221.5,2249.0,891.0,Animal_Sea_Pattern_Large,93.45751491596457,99.46789666602854,2.0,Animal_Sea_Pattern_Large,9.0,,,,,,,,,,,
encoding,value,12,3929348,3935359,3931509.0,3931814.0,306.0,306.0,2190.8,1248.7,2249.0,891.0,Animal_Sea_Pattern_Large,93.45751491596457,99.46789666602854,2.0,Animal_Sea_Pattern_Large,9.0,,,,,,,,,,,
encoding,value,12,3929348,3935359,3931822.0,3931973.0,152.0,152.0,2213.2,1233.9,2249.0,891.0,Animal_Sea_Pattern_Large,93.45751491596457,99.46789666602854,2.0,Animal_Sea_Pattern_Large,9.0,,,,,,,,,,,
encoding,value,12,3929348,3935359,3931985.0,3932231.0,247.0,247.0,2187.4,1260.2,2249.0,891.0,Animal_Sea_Pattern_Large,93.45751491596457,99.46789666602854,2.0,Animal_Sea_Pattern_Large,9.0,,,,,,,,,,,
encoding,value,12,3929348,3935359,3932248.0,3933109.0,862.0,862.0,2224.1,1175.9,2249.0,891.0,Animal_Sea_Pattern_Large,93.45751491596457,99.46789666602854,2.0,Animal_Sea_Pattern_Large,9.0,,,,,,,,,,,
encoding,value,12,3929348,3935359,3933243.0,3934072.0,830.0,830.0,2241.5,1166.7,2249.0,891.0,Animal_Sea_Pattern_Large,93.45751491596457,99.46789666602854,2.0,Animal_Sea_Pattern_Large,9.0,,,,,,,,,,,
encoding,value,12,3929348,3935359,3934088.0,3934854.0,767.0,767.0,2195.1,1261.4,2249.0,891.0,Animal_Sea_Pattern_Large,93.45751491596457,99.46789666602854,2.0,Animal_Sea_Pattern_Large,9.0,,,,,,,,,,,
encoding,value,12,3929348,3935359,3934875.0,3935144.0,270.0,270.0,2227.0,1204.3,2249.0,891.0,Animal_Sea_Pattern_Large,93.45751491596457,99.46789666602854,2.0,Animal_Sea_Pattern_Large,9.0,,,,,,,,,,,
encoding,value,12,3929348,3935359,3935151.0,3935378.0,228.0,208.0,2241.4,1185.1,2249.0,891.0,Animal_Sea_Pattern_Large,93.45751491596457,99.46789666602854,2.0,Animal_Sea_Pattern_Large,9.0,,,,,,,,,,,
encoding,attention,12,3935359,3938375,3935528.0,3935731.0,204.0,204.0,2221.4,1232.0,2249.0,891.0,Animal_Sea_Pattern_Large,99.46801199996844,102.48445537500083,2.0,Animal_Sea_Pattern_Large,9.0,9.0,1.0,1.2814986249431968,,,,,,,,
encoding,attention,12,3935359,3938375,3935742.0,3935967.0,226.0,226.0,2256.8,1195.7,2249.0,891.0,Animal_Sea_Pattern_Large,99.46801199996844,102.48445537500083,2.0,Animal_Sea_Pattern_Large,9.0,9.0,1.0,1.2814986249431968,,,,,,,,
encoding,attention,12,3935359,3938375,3935974.0,3936146.0,173.0,173.0,2234.5,1163.6,2249.0,891.0,Animal_Sea_Pattern_Large,99.46801199996844,102.48445537500083,2.0,Animal_Sea_Pattern_Large,9.0,9.0,1.0,1.2814986249431968,,,,,,,,
encoding,attention,12,3935359,3938375,3936157.0,3936308.0,152.0,152.0,2283.9,1154.2,2249.0,891.0,Animal_Sea_Pattern_Large,99.46801199996844,102.48445537500083,2.0,Animal_Sea_Pattern_Large,9.0,9.0,1.0,1.2814986249431968,,,,,,,,
encoding,attention,12,3935359,3938375,3936326.0,3937143.0,818.0,818.0,2197.9,1157.1,2249.0,891.0,Animal_Sea_Pattern_Large,99.46801199996844,102.48445537500083,2.0,Animal_Sea_Pattern_Large,9.0,9.0,1.0,1.2814986249431968,,,,,,,,
encoding,attention,12,3935359,3938375,3937523.0,3937791.0,269.0,269.0,1920.5,1213.0,1920.0,700.0,Object_Sea_Solid_Small,99.46801199996844,102.48445537500083,2.0,Animal_Sea_Pattern_Large,9.0,9.0,1.0,1.2814986249431968,,,,,,,,
encoding,attention,12,3935359,3938375,3937823.0,3938245.0,423.0,423.0,2207.9,1257.6,2249.0,891.0,Animal_Sea_Pattern_Large,99.46801199996844,102.48445537500083,2.0,Animal_Sea_Pattern_Large,9.0,9.0,1.0,1.2814986249431968,,,,,,,,
encoding,fixation,13,4288722,4289729,4288802.0,4288990.0,189.0,189.0,1798.1,1275.8,1591.0,891.0,Object_Land_Solid_Small,18.11762820801232,19.124175249948166,3.0,Animal_Sea_Solid_Large,1.0,,,,,,,,,,,
encoding,fixation,13,4288722,4289729,4289013.0,4289196.0,184.0,184.0,1881.3,1122.4,1920.0,1080.0,fixation,18.11762820801232,19.124175249948166,3.0,Animal_Sea_Solid_Large,1.0,,,,,,,,,,,
encoding,fixation,13,4288722,4289729,4289210.0,4289702.0,493.0,493.0,1888.6,1069.6,1920.0,1080.0,fixation,18.11762820801232,19.124175249948166,3.0,Animal_Sea_Solid_Large,1.0,,,,,,,,,,,
encoding,image,13,4289729,4290741,4289744.0,4289802.0,59.0,59.0,1811.5,1354.8,1920.0,700.0,Object_Sea_Solid_Small,19.124296583002433,20.13566179096233,3.0,Animal_Sea_Solid_Large,1.0,,,,,,,,,,,
encoding,image,13,4289729,4290741,4290033.0,4290191.0,159.0,159.0,1850.2,1065.5,1591.0,1269.0,Animal_Land_Pattern_Large,19.124296583002433,20.13566179096233,3.0,Animal_Sea_Solid_Large,1.0,,,,,,,,,,,
encoding,image,13,4289729,4290741,4290240.0,4291049.0,810.0,501.0,1881.6,685.0,1920.0,1460.0,Animal_Sea_Solid_Large,19.124296583002433,20.13566179096233,3.0,Animal_Sea_Solid_Large,1.0,,,,,,,,,,,
encoding,value,13,4290741,4296754,4291072.0,4291291.0,220.0,220.0,1880.4,584.4000000000001,1920.0,1460.0,Animal_Sea_Solid_Large,20.13577983295545,26.14875612501055,3.0,Animal_Sea_Solid_Large,1.0,,,,,,,,,,,
encoding,value,13,4290741,4296754,4291314.0,4292020.0,707.0,707.0,1872.8,725.4000000000001,1920.0,1460.0,Animal_Sea_Solid_Large,20.13577983295545,26.14875612501055,3.0,Animal_Sea_Solid_Large,1.0,,,,,,,,,,,
encoding,value,13,4290741,4296754,4292046.0,4292245.0,200.0,200.0,1881.4,609.0999999999999,1920.0,1460.0,Animal_Sea_Solid_Large,20.13577983295545,26.14875612501055,3.0,Animal_Sea_Solid_Large,1.0,,,,,,,,,,,
encoding,value,13,4290741,4296754,4292627.0,4292807.0,181.0,181.0,1883.6,761.3,1920.0,1460.0,Animal_Sea_Solid_Large,20.13577983295545,26.14875612501055,3.0,Animal_Sea_Solid_Large,1.0,,,,,,,,,,,
encoding,value,13,4290741,4296754,4292815.0,4293509.0,695.0,695.0,1884.9,723.5999999999999,1920.0,1460.0,Animal_Sea_Solid_Large,20.13577983295545,26.14875612501055,3.0,Animal_Sea_Solid_Large,1.0,,,,,,,,,,,
encoding,value,13,4290741,4296754,4293533.0,4293733.0,201.0,201.0,1870.6,596.2,1920.0,1460.0,Animal_Sea_Solid_Large,20.13577983295545,26.14875612501055,3.0,Animal_Sea_Solid_Large,1.0,,,,,,,,,,,
encoding,value,13,4290741,4296754,4293753.0,4294992.0,1240.0,1240.0,1871.7,721.2,1920.0,1460.0,Animal_Sea_Solid_Large,20.13577983295545,26.14875612501055,3.0,Animal_Sea_Solid_Large,1.0,,,,,,,,,,,
encoding,value,13,4290741,4296754,4295013.0,4295177.0,165.0,165.0,1868.8,636.7,1920.0,1460.0,Animal_Sea_Solid_Large,20.13577983295545,26.14875612501055,3.0,Animal_Sea_Solid_Large,1.0,,,,,,,,,,,
encoding,value,13,4290741,4296754,4295193.0,4295719.0,527.0,527.0,1895.7,715.9000000000001,1920.0,1460.0,Animal_Sea_Solid_Large,20.13577983295545,26.14875612501055,3.0,Animal_Sea_Solid_Large,1.0,,,,,,,,,,,
encoding,value,13,4290741,4296754,4295742.0,4295968.0,227.0,227.0,1889.5,588.2,1920.0,1460.0,Animal_Sea_Solid_Large,20.13577983295545,26.14875612501055,3.0,Animal_Sea_Solid_Large,1.0,,,,,,,,,,,
encoding,value,13,4290741,4296754,4295985.0,4296261.0,277.0,277.0,1876.5,668.0,1920.0,1460.0,Animal_Sea_Solid_Large,20.13577983295545,26.14875612501055,3.0,Animal_Sea_Solid_Large,1.0,,,,,,,,,,,
encoding,value,13,4290741,4296754,4296283.0,4296518.0,236.0,236.0,1875.9,602.0,1920.0,1460.0,Animal_Sea_Solid_Large,20.13577983295545,26.14875612501055,3.0,Animal_Sea_Solid_Large,1.0,,,,,,,,,,,
encoding,value,13,4290741,4296754,4296539.0,4296840.0,302.0,215.0,1869.9,722.7,1920.0,1460.0,Animal_Sea_Solid_Large,20.13577983295545,26.14875612501055,3.0,Animal_Sea_Solid_Large,1.0,,,,,,,,,,,
encoding,attention,13,4296754,4299776,4296864.0,4297291.0,428.0,428.0,1865.3,623.8,1920.0,1460.0,Animal_Sea_Solid_Large,26.148882708046585,29.1709925000323,3.0,Animal_Sea_Solid_Large,1.0,1.0,1.0,0.8931100839981809,,,,,,,,
encoding,attention,13,4296754,4299776,4297298.0,4297904.0,607.0,607.0,1895.7,607.0,1920.0,1460.0,Animal_Sea_Solid_Large,26.148882708046585,29.1709925000323,3.0,Animal_Sea_Solid_Large,1.0,1.0,1.0,0.8931100839981809,,,,,,,,
encoding,attention,13,4296754,4299776,4297926.0,4297985.0,60.0,60.0,1839.2,726.8,1920.0,1460.0,Animal_Sea_Solid_Large,26.148882708046585,29.1709925000323,3.0,Animal_Sea_Solid_Large,1.0,1.0,1.0,0.8931100839981809,,,,,,,,
encoding,attention,13,4296754,4299776,4298243.0,4298503.0,261.0,261.0,1889.1,872.2,1920.0,1460.0,Animal_Sea_Solid_Large,26.148882708046585,29.1709925000323,3.0,Animal_Sea_Solid_Large,1.0,1.0,1.0,0.8931100839981809,,,,,,,,
encoding,attention,13,4296754,4299776,4298529.0,4298856.0,328.0,328.0,1883.8,703.5999999999999,1920.0,1460.0,Animal_Sea_Solid_Large,26.148882708046585,29.1709925000323,3.0,Animal_Sea_Solid_Large,1.0,1.0,1.0,0.8931100839981809,,,,,,,,
encoding,attention,13,4296754,4299776,4298890.0,4299073.0,184.0,184.0,1837.5,1171.1,1591.0,891.0,Object_Land_Solid_Small,26.148882708046585,29.1709925000323,3.0,Animal_Sea_Solid_Large,1.0,1.0,1.0,0.8931100839981809,,,,,,,,
encoding,attention,13,4296754,4299776,4299093.0,4299321.0,229.0,229.0,1885.7,1098.0,1920.0,1080.0,fixation,26.148882708046585,29.1709925000323,3.0,Animal_Sea_Solid_Large,1.0,1.0,1.0,0.8931100839981809,,,,,,,,
encoding,fixation,14,4299776,4300782,4300234.0,4300692.0,459.0,459.0,1753.4,1394.5,1920.0,700.0,Object_Sea_Solid_Small,29.171158874989487,30.17658483295236,3.0,Object_Sea_Solid_Small,-9.0,,,,,,,,,,,
encoding,fixation,14,4299776,4300782,4300710.0,4300934.0,225.0,72.0,1697.6,1439.5,1591.0,891.0,Object_Land_Solid_Small,29.171158874989487,30.17658483295236,3.0,Object_Sea_Solid_Small,-9.0,,,,,,,,,,,
encoding,image,14,4300782,4301791,4300958.0,4301956.0,999.0,833.0,1887.4,1453.9,1920.0,700.0,Object_Sea_Solid_Small,30.176696665934287,31.185964082949795,3.0,Object_Sea_Solid_Small,-9.0,,,,,,,,,,,
encoding,value,14,4301791,4307803,4301975.0,4302178.0,204.0,204.0,1888.7,1371.9,1920.0,700.0,Object_Sea_Solid_Small,31.186096915975213,37.197315874975175,3.0,Object_Sea_Solid_Small,-9.0,,,,,,,,,,,
encoding,value,14,4301791,4307803,4302196.0,4302453.0,258.0,258.0,1883.3,1447.4,1920.0,700.0,Object_Sea_Solid_Small,31.186096915975213,37.197315874975175,3.0,Object_Sea_Solid_Small,-9.0,,,,,,,,,,,
encoding,value,14,4301791,4307803,4302475.0,4302722.0,248.0,248.0,1895.9,1363.7,1920.0,700.0,Object_Sea_Solid_Small,31.186096915975213,37.197315874975175,3.0,Object_Sea_Solid_Small,-9.0,,,,,,,,,,,
encoding,value,14,4301791,4307803,4302744.0,4303020.0,277.0,277.0,1881.5,1452.0,1920.0,700.0,Object_Sea_Solid_Small,31.186096915975213,37.197315874975175,3.0,Object_Sea_Solid_Small,-9.0,,,,,,,,,,,
encoding,value,14,4301791,4307803,4303042.0,4303453.0,412.0,412.0,1889.0,1360.9,1920.0,700.0,Object_Sea_Solid_Small,31.186096915975213,37.197315874975175,3.0,Object_Sea_Solid_Small,-9.0,,,,,,,,,,,
encoding,value,14,4301791,4307803,4303468.0,4303830.0,363.0,363.0,1894.2,1423.4,1920.0,700.0,Object_Sea_Solid_Small,31.186096915975213,37.197315874975175,3.0,Object_Sea_Solid_Small,-9.0,,,,,,,,,,,
encoding,value,14,4301791,4307803,4303849.0,4304212.0,364.0,364.0,1888.6,1353.6,1920.0,700.0,Object_Sea_Solid_Small,31.186096915975213,37.197315874975175,3.0,Object_Sea_Solid_Small,-9.0,,,,,,,,,,,
encoding,value,14,4301791,4307803,4304227.0,4304676.0,450.0,450.0,1887.0,1294.4,1920.0,700.0,Object_Sea_Solid_Small,31.186096915975213,37.197315874975175,3.0,Object_Sea_Solid_Small,-9.0,,,,,,,,,,,
encoding,value,14,4301791,4307803,4304688.0,4304842.0,155.0,155.0,1881.1,1331.4,1920.0,700.0,Object_Sea_Solid_Small,31.186096915975213,37.197315874975175,3.0,Object_Sea_Solid_Small,-9.0,,,,,,,,,,,
encoding,value,14,4301791,4307803,4304859.0,4305160.0,302.0,302.0,1884.0,1433.9,1920.0,700.0,Object_Sea_Solid_Small,31.186096915975213,37.197315874975175,3.0,Object_Sea_Solid_Small,-9.0,,,,,,,,,,,
encoding,value,14,4301791,4307803,4305181.0,4305453.0,273.0,273.0,1886.4,1357.2,1920.0,700.0,Object_Sea_Solid_Small,31.186096915975213,37.197315874975175,3.0,Object_Sea_Solid_Small,-9.0,,,,,,,,,,,
encoding,value,14,4301791,4307803,4305472.0,4305513.0,42.0,42.0,1866.9,1446.2,1920.0,700.0,Object_Sea_Solid_Small,31.186096915975213,37.197315874975175,3.0,Object_Sea_Solid_Small,-9.0,,,,,,,,,,,
encoding,value,14,4301791,4307803,4305625.0,4305846.0,222.0,222.0,1876.1,1463.7,1920.0,700.0,Object_Sea_Solid_Small,31.186096915975213,37.197315874975175,3.0,Object_Sea_Solid_Small,-9.0,,,,,,,,,,,
encoding,value,14,4301791,4307803,4305866.0,4306100.0,235.0,235.0,1884.1,1355.5,1920.0,700.0,Object_Sea_Solid_Small,31.186096915975213,37.197315874975175,3.0,Object_Sea_Solid_Small,-9.0,,,,,,,,,,,
encoding,value,14,4301791,4307803,4306117.0,4306355.0,239.0,239.0,1892.8,1413.1,1920.0,700.0,Object_Sea_Solid_Small,31.186096915975213,37.197315874975175,3.0,Object_Sea_Solid_Small,-9.0,,,,,,,,,,,
encoding,value,14,4301791,4307803,4306372.0,4306688.0,317.0,317.0,1889.6,1359.5,1920.0,700.0,Object_Sea_Solid_Small,31.186096915975213,37.197315874975175,3.0,Object_Sea_Solid_Small,-9.0,,,,,,,,,,,
encoding,value,14,4301791,4307803,4306704.0,4306831.0,128.0,128.0,1873.1,1416.3,1920.0,700.0,Object_Sea_Solid_Small,31.186096915975213,37.197315874975175,3.0,Object_Sea_Solid_Small,-9.0,,,,,,,,,,,
encoding,value,14,4301791,4307803,4306846.0,4307150.0,305.0,305.0,1884.5,1472.9,1920.0,700.0,Object_Sea_Solid_Small,31.186096915975213,37.197315874975175,3.0,Object_Sea_Solid_Small,-9.0,,,,,,,,,,,
encoding,value,14,4301791,4307803,4307172.0,4307530.0,359.0,359.0,1893.0,1400.1,1920.0,700.0,Object_Sea_Solid_Small,31.186096915975213,37.197315874975175,3.0,Object_Sea_Solid_Small,-9.0,,,,,,,,,,,
encoding,value,14,4301791,4307803,4307776.0,4308085.0,310.0,27.0,1900.1,1432.6,1920.0,700.0,Object_Sea_Solid_Small,31.186096915975213,37.197315874975175,3.0,Object_Sea_Solid_Small,-9.0,,,,,,,,,,,
encoding,attention,14,4307803,4310820,4308095.0,4308426.0,332.0,332.0,1936.2,1385.1,1920.0,700.0,Object_Sea_Solid_Small,37.197464374941774,40.2142396250274,3.0,Object_Sea_Solid_Small,-9.0,-9.0,1.0,1.725033084047027,,,,,,,,
encoding,attention,14,4307803,4310820,4308447.0,4308865.0,419.0,419.0,1862.7,1359.7,1920.0,700.0,Object_Sea_Solid_Small,37.197464374941774,40.2142396250274,3.0,Object_Sea_Solid_Small,-9.0,-9.0,1.0,1.725033084047027,,,,,,,,
encoding,attention,14,4307803,4310820,4308885.0,4309147.0,263.0,263.0,1867.0,1454.5,1920.0,700.0,Object_Sea_Solid_Small,37.197464374941774,40.2142396250274,3.0,Object_Sea_Solid_Small,-9.0,-9.0,1.0,1.725033084047027,,,,,,,,
encoding,attention,14,4307803,4310820,4309169.0,4310143.0,975.0,975.0,1821.7,1361.2,1920.0,700.0,Object_Sea_Solid_Small,37.197464374941774,40.2142396250274,3.0,Object_Sea_Solid_Small,-9.0,-9.0,1.0,1.725033084047027,,,,,,,,
encoding,attention,14,4307803,4310820,4310160.0,4310400.0,241.0,241.0,1891.4,1368.0,1920.0,700.0,Object_Sea_Solid_Small,37.197464374941774,40.2142396250274,3.0,Object_Sea_Solid_Small,-9.0,-9.0,1.0,1.725033084047027,,,,,,,,
encoding,attention,14,4307803,4310820,4310417.0,4310788.0,372.0,372.0,1854.9,1447.6,1920.0,700.0,Object_Sea_Solid_Small,37.197464374941774,40.2142396250274,3.0,Object_Sea_Solid_Small,-9.0,-9.0,1.0,1.725033084047027,,,,,,,,
encoding,fixation,15,4310820,4311575,4311409.0,4312122.0,714.0,166.0,1840.2,1318.2,1920.0,700.0,Object_Sea_Solid_Small,40.214387833024375,40.96941825002432,3.0,Object_Land_Solid_Small,9.0,,,,,,,,,,,
encoding,image,15,4311575,4312586,4312144.0,4312218.0,75.0,75.0,1824.3,1160.7,1591.0,891.0,Object_Land_Solid_Small,40.969597707968205,41.98065491602756,3.0,Object_Land_Solid_Small,9.0,,,,,,,,,,,
encoding,image,15,4311575,4312586,4312391.0,4312573.0,183.0,183.0,1611.9,1208.1,1591.0,891.0,Object_Land_Solid_Small,40.969597707968205,41.98065491602756,3.0,Object_Land_Solid_Small,9.0,,,,,,,,,,,
encoding,value,15,4312587,4318598,4312587.0,4313116.0,530.0,530.0,1563.1,1204.5,1591.0,891.0,Object_Land_Solid_Small,41.9808542910032,47.99213037500158,3.0,Object_Land_Solid_Small,9.0,,,,,,,,,,,
encoding,value,15,4312587,4318598,4313130.0,4313467.0,338.0,338.0,1547.3,1152.4,1591.0,891.0,Object_Land_Solid_Small,41.9808542910032,47.99213037500158,3.0,Object_Land_Solid_Small,9.0,,,,,,,,,,,
encoding,value,15,4312587,4318598,4313480.0,4313853.0,374.0,374.0,1554.6,1207.2,1591.0,891.0,Object_Land_Solid_Small,41.9808542910032,47.99213037500158,3.0,Object_Land_Solid_Small,9.0,,,,,,,,,,,
encoding,value,15,4312587,4318598,4313867.0,4314083.0,217.0,217.0,1547.5,1148.4,1591.0,891.0,Object_Land_Solid_Small,41.9808542910032,47.99213037500158,3.0,Object_Land_Solid_Small,9.0,,,,,,,,,,,
encoding,value,15,4312587,4318598,4314100.0,4314471.0,372.0,372.0,1531.1,1233.5,1591.0,891.0,Object_Land_Solid_Small,41.9808542910032,47.99213037500158,3.0,Object_Land_Solid_Small,9.0,,,,,,,,,,,
encoding,value,15,4312587,4318598,4314494.0,4314777.0,284.0,284.0,1714.2,1279.0,1591.0,891.0,Object_Land_Solid_Small,41.9808542910032,47.99213037500158,3.0,Object_Land_Solid_Small,9.0,,,,,,,,,,,
encoding,value,15,4312587,4318598,4314803.0,4315231.0,429.0,429.0,1557.6,1246.4,1591.0,891.0,Object_Land_Solid_Small,41.9808542910032,47.99213037500158,3.0,Object_Land_Solid_Small,9.0,,,,,,,,,,,
encoding,value,15,4312587,4318598,4315254.0,4315503.0,250.0,250.0,1544.2,1149.0,1591.0,891.0,Object_Land_Solid_Small,41.9808542910032,47.99213037500158,3.0,Object_Land_Solid_Small,9.0,,,,,,,,,,,
encoding,value,15,4312587,4318598,4315520.0,4316043.0,524.0,524.0,1546.3,1239.0,1591.0,891.0,Object_Land_Solid_Small,41.9808542910032,47.99213037500158,3.0,Object_Land_Solid_Small,9.0,,,,,,,,,,,
encoding,value,15,4312587,4318598,4316065.0,4316429.0,365.0,365.0,1558.1,1153.2,1591.0,891.0,Object_Land_Solid_Small,41.9808542910032,47.99213037500158,3.0,Object_Land_Solid_Small,9.0,,,,,,,,,,,
encoding,value,15,4312587,4318598,4316758.0,4317266.0,509.0,509.0,1542.9,1176.4,1591.0,891.0,Object_Land_Solid_Small,41.9808542910032,47.99213037500158,3.0,Object_Land_Solid_Small,9.0,,,,,,,,,,,
encoding,value,15,4312587,4318598,4317286.0,4317680.0,395.0,395.0,1549.4,1260.0,1591.0,891.0,Object_Land_Solid_Small,41.9808542910032,47.99213037500158,3.0,Object_Land_Solid_Small,9.0,,,,,,,,,,,
encoding,value,15,4312587,4318598,4317697.0,4317991.0,295.0,295.0,1542.0,1187.9,1591.0,891.0,Object_Land_Solid_Small,41.9808542910032,47.99213037500158,3.0,Object_Land_Solid_Small,9.0,,,,,,,,,,,
encoding,value,15,4312587,4318598,4318001.0,4318296.0,296.0,296.0,1552.5,1160.5,1591.0,891.0,Object_Land_Solid_Small,41.9808542910032,47.99213037500158,3.0,Object_Land_Solid_Small,9.0,,,,,,,,,,,
encoding,value,15,4312587,4318598,4318311.0,4318637.0,327.0,287.0,1532.0,1209.1,1591.0,891.0,Object_Land_Solid_Small,41.9808542910032,47.99213037500158,3.0,Object_Land_Solid_Small,9.0,,,,,,,,,,,
encoding,attention,15,4318598,4321616,4318648.0,4319525.0,878.0,878.0,1564.9,1165.8,1591.0,891.0,Object_Land_Solid_Small,47.99224920803681,51.00954654102679,3.0,Object_Land_Solid_Small,9.0,9.0,1.0,1.7571870420360938,,,,,,,,
encoding,attention,15,4318598,4321616,4319532.0,4319686.0,155.0,155.0,1555.2,1155.2,1591.0,891.0,Object_Land_Solid_Small,47.99224920803681,51.00954654102679,3.0,Object_Land_Solid_Small,9.0,9.0,1.0,1.7571870420360938,,,,,,,,
encoding,attention,15,4318598,4321616,4319702.0,4320186.0,485.0,485.0,1539.2,1220.9,1591.0,891.0,Object_Land_Solid_Small,47.99224920803681,51.00954654102679,3.0,Object_Land_Solid_Small,9.0,9.0,1.0,1.7571870420360938,,,,,,,,
encoding,attention,15,4318598,4321616,4320199.0,4320604.0,406.0,406.0,1575.8,1180.0,1591.0,891.0,Object_Land_Solid_Small,47.99224920803681,51.00954654102679,3.0,Object_Land_Solid_Small,9.0,9.0,1.0,1.7571870420360938,,,,,,,,
encoding,attention,15,4318598,4321616,4320625.0,4321047.0,423.0,423.0,1528.0,1254.2,1591.0,891.0,Object_Land_Solid_Small,47.99224920803681,51.00954654102679,3.0,Object_Land_Solid_Small,9.0,9.0,1.0,1.7571870420360938,,,,,,,,
encoding,attention,15,4318598,4321616,4321063.0,4321217.0,155.0,155.0,1582.1,1165.3,1591.0,891.0,Object_Land_Solid_Small,47.99224920803681,51.00954654102679,3.0,Object_Land_Solid_Small,9.0,9.0,1.0,1.7571870420360938,,,,,,,,
encoding,fixation,16,4321616,4322871,4322134.0,4322519.0,386.0,386.0,1904.3,1141.2,1920.0,1080.0,fixation,51.009700958034955,52.265001374995336,3.0,Animal_Sea_Pattern_Large,4.0,,,,,,,,,,,
encoding,fixation,16,4321616,4322871,4322536.0,4322728.0,193.0,193.0,1864.9,1087.2,1920.0,1080.0,fixation,51.009700958034955,52.265001374995336,3.0,Animal_Sea_Pattern_Large,4.0,,,,,,,,,,,
encoding,fixation,16,4321616,4322871,4322767.0,4323203.0,437.0,104.0,1916.6,1372.2,1920.0,700.0,Object_Sea_Solid_Small,51.009700958034955,52.265001374995336,3.0,Animal_Sea_Pattern_Large,4.0,,,,,,,,,,,
encoding,image,16,4322871,4323881,4323233.0,4324061.0,829.0,648.0,2183.5,1286.9,2249.0,891.0,Animal_Sea_Pattern_Large,52.265115250018425,53.27472854102962,3.0,Animal_Sea_Pattern_Large,4.0,,,,,,,,,,,
encoding,value,16,4323881,4329894,4324083.0,4324306.0,224.0,224.0,2202.3,1182.9,2249.0,891.0,Animal_Sea_Pattern_Large,53.27488375001121,59.287091374979354,3.0,Animal_Sea_Pattern_Large,4.0,,,,,,,,,,,
encoding,value,16,4323881,4329894,4324321.0,4324618.0,298.0,298.0,2180.1,1241.0,2249.0,891.0,Animal_Sea_Pattern_Large,53.27488375001121,59.287091374979354,3.0,Animal_Sea_Pattern_Large,4.0,,,,,,,,,,,
encoding,value,16,4323881,4329894,4324856.0,4325122.0,267.0,267.0,2203.5,1262.2,2249.0,891.0,Animal_Sea_Pattern_Large,53.27488375001121,59.287091374979354,3.0,Animal_Sea_Pattern_Large,4.0,,,,,,,,,,,
encoding,value,16,4323881,4329894,4325143.0,4325424.0,282.0,282.0,2209.8,1165.0,2249.0,891.0,Animal_Sea_Pattern_Large,53.27488375001121,59.287091374979354,3.0,Animal_Sea_Pattern_Large,4.0,,,,,,,,,,,
encoding,value,16,4323881,4329894,4325442.0,4326139.0,698.0,698.0,2171.9,1254.3,2249.0,891.0,Animal_Sea_Pattern_Large,53.27488375001121,59.287091374979354,3.0,Animal_Sea_Pattern_Large,4.0,,,,,,,,,,,
encoding,value,16,4323881,4329894,4326148.0,4326539.0,392.0,392.0,2197.6,1259.5,2249.0,891.0,Animal_Sea_Pattern_Large,53.27488375001121,59.287091374979354,3.0,Animal_Sea_Pattern_Large,4.0,,,,,,,,,,,
encoding,value,16,4323881,4329894,4326579.0,4326876.0,298.0,298.0,1918.0,1078.9,1920.0,1080.0,fixation,53.27488375001121,59.287091374979354,3.0,Animal_Sea_Pattern_Large,4.0,,,,,,,,,,,
encoding,value,16,4323881,4329894,4326884.0,4327106.0,223.0,223.0,1900.3,1052.7,1920.0,1080.0,fixation,53.27488375001121,59.287091374979354,3.0,Animal_Sea_Pattern_Large,4.0,,,,,,,,,,,
encoding,value,16,4323881,4329894,4327135.0,4327413.0,279.0,279.0,2224.6,1206.1,2249.0,891.0,Animal_Sea_Pattern_Large,53.27488375001121,59.287091374979354,3.0,Animal_Sea_Pattern_Large,4.0,,,,,,,,,,,
encoding,value,16,4323881,4329894,4327433.0,4328115.0,683.0,683.0,2161.7,1259.0,2249.0,891.0,Animal_Sea_Pattern_Large,53.27488375001121,59.287091374979354,3.0,Animal_Sea_Pattern_Large,4.0,,,,,,,,,,,
encoding,value,16,4323881,4329894,4328133.0,4328525.0,393.0,393.0,2216.8,1220.2,2249.0,891.0,Animal_Sea_Pattern_Large,53.27488375001121,59.287091374979354,3.0,Animal_Sea_Pattern_Large,4.0,,,,,,,,,,,
encoding,value,16,4323881,4329894,4328540.0,4329030.0,491.0,491.0,2222.0,1164.9,2249.0,891.0,Animal_Sea_Pattern_Large,53.27488375001121,59.287091374979354,3.0,Animal_Sea_Pattern_Large,4.0,,,,,,,,,,,
encoding,value,16,4323881,4329894,4329037.0,4329296.0,260.0,260.0,2191.8,1169.4,2249.0,891.0,Animal_Sea_Pattern_Large,53.27488375001121,59.287091374979354,3.0,Animal_Sea_Pattern_Large,4.0,,,,,,,,,,,
encoding,value,16,4323881,4329894,4329312.0,4330712.0,1401.0,582.0,2171.7,1245.7,2249.0,891.0,Animal_Sea_Pattern_Large,53.27488375001121,59.287091374979354,3.0,Animal_Sea_Pattern_Large,4.0,,,,,,,,,,,
encoding,attention,16,4329894,4332905,4330895.0,4331508.0,614.0,614.0,2250.9,1139.4,2249.0,891.0,Animal_Sea_Pattern_Large,59.287219999940135,62.29859324998688,3.0,Animal_Sea_Pattern_Large,4.0,,,,,,,,,,,
encoding,attention,16,4329894,4332905,4331530.0,4331829.0,300.0,300.0,2184.6,1228.3,2249.0,891.0,Animal_Sea_Pattern_Large,59.287219999940135,62.29859324998688,3.0,Animal_Sea_Pattern_Large,4.0,,,,,,,,,,,
encoding,attention,16,4329894,4332905,4331850.0,4332441.0,592.0,592.0,2182.2,1154.9,2249.0,891.0,Animal_Sea_Pattern_Large,59.287219999940135,62.29859324998688,3.0,Animal_Sea_Pattern_Large,4.0,,,,,,,,,,,
encoding,attention,16,4329894,4332905,4332454.0,4332632.0,179.0,179.0,2247.7,1154.3,2249.0,891.0,Animal_Sea_Pattern_Large,59.287219999940135,62.29859324998688,3.0,Animal_Sea_Pattern_Large,4.0,,,,,,,,,,,
encoding,fixation,17,4332905,4334161,4333212.0,4333535.0,324.0,324.0,1913.0,1087.9,1920.0,1080.0,fixation,62.298720916034654,63.55387004103977,3.0,Animal_Land_Pattern_Large,-9.0,,,,,,,,,,,
encoding,fixation,17,4332905,4334161,4333547.0,4333853.0,307.0,307.0,1891.3,1047.6,1920.0,1080.0,fixation,62.298720916034654,63.55387004103977,3.0,Animal_Land_Pattern_Large,-9.0,,,,,,,,,,,
encoding,fixation,17,4332905,4334161,4333878.0,4334240.0,363.0,283.0,1923.5,1296.6,1920.0,700.0,Object_Sea_Solid_Small,62.298720916034654,63.55387004103977,3.0,Animal_Land_Pattern_Large,-9.0,,,,,,,,,,,
encoding,image,17,4334161,4335172,4334264.0,4334450.0,187.0,187.0,1770.6,1335.4,1591.0,891.0,Object_Land_Solid_Small,63.55398395797238,64.56554058298934,3.0,Animal_Land_Pattern_Large,-9.0,,,,,,,,,,,
encoding,image,17,4334161,4335172,4334503.0,4334655.0,153.0,153.0,1551.1,939.7,1591.0,1269.0,Animal_Land_Pattern_Large,63.55398395797238,64.56554058298934,3.0,Animal_Land_Pattern_Large,-9.0,,,,,,,,,,,
encoding,image,17,4334161,4335172,4334674.0,4335518.0,845.0,498.0,1511.3,873.2,1591.0,1269.0,Animal_Land_Pattern_Large,63.55398395797238,64.56554058298934,3.0,Animal_Land_Pattern_Large,-9.0,,,,,,,,,,,
encoding,value,17,4335173,4341188,4335555.0,4335873.0,319.0,319.0,1879.0,1065.1,1920.0,1080.0,fixation,64.56566608301364,70.58051016600803,3.0,Animal_Land_Pattern_Large,-9.0,,,,,,,,,,,
encoding,value,17,4335173,4341188,4335908.0,4336206.0,299.0,299.0,1507.0,860.8,1591.0,1269.0,Animal_Land_Pattern_Large,64.56566608301364,70.58051016600803,3.0,Animal_Land_Pattern_Large,-9.0,,,,,,,,,,,
encoding,value,17,4335173,4341188,4336529.0,4336761.0,233.0,233.0,1684.8,994.4000000000001,1591.0,1269.0,Animal_Land_Pattern_Large,64.56566608301364,70.58051016600803,3.0,Animal_Land_Pattern_Large,-9.0,,,,,,,,,,,
encoding,value,17,4335173,4341188,4336799.0,4337027.0,229.0,229.0,1548.2,856.3,1591.0,1269.0,Animal_Land_Pattern_Large,64.56566608301364,70.58051016600803,3.0,Animal_Land_Pattern_Large,-9.0,,,,,,,,,,,
encoding,value,17,4335173,4341188,4337046.0,4337283.0,238.0,238.0,1543.2,780.4000000000001,1591.0,1269.0,Animal_Land_Pattern_Large,64.56566608301364,70.58051016600803,3.0,Animal_Land_Pattern_Large,-9.0,,,,,,,,,,,
encoding,value,17,4335173,4341188,4337301.0,4338179.0,879.0,879.0,1503.7,882.7,1591.0,1269.0,Animal_Land_Pattern_Large,64.56566608301364,70.58051016600803,3.0,Animal_Land_Pattern_Large,-9.0,,,,,,,,,,,
encoding,value,17,4335173,4341188,4338206.0,4338477.0,272.0,272.0,1835.4,1091.2,1591.0,891.0,Object_Land_Solid_Small,64.56566608301364,70.58051016600803,3.0,Animal_Land_Pattern_Large,-9.0,,,,,,,,,,,
encoding,value,17,4335173,4341188,4338487.0,4338701.0,215.0,215.0,1876.8,1072.3,1920.0,1080.0,fixation,64.56566608301364,70.58051016600803,3.0,Animal_Land_Pattern_Large,-9.0,,,,,,,,,,,
encoding,value,17,4335173,4341188,4338731.0,4338971.0,241.0,241.0,1564.2,962.0,1591.0,1269.0,Animal_Land_Pattern_Large,64.56566608301364,70.58051016600803,3.0,Animal_Land_Pattern_Large,-9.0,,,,,,,,,,,
encoding,value,17,4335173,4341188,4339015.0,4339330.0,316.0,316.0,1938.2,1251.0,1920.0,700.0,Object_Sea_Solid_Small,64.56566608301364,70.58051016600803,3.0,Animal_Land_Pattern_Large,-9.0,,,,,,,,,,,
encoding,value,17,4335173,4341188,4339353.0,4339572.0,220.0,220.0,1877.8,1129.7,1920.0,1080.0,fixation,64.56566608301364,70.58051016600803,3.0,Animal_Land_Pattern_Large,-9.0,,,,,,,,,,,
encoding,value,17,4335173,4341188,4339584.0,4339856.0,273.0,273.0,1885.3,1087.1,1920.0,1080.0,fixation,64.56566608301364,70.58051016600803,3.0,Animal_Land_Pattern_Large,-9.0,,,,,,,,,,,
encoding,value,17,4335173,4341188,4339889.0,4340129.0,241.0,241.0,1555.0,838.9000000000001,1591.0,1269.0,Animal_Land_Pattern_Large,64.56566608301364,70.58051016600803,3.0,Animal_Land_Pattern_Large,-9.0,,,,,,,,,,,
encoding,value,17,4335173,4341188,4340139.0,4340604.0,466.0,466.0,1512.9,859.0,1591.0,1269.0,Animal_Land_Pattern_Large,64.56566608301364,70.58051016600803,3.0,Animal_Land_Pattern_Large,-9.0,,,,,,,,,,,
encoding,value,17,4335173,4341188,4340620.0,4340970.0,351.0,351.0,1543.1,795.2,1591.0,1269.0,Animal_Land_Pattern_Large,64.56566608301364,70.58051016600803,3.0,Animal_Land_Pattern_Large,-9.0,,,,,,,,,,,
encoding,value,17,4335173,4341188,4340981.0,4341093.0,113.0,113.0,1522.5,838.2,1591.0,1269.0,Animal_Land_Pattern_Large,64.56566608301364,70.58051016600803,3.0,Animal_Land_Pattern_Large,-9.0,,,,,,,,,,,
encoding,attention,17,4341188,4344208,4341304.0,4341685.0,382.0,382.0,1574.9,871.8,1591.0,1269.0,Animal_Land_Pattern_Large,70.5806399580324,73.60110454098321,3.0,Animal_Land_Pattern_Large,-9.0,-9.0,1.0,2.2579219579929486,,,,,,,,
encoding,attention,17,4341188,4344208,4341700.0,4342421.0,722.0,722.0,1536.4,861.4000000000001,1591.0,1269.0,Animal_Land_Pattern_Large,70.5806399580324,73.60110454098321,3.0,Animal_Land_Pattern_Large,-9.0,-9.0,1.0,2.2579219579929486,,,,,,,,
encoding,attention,17,4341188,4344208,4342429.0,4342694.0,266.0,266.0,1523.0,891.3,1591.0,1269.0,Animal_Land_Pattern_Large,70.5806399580324,73.60110454098321,3.0,Animal_Land_Pattern_Large,-9.0,-9.0,1.0,2.2579219579929486,,,,,,,,
encoding,attention,17,4341188,4344208,4342713.0,4342965.0,253.0,253.0,1599.7,836.5,1591.0,1269.0,Animal_Land_Pattern_Large,70.5806399580324,73.60110454098321,3.0,Animal_Land_Pattern_Large,-9.0,-9.0,1.0,2.2579219579929486,,,,,,,,
encoding,attention,17,4341188,4344208,4342976.0,4343218.0,243.0,243.0,1597.1,789.8,1591.0,1269.0,Animal_Land_Pattern_Large,70.5806399580324,73.60110454098321,3.0,Animal_Land_Pattern_Large,-9.0,-9.0,1.0,2.2579219579929486,,,,,,,,
encoding,attention,17,4341188,4344208,4343236.0,4343718.0,483.0,483.0,1541.1,808.5,1591.0,1269.0,Animal_Land_Pattern_Large,70.5806399580324,73.60110454098321,3.0,Animal_Land_Pattern_Large,-9.0,-9.0,1.0,2.2579219579929486,,,,,,,,
encoding,attention,17,4341188,4344208,4343737.0,4343973.0,237.0,237.0,1567.9,888.5,1591.0,1269.0,Animal_Land_Pattern_Large,70.5806399580324,73.60110454098321,3.0,Animal_Land_Pattern_Large,-9.0,-9.0,1.0,2.2579219579929486,,,,,,,,
encoding,attention,17,4341188,4344208,4344016.0,4344077.0,62.0,62.0,1984.3,1143.5,2249.0,891.0,Animal_Sea_Pattern_Large,70.5806399580324,73.60110454098321,3.0,Animal_Land_Pattern_Large,-9.0,-9.0,1.0,2.2579219579929486,,,,,,,,
encoding,fixation,18,4344209,4345464,4344481.0,4344640.0,160.0,160.0,1843.7,1174.2,1591.0,891.0,Object_Land_Solid_Small,73.60131262498908,74.85658020793926,3.0,Object_Land_Pattern_Small,-7.0,,,,,,,,,,,
encoding,fixation,18,4344209,4345464,4344660.0,4345122.0,463.0,463.0,1897.2,1089.4,1920.0,1080.0,fixation,73.60131262498908,74.85658020793926,3.0,Object_Land_Pattern_Small,-7.0,,,,,,,,,,,
encoding,fixation,18,4344209,4345464,4345139.0,4345352.0,214.0,214.0,1842.4,1153.1,1591.0,891.0,Object_Land_Solid_Small,73.60131262498908,74.85658020793926,3.0,Object_Land_Pattern_Small,-7.0,,,,,,,,,,,
encoding,fixation,18,4344209,4345464,4345371.0,4345741.0,371.0,93.0,1888.6,1083.7,1920.0,1080.0,fixation,73.60131262498908,74.85658020793926,3.0,Object_Land_Pattern_Small,-7.0,,,,,,,,,,,
encoding,image,18,4345464,4346475,4345774.0,4346058.0,285.0,285.0,2208.1,910.5999999999999,2249.0,1269.0,Object_Land_Pattern_Small,74.85668562503997,75.86819420801476,3.0,Object_Land_Pattern_Small,-7.0,,,,,,,,,,,
encoding,image,18,4345464,4346475,4346087.0,4346553.0,467.0,388.0,1909.9,1059.1,1920.0,1080.0,fixation,74.85668562503997,75.86819420801476,3.0,Object_Land_Pattern_Small,-7.0,,,,,,,,,,,
encoding,value,18,4346476,4352488,4346586.0,4346756.0,171.0,171.0,2207.0,879.0,2249.0,1269.0,Object_Land_Pattern_Small,75.86842508299742,81.88061029103119,3.0,Object_Land_Pattern_Small,-7.0,,,,,,,,,,,
encoding,value,18,4346476,4352488,4346780.0,4347091.0,312.0,312.0,2214.1,806.0999999999999,2249.0,1269.0,Object_Land_Pattern_Small,75.86842508299742,81.88061029103119,3.0,Object_Land_Pattern_Small,-7.0,,,,,,,,,,,
encoding,value,18,4346476,4352488,4347108.0,4347281.0,174.0,174.0,2207.6,864.0999999999999,2249.0,1269.0,Object_Land_Pattern_Small,75.86842508299742,81.88061029103119,3.0,Object_Land_Pattern_Small,-7.0,,,,,,,,,,,
encoding,value,18,4346476,4352488,4347310.0,4347618.0,309.0,309.0,1897.2,1076.7,1920.0,1080.0,fixation,75.86842508299742,81.88061029103119,3.0,Object_Land_Pattern_Small,-7.0,,,,,,,,,,,
encoding,value,18,4346476,4352488,4347655.0,4347988.0,334.0,334.0,2205.7,923.3,2249.0,1269.0,Object_Land_Pattern_Small,75.86842508299742,81.88061029103119,3.0,Object_Land_Pattern_Small,-7.0,,,,,,,,,,,
encoding,value,18,4346476,4352488,4348016.0,4348271.0,256.0,256.0,1909.0,1044.6,1920.0,1080.0,fixation,75.86842508299742,81.88061029103119,3.0,Object_Land_Pattern_Small,-7.0,,,,,,,,,,,
encoding,value,18,4346476,4352488,4348300.0,4348503.0,204.0,204.0,2227.8,898.5,2249.0,1269.0,Object_Land_Pattern_Small,75.86842508299742,81.88061029103119,3.0,Object_Land_Pattern_Small,-7.0,,,,,,,,,,,
encoding,value,18,4346476,4352488,4348561.0,4348735.0,175.0,175.0,2762.1,588.3,,,none,75.86842508299742,81.88061029103119,3.0,Object_Land_Pattern_Small,-7.0,,,,,,,,,,,
encoding,value,18,4346476,4352488,4348785.0,4349073.0,289.0,289.0,2229.8,835.5999999999999,2249.0,1269.0,Object_Land_Pattern_Small,75.86842508299742,81.88061029103119,3.0,Object_Land_Pattern_Small,-7.0,,,,,,,,,,,
encoding,value,18,4346476,4352488,4349086.0,4349330.0,245.0,245.0,2231.4,773.5999999999999,2249.0,1269.0,Object_Land_Pattern_Small,75.86842508299742,81.88061029103119,3.0,Object_Land_Pattern_Small,-7.0,,,,,,,,,,,
encoding,value,18,4346476,4352488,4349348.0,4349766.0,419.0,419.0,2234.3,870.5,2249.0,1269.0,Object_Land_Pattern_Small,75.86842508299742,81.88061029103119,3.0,Object_Land_Pattern_Small,-7.0,,,,,,,,,,,
encoding,value,18,4346476,4352488,4350050.0,4350295.0,246.0,246.0,2203.0,842.2,2249.0,1269.0,Object_Land_Pattern_Small,75.86842508299742,81.88061029103119,3.0,Object_Land_Pattern_Small,-7.0,,,,,,,,,,,
encoding,value,18,4346476,4352488,4350316.0,4350540.0,225.0,225.0,2132.9,962.8,2249.0,1269.0,Object_Land_Pattern_Small,75.86842508299742,81.88061029103119,3.0,Object_Land_Pattern_Small,-7.0,,,,,,,,,,,
encoding,value,18,4346476,4352488,4350559.0,4351149.0,591.0,591.0,2238.7,927.0999999999999,2249.0,1269.0,Object_Land_Pattern_Small,75.86842508299742,81.88061029103119,3.0,Object_Land_Pattern_Small,-7.0,,,,,,,,,,,
encoding,value,18,4346476,4352488,4351171.0,4351456.0,286.0,286.0,2201.3,845.4000000000001,2249.0,1269.0,Object_Land_Pattern_Small,75.86842508299742,81.88061029103119,3.0,Object_Land_Pattern_Small,-7.0,,,,,,,,,,,
encoding,value,18,4346476,4352488,4351471.0,4351685.0,215.0,215.0,2211.1,812.0,2249.0,1269.0,Object_Land_Pattern_Small,75.86842508299742,81.88061029103119,3.0,Object_Land_Pattern_Small,-7.0,,,,,,,,,,,
encoding,value,18,4346476,4352488,4351715.0,4351871.0,157.0,157.0,1933.6,1009.3,1920.0,1460.0,Animal_Sea_Solid_Large,75.86842508299742,81.88061029103119,3.0,Object_Land_Pattern_Small,-7.0,,,,,,,,,,,
encoding,value,18,4346476,4352488,4351881.0,4352297.0,417.0,417.0,1900.3,1032.7,1920.0,1080.0,fixation,75.86842508299742,81.88061029103119,3.0,Object_Land_Pattern_Small,-7.0,,,,,,,,,,,
encoding,value,18,4346476,4352488,4352346.0,4352727.0,382.0,142.0,2207.4,828.0,2249.0,1269.0,Object_Land_Pattern_Small,75.86842508299742,81.88061029103119,3.0,Object_Land_Pattern_Small,-7.0,,,,,,,,,,,
encoding,attention,18,4352488,4355508,4352737.0,4353123.0,387.0,387.0,2238.9,802.0,2249.0,1269.0,Object_Land_Pattern_Small,81.88074362499174,84.90059379104059,3.0,Object_Land_Pattern_Small,-7.0,-7.0,1.0,1.5417024169582874,,,,,,,,
encoding,attention,18,4352488,4355508,4353141.0,4353423.0,283.0,283.0,2176.9,825.3,2249.0,1269.0,Object_Land_Pattern_Small,81.88074362499174,84.90059379104059,3.0,Object_Land_Pattern_Small,-7.0,-7.0,1.0,1.5417024169582874,,,,,,,,
encoding,attention,18,4352488,4355508,4353435.0,4353666.0,232.0,232.0,2215.9,861.9000000000001,2249.0,1269.0,Object_Land_Pattern_Small,81.88074362499174,84.90059379104059,3.0,Object_Land_Pattern_Small,-7.0,-7.0,1.0,1.5417024169582874,,,,,,,,
encoding,attention,18,4352488,4355508,4353695.0,4353834.0,140.0,140.0,1936.2,1000.0999999999999,1920.0,1460.0,Animal_Sea_Solid_Large,81.88074362499174,84.90059379104059,3.0,Object_Land_Pattern_Small,-7.0,-7.0,1.0,1.5417024169582874,,,,,,,,
encoding,attention,18,4352488,4355508,4353853.0,4354258.0,406.0,406.0,1884.3,1058.7,1920.0,1080.0,fixation,81.88074362499174,84.90059379104059,3.0,Object_Land_Pattern_Small,-7.0,-7.0,1.0,1.5417024169582874,,,,,,,,
encoding,attention,18,4352488,4355508,4354287.0,4354970.0,684.0,684.0,1690.0,1259.1,1591.0,891.0,Object_Land_Solid_Small,81.88074362499174,84.90059379104059,3.0,Object_Land_Pattern_Small,-7.0,-7.0,1.0,1.5417024169582874,,,,,,,,
encoding,attention,18,4352488,4355508,4355001.0,4355179.0,179.0,179.0,1897.0,1114.4,1920.0,1080.0,fixation,81.88074362499174,84.90059379104059,3.0,Object_Land_Pattern_Small,-7.0,-7.0,1.0,1.5417024169582874,,,,,,,,
encoding,attention,18,4352488,4355508,4355195.0,4355332.0,138.0,138.0,1900.7,1065.9,1920.0,1080.0,fixation,81.88074362499174,84.90059379104059,3.0,Object_Land_Pattern_Small,-7.0,-7.0,1.0,1.5417024169582874,,,,,,,,
encoding,fixation,19,4855779,4856285,4856026.0,4856590.0,565.0,259.0,1899.0,1104.2,1920.0,1080.0,fixation,20.777692166971978,21.283629167010076,4.0,Object_Land_Solid_Small,4.0,,,,,,,,,,,
encoding,image,19,4856286,4857298,4856618.0,4856729.0,112.0,112.0,1638.7,1195.3,1591.0,891.0,Object_Land_Solid_Small,21.28374350001104,22.2958449999569,4.0,Object_Land_Solid_Small,4.0,,,,,,,,,,,
encoding,image,19,4856286,4857298,4856741.0,4857496.0,756.0,557.0,1557.7,1249.6,1591.0,891.0,Object_Land_Solid_Small,21.28374350001104,22.2958449999569,4.0,Object_Land_Solid_Small,4.0,,,,,,,,,,,
encoding,value,19,4857298,4863311,4857511.0,4857789.0,279.0,279.0,1557.7,1197.9,1591.0,891.0,Object_Land_Solid_Small,22.29596816690173,28.309165499988012,4.0,Object_Land_Solid_Small,4.0,,,,,,,,,,,
encoding,value,19,4857298,4863311,4857797.0,4857906.0,110.0,110.0,1563.4,1164.0,1591.0,891.0,Object_Land_Solid_Small,22.29596816690173,28.309165499988012,4.0,Object_Land_Solid_Small,4.0,,,,,,,,,,,
encoding,value,19,4857298,4863311,4858220.0,4858851.0,632.0,632.0,1549.5,1265.6,1591.0,891.0,Object_Land_Solid_Small,22.29596816690173,28.309165499988012,4.0,Object_Land_Solid_Small,4.0,,,,,,,,,,,
encoding,value,19,4857298,4863311,4858872.0,4859113.0,242.0,242.0,1564.8,1164.1,1591.0,891.0,Object_Land_Solid_Small,22.29596816690173,28.309165499988012,4.0,Object_Land_Solid_Small,4.0,,,,,,,,,,,
encoding,value,19,4857298,4863311,4859130.0,4859386.0,257.0,257.0,1545.4,1245.7,1591.0,891.0,Object_Land_Solid_Small,22.29596816690173,28.309165499988012,4.0,Object_Land_Solid_Small,4.0,,,,,,,,,,,
encoding,value,19,4857298,4863311,4859624.0,4859865.0,242.0,242.0,1582.0,1281.0,1591.0,891.0,Object_Land_Solid_Small,22.29596816690173,28.309165499988012,4.0,Object_Land_Solid_Small,4.0,,,,,,,,,,,
encoding,value,19,4857298,4863311,4859876.0,4860214.0,339.0,339.0,1544.9,1258.5,1591.0,891.0,Object_Land_Solid_Small,22.29596816690173,28.309165499988012,4.0,Object_Land_Solid_Small,4.0,,,,,,,,,,,
encoding,value,19,4857298,4863311,4860230.0,4860460.0,231.0,231.0,1561.3,1183.1,1591.0,891.0,Object_Land_Solid_Small,22.29596816690173,28.309165499988012,4.0,Object_Land_Solid_Small,4.0,,,,,,,,,,,
encoding,value,19,4857298,4863311,4860477.0,4861024.0,548.0,548.0,1541.6,1264.8,1591.0,891.0,Object_Land_Solid_Small,22.29596816690173,28.309165499988012,4.0,Object_Land_Solid_Small,4.0,,,,,,,,,,,
encoding,value,19,4857298,4863311,4861045.0,4861394.0,350.0,350.0,1554.0,1184.2,1591.0,891.0,Object_Land_Solid_Small,22.29596816690173,28.309165499988012,4.0,Object_Land_Solid_Small,4.0,,,,,,,,,,,
encoding,value,19,4857298,4863311,4861408.0,4861938.0,531.0,531.0,1563.1,1240.9,1591.0,891.0,Object_Land_Solid_Small,22.29596816690173,28.309165499988012,4.0,Object_Land_Solid_Small,4.0,,,,,,,,,,,
encoding,value,19,4857298,4863311,4861951.0,4862276.0,326.0,326.0,1545.6,1260.4,1591.0,891.0,Object_Land_Solid_Small,22.29596816690173,28.309165499988012,4.0,Object_Land_Solid_Small,4.0,,,,,,,,,,,
encoding,value,19,4857298,4863311,4862509.0,4862734.0,226.0,226.0,1549.7,1268.2,1591.0,891.0,Object_Land_Solid_Small,22.29596816690173,28.309165499988012,4.0,Object_Land_Solid_Small,4.0,,,,,,,,,,,
encoding,value,19,4857298,4863311,4862753.0,4862958.0,206.0,206.0,1549.2,1181.4,1591.0,891.0,Object_Land_Solid_Small,22.29596816690173,28.309165499988012,4.0,Object_Land_Solid_Small,4.0,,,,,,,,,,,
encoding,value,19,4857298,4863311,4862974.0,4863295.0,322.0,322.0,1527.0,1254.5,1591.0,891.0,Object_Land_Solid_Small,22.29596816690173,28.309165499988012,4.0,Object_Land_Solid_Small,4.0,,,,,,,,,,,
encoding,value,19,4857298,4863311,4863310.0,4863745.0,436.0,1.0,1556.4,1185.4,1591.0,891.0,Object_Land_Solid_Small,22.29596816690173,28.309165499988012,4.0,Object_Land_Solid_Small,4.0,,,,,,,,,,,
encoding,attention,19,4863311,4866331,4863760.0,4864690.0,931.0,931.0,1499.8,1167.6,1591.0,891.0,Object_Land_Solid_Small,28.30930320895277,31.329116042004895,4.0,Object_Land_Solid_Small,4.0,4.0,1.0,1.4215834169881418,,,,,,,,
encoding,attention,19,4863311,4866331,4864700.0,4865151.0,452.0,452.0,1533.3,1173.2,1591.0,891.0,Object_Land_Solid_Small,28.30930320895277,31.329116042004895,4.0,Object_Land_Solid_Small,4.0,4.0,1.0,1.4215834169881418,,,,,,,,
encoding,attention,19,4863311,4866331,4865432.0,4865663.0,232.0,232.0,1586.5,1238.3,1591.0,891.0,Object_Land_Solid_Small,28.30930320895277,31.329116042004895,4.0,Object_Land_Solid_Small,4.0,4.0,1.0,1.4215834169881418,,,,,,,,
encoding,attention,19,4863311,4866331,4865681.0,4865840.0,160.0,160.0,1557.9,1317.1,1591.0,891.0,Object_Land_Solid_Small,28.30930320895277,31.329116042004895,4.0,Object_Land_Solid_Small,4.0,4.0,1.0,1.4215834169881418,,,,,,,,
encoding,attention,19,4863311,4866331,4866058.0,4866211.0,154.0,154.0,1767.0,1205.4,1591.0,891.0,Object_Land_Solid_Small,28.30930320895277,31.329116042004895,4.0,Object_Land_Solid_Small,4.0,4.0,1.0,1.4215834169881418,,,,,,,,
encoding,fixation,20,4866332,4867087,4867031.0,4867173.0,143.0,56.0,1955.3,1060.6,1920.0,1080.0,fixation,31.32928424992133,32.08496137498878,4.0,Object_Sea_Solid_Large,1.0,,,,,,,,,,,
encoding,image,20,4867087,4868099,4867183.0,4867340.0,158.0,158.0,1907.3,1056.3,1920.0,1080.0,fixation,32.08506554190535,33.09686512500048,4.0,Object_Sea_Solid_Large,1.0,,,,,,,,,,,
encoding,image,20,4867087,4868099,4867388.0,4868338.0,951.0,711.0,1886.3,669.0,1920.0,1460.0,Object_Sea_Solid_Large,32.08506554190535,33.09686512500048,4.0,Object_Sea_Solid_Large,1.0,,,,,,,,,,,
