phase,event,onset,offset,trial_number,game,image,outcome,choice,correct,rt,letter,match,response,option,true_value,true_position,recalled_position,
encoding,fixation,24.403955250047147,24.916112166945823,1,1,Object_Sea_Solid_Large,-1,,,,,,,,,,,
encoding,image,24.91629974998068,25.93312187504489,1,1,Object_Sea_Solid_Large,-1,,,,,,,,,,,
encoding,value,25.933238417026587,31.947719541960396,1,1,Object_Sea_Solid_Large,-1,,,,,,,,,,,
encoding,attention,31.94789499999024,34.96607145899907,1,1,Object_Sea_Solid_Large,-1,-1,1,1.1011984589276835,,,,,,,,
encoding,fixation,34.966236499953084,35.97176833404228,2,1,Animal_Land_Solid_Small,-5,,,,,,,,,,,
encoding,image,35.97189212497324,36.9832460420439,2,1,Animal_Land_Solid_Small,-5,,,,,,,,,,,
encoding,value,36.98335637501441,42.99483245902229,2,1,Animal_Land_Solid_Small,-5,,,,,,,,,,,
encoding,attention,42.994935041991994,46.01231749996077,2,1,Animal_Land_Solid_Small,-5,-5,1,0.9719480000203475,,,,,,,,
encoding,fixation,46.012480166973546,46.51755166705698,3,1,Object_Sea_Pattern_Large,-3,,,,,,,,,,,
encoding,image,46.517652875045314,47.528165417024866,3,1,Object_Sea_Pattern_Large,-3,,,,,,,,,,,
encoding,value,47.52829395898152,53.54110308398958,3,1,Object_Sea_Pattern_Large,-3,,,,,,,,,,,
encoding,attention,53.54122112505138,56.560155750019476,3,1,Object_Sea_Pattern_Large,-3,-3,1,1.12749291700311,,,,,,,,
encoding,fixation,56.56030291703064,57.565534292021766,4,1,Animal_Sea_Pattern_Small,5,,,,,,,,,,,
encoding,image,57.56573579204269,58.576918666949496,4,1,Animal_Sea_Pattern_Small,5,,,,,,,,,,,
encoding,value,58.5770388339879,64.58961716701742,4,1,Animal_Sea_Pattern_Small,5,,,,,,,,,,,
encoding,attention,64.58981191704515,67.60993841697928,4,1,Animal_Sea_Pattern_Small,5,+5,1,0.9659779169596732,,,,,,,,
encoding,fixation,67.61010187503416,68.365475708968,5,1,Animal_Land_Pattern_Large,1,,,,,,,,,,,
encoding,image,68.36558358394541,69.37646429205779,5,1,Animal_Land_Pattern_Large,1,,,,,,,,,,,
encoding,value,69.37658045894932,75.38831983401906,5,1,Animal_Land_Pattern_Large,1,,,,,,,,,,,
encoding,attention,75.38844054203946,78.4406238750089,5,1,Animal_Land_Pattern_Large,1,+1,1,0.8057126669446006,,,,,,,,
encoding,fixation,78.4407760000322,79.94597074994817,6,1,Object_Land_Solid_Small,3,,,,,,,,,,,
encoding,image,79.94610291696154,80.95712662499864,6,1,Object_Land_Solid_Small,3,,,,,,,,,,,
encoding,value,80.95724195905495,86.96856537496205,6,1,Object_Land_Solid_Small,3,,,,,,,,,,,
encoding,attention,86.96869108395185,89.98550220904872,6,1,Object_Land_Solid_Small,3,+3,1,1.1585360409226269,,,,,,,,
n-back,,,,1,1,,,,1,None,Z,False,None,,,,,
n-back,,,,2,1,,,,1,None,X,False,None,,,,,
n-back,,,,3,1,,,,1,None,B,False,None,,,,,
n-back,,,,4,1,,,,0,0.7319414999801666,V,False,1,,,,,
n-back,,,,5,1,,,,0,None,B,True,None,,,,,
n-back,,,,6,1,,,,1,0.7782284580171108,V,True,1,,,,,
n-back,,,,7,1,,,,1,None,C,False,None,,,,,
n-back,,,,8,1,,,,1,None,N,False,None,,,,,
n-back,,,,9,1,,,,1,None,B,False,None,,,,,
n-back,,,,10,1,,,,1,1.246989291976206,N,True,1,,,,,
n-back,,,,11,1,,,,1,None,C,False,None,,,,,
n-back,,,,12,1,,,,1,None,V,False,None,,,,,
n-back,,,,13,1,,,,1,None,B,False,None,,,,,
n-back,,,,14,1,,,,1,0.7273711250163615,V,True,1,,,,,
n-back,,,,15,1,,,,1,None,C,False,None,,,,,
n-back,,,,16,1,,,,1,None,X,False,None,,,,,
n-back,,,,17,1,,,,1,None,X,False,None,,,,,
n-back,,,,18,1,,,,1,0.6826893329853192,X,True,1,,,,,
n-back,,,,19,1,,,,1,None,V,False,None,,,,,
n-back,,,,20,1,,,,0,None,X,True,None,,,,,
n-back,,,,21,1,,,,1,None,N,False,None,,,,,
n-back,,,,22,1,,,,1,None,N,False,None,,,,,
n-back,,,,23,1,,,,1,None,B,False,None,,,,,
n-back,,,,24,1,,,,1,0.6011634999886155,N,True,1,,,,,
n-back,,,,25,1,,,,1,None,N,False,None,,,,,
n-back,,,,26,1,,,,1,0.7169764999998733,N,True,1,,,,,
n-back,,,,27,1,,,,0,None,N,True,None,,,,,
n-back,,,,28,1,,,,0,None,N,True,None,,,,,
n-back,,,,29,1,,,,1,None,V,False,None,,,,,
n-back,,,,30,1,,,,1,None,V,False,None,,,,,
choice,fixation,185.11409112496767,185.873383459053,1,1,,,,,,,,,Large,,,,
choice,option,185.88251499994658,186.98924558400176,1,1,,,,,,,,,Large,,,,
choice,choice,186.98937650001608,195.18425820895936,1,1,,,2,1,7.184989625005983,,,,Large,,,,
choice,fixation,195.18439158401452,196.43960437504575,2,1,,,,,,,,,Small,,,,
choice,option,196.44908754201606,197.47697208402678,2,1,,,,,,,,,Small,,,,
choice,choice,197.4770910840016,201.55165720905643,2,1,,,1,1,3.065139290993102,,,,Small,,,,
choice,fixation,201.55180845898576,202.05684791703243,3,1,,,,,,,,,Sea,,,,
choice,option,202.06497554201633,203.09200816694647,3,1,,,,,,,,,Sea,,,,
choice,choice,203.09220245899633,218.400218334049,3,1,,,1,1,14.29742104106117,,,,Sea,,,,
choice,fixation,218.40035970904864,218.9067200840218,4,1,,,,,,,,,Land,,,,
choice,option,218.9154112089891,219.9433668339625,4,1,,,,,,,,,Land,,,,
choice,choice,219.94349824998062,229.03290183399804,4,1,,,1,0,8.078870333964005,,,,Land,,,,
choice,fixation,229.03310949995648,230.03818625002168,5,1,,,,,,,,,Animal,,,,
choice,option,230.04738241701853,231.07518433395308,5,1,,,,,,,,,Animal,,,,
choice,choice,231.07530129200313,235.8885216669878,5,1,,,2,0,3.8034982919925824,,,,Animal,,,,
choice,fixation,235.8886977089569,237.1438761249883,6,1,,,,,,,,,Solid,,,,
choice,option,237.15333550004289,238.1799609590089,6,1,,,,,,,,,Solid,,,,
choice,choice,238.1800720000174,251.91340520896483,6,1,,,2,1,12.722395790973678,,,,Solid,,,,
choice,fixation,251.91354029194918,253.16854583402164,7,1,,,,,,,,,Object,,,,
choice,option,253.17814033397008,254.20616495900322,7,1,,,,,,,,,Object,,,,
choice,choice,254.20629641704727,257.16648508398794,7,1,,,2,1,1.9508719580480829,,,,Object,,,,
choice,fixation,257.16661624994595,258.4215245000087,8,1,,,,,,,,,Pattern,,,,
choice,option,258.4309498750372,259.4583439589478,8,1,,,,,,,,,Pattern,,,,
choice,choice,259.45844662503805,267.91098904202227,8,1,,,1,1,7.442949291085824,,,,Pattern,,,,
memory,free_recall,324.03584366699215,368.34495212498587,0,1,,,,,,,,,,,,,
memory,value_recall,413.305470625055,424.2112756250426,1,1,Object_Sea_Pattern_Large,,,,10.901532542076893,,,,,-3,,,
memory,value_recall,425.7597897920059,429.6219771669712,2,1,Animal_Sea_Pattern_Small,,,,3.858077749959193,,,,,5,,,
memory,value_recall,431.17013116704766,438.5628770419862,3,1,Object_Land_Solid_Small,,,,7.38816212490201,,,,,3,,,
memory,value_recall,439.6098405419616,441.64952708396595,4,1,Animal_Land_Pattern_Large,,,,2.0360782920615748,,,,,1,,,
memory,value_recall,443.6965178749524,447.0048392920289,5,1,Animal_Land_Solid_Small,,,,3.3041968749603257,,,,,-5,,,
memory,value_recall,449.05116875004023,451.75729866698384,6,1,Object_Sea_Solid_Large,,,,2.7018534999806434,,,,,-1,,,
memory,spatial_recall,477.1850145000499,489.3981886249967,6,1,Animal_Sea_Pattern_Small,,,1,12.208849666989408,,,,,,"[329, -190]","[329, -190]",
memory,spatial_recall,491.2120760839898,496.46069337497465,6,1,Animal_Land_Pattern_Large,,,1,5.244269082904793,,,,,,"[-329, -190]","[-329, -190]",
memory,spatial_recall,498.51604812499136,501.7443831670098,6,1,Animal_Land_Solid_Small,,,1,3.2238277909345925,,,,,,"[0, 380]","[0, 380]",
memory,spatial_recall,503.30084016697947,507.9111431669444,6,1,Object_Sea_Solid_Large,,,1,4.606242333073169,,,,,,"[0, -380]","[0, -380]",
memory,spatial_recall,508.96713870903477,512.480572917033,6,1,Object_Sea_Pattern_Large,,,1,3.511019124998711,,,,,,"[329, 189]","[329, 189]",
memory,spatial_recall,513.7945783749456,516.7453302090289,6,1,Object_Land_Solid_Small,,,1,2.9462467919802293,,,,,,"[-329, 190]","[-329, 190]",
encoding,fixation,37.21676283306442,37.97304979106411,7,2,Object_Sea_Pattern_Small,-2,,,,,,,,,,,
encoding,image,37.973166208015755,38.983980374992825,7,2,Object_Sea_Pattern_Small,-2,,,,,,,,,,,
encoding,value,38.98410141596105,44.996593666030094,7,2,Object_Sea_Pattern_Small,-2,,,,,,,,,,,
encoding,attention,44.99671158299316,48.01580987498164,7,2,Object_Sea_Pattern_Small,-2,-2,1,1.1827327500795946,,,,,,,,
encoding,fixation,48.015986416023225,49.021205125027336,8,2,Object_Sea_Solid_Small,-1,,,,,,,,,,,
encoding,image,49.02132249996066,50.0325806660112,8,2,Object_Sea_Solid_Small,-1,,,,,,,,,,,
encoding,value,50.032693375018425,56.04456449998543,8,2,Object_Sea_Solid_Small,-1,,,,,,,,,,,
encoding,attention,56.04469066602178,59.06317120802123,8,2,Object_Sea_Solid_Small,-1,-1,1,2.5452437080675736,,,,,,,,
encoding,fixation,59.06334087497089,59.56734625005629,9,2,Object_Land_Solid_Large,6,,,,,,,,,,,
encoding,image,59.567450750037096,60.577506166067906,9,2,Object_Land_Solid_Large,6,,,,,,,,,,,
encoding,value,60.57762554101646,66.58805829100311,9,2,Object_Land_Solid_Large,6,,,,,,,,,,,
encoding,attention,66.58817508304492,69.59924695803784,9,2,Object_Land_Solid_Large,6,None,None,None,,,,,,,,
encoding,fixation,69.59955104102846,70.35478100006003,10,2,Animal_Land_Solid_Large,-9,,,,,,,,,,,
encoding,image,70.35490091599058,71.36563424998894,10,2,Animal_Land_Solid_Large,-9,,,,,,,,,,,
encoding,value,71.36576366599184,77.37845433305483,10,2,Animal_Land_Solid_Large,-9,,,,,,,,,,,
encoding,attention,77.37857337505557,80.39535529096611,10,2,Animal_Land_Solid_Large,-9,-9,1,0.7073100410634652,,,,,,,,
encoding,fixation,80.39551525004208,81.90082016598899,11,2,Animal_Land_Pattern_Small,6,,,,,,,,,,,
encoding,image,81.90094416600186,82.91149708302692,11,2,Animal_Land_Pattern_Small,6,,,,,,,,,,,
encoding,value,82.91163070802577,88.92388166603632,11,2,Animal_Land_Pattern_Small,6,,,,,,,,,,,
encoding,attention,88.9239984160522,91.94162216596305,11,2,Animal_Land_Pattern_Small,6,+6,1,1.7129750419408083,,,,,,,,
encoding,fixation,91.9417774999747,92.44681324996054,12,2,Animal_Sea_Pattern_Large,9,,,,,,,,,,,
encoding,image,92.44692366605159,93.45740720804315,12,2,Animal_Sea_Pattern_Large,9,,,,,,,,,,,
encoding,value,93.45751491596457,99.46789666602854,12,2,Animal_Sea_Pattern_Large,9,,,,,,,,,,,
encoding,attention,99.46801199996844,102.48445537500083,12,2,Animal_Sea_Pattern_Large,9,+9,1,1.2814986249431968,,,,,,,,
n-back,,,,31,2,,,,0,None,N,True,None,,,,,
n-back,,,,32,2,,,,1,None,X,False,None,,,,,
n-back,,,,33,2,,,,1,None,X,False,None,,,,,
n-back,,,,34,2,,,,1,None,V,False,None,,,,,
n-back,,,,35,2,,,,1,0.9911039168946445,X,True,1,,,,,
n-back,,,,36,2,,,,1,None,C,False,None,,,,,
n-back,,,,37,2,,,,1,None,Z,False,None,,,,,
n-back,,,,38,2,,,,1,None,N,False,None,,,,,
n-back,,,,39,2,,,,0,None,Z,True,None,,,,,
n-back,,,,40,2,,,,1,None,X,False,None,,,,,
n-back,,,,41,2,,,,0,None,Z,True,None,,,,,
n-back,,,,42,2,,,,1,None,V,False,None,,,,,
n-back,,,,43,2,,,,1,None,V,False,None,,,,,
n-back,,,,44,2,,,,1,0.44652187498286366,V,True,1,,,,,
n-back,,,,45,2,,,,1,None,B,False,None,,,,,
n-back,,,,46,2,,,,1,0.4265711250482127,V,True,1,,,,,
n-back,,,,47,2,,,,1,None,V,False,None,,,,,
n-back,,,,48,2,,,,1,None,B,False,None,,,,,
n-back,,,,49,2,,,,1,0.7407683749916032,V,True,1,,,,,
n-back,,,,50,2,,,,1,0.9733240000205114,B,True,1,,,,,
n-back,,,,51,2,,,,1,None,Z,False,None,,,,,
n-back,,,,52,2,,,,1,None,N,False,None,,,,,
n-back,,,,53,2,,,,1,None,B,False,None,,,,,
n-back,,,,54,2,,,,1,0.7730335419764742,N,True,1,,,,,
n-back,,,,55,2,,,,1,None,Z,False,None,,,,,
n-back,,,,56,2,,,,1,0.3866073749959469,N,True,1,,,,,
n-back,,,,57,2,,,,1,None,N,False,None,,,,,
n-back,,,,58,2,,,,1,None,Z,False,None,,,,,
n-back,,,,59,2,,,,1,None,V,False,None,,,,,
n-back,,,,60,2,,,,1,None,C,False,None,,,,,
choice,fixation,180.54816587502137,182.051400416065,9,2,,,,,,,,,Object,,,,
choice,option,182.06024320796132,183.088879790972,9,2,,,,,,,,,Object,,,,
choice,choice,183.08900683303364,188.38522183301393,9,2,,,2,0,4.2851203749887645,,,,Object,,,,
choice,fixation,188.38535487500485,189.8902155830292,10,2,,,,,,,,,Small,,,,
choice,option,189.89920216600876,190.92844995798077,10,2,,,,,,,,,Small,,,,
choice,choice,190.92859212507028,195.86483924998902,10,2,,,2,0,3.9265500410692766,,,,Small,,,,
choice,fixation,195.86496583302505,196.8699169580359,11,2,,,,,,,,,Large,,,,
choice,option,196.8783618749585,197.9053426659666,11,2,,,,,,,,,Large,,,,
choice,choice,197.9054637500085,200.2465025410056,11,2,,,1,1,1.3306050410028547,,,,Large,,,,
choice,fixation,200.24664041597862,200.7516305410536,12,2,,,,,,,,,Land,,,,
choice,option,200.76092245802283,201.78708487504628,12,2,,,,,,,,,Land,,,,
choice,choice,201.78718554100487,206.92509595805313,12,2,,,1,1,4.126011374988593,,,,Land,,,,
choice,fixation,206.92522841598839,208.4292717910139,13,2,,,,,,,,,Animal,,,,
choice,option,208.43882154102903,209.4673998330254,13,2,,,,,,,,,Animal,,,,
choice,choice,209.46752333303448,211.8688586250646,13,2,,,2,0,1.3916323330486193,,,,Animal,,,,
choice,fixation,211.86899175005965,213.3739905830007,14,2,,,,,,,,,Solid,,,,
choice,option,213.38336587499361,214.4111435409868,14,2,,,,,,,,,Solid,,,,
choice,choice,214.41124766599387,226.19050729100127,14,2,,,2,1,10.768247750005685,,,,Solid,,,,
choice,fixation,226.19070725003257,227.69591262505855,15,2,,,,,,,,,Sea,,,,
choice,option,227.7040662909858,228.7303759159986,15,2,,,,,,,,,Sea,,,,
choice,choice,228.7304803750012,230.04868466604967,15,2,,,1,1,0.3089468749240041,,,,Sea,,,,
choice,fixation,230.04881966602989,230.55366445798427,16,2,,,,,,,,,Pattern,,,,
choice,option,230.5639174580574,231.59029633307364,16,2,,,,,,,,,Pattern,,,,
choice,choice,231.59041370800696,247.80783225002233,16,2,,,1,1,15.20643875002861,,,,Pattern,,,,
memory,free_recall,273.57851308304816,317.84717970807105,6,2,,,,,,,,,,,,,
memory,value_recall,349.60961675003637,358.25832604104653,7,2,Object_Land_Solid_Large,,,,8.646112166927196,,,,,6,,,
memory,value_recall,360.3044976249803,366.24958562501706,8,2,Animal_Land_Solid_Large,,,,5.939222290995531,,,,,-9,,,
memory,value_recall,368.0461325000506,371.01662758307066,9,2,Animal_Land_Pattern_Small,,,,2.9663216669578105,,,,,6,,,
memory,value_recall,373.06438629096374,375.9773954160046,10,2,Object_Sea_Solid_Small,,,,2.908895874978043,,,,,-1,,,
memory,value_recall,377.77399754105136,380.3685055000242,11,2,Animal_Sea_Pattern_Large,,,,2.590434334008023,,,,,9,,,
memory,value_recall,381.4146605830174,383.8335260830354,12,2,Object_Sea_Pattern_Small,,,,2.415629207971506,,,,,-2,,,
memory,spatial_recall,402.1314647910185,406.3970224580262,12,2,Object_Sea_Solid_Small,,,0,4.261586833978072,,,,,,"[0, 380]","[-329, 190]",
memory,spatial_recall,407.70595462503843,410.07044641603716,12,2,Object_Sea_Pattern_Small,,,1,2.3605407089926302,,,,,,"[-329, 190]","[-329, 190]",
memory,spatial_recall,411.8817823330173,413.83662154106423,12,2,Object_Land_Solid_Large,,,1,1.9508839169284329,,,,,,"[329, -190]","[329, -190]",
memory,spatial_recall,415.39923258300405,418.1672942909645,12,2,Animal_Land_Pattern_Small,,,1,2.7641171250725165,,,,,,"[-329, -190]","[-329, -190]",
memory,spatial_recall,419.4766077080276,420.82224504102487,12,2,Animal_Land_Solid_Large,,,1,1.3416549999965355,,,,,,"[0, -380]","[0, -380]",
memory,spatial_recall,422.3801222910406,423.7803752500331,12,2,Animal_Sea_Pattern_Large,,,1,1.396298542036675,,,,,,"[329, 189]","[329, 189]",
encoding,fixation,18.11762820801232,19.124175249948166,13,3,Animal_Sea_Solid_Large,1,,,,,,,,,,,
encoding,image,19.124296583002433,20.13566179096233,13,3,Animal_Sea_Solid_Large,1,,,,,,,,,,,
encoding,value,20.13577983295545,26.14875612501055,13,3,Animal_Sea_Solid_Large,1,,,,,,,,,,,
encoding,attention,26.148882708046585,29.1709925000323,13,3,Animal_Sea_Solid_Large,1,+1,1,0.8931100839981809,,,,,,,,
encoding,fixation,29.171158874989487,30.176584832952358,14,3,Object_Sea_Solid_Small,-9,,,,,,,,,,,
encoding,image,30.176696665934287,31.185964082949795,14,3,Object_Sea_Solid_Small,-9,,,,,,,,,,,
encoding,value,31.186096915975213,37.197315874975175,14,3,Object_Sea_Solid_Small,-9,,,,,,,,,,,
encoding,attention,37.197464374941774,40.2142396250274,14,3,Object_Sea_Solid_Small,-9,-9,1,1.725033084047027,,,,,,,,
encoding,fixation,40.214387833024375,40.96941825002432,15,3,Object_Land_Solid_Small,9,,,,,,,,,,,
encoding,image,40.969597707968205,41.98065491602756,15,3,Object_Land_Solid_Small,9,,,,,,,,,,,
encoding,value,41.9808542910032,47.99213037500158,15,3,Object_Land_Solid_Small,9,,,,,,,,,,,
encoding,attention,47.99224920803681,51.00954654102679,15,3,Object_Land_Solid_Small,9,+9,1,1.7571870420360938,,,,,,,,
encoding,fixation,51.009700958034955,52.265001374995336,16,3,Animal_Sea_Pattern_Large,4,,,,,,,,,,,
encoding,image,52.265115250018425,53.27472854102962,16,3,Animal_Sea_Pattern_Large,4,,,,,,,,,,,
encoding,value,53.27488375001121,59.287091374979354,16,3,Animal_Sea_Pattern_Large,4,,,,,,,,,,,
encoding,attention,59.287219999940135,62.29859324998688,16,3,Animal_Sea_Pattern_Large,4,None,None,None,,,,,,,,
encoding,fixation,62.298720916034654,63.55387004103977,17,3,Animal_Land_Pattern_Large,-9,,,,,,,,,,,
encoding,image,63.55398395797238,64.56554058298934,17,3,Animal_Land_Pattern_Large,-9,,,,,,,,,,,
encoding,value,64.56566608301364,70.58051016600803,17,3,Animal_Land_Pattern_Large,-9,,,,,,,,,,,
encoding,attention,70.5806399580324,73.60110454098321,17,3,Animal_Land_Pattern_Large,-9,-9,1,2.2579219579929486,,,,,,,,
encoding,fixation,73.60131262498908,74.85658020793926,18,3,Object_Land_Pattern_Small,-7,,,,,,,,,,,
encoding,image,74.85668562503997,75.86819420801476,18,3,Object_Land_Pattern_Small,-7,,,,,,,,,,,
encoding,value,75.86842508299742,81.88061029103119,18,3,Object_Land_Pattern_Small,-7,,,,,,,,,,,
encoding,attention,81.88074362499174,84.90059379104059,18,3,Object_Land_Pattern_Small,-7,-7,1,1.5417024169582874,,,,,,,,
n-back,,,,61,3,,,,0,None,C,True,None,,,,,
n-back,,,,62,3,,,,1,None,B,False,None,,,,,
n-back,,,,63,3,,,,1,None,V,False,None,,,,,
n-back,,,,64,3,,,,1,None,C,False,None,,,,,
n-back,,,,65,3,,,,1,None,C,False,None,,,,,
n-back,,,,66,3,,,,1,0.6412924160249531,C,True,1,,,,,
n-back,,,,67,3,,,,1,None,N,False,None,,,,,
n-back,,,,68,3,,,,1,None,B,False,None,,,,,
n-back,,,,69,3,,,,1,None,C,False,None,,,,,
n-back,,,,70,3,,,,1,None,Z,False,None,,,,,
n-back,,,,71,3,,,,1,0.5849747089669108,C,True,1,,,,,
n-back,,,,72,3,,,,1,None,B,False,None,,,,,
n-back,,,,73,3,,,,0,None,C,True,None,,,,,
n-back,,,,74,3,,,,1,0.5247055839281529,B,True,1,,,,,
n-back,,,,75,3,,,,1,None,N,False,None,,,,,
n-back,,,,76,3,,,,1,None,Z,False,None,,,,,
n-back,,,,77,3,,,,1,None,Z,False,None,,,,,
n-back,,,,78,3,,,,1,None,C,False,None,,,,,
n-back,,,,79,3,,,,1,0.8499850000953302,Z,True,1,,,,,
n-back,,,,80,3,,,,1,None,X,False,None,,,,,
n-back,,,,81,3,,,,1,None,X,False,None,,,,,
n-back,,,,82,3,,,,1,None,V,False,None,,,,,
n-back,,,,83,3,,,,1,0.5195402920944616,X,True,1,,,,,
n-back,,,,84,3,,,,0,None,V,True,None,,,,,
n-back,,,,85,3,,,,1,None,V,False,None,,,,,
n-back,,,,86,3,,,,1,None,N,False,None,,,,,
n-back,,,,87,3,,,,1,0.6189327919855714,V,True,1,,,,,
n-back,,,,88,3,,,,1,None,B,False,None,,,,,
n-back,,,,89,3,,,,1,1.0424647920299321,V,True,1,,,,,
n-back,,,,90,3,,,,1,None,N,False,None,,,,,
choice,fixation,161.37748733302578,162.38117145793512,17,3,,,,,,,,,Object,,,,
choice,option,162.38994562497828,163.41741204098798,17,3,,,,,,,,,Object,,,,
choice,choice,163.4175307910191,167.10095395799726,17,3,,,2,1,2.6728482090402395,,,,Object,,,,
choice,fixation,167.10113020800054,167.85639824997634,18,3,,,,,,,,,Sea,,,,
choice,option,167.86470629100222,168.89182395802345,18,3,,,,,,,,,Sea,,,,
choice,choice,168.89193129097112,170.0675180410035,18,3,,,2,1,0.16600304108578712,,,,Sea,,,,
choice,fixation,170.0676440410316,170.82271895802114,19,3,,,,,,,,,Animal,,,,
choice,option,170.83250591601245,171.86217254097573,19,3,,,,,,,,,Animal,,,,
choice,choice,171.86229683295824,176.17979441594798,19,3,,,2,1,3.3058002500329167,,,,Animal,,,,
choice,fixation,176.1799334579846,177.18504579097498,20,3,,,,,,,,,Small,,,,
choice,option,177.19416254095268,178.22095324995462,20,3,,,,,,,,,Small,,,,
choice,choice,178.2210990829626,180.76506995793898,20,3,,,1,0,1.5340486660134047,,,,Small,,,,
choice,fixation,180.76519954099786,182.26953908300493,21,3,,,,,,,,,Land,,,,
choice,option,182.278316208045,183.30526312498841,21,3,,,,,,,,,Land,,,,
choice,choice,183.30537758301944,187.57163749996107,21,3,,,1,0,3.256572625017725,,,,Land,,,,
choice,fixation,187.5717897079885,189.079952375032,22,3,,,,,,,,,Large,,,,
choice,option,189.08838308299892,190.11523283296265,22,3,,,,,,,,,Large,,,,
choice,choice,190.1153572499752,193.4129420829704,22,3,,,2,1,2.286362042068504,,,,Large,,,,
choice,fixation,193.41307524999138,194.16829833295196,23,3,,,,,,,,,Pattern,,,,
choice,option,194.1776905830484,195.20396183303092,23,3,,,,,,,,,Pattern,,,,
choice,choice,195.20412012503948,204.92254670802504,23,3,,,2,1,8.707925750059076,,,,Pattern,,,,
choice,fixation,204.92267391597852,205.4292422910221,24,3,,,,,,,,,Solid,,,,
choice,option,205.4389832080342,206.46598037495278,24,3,,,,,,,,,Solid,,,,
choice,choice,206.4660987079842,211.48999187501613,24,3,,,2,0,4.014337333035655,,,,Solid,,,,
memory,free_recall,239.51757320796605,268.4854815410217,12,3,,,,,,,,,,,,,
memory,value_recall,325.213637916022,330.2692673749989,13,3,Object_Sea_Solid_Small,,,,5.051405334030278,,,,,-9,,,
memory,value_recall,331.565612541046,337.6866465000203,14,3,Animal_Sea_Solid_Large,,,,6.116560416994616,,,,,1,,,
memory,value_recall,339.4822690410074,341.6140079579782,15,3,Object_Land_Solid_Small,,,,2.127783791976981,,,,,9,,,
memory,value_recall,342.6601873750333,350.29631795804016,16,3,Animal_Land_Pattern_Large,,,,7.632823333027773,,,,,-9,,,
memory,value_recall,351.34201716596726,354.1732030409621,17,3,Animal_Sea_Pattern_Large,,,,2.827857290976681,,,,,4,,,
memory,value_recall,355.47054291598033,357.80691599997226,18,3,Object_Land_Pattern_Small,,,,2.332255833898671,,,,,-7,,,
memory,spatial_recall,373.2609208750073,376.5552522499347,18,3,Object_Land_Pattern_Small,,,1,3.2917541669448838,,,,,,"[329, -190]","[329, -190]",
memory,spatial_recall,377.6222937910352,382.86728749994654,18,3,Animal_Sea_Solid_Large,,,1,5.240964125026949,,,,,,"[0, -380]","[0, -380]",
memory,spatial_recall,384.17486754094716,386.8845580830239,18,3,Animal_Land_Pattern_Large,,,1,2.7057252089725807,,,,,,"[-329, -190]","[-329, -190]",
memory,spatial_recall,388.44429470796604,391.15196737495717,18,3,Object_Land_Solid_Small,,,1,2.7036966669838876,,,,,,"[-329, 190]","[-329, 190]",
memory,spatial_recall,392.2071151250275,399.6981111250352,18,3,Animal_Sea_Pattern_Large,,,1,7.488581915968098,,,,,,"[329, 189]","[329, 189]",
memory,spatial_recall,400.74871866602916,402.92207395797595,18,3,Object_Sea_Solid_Small,,,1,2.170978624955751,,,,,,"[0, 380]","[0, 380]",
encoding,fixation,20.777692166971974,21.283629167010076,19,4,Object_Land_Solid_Small,4,,,,,,,,,,,
encoding,image,21.28374350001104,22.2958449999569,19,4,Object_Land_Solid_Small,4,,,,,,,,,,,
encoding,value,22.29596816690173,28.309165499988012,19,4,Object_Land_Solid_Small,4,,,,,,,,,,,
encoding,attention,28.30930320895277,31.329116042004898,19,4,Object_Land_Solid_Small,4,+4,1,1.4215834169881418,,,,,,,,
encoding,fixation,31.32928424992133,32.08496137498878,20,4,Object_Sea_Solid_Large,1,,,,,,,,,,,
encoding,image,32.08506554190535,33.09686512500048,20,4,Object_Sea_Solid_Large,1,,,,,,,,,,,
encoding,value,33.096993499901146,39.10965324996505,20,4,Object_Sea_Solid_Large,1,,,,,,,,,,,
encoding,attention,39.10976904199924,42.12831733399071,20,4,Object_Sea_Solid_Large,1,+1,1,1.064687208039686,,,,,,,,
encoding,fixation,42.12846629193518,43.133639208972454,21,4,Animal_Sea_Pattern_Small,5,,,,,,,,,,,
encoding,image,43.133746666950174,44.144692834001034,21,4,Animal_Sea_Pattern_Small,5,,,,,,,,,,,
encoding,value,44.14492670900654,50.15738591691479,21,4,Animal_Sea_Pattern_Small,5,,,,,,,,,,,
encoding,attention,50.157504958915524,53.177653083927,21,4,Animal_Sea_Pattern_Small,5,+5,1,1.0155488749733195,,,,,,,,
encoding,fixation,53.17780395899899,54.682829708908685,22,4,Animal_Land_Pattern_Large,5,,,,,,,,,,,
encoding,image,54.68295395898167,55.69432712497655,22,4,Animal_Land_Pattern_Large,5,,,,,,,,,,,
encoding,value,55.694440083927475,61.707157749915496,22,4,Animal_Land_Pattern_Large,5,,,,,,,,,,,
encoding,attention,61.70730387500953,64.72437637497205,22,4,Animal_Land_Pattern_Large,5,+5,1,1.1453326670452952,,,,,,,,
encoding,fixation,64.72452799999155,65.47952374990564,23,4,Animal_Sea_Solid_Small,-8,,,,,,,,,,,
encoding,image,65.47963566693943,66.49025866691954,23,4,Animal_Sea_Solid_Small,-8,,,,,,,,,,,
encoding,value,66.49037395894993,72.502325791982,23,4,Animal_Sea_Solid_Small,-8,,,,,,,,,,,
encoding,attention,72.50245158397593,75.51981849991716,23,4,Animal_Sea_Solid_Small,-8,-8,1,1.663933709030971,,,,,,,,
encoding,fixation,75.52003299992066,76.52502770896535,24,4,Object_Land_Pattern_Large,-7,,,,,,,,,,,
encoding,image,76.52520266699139,77.53688966692425,24,4,Object_Land_Pattern_Large,-7,,,,,,,,,,,
encoding,value,77.53701474994887,83.54929141700268,24,4,Object_Land_Pattern_Large,-7,,,,,,,,,,,
encoding,attention,83.54942733398639,86.56715766701382,24,4,Object_Land_Pattern_Large,-7,-7,1,2.679180625011213,,,,,,,,
n-back,,,,91,4,,,,1,None,B,False,None,,,,,
n-back,,,,92,4,,,,1,None,B,False,None,,,,,
n-back,,,,93,4,,,,1,None,X,False,None,,,,,
n-back,,,,94,4,,,,1,0.6401642919518054,B,True,1,,,,,
n-back,,,,95,4,,,,1,0.8753457909915596,X,True,1,,,,,
n-back,,,,96,4,,,,1,None,X,False,None,,,,,
n-back,,,,97,4,,,,1,0.5318925840547308,X,True,1,,,,,
n-back,,,,98,4,,,,1,None,B,False,None,,,,,
n-back,,,,99,4,,,,1,None,V,False,None,,,,,
n-back,,,,100,4,,,,1,None,C,False,None,,,,,
n-back,,,,101,4,,,,1,None,C,False,None,,,,,
n-back,,,,102,4,,,,1,None,N,False,None,,,,,
n-back,,,,103,4,,,,1,0.43214220902882516,C,True,1,,,,,
n-back,,,,104,4,,,,1,None,B,False,None,,,,,
n-back,,,,105,4,,,,1,0.4989498750073835,C,True,1,,,,,
n-back,,,,106,4,,,,1,None,X,False,None,,,,,
n-back,,,,107,4,,,,1,None,V,False,None,,,,,
n-back,,,,108,4,,,,1,None,N,False,None,,,,,
n-back,,,,109,4,,,,1,0.38423879200126976,V,True,1,,,,,
n-back,,,,110,4,,,,1,None,B,False,None,,,,,
n-back,,,,111,4,,,,1,1.0423565419623628,V,True,1,,,,,
n-back,,,,112,4,,,,1,None,N,False,None,,,,,
n-back,,,,113,4,,,,1,1.0061061669839546,V,True,1,,,,,
n-back,,,,114,4,,,,0,None,N,True,None,,,,,
n-back,,,,115,4,,,,1,None,N,False,None,,,,,
n-back,,,,116,4,,,,1,0.40213716705329716,N,True,1,,,,,
n-back,,,,117,4,,,,1,None,C,False,None,,,,,
n-back,,,,118,4,,,,1,None,X,False,None,,,,,
n-back,,,,119,4,,,,1,None,N,False,None,,,,,
n-back,,,,120,4,,,,1,None,C,False,None,,,,,
choice,fixation,160.7350214169128,161.48949945892673,25,4,,,,,,,,,Large,,,,
choice,option,161.49756933399476,162.52415879198816,25,4,,,,,,,,,Large,,,,
choice,choice,162.5242774169892,167.06419804191682,25,4,,,2,1,3.5301697910763323,,,,Large,,,,
choice,fixation,167.0643244589446,167.5696645840071,26,4,,,,,,,,,Object,,,,
choice,option,167.5798065419076,168.60792008391581,26,4,,,,,,,,,Object,,,,
choice,choice,168.60806174995378,172.32864745892584,26,4,,,1,0,2.7104084589518607,,,,Object,,,,
choice,fixation,172.3287714169128,173.83392579189967,27,4,,,,,,,,,Small,,,,
choice,option,173.84308208397124,174.87077079201117,27,4,,,,,,,,,Small,,,,
choice,choice,174.87088962493,180.02520683396142,27,4,,,1,1,4.1409542500041425,,,,Small,,,,
choice,fixation,180.02534487494268,181.2803092089016,28,4,,,,,,,,,Pattern,,,,
choice,option,181.28929812496062,182.3156165839173,28,4,,,,,,,,,Pattern,,,,
choice,choice,182.3157935839845,183.34138174995314,28,4,,,2,0,0.01793349999934435,,,,Pattern,,,,
choice,fixation,183.3415088749025,184.34499587491155,29,4,,,,,,,,,Animal,,,,
choice,option,184.35467324999627,185.38154283398762,29,4,,,,,,,,,Animal,,,,
choice,choice,185.3817384999711,186.7347578749759,29,4,,,1,1,0.3434490420622751,,,,Animal,,,,
choice,fixation,186.73488445894327,187.24122966697905,30,4,,,,,,,,,Sea,,,,
choice,option,187.2497192089213,188.27624541695695,30,4,,,,,,,,,Sea,,,,
choice,choice,188.27635470894165,191.561063000001,30,4,,,1,0,2.275025915936567,,,,Sea,,,,
choice,fixation,191.5611877499614,192.56611612497363,31,4,,,,,,,,,Solid,,,,
choice,option,192.57584983401466,193.60271962499246,31,4,,,,,,,,,Solid,,,,
choice,choice,193.60283470898867,196.1021039589541,31,4,,,1,0,1.4896751249907538,,,,Solid,,,,
choice,fixation,196.10233249992598,196.85805579193402,32,4,,,,,,,,,Land,,,,
choice,option,196.8664235419128,197.89310245891102,32,4,,,,,,,,,Land,,,,
choice,choice,197.89323670894373,199.78358770895284,32,4,,,1,1,0.8805339999962598,,,,Land,,,,
memory,free_recall,221.24149337492418,242.76231820893008,18,4,,,,,,,,,,,,,
memory,value_recall,266.4912301249569,274.11458516691346,19,4,Object_Land_Pattern_Large,,,,7.6188305410323665,,,,,-7,,,
memory,value_recall,275.6595395419281,279.3924669169355,20,4,Animal_Land_Pattern_Large,,,,3.7284529999597,,,,,5,,,
memory,value_recall,280.4386477499502,283.33022912498564,21,4,Object_Land_Solid_Small,,,,2.889053334016353,,,,,4,,,
memory,value_recall,285.1268454999663,288.4166243749205,22,4,Object_Sea_Solid_Large,,,,3.285739541053772,,,,,1,,,
memory,value_recall,290.4650140419835,293.1301812919555,23,4,Animal_Sea_Solid_Small,,,,2.6612830000231043,,,,,-8,,,
memory,value_recall,294.9250675420044,298.0725976249669,24,4,Animal_Sea_Pattern_Small,,,,3.1434126659296453,,,,,5,,,
memory,spatial_recall,306.04240583395585,311.21297712496016,24,4,Object_Sea_Solid_Large,,,1,5.166579207987525,,,,,,"[0, -380]","[0, -380]",
memory,spatial_recall,313.27306779194623,318.7458444169024,24,4,Object_Land_Solid_Small,,,1,5.468791207997128,,,,,,"[-329, 190]","[-329, 190]",
memory,spatial_recall,320.8016412499128,323.27592445898335,24,4,Animal_Sea_Solid_Small,,,1,2.4699538750573993,,,,,,"[0, 380]","[0, 380]",
memory,spatial_recall,325.33123179199174,328.2960084999213,24,4,Animal_Land_Pattern_Large,,,1,2.9608765409793705,,,,,,"[-329, -190]","[-329, -190]",
memory,spatial_recall,329.60230916691944,332.0119657499017,24,4,Animal_Sea_Pattern_Small,,,1,2.4055386249674484,,,,,,"[329, -190]","[329, -190]",
memory,spatial_recall,333.3213250419358,335.0960622499697,24,4,Object_Land_Pattern_Large,,,1,1.7708519999869168,,,,,,"[329, 189]","[329, 189]",
encoding,fixation,24.581382417003624,25.587788583012298,25,5,Animal_Land_Solid_Large,7,,,,,,,,,,,
encoding,image,25.58793858299032,26.600823791930452,25,5,Animal_Land_Solid_Large,7,,,,,,,,,,,
encoding,value,26.600932791945525,32.614333332981914,25,5,Animal_Land_Solid_Large,7,,,,,,,,,,,
encoding,attention,32.61445187497884,35.63230995798949,25,5,Animal_Land_Solid_Large,7,+7,1,1.6111497089732438,,,,,,,,
encoding,fixation,35.63248133298475,36.137385249952786,26,5,Object_Sea_Pattern_Large,-4,,,,,,,,,,,
encoding,image,36.13753224990796,37.148666583001614,26,5,Object_Sea_Pattern_Large,-4,,,,,,,,,,,
encoding,value,37.14877254201565,43.161269292002544,26,5,Object_Sea_Pattern_Large,-4,,,,,,,,,,,
encoding,attention,43.1613962079864,46.17933970794547,26,5,Object_Sea_Pattern_Large,-4,-4,1,1.4552960409782827,,,,,,,,
encoding,fixation,46.179515582975,47.434607832925394,27,5,Object_Land_Solid_Large,-2,,,,,,,,,,,
encoding,image,47.43483299994841,48.4448479169514,27,5,Object_Land_Solid_Large,-2,,,,,,,,,,,
encoding,value,48.44496999995317,54.45628941699397,27,5,Object_Land_Solid_Large,-2,,,,,,,,,,,
encoding,attention,54.45646625000518,57.4734478329774,27,5,Object_Land_Solid_Large,-2,-2,1,2.064916417002678,,,,,,,,
encoding,fixation,57.473602166981436,58.97848345793318,28,5,Animal_Land_Pattern_Small,-3,,,,,,,,,,,
encoding,image,58.97859741700813,59.9899030829547,28,5,Animal_Land_Pattern_Small,-3,,,,,,,,,,,
encoding,value,59.99002104194369,66.00190174998716,28,5,Animal_Land_Pattern_Small,-3,,,,,,,,,,,
encoding,attention,66.00200658291578,69.01950724993367,28,5,Animal_Land_Pattern_Small,-3,-3,1,1.456858832971193,,,,,,,,
encoding,fixation,69.0197745419573,70.2748689999571,29,5,Object_Sea_Pattern_Small,5,,,,,,,,,,,
encoding,image,70.27499937498942,71.28641412500292,29,5,Object_Sea_Pattern_Small,5,,,,,,,,,,,
encoding,value,71.28655366692692,77.29799416696187,29,5,Object_Sea_Pattern_Small,5,,,,,,,,,,,
encoding,attention,77.29809737496544,80.31466433301102,29,5,Object_Sea_Pattern_Small,5,+5,1,1.6010438340017572,,,,,,,,
encoding,fixation,80.31482429197058,81.82012674992438,30,5,Animal_Sea_Solid_Small,-3,,,,,,,,,,,
encoding,image,81.82026104198303,82.83129379199818,30,5,Animal_Sea_Solid_Small,-3,,,,,,,,,,,
encoding,value,82.83144729200285,88.84354599996004,30,5,Animal_Sea_Solid_Small,-3,,,,,,,,,,,
encoding,attention,88.84366254194174,91.8590158749139,30,5,Animal_Sea_Solid_Small,-3,-3,1,2.9521073329960927,,,,,,,,
n-back,,,,121,5,,,,1,None,Z,False,None,,,,,
n-back,,,,122,5,,,,1,None,B,False,None,,,,,
n-back,,,,123,5,,,,1,0.5728670000098646,Z,True,1,,,,,
n-back,,,,124,5,,,,0,None,B,True,None,,,,,
n-back,,,,125,5,,,,1,None,N,False,None,,,,,
n-back,,,,126,5,,,,1,None,X,False,None,,,,,
n-back,,,,127,5,,,,1,None,C,False,None,,,,,
n-back,,,,128,5,,,,0,None,X,True,None,,,,,
n-back,,,,129,5,,,,1,None,V,False,None,,,,,
n-back,,,,130,5,,,,1,None,C,False,None,,,,,
n-back,,,,131,5,,,,1,0.3397475410019979,V,True,1,,,,,
n-back,,,,132,5,,,,1,None,X,False,None,,,,,
n-back,,,,133,5,,,,1,0.4880819160025567,V,True,1,,,,,
n-back,,,,134,5,,,,1,0.7957605420378968,X,True,1,,,,,
n-back,,,,135,5,,,,1,None,B,False,None,,,,,
n-back,,,,136,5,,,,1,0.3529412910575047,X,True,1,,,,,
n-back,,,,137,5,,,,1,None,C,False,None,,,,,
n-back,,,,138,5,,,,1,None,Z,False,None,,,,,
n-back,,,,139,5,,,,1,None,X,False,None,,,,,
n-back,,,,140,5,,,,1,None,X,False,None,,,,,
n-back,,,,141,5,,,,1,0.5682907089358196,X,True,1,,,,,
n-back,,,,142,5,,,,1,None,B,False,None,,,,,
n-back,,,,143,5,,,,1,None,N,False,None,,,,,
n-back,,,,144,5,,,,1,None,Z,False,None,,,,,
n-back,,,,145,5,,,,1,None,Z,False,None,,,,,
n-back,,,,146,5,,,,1,0.6263899999903515,Z,True,1,,,,,
n-back,,,,147,5,,,,1,None,X,False,None,,,,,
n-back,,,,148,5,,,,1,0.6748045419808477,Z,True,1,,,,,
n-back,,,,149,5,,,,1,None,Z,False,None,,,,,
n-back,,,,150,5,,,,1,None,N,False,None,,,,,
choice,fixation,167.42080841690768,168.67562512494624,33,5,,,,,,,,,Large,,,,
choice,option,168.68400620797183,169.71302108292002,33,5,,,,,,,,,Large,,,,
choice,choice,169.71313208295032,171.3973153749248,33,5,,,1,1,0.6747856249567121,,,,Large,,,,
choice,fixation,171.39745699998457,172.90276974998415,34,5,,,,,,,,,Land,,,,
choice,option,172.91154866700526,173.93768512492534,34,5,,,,,,,,,Land,,,,
choice,choice,173.93779670796357,175.09868279192597,34,5,,,1,1,0.15133691695518792,,,,Land,,,,
choice,fixation,175.0988144169096,175.60219862498343,35,5,,,,,,,,,Solid,,,,
choice,option,175.61169154196978,176.63540595793165,35,5,,,,,,,,,Solid,,,,
choice,choice,176.63554204197135,178.1144998749951,35,5,,,1,1,0.4692030829610303,,,,Solid,,,,
choice,fixation,178.11462987493724,179.1195055829594,36,5,,,,,,,,,Sea,,,,
choice,option,179.12768162495922,180.1538514579879,36,5,,,,,,,,,Sea,,,,
choice,choice,180.15396041690838,181.57205849990714,36,5,,,2,1,0.40772020793519914,,,,Sea,,,,
choice,fixation,181.57223724992946,182.07722474995535,37,5,,,,,,,,,Animal,,,,
choice,option,182.08741795795504,183.11412645794917,37,5,,,,,,,,,Animal,,,,
choice,choice,183.1142322079977,184.98642566695344,37,5,,,1,1,0.8624604580691084,,,,Animal,,,,
choice,fixation,184.98665695800446,185.49454554193653,38,5,,,,,,,,,Small,,,,
choice,option,185.50335349992383,186.5299510419136,38,5,,,,,,,,,Small,,,,
choice,choice,186.53009637491778,188.10645345796365,38,5,,,2,1,0.5665574579034001,,,,Small,,,,
choice,fixation,188.10659512493294,189.1116514169844,39,5,,,,,,,,,Pattern,,,,
choice,option,189.12057166697923,190.1473177919397,39,5,,,,,,,,,Pattern,,,,
choice,choice,190.14743445802014,191.52335087500978,39,5,,,2,1,0.36633866594638675,,,,Pattern,,,,
choice,fixation,191.52347945794463,192.0284271669807,40,5,,,,,,,,,Object,,,,
choice,option,192.0385006669676,193.06483941699844,40,5,,,,,,,,,Object,,,,
choice,choice,193.06495670799632,197.20347412500996,40,5,,,2,1,3.1291765000205487,,,,Object,,,,
memory,free_recall,229.39871879201382,254.50280549994204,24,5,,,,,,,,,,,,,
memory,value_recall,286.21380183298606,292.59834320796654,25,5,Animal_Land_Pattern_Small,,,,6.3805031249066815,,,,,-3,,,
memory,value_recall,294.1446410419885,296.1488427919103,26,5,Animal_Sea_Solid_Small,,,,2.00017100002151,,,,,-3,,,
memory,value_recall,297.44511074991897,301.7267401670106,27,5,Object_Sea_Pattern_Large,,,,4.277409583912231,,,,,-4,,,
memory,value_recall,303.022678792011,305.77423308300786,28,5,Object_Land_Solid_Large,,,,2.7473833749536425,,,,,-2,,,
memory,value_recall,307.3195549999364,310.21501245792024,29,5,Animal_Land_Solid_Large,,,,2.8893706249073148,,,,,7,,,
memory,value_recall,311.26095324999187,315.2542228749953,30,5,Object_Sea_Pattern_Small,,,,3.9907181250164285,,,,,5,,,
memory,spatial_recall,328.2813039579196,329.985295874998,30,5,Object_Sea_Pattern_Small,,,1,1.7000124590704218,,,,,,"[-329, 190]","[-329, 190]",
memory,spatial_recall,331.552110874909,332.9327419999754,30,5,Animal_Land_Pattern_Small,,,1,1.3764857499627396,,,,,,"[-329, -190]","[-329, -190]",
memory,spatial_recall,334.98856387496926,336.31320512492675,30,5,Animal_Sea_Solid_Small,,,1,1.3207777079660445,,,,,,"[0, 380]","[0, 380]",
memory,spatial_recall,337.3538177500013,339.64836845791433,30,5,Object_Land_Solid_Large,,,1,2.291241665952839,,,,,,"[329, -190]","[329, -190]",
memory,spatial_recall,341.45494762493763,342.6538086249493,30,5,Animal_Land_Solid_Large,,,1,1.1946536250179633,,,,,,"[0, -380]","[0, -380]",
memory,spatial_recall,343.960137499962,347.73226479196455,30,5,Object_Sea_Pattern_Large,,,1,3.7681064170319587,,,,,,"[329, 189]","[329, 189]",
encoding,fixation,16.963031208957545,18.219265874940902,31,6,Object_Land_Solid_Small,6,,,,,,,,,,,
encoding,image,18.219379624933936,19.231192541890778,31,6,Object_Land_Solid_Small,6,,,,,,,,,,,
encoding,value,19.231321833911352,25.244499124935828,31,6,Object_Land_Solid_Small,6,,,,,,,,,,,
encoding,attention,25.24461812491063,28.26252020895481,31,6,Object_Land_Solid_Small,6,+6,1,1.63314829103183,,,,,,,,
encoding,fixation,28.262677541933954,28.767674874980003,32,6,Object_Sea_Solid_Small,3,,,,,,,,,,,
encoding,image,28.76779137493577,29.77885174995754,32,6,Object_Sea_Solid_Small,3,,,,,,,,,,,
encoding,value,29.77898062497843,35.789531874936074,32,6,Object_Sea_Solid_Small,3,,,,,,,,,,,
encoding,attention,35.78964916698169,38.805883499910124,32,6,Object_Sea_Solid_Small,3,+3,1,1.6593545830110088,,,,,,,,
encoding,fixation,38.806042666896246,40.06102708389517,33,6,Object_Land_Pattern_Small,-7,,,,,,,,,,,
encoding,image,40.061148208915256,41.07266495889053,33,6,Object_Land_Pattern_Small,-7,,,,,,,,,,,
encoding,value,41.072827750002034,47.0849967089016,33,6,Object_Land_Pattern_Small,-7,,,,,,,,,,,
encoding,attention,47.08512574993074,50.0969788338989,33,6,Object_Land_Pattern_Small,-7,None,None,None,,,,,,,,
encoding,fixation,50.09713104192633,51.10420408390928,34,6,Animal_Sea_Pattern_Large,1,,,,,,,,,,,
encoding,image,51.104318624944426,52.11472883389797,34,6,Animal_Sea_Pattern_Large,1,,,,,,,,,,,
encoding,value,52.11484791699331,58.127824874944054,34,6,Animal_Sea_Pattern_Large,1,,,,,,,,,,,
encoding,attention,58.12796079192776,61.144887666916475,34,6,Animal_Sea_Pattern_Large,1,+1,1,0.7759873340837657,,,,,,,,
encoding,fixation,61.14503487490583,61.900091041927226,35,6,Animal_Land_Pattern_Large,2,,,,,,,,,,,
encoding,image,61.90019937499892,62.91162791696843,35,6,Animal_Land_Pattern_Large,2,,,,,,,,,,,
encoding,value,62.91177212493494,68.92366662493441,35,6,Animal_Land_Pattern_Large,2,,,,,,,,,,,
encoding,attention,68.92383358394727,71.94098241697066,35,6,Animal_Land_Pattern_Large,2,+2,1,1.8048527500359342,,,,,,,,
encoding,fixation,71.94124254200142,72.94656712491997,36,6,Animal_Sea_Solid_Large,-7,,,,,,,,,,,
encoding,image,72.94668004196137,73.9577132089762,36,6,Animal_Sea_Solid_Large,-7,,,,,,,,,,,
encoding,value,73.9578244589502,79.96934662491549,36,6,Animal_Sea_Solid_Large,-7,,,,,,,,,,,
encoding,attention,79.96949370892253,82.9866265419405,36,6,Animal_Sea_Solid_Large,-7,-7,1,1.5450086249038577,,,,,,,,
n-back,,,,151,6,,,,1,None,X,False,None,,,,,
n-back,,,,152,6,,,,1,None,Z,False,None,,,,,
n-back,,,,153,6,,,,1,None,N,False,None,,,,,
n-back,,,,154,6,,,,1,0.6378978330176324,Z,True,1,,,,,
n-back,,,,155,6,,,,1,None,Z,False,None,,,,,
n-back,,,,156,6,,,,1,0.5069321250775829,Z,True,1,,,,,
n-back,,,,157,6,,,,0,None,Z,True,None,,,,,
n-back,,,,158,6,,,,1,0.5493174169678241,Z,True,1,,,,,
n-back,,,,159,6,,,,1,None,N,False,None,,,,,
n-back,,,,160,6,,,,1,None,V,False,None,,,,,
n-back,,,,161,6,,,,1,None,V,False,None,,,,,
n-back,,,,162,6,,,,1,None,C,False,None,,,,,
n-back,,,,163,6,,,,1,None,B,False,None,,,,,
n-back,,,,164,6,,,,1,None,Z,False,None,,,,,
n-back,,,,165,6,,,,1,None,N,False,None,,,,,
n-back,,,,166,6,,,,1,None,V,False,None,,,,,
n-back,,,,167,6,,,,1,None,Z,False,None,,,,,
n-back,,,,168,6,,,,1,None,X,False,None,,,,,
n-back,,,,169,6,,,,1,None,B,False,None,,,,,
n-back,,,,170,6,,,,1,None,C,False,None,,,,,
n-back,,,,171,6,,,,1,None,Z,False,None,,,,,
n-back,,,,172,6,,,,0,None,C,True,None,,,,,
n-back,,,,173,6,,,,1,0.42375620908569545,Z,True,1,,,,,
n-back,,,,174,6,,,,1,0.9579827500274405,C,True,1,,,,,
n-back,,,,175,6,,,,1,None,V,False,None,,,,,
n-back,,,,176,6,,,,1,0.359809415997006,C,True,1,,,,,
n-back,,,,177,6,,,,0,None,V,True,None,,,,,
n-back,,,,178,6,,,,1,None,V,False,None,,,,,
n-back,,,,179,6,,,,1,0.5138551669660956,V,True,1,,,,,
n-back,,,,180,6,,,,1,None,N,False,None,,,,,
choice,fixation,160.73316679196432,161.23667458398268,41,6,,,,,,,,,Small,,,,
choice,option,161.24513108399697,162.27122699993197,41,6,,,,,,,,,Small,,,,
choice,choice,162.27133437490556,164.48233374999836,41,6,,,2,0,1.2017694159876555,,,,Small,,,,
choice,fixation,164.4824673339026,165.48766537499614,42,6,,,,,,,,,Animal,,,,
choice,option,165.49667291692458,166.52428991696797,42,6,,,,,,,,,Animal,,,,
choice,choice,166.5244152919622,168.5514849999454,42,6,,,2,1,1.017474666936323,,,,Animal,,,,
choice,fixation,168.5516129588941,169.30699029192328,43,6,,,,,,,,,Large,,,,
choice,option,169.3155962919118,170.34416274994146,43,6,,,,,,,,,Large,,,,
choice,choice,170.34427004191093,171.7643401249079,43,6,,,1,0,0.40939404198434204,,,,Large,,,,
choice,fixation,171.7644699999364,172.26944837498013,44,6,,,,,,,,,Solid,,,,
choice,option,172.27893904189114,173.30544074997306,44,6,,,,,,,,,Solid,,,,
choice,choice,173.30556024995167,174.67316141689662,44,6,,,1,1,0.3563914579572156,,,,Solid,,,,
choice,fixation,174.67328637489118,175.928361208993,45,6,,,,,,,,,Sea,,,,
choice,option,175.93634116696194,176.962739749928,45,6,,,,,,,,,Sea,,,,
choice,choice,176.96286708395928,178.94903745898046,45,6,,,2,1,0.9765937909251079,,,,Sea,,,,
choice,fixation,178.94915941695217,179.45460058399476,46,6,,,,,,,,,Pattern,,,,
choice,option,179.46389312495012,180.49057087500114,46,6,,,,,,,,,Pattern,,,,
choice,choice,180.49067779199686,181.8396149999462,46,6,,,2,1,0.3392713749781251,,,,Pattern,,,,
choice,fixation,181.83973983395845,183.3445833339356,47,6,,,,,,,,,Land,,,,
choice,option,183.35318820900284,184.3794341669418,47,6,,,,,,,,,Land,,,,
choice,choice,184.37955912493635,185.7847528340062,47,6,,,1,1,0.39613512495998293,,,,Land,,,,
choice,fixation,185.78489612496924,186.7898794999346,48,6,,,,,,,,,Object,,,,
choice,option,186.799360584002,187.8260267089354,48,6,,,,,,,,,Object,,,,
choice,choice,187.82623395894188,189.30392874998506,48,6,,,1,1,0.46835012501105666,,,,Object,,,,
memory,free_recall,224.4022417499218,245.41974258399568,30,6,,,,,,,,,,,,,
memory,value_recall,282.0273072499549,285.37953399994876,31,6,Animal_Sea_Pattern_Large,,,,3.348252582945861,,,,,1,,,
memory,value_recall,287.18517408391926,290.0268210839713,32,6,Object_Land_Solid_Small,,,,2.837335666990839,,,,,6,,,
memory,value_recall,291.32278545899317,295.58660366700497,33,6,Animal_Sea_Solid_Large,,,,4.258953082957305,,,,,-7,,,
memory,value_recall,297.3853302919306,299.619949541986,34,6,Object_Land_Pattern_Small,,,,2.2303949999623,,,,,-7,,,
memory,value_recall,301.4186640419066,302.81892129196785,35,6,Animal_Land_Pattern_Large,,,,1.3961953340331092,,,,,2,,,
memory,value_recall,304.61470658390317,311.34733566700015,36,6,Object_Sea_Solid_Small,,,,6.72826379199978,,,,,3,,,
memory,spatial_recall,319.1908577089198,321.28635399998166,36,6,Animal_Sea_Pattern_Large,,,1,2.091501667047851,,,,,,"[329, 189]","[329, 189]",
memory,spatial_recall,323.3546735419659,325.09765712497756,36,6,Object_Land_Solid_Small,,,1,1.736744083929807,,,,,,"[-329, 190]","[-329, 190]",
memory,spatial_recall,327.15644383395556,328.29671862500254,36,6,Object_Land_Pattern_Small,,,1,1.1363756660139188,,,,,,"[329, -190]","[329, -190]",
memory,spatial_recall,329.84150895895436,331.09659879200626,36,6,Animal_Land_Pattern_Large,,,1,1.251200791914016,,,,,,"[-329, -190]","[-329, -190]",
memory,spatial_recall,333.1531482919818,334.90325733390637,36,6,Animal_Sea_Solid_Large,,,1,1.742085708072409,,,,,,"[0, -380]","[0, -380]",
memory,spatial_recall,336.21283345890697,338.69979441689793,36,6,Object_Sea_Solid_Small,,,1,2.4830711660906672,,,,,,"[0, 380]","[0, 380]",
encoding,fixation,14.673952083103359,16.182636542012915,37,7,Animal_Sea_Pattern_Large,-1,,,,,,,,,,,
encoding,image,16.18276095809415,17.19346358301118,37,7,Animal_Sea_Pattern_Large,-1,,,,,,,,,,,
encoding,value,17.193599333055317,23.20588545803912,37,7,Animal_Sea_Pattern_Large,-1,,,,,,,,,,,
encoding,attention,23.206067750114016,26.222710458096117,37,7,Animal_Sea_Pattern_Large,-1,-1,1,0.6170758330263197,,,,,,,,
encoding,fixation,26.222863375092857,26.728535667061806,38,7,Object_Sea_Solid_Large,8,,,,,,,,,,,
encoding,image,26.728655958082527,27.740237250109203,38,7,Object_Sea_Solid_Large,8,,,,,,,,,,,
encoding,value,27.740348917082883,33.75301854207646,38,7,Object_Sea_Solid_Large,8,,,,,,,,,,,
encoding,attention,33.7531378751155,36.772166458074935,38,7,Object_Sea_Solid_Large,8,+8,1,1.6829395409440622,,,,,,,,
encoding,fixation,36.77233795810025,37.77789020806085,39,7,Object_Sea_Pattern_Small,-1,,,,,,,,,,,
encoding,image,37.7779901670292,38.78800325002521,39,7,Object_Sea_Pattern_Small,-1,,,,,,,,,,,
encoding,value,38.78811308310833,44.79966433311347,39,7,Object_Sea_Pattern_Small,-1,,,,,,,,,,,
encoding,attention,44.799773833015934,47.82012516702525,39,7,Object_Sea_Pattern_Small,-1,-1,1,2.827209832961671,,,,,,,,
encoding,fixation,47.820276292040944,49.32444737502374,40,7,Animal_Land_Pattern_Small,5,,,,,,,,,,,
encoding,image,49.32457408308983,50.33562583301682,40,7,Animal_Land_Pattern_Small,5,,,,,,,,,,,
encoding,value,50.33573954203166,56.34780470805708,40,7,Animal_Land_Pattern_Small,5,,,,,,,,,,,
encoding,attention,56.34792187507264,59.36789025005419,40,7,Animal_Land_Pattern_Small,5,+5,1,0.8481572080636397,,,,,,,,
encoding,fixation,59.36805245804135,59.87360716704279,41,7,Object_Land_Solid_Large,-4,,,,,,,,,,,
encoding,image,59.87370891706087,60.88350908306893,41,7,Object_Land_Solid_Large,-4,,,,,,,,,,,
encoding,value,60.88370762509294,66.89416866702959,41,7,Object_Land_Solid_Large,-4,,,,,,,,,,,
encoding,attention,66.89434425008949,69.90460662508849,41,7,Object_Land_Solid_Large,-4,None,None,None,,,,,,,,
encoding,fixation,69.90477337501943,70.41020983306225,42,7,Animal_Land_Solid_Small,-3,,,,,,,,,,,
encoding,image,70.41032266709954,71.4209675421007,42,7,Animal_Land_Solid_Small,-3,,,,,,,,,,,
encoding,value,71.42111004202161,77.43300620804075,42,7,Animal_Land_Solid_Small,-3,,,,,,,,,,,
encoding,attention,77.43312308308668,80.452992708073,42,7,Animal_Land_Solid_Small,-3,-3,1,1.9051360409939662,,,,,,,,
n-back,,,,181,7,,,,1,None,N,False,None,,,,,
n-back,,,,182,7,,,,1,None,N,False,None,,,,,
n-back,,,,183,7,,,,0,None,N,True,None,,,,,
n-back,,,,184,7,,,,1,0.6397864590398967,N,True,1,,,,,
n-back,,,,185,7,,,,1,0.8100956249982119,N,True,1,,,,,
n-back,,,,186,7,,,,1,0.5709865420358256,N,True,1,,,,,
n-back,,,,187,7,,,,1,0.5475697920192033,N,True,1,,,,,
n-back,,,,188,7,,,,1,0.5722387919668108,N,True,1,,,,,
n-back,,,,189,7,,,,1,None,B,False,None,,,,,
n-back,,,,190,7,,,,0,0.6370636250358075,B,False,1,,,,,
n-back,,,,191,7,,,,1,None,Z,False,None,,,,,
n-back,,,,192,7,,,,1,None,V,False,None,,,,,
n-back,,,,193,7,,,,1,0.5133265000768006,Z,True,1,,,,,
n-back,,,,194,7,,,,1,None,Z,False,None,,,,,
n-back,,,,195,7,,,,1,0.8131586669478565,Z,True,1,,,,,
n-back,,,,196,7,,,,1,None,C,False,None,,,,,
n-back,,,,197,7,,,,1,0.5997993750497699,Z,True,1,,,,,
n-back,,,,198,7,,,,1,None,X,False,None,,,,,
n-back,,,,199,7,,,,1,None,C,False,None,,,,,
n-back,,,,200,7,,,,1,None,B,False,None,,,,,
n-back,,,,201,7,,,,1,0.8254833329701796,C,True,1,,,,,
n-back,,,,202,7,,,,1,None,V,False,None,,,,,
n-back,,,,203,7,,,,0,0.42662791698239744,B,False,1,,,,,
n-back,,,,204,7,,,,1,None,X,False,None,,,,,
n-back,,,,205,7,,,,1,None,X,False,None,,,,,
n-back,,,,206,7,,,,1,None,Z,False,None,,,,,
n-back,,,,207,7,,,,1,None,B,False,None,,,,,
n-back,,,,208,7,,,,1,None,X,False,None,,,,,
n-back,,,,209,7,,,,1,None,V,False,None,,,,,
n-back,,,,210,7,,,,1,None,B,False,None,,,,,
choice,fixation,153.0089955830481,153.51490479207132,49,7,,,,,,,,,Small,,,,
choice,option,153.52333533309866,154.5501343330834,49,7,,,,,,,,,Small,,,,
choice,choice,154.55025345808826,157.07023583306,49,7,,,2,0,1.50978279102128,,,,Small,,,,
choice,fixation,157.07037783309352,158.57561691710725,50,7,,,,,,,,,Large,,,,
choice,option,158.58377475000452,159.61102054209914,50,7,,,,,,,,,Large,,,,
choice,choice,159.61119575006887,160.99156133306678,50,7,,,1,1,0.3709533750079572,,,,Large,,,,
choice,fixation,160.99169879208785,161.99686266703065,51,7,,,,,,,,,Land,,,,
choice,option,162.00538300001062,163.03280225000344,51,7,,,,,,,,,Land,,,,
choice,choice,163.03293450002093,165.27215725008864,51,7,,,1,0,1.2297452091006562,,,,Land,,,,
choice,fixation,165.272277833079,166.52711033308879,52,7,,,,,,,,,Object,,,,
choice,option,166.59356695809402,167.62011391704436,52,7,,,,,,,,,Object,,,,
choice,choice,167.62022033310495,169.30239604203962,52,7,,,1,1,0.6727514170343056,,,,Object,,,,
choice,fixation,169.30254091706593,170.05810558306985,53,7,,,,,,,,,Sea,,,,
choice,option,170.0668270830065,171.09382470801938,53,7,,,,,,,,,Sea,,,,
choice,choice,171.09394425002392,173.63984583306592,53,7,,,1,1,1.5363200419815257,,,,Sea,,,,
choice,fixation,173.63998291711323,174.39495462505147,54,7,,,,,,,,,Pattern,,,,
choice,option,174.40390058304183,175.4322275420418,54,7,,,,,,,,,Pattern,,,,
choice,choice,175.4323470001109,177.26230366702657,54,7,,,1,1,0.8200126660522074,,,,Pattern,,,,
choice,fixation,177.26251700008288,178.51754479203373,55,7,,,,,,,,,Solid,,,,
choice,option,178.5268581251148,179.55328641703818,55,7,,,,,,,,,Solid,,,,
choice,choice,179.55350141704548,183.46703770803288,55,7,,,1,1,2.8994827090064064,,,,Solid,,,,
choice,fixation,183.46718466700986,184.72226575005334,56,7,,,,,,,,,Animal,,,,
choice,option,184.73133254202548,185.7588057500543,56,7,,,,,,,,,Animal,,,,
choice,choice,185.75892391707748,187.53673816705123,56,7,,,2,0,0.7675502080237493,,,,Animal,,,,
memory,free_recall,225.01320300006773,249.89724787510931,36,7,,,,,,,,,,,,,
memory,value_recall,271.50891441700514,275.9638386250008,37,7,Animal_Land_Solid_Small,,,,4.449720750097185,,,,,-3,,,
memory,value_recall,277.7599017920438,280.1387603330659,38,7,Animal_Land_Pattern_Small,,,,2.373502542031929,,,,,5,,,
memory,value_recall,281.43427604204044,283.4820402500918,39,7,Object_Sea_Solid_Large,,,,2.0437337500043213,,,,,8,,,
memory,value_recall,284.5276005420601,286.39603925007395,40,7,Animal_Sea_Pattern_Large,,,,1.8651607920182869,,,,,-1,,,
memory,value_recall,287.44198454206344,291.32088212505914,41,7,Object_Land_Solid_Large,,,,3.874777791905217,,,,,-4,,,
memory,value_recall,292.86690270807594,294.92294691700954,42,7,Object_Sea_Pattern_Small,,,,2.052057124907151,,,,,-1,,,
memory,spatial_recall,305.87373283307534,307.40767354203854,42,7,Object_Sea_Pattern_Small,,,1,1.5295708749908954,,,,,,"[-329, 190]","[-329, 190]",
memory,spatial_recall,309.4729148331098,311.55397808307316,42,7,Animal_Land_Pattern_Small,,,1,2.077103374991566,,,,,,"[-329, -190]","[-329, -190]",
memory,spatial_recall,312.8582626670832,318.56998654210474,42,7,Animal_Land_Solid_Small,,,1,5.705125791020691,,,,,,"[0, 380]","[0, 380]",
memory,spatial_recall,320.1227522500558,322.5412717500003,42,7,Animal_Sea_Pattern_Large,,,1,2.4143772079842165,,,,,,"[329, 189]","[329, 189]",
memory,spatial_recall,324.1065868330188,325.6423512500478,42,7,Object_Sea_Solid_Large,,,1,1.5315855419030413,,,,,,"[0, -380]","[0, -380]",
memory,spatial_recall,326.6974052080186,328.4254438331118,42,7,Object_Land_Solid_Large,,,1,1.72558783297427,,,,,,"[329, -190]","[329, -190]",
