thisRow.t,notes,phase,event,onset,offset,trial_number,game,image,outcome,choice,correct,rt,letter,match,response,option,true_value,true_position,recalled_position,
,,encoding,fixation,13.630248666624539,14.38841158314608,1,1,Object_Sea_Solid_Large,2,,,,,,,,,,,
,,encoding,image,14.388527333154343,15.406622708193026,1,1,Object_Sea_Solid_Large,2,,,,,,,,,,,
,,encoding,value,15.406709416536614,21.41660683322698,1,1,Object_Sea_Solid_Large,2,,,,,,,,,,,
,,encoding,attention,21.416708124917932,24.430940166581422,1,1,Object_Sea_Solid_Large,2,+2,1,1.6517646666616201,,,,,,,,
,,encoding,fixation,24.431146874907427,25.184882708243094,2,1,Animal_Land_Solid_Small,-1,,,,,,,,,,,
,,encoding,image,25.185012833215296,26.19373629160691,2,1,Animal_Land_Solid_Small,-1,,,,,,,,,,,
,,encoding,value,26.19383933325298,32.20296512497589,2,1,Animal_Land_Solid_Small,-1,,,,,,,,,,,
,,encoding,attention,32.2030887498986,35.21667449991219,2,1,Animal_Land_Solid_Small,-1,-1,1,1.6437484165653586,,,,,,,,
,,encoding,fixation,35.216794958221726,36.471072041545995,3,1,Animal_Sea_Solid_Large,-2,,,,,,,,,,,
,,encoding,image,36.47116620815359,37.480388416559435,3,1,Animal_Sea_Solid_Large,-2,,,,,,,,,,,
,,encoding,value,37.48051129153464,43.48907999997027,3,1,Animal_Sea_Solid_Large,-2,,,,,,,,,,,
,,encoding,attention,43.489231874933466,46.50301699992269,3,1,Animal_Sea_Solid_Large,-2,-2,1,0.8336799582466483,,,,,,,,
,,encoding,fixation,46.503165958216414,47.2565822500037,4,1,Object_Sea_Pattern_Large,1,,,,,,,,,,,
,,encoding,image,47.25668608315755,48.26546704152133,4,1,Object_Sea_Pattern_Large,1,,,,,,,,,,,
,,encoding,value,48.265561333158985,54.27395583316684,4,1,Object_Sea_Pattern_Large,1,,,,,,,,,,,
,,encoding,attention,54.27405437489506,57.28770808316767,4,1,Object_Sea_Pattern_Large,1,+1,1,1.1467479165876284,,,,,,,,
,,encoding,fixation,57.287848124979064,58.29125854151789,5,1,Object_Land_Pattern_Small,-6,,,,,,,,,,,
,,encoding,image,58.29135845822748,59.30121387494728,5,1,Object_Land_Pattern_Small,-6,,,,,,,,,,,
,,encoding,value,59.30136058316566,65.31082866655197,5,1,Object_Land_Pattern_Small,-6,,,,,,,,,,,
,,encoding,attention,65.31092254153918,68.32717016653623,5,1,Object_Land_Pattern_Small,-6,-6,1,0.8331028333632275,,,,,,,,
,,encoding,fixation,68.3273356249556,69.33062766655348,6,1,Animal_Land_Pattern_Small,4,,,,,,,,,,,
,,encoding,image,69.33072374993935,70.33882170822471,6,1,Animal_Land_Pattern_Small,4,,,,,,,,,,,
,,encoding,value,70.33894008316565,76.34829208324663,6,1,Animal_Land_Pattern_Small,4,,,,,,,,,,,
,,encoding,attention,76.34841437498108,79.36193829157855,6,1,Animal_Land_Pattern_Small,4,+4,1,0.5678831667173654,,,,,,,,
,,n-back,,,,1,1,,,,1,None,Z,False,None,,,,,
,,n-back,,,,2,1,,,,1,None,N,False,None,,,,,
,,n-back,,,,3,1,,,,1,None,X,False,None,,,,,
,,n-back,,,,4,1,,,,1,None,X,False,None,,,,,
,,n-back,,,,5,1,,,,1,1.4050763332052156,X,True,1,,,,,
,,n-back,,,,6,1,,,,1,None,N,False,None,,,,,
,,n-back,,,,7,1,,,,1,None,B,False,None,,,,,
,,n-back,,,,8,1,,,,1,None,V,False,None,,,,,
,,n-back,,,,9,1,,,,1,None,V,False,None,,,,,
,,n-back,,,,10,1,,,,1,None,N,False,None,,,,,
,,n-back,,,,11,1,,,,1,None,Z,False,None,,,,,
,,n-back,,,,12,1,,,,1,None,V,False,None,,,,,
,,n-back,,,,13,1,,,,1,None,X,False,None,,,,,
,,n-back,,,,14,1,,,,0,None,V,True,None,,,,,
,,n-back,,,,15,1,,,,0,None,X,True,None,,,,,
,,n-back,,,,16,1,,,,1,0.9201623332919553,V,True,1,,,,,
,,n-back,,,,17,1,,,,1,None,V,False,None,,,,,
,,n-back,,,,18,1,,,,0,None,V,True,None,,,,,
,,n-back,,,,19,1,,,,1,None,B,False,None,,,,,
,,n-back,,,,20,1,,,,1,0.9326227500569075,V,True,1,,,,,
,,n-back,,,,21,1,,,,1,None,C,False,None,,,,,
,,n-back,,,,22,1,,,,1,1.0903026666492224,V,True,1,,,,,
,,n-back,,,,23,1,,,,1,1.1182554999832064,C,True,1,,,,,
,,n-back,,,,24,1,,,,1,None,N,False,None,,,,,
,,n-back,,,,25,1,,,,0,None,C,True,None,,,,,
,,n-back,,,,26,1,,,,1,0.4037662500049919,N,True,1,,,,,
,,n-back,,,,27,1,,,,1,None,N,False,None,,,,,
,,n-back,,,,28,1,,,,1,None,X,False,None,,,,,
,,n-back,,,,29,1,,,,1,None,Z,False,None,,,,,
,,n-back,,,,30,1,,,,1,None,Z,False,None,,,,,
,,choice,fixation,164.34293670824263,165.09747729159426,1,1,,,,,,,,,Solid,,,,
,,choice,option,165.10384749993682,166.19139987498056,1,1,,,,,,,,,Solid,,,,
,,choice,choice,166.19149170815945,200.86801991658285,1,1,,,1,0,33.667738749994896,,,,Solid,,,,
,,choice,fixation,200.86812649993226,201.3718318749452,2,1,,,,,,,,,Object,,,,
,,choice,option,201.3780159582384,202.4031617916189,2,1,,,,,,,,,Object,,,,
,,choice,choice,202.40332541661337,211.61890683323145,2,1,,,2,1,8.206451624981128,,,,Object,,,,
,,choice,fixation,211.61902549990918,212.87237112491857,3,1,,,,,,,,,Land,,,,
,,choice,option,212.8782069166191,213.90527070814278,3,1,,,,,,,,,Land,,,,
,,choice,choice,213.9053589166142,226.38703604158945,3,1,,,2,1,11.47333275002893,,,,Land,,,,
,,choice,fixation,226.3871551665943,227.1408445831621,4,1,,,,,,,,,Pattern,,,,
,,choice,option,227.14662079152185,228.1727879999671,4,1,,,,,,,,,Pattern,,,,
,,choice,choice,228.17290179152042,241.37202733324375,4,1,,,2,1,12.18920504162088,,,,Pattern,,,,
,,choice,fixation,241.37212462490425,242.1264765416272,5,1,,,,,,,,,Animal,,,,
,,choice,option,242.13240399991628,243.1577820831444,5,1,,,,,,,,,Animal,,,,
,,choice,choice,243.15792691661045,254.6932917915983,5,1,,,1,1,10.526956000016071,,,,Animal,,,,
,,choice,fixation,254.69339795818087,255.69674695818685,6,1,,,,,,,,,Large,,,,
,,choice,option,255.70243304152973,256.726977416547,6,1,,,,,,,,,Large,,,,
,,choice,choice,256.7270752915647,273.907454083208,6,1,,,1,1,16.171504208468832,,,,Large,,,,
,,choice,fixation,273.9076023332309,274.41087529156357,7,1,,,,,,,,,Sea,,,,
,,choice,option,274.4166196666192,275.4409583332017,7,1,,,,,,,,,Sea,,,,
,,choice,choice,275.44106404157355,281.8982718331972,7,1,,,1,1,5.449646708322689,,,,Sea,,,,
,,choice,fixation,281.89838916657027,283.15162462496664,8,1,,,,,,,,,Small,,,,
,,choice,option,283.1573152082274,284.18218483321834,8,1,,,,,,,,,Small,,,,
,,choice,choice,284.18227670819033,291.78879658319056,8,1,,,2,1,6.595878249965608,,,,Small,,,,
,,memory,free_recall,345.893914999906,360.20565491658635,0,1,,,,,,,,,,,,,
,,memory,value_recall,408.9653601666214,412.47199116658885,1,1,Animal_Sea_Solid_Large,,,,3.5009245416149497,,,,,-2,,,
,,memory,value_recall,414.51217470818665,417.710152208223,2,1,Animal_Land_Solid_Small,,,,3.1946786666521803,,,,,-1,,,
,,memory,value_recall,418.74962774990126,423.02422312495764,3,1,Object_Sea_Pattern_Large,,,,4.272014041780494,,,,,1,,,
,,memory,value_recall,424.563466874999,428.5825681249844,4,1,Object_Sea_Solid_Large,,,,4.0155825415859,,,,,2,,,
,,memory,value_recall,430.62200091662817,433.29444845824037,5,1,Animal_Land_Pattern_Small,,,,2.6690521250711754,,,,,4,,,
,,memory,value_recall,435.08322354161646,436.8456666249549,6,1,Object_Land_Pattern_Small,,,,1.7586029999656603,,,,,-6,,,
,,memory,spatial_recall,456.7099149165442,462.3473415415501,6,1,Object_Sea_Pattern_Large,,,1,5.63397283339873,,,,,,"[0, 380]","[0, 380]",
,,memory,spatial_recall,463.42150745820254,466.54776433319785,6,1,Animal_Sea_Solid_Large,,,1,3.1242218333063647,,,,,,"[0, -380]","[0, -380]",
,,memory,spatial_recall,468.3719024582533,471.3487069165567,6,1,Object_Sea_Solid_Large,,,1,2.9730852500069886,,,,,,"[329, -190]","[329, -190]",
,,memory,spatial_recall,473.17120345821604,474.6994578331942,6,1,Object_Land_Pattern_Small,,,1,1.5246337915305048,,,,,,"[329, 189]","[329, 189]",
,,memory,spatial_recall,476.77119308314286,479.09721862489823,6,1,Animal_Land_Solid_Small,,,1,2.3225997500121593,,,,,,"[-329, -190]","[-329, -190]",
,,memory,spatial_recall,480.17126895824913,481.812085708254,6,1,Animal_Land_Pattern_Small,,,1,1.6388712082989514,,,,,,"[-329, 190]","[-329, 190]",
,,encoding,fixation,13.208703499985859,13.711904791533016,7,2,Animal_Sea_Solid_Small,9,,,,,,,,,,,
,,encoding,image,13.712000041618012,14.721418708213605,7,2,Animal_Sea_Solid_Small,9,,,,,,,,,,,
,,encoding,value,14.721533833188005,20.73131183325313,7,2,Animal_Sea_Solid_Small,9,,,,,,,,,,,
,,encoding,attention,20.73143491661176,23.745033166604117,7,2,Animal_Sea_Solid_Small,9,+9,1,1.6020523749757558,,,,,,,,
,,encoding,fixation,23.745165125001222,24.49891874997411,8,2,Object_Sea_Solid_Small,9,,,,,,,,,,,
,,encoding,image,24.49901654163841,25.506926083238795,8,2,Object_Sea_Solid_Small,9,,,,,,,,,,,
,,encoding,value,25.507039458258078,31.51515449990984,8,2,Object_Sea_Solid_Small,9,,,,,,,,,,,
,,encoding,attention,31.515253874938935,34.52892199996859,8,2,Object_Sea_Solid_Small,9,+9,1,1.7849596249870956,,,,,,,,
,,encoding,fixation,34.52904758322984,35.282737833214924,9,2,Animal_Land_Solid_Large,-4,,,,,,,,,,,
,,encoding,image,35.28284283319954,36.29247783322353,9,2,Animal_Land_Solid_Large,-4,,,,,,,,,,,
,,encoding,value,36.292567583266646,42.302109541604295,9,2,Animal_Land_Solid_Large,-4,,,,,,,,,,,
,,encoding,attention,42.30220487492625,45.316078749950975,9,2,Animal_Land_Solid_Large,-4,-4,1,0.8772951667197049,,,,,,,,
,,encoding,fixation,45.31619562499691,46.82132079161238,10,2,Object_Sea_Pattern_Small,-9,,,,,,,,,,,
,,encoding,image,46.82140658318531,47.83075799990911,10,2,Object_Sea_Pattern_Small,-9,,,,,,,,,,,
,,encoding,value,47.830858458182774,53.84009591664653,10,2,Object_Sea_Pattern_Small,-9,,,,,,,,,,,
,,encoding,attention,53.84021237492561,56.853847833233885,10,2,Object_Sea_Pattern_Small,-9,-9,1,1.2911348333582282,,,,,,,,
,,encoding,fixation,56.85397225001361,58.35732304153498,11,2,Animal_Land_Pattern_Large,-1,,,,,,,,,,,
,,encoding,image,58.357441999949515,59.36610933323391,11,2,Animal_Land_Pattern_Large,-1,,,,,,,,,,,
,,encoding,value,59.366249666549265,65.37544404156506,11,2,Animal_Land_Pattern_Large,-1,,,,,,,,,,,
,,encoding,attention,65.37553883320652,68.38963374996092,11,2,Animal_Land_Pattern_Large,-1,-1,1,1.0194952915189788,,,,,,,,
,,encoding,fixation,68.38983783323783,69.89327291655354,12,2,Object_Land_Pattern_Large,8,,,,,,,,,,,
,,encoding,image,69.8933669582475,70.90520070819184,12,2,Object_Land_Pattern_Large,8,,,,,,,,,,,
,,encoding,value,70.9053069165675,76.91457104159053,12,2,Object_Land_Pattern_Large,8,,,,,,,,,,,
,,encoding,attention,76.9146725415485,79.92887304164469,12,2,Object_Land_Pattern_Large,8,+8,1,1.081590083311312,,,,,,,,
,,n-back,,,,31,2,,,,0,None,C,True,None,,,,,
,,n-back,,,,32,2,,,,1,None,V,False,None,,,,,
,,n-back,,,,33,2,,,,0,None,C,True,None,,,,,
,,n-back,,,,34,2,,,,1,None,N,False,None,,,,,
,,n-back,,,,35,2,,,,1,None,N,False,None,,,,,
,,n-back,,,,36,2,,,,1,None,V,False,None,,,,,
,,n-back,,,,37,2,,,,1,None,V,False,None,,,,,
,,n-back,,,,38,2,,,,1,None,Z,False,None,,,,,
,,n-back,,,,39,2,,,,1,None,C,False,None,,,,,
,,n-back,,,,40,2,,,,1,None,B,False,None,,,,,
,,n-back,,,,41,2,,,,1,None,N,False,None,,,,,
,,n-back,,,,42,2,,,,1,None,C,False,None,,,,,
,,n-back,,,,43,2,,,,1,None,B,False,None,,,,,
,,n-back,,,,44,2,,,,1,None,Z,False,None,,,,,
,,n-back,,,,45,2,,,,1,None,X,False,None,,,,,
,,n-back,,,,46,2,,,,0,None,Z,True,None,,,,,
,,n-back,,,,47,2,,,,0,None,X,True,None,,,,,
,,n-back,,,,48,2,,,,1,0.8612085832282901,Z,True,1,,,,,
,,n-back,,,,49,2,,,,1,None,V,False,None,,,,,
,,n-back,,,,50,2,,,,1,None,N,False,None,,,,,
,,n-back,,,,51,2,,,,1,1.212417958304286,V,True,1,,,,,
,,n-back,,,,52,2,,,,1,None,V,False,None,,,,,
,,n-back,,,,53,2,,,,1,None,B,False,None,,,,,
,,n-back,,,,54,2,,,,1,None,X,False,None,,,,,
,,n-back,,,,55,2,,,,1,None,X,False,None,,,,,
,,n-back,,,,56,2,,,,1,None,C,False,None,,,,,
,,n-back,,,,57,2,,,,1,1.0585706667043269,X,True,1,,,,,
,,n-back,,,,58,2,,,,1,1.2382544166175649,C,True,1,,,,,
,,n-back,,,,59,2,,,,1,1.1735180000541732,X,True,1,,,,,
,,n-back,,,,60,2,,,,1,0.7732593333348632,C,True,1,,,,,
,,choice,fixation,163.6922812499106,165.19407816661987,9,2,,,,,,,,,Sea,,,,
,,choice,option,165.19931591663044,166.22557004156988,9,2,,,,,,,,,Sea,,,,
,,choice,choice,166.22567499999423,174.06462637498043,9,2,,,1,1,6.82990379165858,,,,Sea,,,,
,,choice,fixation,174.06474170822185,175.3182475832291,10,2,,,,,,,,,Large,,,,
,,choice,option,175.32386220816988,176.34868341661058,10,2,,,,,,,,,Large,,,,
,,choice,choice,176.34877895819955,208.41175108321477,10,2,,,1,1,31.0537340833107,,,,Large,,,,
,,choice,fixation,208.41192570817657,209.91372650000267,11,2,,,,,,,,,Animal,,,,
,,choice,option,209.9198659581598,210.94507658318616,11,2,,,,,,,,,Animal,,,,
,,choice,choice,210.94519179163035,239.818747666548,11,2,,,1,1,27.863988541648723,,,,Animal,,,,
,,choice,fixation,239.81886445824057,241.32211158319842,12,2,,,,,,,,,Land,,,,
,,choice,option,241.32757712493185,242.3512781666359,12,2,,,,,,,,,Land,,,,
,,choice,choice,242.35137199994642,249.31495587492827,12,2,,,1,1,5.954018875025213,,,,Land,,,,
,,choice,fixation,249.31507579155732,250.31863324996084,13,2,,,,,,,,,Pattern,,,,
,,choice,option,250.32471008319408,251.34964620822575,13,2,,,,,,,,,Pattern,,,,
,,choice,choice,251.34980120824184,262.09166999999434,13,2,,,2,1,9.730553166824393,,,,Pattern,,,,
,,choice,fixation,262.09177349996753,262.59495933318976,14,2,,,,,,,,,Solid,,,,
,,choice,option,262.6011653749738,263.6251160831889,14,2,,,,,,,,,Solid,,,,
,,choice,choice,263.62520833325107,268.94486216653604,14,2,,,1,1,4.312130666803569,,,,Solid,,,,
,,choice,fixation,268.9449881250039,269.69843979156576,15,2,,,,,,,,,Small,,,,
,,choice,option,269.70483608322684,270.7288547916105,15,2,,,,,,,,,Small,,,,
,,choice,choice,270.72904141654726,281.95184208324645,15,2,,,1,1,10.208125208271667,,,,Small,,,,
,,choice,fixation,281.95200095826294,282.95372791658156,16,2,,,,,,,,,Object,,,,
,,choice,option,282.95957874995656,283.9840464582667,16,2,,,,,,,,,Object,,,,
,,choice,choice,283.98414541664533,290.6200225416105,16,2,,,1,1,5.6195704999845475,,,,Object,,,,
,,memory,free_recall,306.6146537915338,327.94898258324247,6,2,,,,,,,,,,,,,
,,memory,value_recall,347.398618874955,350.0391439582454,7,2,Animal_Sea_Solid_Small,,,,2.636970708379522,,,,,9,,,
,,memory,value_recall,351.82908779161517,355.16722712491173,8,2,Animal_Land_Pattern_Large,,,,3.3345623333007097,,,,,-1,,,
,,memory,value_recall,356.4567059582332,361.8698392082006,9,2,Object_Sea_Pattern_Small,,,,5.409613416646607,,,,,-9,,,
,,memory,value_recall,363.16015220817644,365.02440604160074,10,2,Object_Land_Pattern_Large,,,,1.860858833300881,,,,,8,,,
,,memory,value_recall,366.82159020821564,369.5670424165437,11,2,Animal_Land_Solid_Large,,,,2.7416725833900273,,,,,-4,,,
,,memory,value_recall,370.60618291655555,372.6777161665959,12,2,Object_Sea_Solid_Small,,,,2.0694257916184142,,,,,9,,,
,,memory,spatial_recall,378.88237070816103,382.3999486665707,12,2,Animal_Land_Solid_Large,,,1,3.5155061666155234,,,,,,"[0, 380]","[0, 380]",
,,memory,spatial_recall,383.9716762499884,387.51335479156114,12,2,Animal_Sea_Solid_Small,,,1,3.538201166782528,,,,,,"[329, 189]","[329, 189]",
,,memory,spatial_recall,389.57973820820916,391.89310424996074,12,2,Object_Land_Pattern_Large,,,1,2.30991295829881,,,,,,"[-329, 190]","[-329, 190]",
,,memory,spatial_recall,393.4554633331718,395.28418612491805,12,2,Object_Sea_Solid_Small,,,1,1.8252742083277553,,,,,,"[0, -380]","[0, -380]",
,,memory,spatial_recall,396.6064909999259,398.2131718749879,12,2,Object_Sea_Pattern_Small,,,1,1.6032536249840632,,,,,,"[-329, -190]","[-329, -190]",
,,memory,spatial_recall,400.0280588750029,401.7637856665533,12,2,Animal_Land_Pattern_Large,,,1,1.7321117082610726,,,,,,"[329, -190]","[329, -190]",
,,encoding,fixation,4.912211333285086,6.165709208347835,13,3,Object_Land_Solid_Small,1,,,,,,,,,,,
,,encoding,image,6.165825041709468,7.174834833364002,13,3,Object_Land_Solid_Small,1,,,,,,,,,,,
,,encoding,value,7.174933249945752,13.184517416753806,13,3,Object_Land_Solid_Small,1,,,,,,,,,,,
,,encoding,attention,13.184628499904647,16.19995683338493,13,3,Object_Land_Solid_Small,1,+1,1,1.1792405417654663,,,,,,,,
,,encoding,fixation,16.20010562497191,17.203466999926604,14,3,Object_Sea_Solid_Large,-9,,,,,,,,,,,
,,encoding,image,17.20356729172636,18.212299249949865,14,3,Object_Sea_Solid_Large,-9,,,,,,,,,,,
,,encoding,value,18.212411999935284,24.221549458336085,14,3,Object_Sea_Solid_Large,-9,,,,,,,,,,,
,,encoding,attention,24.22163754166104,27.235503583331592,14,3,Object_Sea_Solid_Large,-9,-9,1,0.8982118749991059,,,,,,,,
,,encoding,fixation,27.235633249976672,27.988942249910906,15,3,Animal_Sea_Pattern_Large,9,,,,,,,,,,,
,,encoding,image,27.989053916651756,28.997261583339423,15,3,Animal_Sea_Pattern_Large,9,,,,,,,,,,,
,,encoding,value,28.997367666685022,35.00565829174593,15,3,Animal_Sea_Pattern_Large,9,,,,,,,,,,,
,,encoding,attention,35.0057543333387,38.01498574996367,15,3,Animal_Sea_Pattern_Large,9,None,None,None,,,,,,,,
,,encoding,fixation,38.01510612491984,38.51847529166844,16,3,Object_Sea_Pattern_Large,-1,,,,,,,,,,,
,,encoding,image,38.51857141673099,39.52682679169811,16,3,Object_Sea_Pattern_Large,-1,,,,,,,,,,,
,,encoding,value,39.52692341664806,45.53560908336658,16,3,Object_Sea_Pattern_Large,-1,,,,,,,,,,,
,,encoding,attention,45.53571299999021,48.55026199994609,16,3,Object_Sea_Pattern_Large,-1,-1,1,0.6216942500323057,,,,,,,,
,,encoding,fixation,48.55038858333137,49.05376833328046,17,3,Animal_Land_Solid_Small,4,,,,,,,,,,,
,,encoding,image,49.05386899993755,50.062089666724205,17,3,Animal_Land_Solid_Small,4,,,,,,,,,,,
,,encoding,value,50.06225133338012,56.071019958355464,17,3,Animal_Land_Solid_Small,4,,,,,,,,,,,
,,encoding,attention,56.071123958332464,59.085242999950424,17,3,Animal_Land_Solid_Small,4,+4,1,1.6627541249617934,,,,,,,,
,,encoding,fixation,59.085410958272405,59.83992679172661,18,3,Animal_Land_Pattern_Small,-7,,,,,,,,,,,
,,encoding,image,59.84001691674348,60.847974833333865,18,3,Animal_Land_Pattern_Small,-7,,,,,,,,,,,
,,encoding,value,60.8480743332766,66.85715974995401,18,3,Animal_Land_Pattern_Small,-7,,,,,,,,,,,
,,encoding,attention,66.8573090833379,69.87436141667422,18,3,Animal_Land_Pattern_Small,-7,-7,1,0.6793082499643788,,,,,,,,
,,n-back,,,,61,3,,,,0,None,Z,True,None,,,,,
,,n-back,,,,62,3,,,,1,None,N,False,None,,,,,
,,n-back,,,,63,3,,,,1,0.6345047918148339,Z,True,1,,,,,
,,n-back,,,,64,3,,,,1,None,C,False,None,,,,,
,,n-back,,,,65,3,,,,0,None,Z,True,None,,,,,
,,n-back,,,,66,3,,,,1,0.41553083329927176,C,True,1,,,,,
,,n-back,,,,67,3,,,,1,None,N,False,None,,,,,
,,n-back,,,,68,3,,,,0,None,C,True,None,,,,,
,,n-back,,,,69,3,,,,1,None,B,False,None,,,,,
,,n-back,,,,70,3,,,,1,None,B,False,None,,,,,
,,n-back,,,,71,3,,,,1,None,V,False,None,,,,,
,,n-back,,,,72,3,,,,1,None,V,False,None,,,,,
,,n-back,,,,73,3,,,,1,None,N,False,None,,,,,
,,n-back,,,,74,3,,,,1,None,C,False,None,,,,,
,,n-back,,,,75,3,,,,1,None,X,False,None,,,,,
,,n-back,,,,76,3,,,,1,0.42809662502259016,C,True,1,,,,,
,,n-back,,,,77,3,,,,1,1.1926915834192187,X,True,1,,,,,
,,n-back,,,,78,3,,,,1,None,N,False,None,,,,,
,,n-back,,,,79,3,,,,0,1.4082407916430384,C,False,1,,,,,
,,n-back,,,,80,3,,,,1,None,C,False,None,,,,,
,,n-back,,,,81,3,,,,0,0.9939832082018256,N,False,1,,,,,
,,n-back,,,,82,3,,,,0,None,C,True,None,,,,,
,,n-back,,,,83,3,,,,1,None,B,False,None,,,,,
,,n-back,,,,84,3,,,,1,None,X,False,None,,,,,
,,n-back,,,,85,3,,,,1,None,C,False,None,,,,,
,,n-back,,,,86,3,,,,1,None,Z,False,None,,,,,
,,n-back,,,,87,3,,,,1,None,Z,False,None,,,,,
,,n-back,,,,88,3,,,,1,0.618426458328031,Z,True,1,,,,,
,,n-back,,,,89,3,,,,1,None,V,False,None,,,,,
,,n-back,,,,90,3,,,,0,None,Z,True,None,,,,,
,,choice,fixation,160.9155279167462,162.41775799996685,17,3,,,,,,,,,Small,,,,
,,choice,option,162.42351312492974,163.44926133332774,17,3,,,,,,,,,Small,,,,
,,choice,choice,163.4493701667525,182.68562020827085,17,3,,,2,1,18.227773000020534,,,,Small,,,,
,,choice,fixation,182.6857432499528,183.93905454175547,18,3,,,,,,,,,Object,,,,
,,choice,option,183.94524258328602,184.96989716670942,18,3,,,,,,,,,Object,,,,
,,choice,choice,184.96999691671226,196.0776988333091,18,3,,,2,1,10.098824666580185,,,,Object,,,,
,,choice,fixation,196.07780870830175,197.08115224994253,19,3,,,,,,,,,Large,,,,
,,choice,option,197.0867628332926,198.11117533338256,19,3,,,,,,,,,Large,,,,
,,choice,choice,198.11127524997573,208.56570937496144,19,3,,,1,0,9.446413166704588,,,,Large,,,,
,,choice,fixation,208.56582004169468,209.31912062491756,20,3,,,,,,,,,Animal,,,,
,,choice,option,209.3253046249738,210.35024279169738,20,3,,,,,,,,,Animal,,,,
,,choice,choice,210.35040100000333,221.87520508328453,20,3,,,1,1,10.509371333406307,,,,Animal,,,,
,,choice,fixation,221.87532150000334,222.37780266674235,21,3,,,,,,,,,Sea,,,,
,,choice,option,222.3832577499561,223.40782699990086,21,3,,,,,,,,,Sea,,,,
,,choice,choice,223.40792045835406,228.2032364999177,21,3,,,1,0,3.7879821667447686,,,,Sea,,,,
,,choice,fixation,228.20334120828193,229.45700916671194,22,3,,,,,,,,,Solid,,,,
,,choice,option,229.4629907082999,230.48717841668986,22,3,,,,,,,,,Solid,,,,
,,choice,choice,230.48735304165166,244.57978129165713,22,3,,,2,1,13.084158208221197,,,,Solid,,,,
,,choice,fixation,244.5798820416676,246.08323412493337,23,3,,,,,,,,,Land,,,,
,,choice,option,246.08869308338035,247.11279387492687,23,3,,,,,,,,,Land,,,,
,,choice,choice,247.11291691672523,253.61819591675885,23,3,,,2,1,5.497897749999538,,,,Land,,,,
,,choice,fixation,253.61829799995758,254.12193112494424,24,3,,,,,,,,,Pattern,,,,
,,choice,option,254.1278247917071,255.15159462497104,24,3,,,,,,,,,Pattern,,,,
,,choice,choice,255.15168924990576,263.64906533330213,24,3,,,1,1,7.488231458351947,,,,Pattern,,,,
,,memory,free_recall,284.7990726666758,298.6384822917171,12,3,,,,,,,,,,,,,
,,memory,value_recall,310.6051574999001,313.6554108749842,13,3,Animal_Sea_Pattern_Large,,,,3.0467754165874794,,,,,9,,,
,,memory,value_recall,315.694701124914,319.3300335833337,14,3,Animal_Land_Solid_Small,,,,3.631895083351992,,,,,4,,,
,,memory,value_recall,320.87126516667195,323.16076591669116,15,3,Object_Sea_Solid_Large,,,,2.285826125065796,,,,,-9,,,
,,memory,value_recall,324.44979095831513,326.6145048333565,16,3,Object_Land_Solid_Small,,,,2.1612057499587536,,,,,1,,,
,,memory,value_recall,327.9028213749407,332.6082762082806,17,3,Animal_Land_Pattern_Small,,,,4.702108958386816,,,,,-7,,,
,,memory,value_recall,334.3974788750056,336.6405698333401,18,3,Object_Sea_Pattern_Large,,,,2.2395622082985938,,,,,-1,,,
,,memory,spatial_recall,342.59023087495007,345.7185510833515,18,3,Animal_Land_Solid_Small,,,1,3.121636416646652,,,,,,"[-329, -190]","[-329, -190]",
,,memory,spatial_recall,347.7860770833213,349.36889887496363,18,3,Object_Land_Solid_Small,,,1,1.579093583393842,,,,,,"[0, -380]","[0, -380]",
,,memory,spatial_recall,350.6848420416936,353.26911200000905,18,3,Object_Sea_Solid_Large,,,1,2.580904958420433,,,,,,"[329, -190]","[329, -190]",
,,memory,spatial_recall,354.83237241674215,356.8689019999001,18,3,Animal_Sea_Pattern_Large,,,1,2.032967458362691,,,,,,"[329, 189]","[329, 189]",
,,memory,spatial_recall,358.9331503333524,361.10263974999543,18,3,Animal_Land_Pattern_Small,,,1,2.1660297500202432,,,,,,"[-329, 190]","[-329, 190]",
,,memory,spatial_recall,362.4160270417342,365.15209962497465,18,3,Object_Sea_Pattern_Large,,,1,2.732553750043735,,,,,,"[0, 380]","[0, 380]",
,,encoding,fixation,12.755625999998301,13.260524999932386,19,4,Object_Sea_Solid_Large,-4,,,,,,,,,,,
,,encoding,image,13.260684583336115,14.27117491653189,19,4,Object_Sea_Solid_Large,-4,,,,,,,,,,,
,,encoding,value,14.271306124981493,20.28110774990637,19,4,Object_Sea_Solid_Large,-4,,,,,,,,,,,
,,encoding,attention,20.281215458293445,23.295320583274588,19,4,Object_Sea_Solid_Large,-4,-4,1,0.9038280416280031,,,,,,,,
,,encoding,fixation,23.295486833318137,24.549060916528106,20,4,Object_Land_Pattern_Small,-2,,,,,,,,,,,
,,encoding,image,24.549157083267346,25.558155874954537,20,4,Object_Land_Pattern_Small,-2,,,,,,,,,,,
,,encoding,value,25.558315124944784,31.56784362497274,20,4,Object_Land_Pattern_Small,-2,,,,,,,,,,,
,,encoding,attention,31.567970958305523,34.58241408329923,20,4,Object_Land_Pattern_Small,-2,-2,1,0.5285088749369606,,,,,,,,
,,encoding,fixation,34.58254179160576,35.08613466657698,21,4,Animal_Land_Solid_Large,6,,,,,,,,,,,
,,encoding,image,35.0862264999887,36.094833541545086,21,4,Animal_Land_Solid_Large,6,,,,,,,,,,,
,,encoding,value,36.094939333270304,42.10579924995545,21,4,Animal_Land_Solid_Large,6,,,,,,,,,,,
,,encoding,attention,42.10590216657147,45.12002087489236,21,4,Animal_Land_Solid_Large,6,+6,1,1.0221587083069608,,,,,,,,
,,encoding,fixation,45.120142458355986,46.623716500005685,22,4,Animal_Sea_Solid_Large,-4,,,,,,,,,,,
,,encoding,image,46.62383445829619,47.63280691660475,22,4,Animal_Sea_Solid_Large,-4,,,,,,,,,,,
,,encoding,value,47.63288962491788,53.64204545831308,22,4,Animal_Sea_Solid_Large,-4,,,,,,,,,,,
,,encoding,attention,53.64213770837523,56.65926924999803,22,4,Animal_Sea_Solid_Large,-4,-4,1,1.885079124942422,,,,,,,,
,,encoding,fixation,56.6594059583731,57.41290708328597,23,4,Animal_Land_Pattern_Small,-6,,,,,,,,,,,
,,encoding,image,57.413024166598916,58.42251183337066,23,4,Animal_Land_Pattern_Small,-6,,,,,,,,,,,
,,encoding,value,58.42265370837413,64.43113149993587,23,4,Animal_Land_Pattern_Small,-6,,,,,,,,,,,
,,encoding,attention,64.43123162491247,67.44505354156718,23,4,Animal_Land_Pattern_Small,-6,-6,1,0.8036768333986402,,,,,,,,
,,encoding,fixation,67.44518745830283,68.69892420829274,24,4,Object_Sea_Pattern_Small,7,,,,,,,,,,,
,,encoding,image,68.69902841653675,69.7077083332697,24,4,Object_Sea_Pattern_Small,7,,,,,,,,,,,
,,encoding,value,69.70782879157923,75.71656662493479,24,4,Object_Sea_Pattern_Small,7,,,,,,,,,,,
,,encoding,attention,75.71666820836253,78.7303817915963,24,4,Object_Sea_Pattern_Small,7,+7,1,0.8537245417246595,,,,,,,,
,,n-back,,,,91,4,,,,1,None,V,False,None,,,,,
,,n-back,,,,92,4,,,,1,None,B,False,None,,,,,
,,n-back,,,,93,4,,,,1,None,X,False,None,,,,,
,,n-back,,,,94,4,,,,1,None,C,False,None,,,,,
,,n-back,,,,95,4,,,,1,None,B,False,None,,,,,
,,n-back,,,,96,4,,,,1,1.0052399166161194,C,True,1,,,,,
,,n-back,,,,97,4,,,,1,None,V,False,None,,,,,
,,n-back,,,,98,4,,,,1,None,V,False,None,,,,,
,,n-back,,,,99,4,,,,1,None,X,False,None,,,,,
,,n-back,,,,100,4,,,,1,None,X,False,None,,,,,
,,n-back,,,,101,4,,,,1,None,Z,False,None,,,,,
,,n-back,,,,102,4,,,,1,None,C,False,None,,,,,
,,n-back,,,,103,4,,,,1,None,V,False,None,,,,,
,,n-back,,,,104,4,,,,0,None,C,True,None,,,,,
,,n-back,,,,105,4,,,,1,0.564908874919638,V,True,1,,,,,
,,n-back,,,,106,4,,,,1,None,X,False,None,,,,,
,,n-back,,,,107,4,,,,1,None,Z,False,None,,,,,
,,n-back,,,,108,4,,,,1,0.4090759166283533,X,True,1,,,,,
,,n-back,,,,109,4,,,,1,None,N,False,None,,,,,
,,n-back,,,,110,4,,,,1,None,N,False,None,,,,,
,,n-back,,,,111,4,,,,1,None,V,False,None,,,,,
,,n-back,,,,112,4,,,,1,None,V,False,None,,,,,
,,n-back,,,,113,4,,,,1,0.34696720831561834,V,True,1,,,,,
,,n-back,,,,114,4,,,,1,1.3093436666531488,V,True,1,,,,,
,,n-back,,,,115,4,,,,1,None,C,False,None,,,,,
,,n-back,,,,116,4,,,,1,0.664183333166875,V,True,1,,,,,
,,n-back,,,,117,4,,,,1,0.8068184166913852,C,True,1,,,,,
,,n-back,,,,118,4,,,,0,None,V,True,None,,,,,
,,n-back,,,,119,4,,,,1,None,Z,False,None,,,,,
,,n-back,,,,120,4,,,,1,1.324125666753389,V,True,1,,,,,
,,choice,fixation,157.02459904155694,157.77640287496615,25,4,,,,,,,,,Object,,,,
,,choice,option,157.78237524989527,158.80627883330453,25,4,,,,,,,,,Object,,,,
,,choice,choice,158.80640295834746,170.32927254156675,25,4,,,1,1,10.514569833292626,,,,Object,,,,
,,choice,fixation,170.32937829161528,171.58294416661374,26,4,,,,,,,,,Large,,,,
,,choice,option,171.63282504153904,172.6584149999544,26,4,,,,,,,,,Large,,,,
,,choice,choice,172.65850074996706,194.08876879152376,26,4,,,2,1,20.420276666642167,,,,Large,,,,
,,choice,fixation,194.08887562493328,195.59246891655494,27,4,,,,,,,,,Solid,,,,
,,choice,option,195.59849929157645,196.62305558333173,27,4,,,,,,,,,Solid,,,,
,,choice,choice,196.62314070831053,204.46260016656015,27,4,,,2,1,6.8318524999776855,,,,Solid,,,,
,,choice,fixation,204.46271137497388,205.4660196249606,28,4,,,,,,,,,Sea,,,,
,,choice,option,205.47180274990387,206.4953918333631,28,4,,,,,,,,,Sea,,,,
,,choice,choice,206.4955141665414,216.34327916661277,28,4,,,2,1,8.837861916748807,,,,Sea,,,,
,,choice,fixation,216.34338308335282,217.59524462500121,29,4,,,,,,,,,Land,,,,
,,choice,option,217.60123412497342,218.6259017083794,29,4,,,,,,,,,Land,,,,
,,choice,choice,218.6259880833095,236.44966541661415,29,4,,,2,1,16.814623249927536,,,,Land,,,,
,,choice,fixation,236.44977724994533,237.70349687489215,30,4,,,,,,,,,Animal,,,,
,,choice,option,237.70954445831012,238.73549091652967,30,4,,,,,,,,,Animal,,,,
,,choice,choice,238.73566024994943,251.77925766655244,30,4,,,2,1,12.03279845835641,,,,Animal,,,,
,,choice,fixation,251.7793695833534,253.03257995832246,31,4,,,,,,,,,Pattern,,,,
,,choice,option,253.0385119583225,254.06326320837252,31,4,,,,,,,,,Pattern,,,,
,,choice,choice,254.0633589165518,265.23207012494095,31,4,,,2,1,10.160036874935031,,,,Pattern,,,,
,,choice,fixation,265.23216379154474,266.7357363749761,32,4,,,,,,,,,Small,,,,
,,choice,option,266.74167716654483,267.7665519999573,32,4,,,,,,,,,Small,,,,
,,choice,choice,267.766712874989,276.69680470833555,32,4,,,2,1,7.920833125011995,,,,Small,,,,
,,memory,free_recall,285.70678554160986,299.94860199990217,18,4,,,,,,,,,,,,,
,,memory,value_recall,311.29171124997083,314.55445270834025,19,4,Animal_Land_Solid_Large,,,,3.259175666840747,,,,,6,,,
,,memory,value_recall,316.34337291656993,318.6588378333254,20,4,Object_Land_Pattern_Small,,,,2.311958250007592,,,,,-2,,,
,,memory,value_recall,320.4488077915739,322.85830058332067,21,4,Object_Sea_Solid_Large,,,,2.4053600834449753,,,,,-4,,,
,,memory,value_recall,324.14798916655127,327.8279231665656,22,4,Animal_Land_Pattern_Small,,,,3.676350333262235,,,,,-6,,,
,,memory,value_recall,328.8663440415403,330.99094316654373,23,4,Object_Sea_Pattern_Small,,,,2.119999875081703,,,,,7,,,
,,memory,value_recall,332.7802367915865,335.04483970836736,24,4,Animal_Sea_Solid_Large,,,,2.26096858328674,,,,,-4,,,
,,memory,spatial_recall,338.9580493333051,341.4618820415344,24,4,Object_Sea_Pattern_Small,,,1,2.5003641666844487,,,,,,"[-329, -190]","[-329, -190]",
,,memory,spatial_recall,342.77935179159977,345.02694133331534,24,4,Object_Land_Pattern_Small,,,1,2.244161625043489,,,,,,"[329, 189]","[329, 189]",
,,memory,spatial_recall,346.33969462499954,348.29802416660823,24,4,Animal_Land_Pattern_Small,,,1,1.9549543333705515,,,,,,"[-329, 190]","[-329, 190]",
,,memory,spatial_recall,349.37079037493095,350.93373358331155,24,4,Animal_Sea_Solid_Large,,,1,1.560912708286196,,,,,,"[0, -380]","[0, -380]",
,,memory,spatial_recall,352.50459745828994,353.912171166623,24,4,Animal_Land_Solid_Large,,,1,1.4041722916299477,,,,,,"[0, 380]","[0, 380]",
,,memory,spatial_recall,355.97810766659677,358.0615624166094,24,4,Object_Sea_Solid_Large,,,1,2.079858791665174,,,,,,"[329, -190]","[329, -190]",
,,encoding,fixation,9.705862583243288,10.958758041611873,25,5,Object_Land_Solid_Large,-9,,,,,,,,,,,
,,encoding,image,10.958917999989353,11.967754916637205,25,5,Object_Land_Solid_Large,-9,,,,,,,,,,,
,,encoding,value,11.967847458203323,17.976683874963783,25,5,Object_Land_Solid_Large,-9,,,,,,,,,,,
,,encoding,attention,17.97678399994038,20.99010058317799,25,5,Object_Land_Solid_Large,-9,-9,1,1.0598669166211039,,,,,,,,
,,encoding,fixation,20.990306874969974,21.493865708238445,26,5,Animal_Sea_Pattern_Large,8,,,,,,,,,,,
,,encoding,image,21.49396400002297,22.502048916649073,26,5,Animal_Sea_Pattern_Large,8,,,,,,,,,,,
,,encoding,value,22.502189916558564,28.510678375023417,26,5,Animal_Sea_Pattern_Large,8,,,,,,,,,,,
,,encoding,attention,28.510783624951728,31.52381241659168,26,5,Animal_Sea_Pattern_Large,8,+8,1,0.8616803750628605,,,,,,,,
,,encoding,fixation,31.523949083290063,32.03079250000883,27,5,Object_Land_Pattern_Large,2,,,,,,,,,,,
,,encoding,image,32.030946083250456,33.04000670823734,27,5,Object_Land_Pattern_Large,2,,,,,,,,,,,
,,encoding,value,33.04010733321775,39.04984895826783,27,5,Object_Land_Pattern_Large,2,,,,,,,,,,,
,,encoding,attention,39.04995883326046,42.067271416657604,27,5,Object_Land_Pattern_Large,2,+2,1,1.300004708347842,,,,,,,,
,,encoding,fixation,42.06739474995993,43.32176329160575,28,5,Animal_Sea_Pattern_Small,-9,,,,,,,,,,,
,,encoding,image,43.32186404161621,44.331034083268605,28,5,Animal_Sea_Pattern_Small,-9,,,,,,,,,,,
,,encoding,value,44.331148166558705,50.33985962497536,28,5,Animal_Sea_Pattern_Small,-9,,,,,,,,,,,
,,encoding,attention,50.33996620820835,53.354668500018306,28,5,Animal_Sea_Pattern_Small,-9,-9,1,1.588101583183743,,,,,,,,
,,encoding,fixation,53.35487620823551,54.608350916649215,29,5,Animal_Land_Solid_Small,3,,,,,,,,,,,
,,encoding,image,54.608447291655466,55.61688949994277,29,5,Animal_Land_Solid_Small,3,,,,,,,,,,,
,,encoding,value,55.61699116660748,61.62573833321221,29,5,Animal_Land_Solid_Small,3,,,,,,,,,,,
,,encoding,attention,61.625839874963276,64.64214770821854,29,5,Animal_Land_Solid_Small,3,+3,1,0.8379882916342467,,,,,,,,
,,encoding,fixation,64.64226829155814,65.14775383321103,30,5,Object_Sea_Solid_Small,3,,,,,,,,,,,
,,encoding,image,65.14786458318122,66.15622187498957,30,5,Object_Sea_Solid_Small,3,,,,,,,,,,,
,,encoding,value,66.15634762495756,72.1646376249846,30,5,Object_Sea_Solid_Small,3,,,,,,,,,,,
,,encoding,attention,72.1647664582124,75.17786887497641,30,5,Object_Sea_Solid_Small,3,+3,1,1.5397924581775442,,,,,,,,
,,n-back,,,,121,5,,,,1,None,X,False,None,,,,,
,,n-back,,,,122,5,,,,1,None,C,False,None,,,,,
,,n-back,,,,123,5,,,,0,None,X,True,None,,,,,
,,n-back,,,,124,5,,,,1,0.6759377915877849,C,True,1,,,,,
,,n-back,,,,125,5,,,,1,None,N,False,None,,,,,
,,n-back,,,,126,5,,,,1,None,B,False,None,,,,,
,,n-back,,,,127,5,,,,1,None,V,False,None,,,,,
,,n-back,,,,128,5,,,,0,1.2280167917488143,N,False,1,,,,,
,,n-back,,,,129,5,,,,1,None,Z,False,None,,,,,
,,n-back,,,,130,5,,,,1,None,Z,False,None,,,,,
,,n-back,,,,131,5,,,,1,None,N,False,None,,,,,
,,n-back,,,,132,5,,,,1,0.39182329166214913,Z,True,1,,,,,
,,n-back,,,,133,5,,,,1,0.8054603333584964,N,True,1,,,,,
,,n-back,,,,134,5,,,,1,None,V,False,None,,,,,
,,n-back,,,,135,5,,,,1,0.9272285832557827,N,True,1,,,,,
,,n-back,,,,136,5,,,,1,None,B,False,None,,,,,
,,n-back,,,,137,5,,,,1,None,Z,False,None,,,,,
,,n-back,,,,138,5,,,,1,0.40809679171070457,B,True,1,,,,,
,,n-back,,,,139,5,,,,1,None,N,False,None,,,,,
,,n-back,,,,140,5,,,,1,0.8390527082374319,B,True,1,,,,,
,,n-back,,,,141,5,,,,1,None,V,False,None,,,,,
,,n-back,,,,142,5,,,,0,None,B,True,None,,,,,
,,n-back,,,,143,5,,,,1,None,B,False,None,,,,,
,,n-back,,,,144,5,,,,1,None,V,False,None,,,,,
,,n-back,,,,145,5,,,,1,0.34544679161626846,B,True,1,,,,,
,,n-back,,,,146,5,,,,1,None,B,False,None,,,,,
,,n-back,,,,147,5,,,,0,1.2520872082095593,V,False,1,,,,,
,,n-back,,,,148,5,,,,1,None,V,False,None,,,,,
,,n-back,,,,149,5,,,,1,None,Z,False,None,,,,,
,,n-back,,,,150,5,,,,0,None,V,True,None,,,,,
,,choice,fixation,155.44568908319343,156.69744754163548,33,5,,,,,,,,,Pattern,,,,
,,choice,option,156.7036913331831,157.73027116665617,33,5,,,,,,,,,Pattern,,,,
,,choice,choice,157.73036375001539,171.7456890415633,33,5,,,1,1,12.997330000041984,,,,Pattern,,,,
,,choice,fixation,171.74578412494157,172.497562250006,34,5,,,,,,,,,Object,,,,
,,choice,option,172.50383341661654,173.5305211666273,34,5,,,,,,,,,Object,,,,
,,choice,choice,173.53068754158448,187.62245712499134,34,5,,,2,1,13.082965541747399,,,,Object,,,,
,,choice,fixation,187.62257529166527,189.1260511665605,35,5,,,,,,,,,Large,,,,
,,choice,option,189.13188100000843,190.15589533327147,35,5,,,,,,,,,Large,,,,
,,choice,choice,190.1560631665634,198.186195999966,35,5,,,1,1,7.022147999959998,,,,Large,,,,
,,choice,fixation,198.18630791665055,199.68983891664539,36,5,,,,,,,,,Animal,,,,
,,choice,option,199.69574208324775,200.72021558322012,36,5,,,,,,,,,Animal,,,,
,,choice,choice,200.72031566663645,208.0067669999553,36,5,,,1,1,6.278813083306886,,,,Animal,,,,
,,choice,fixation,208.00687854166608,208.76326404162683,37,5,,,,,,,,,Sea,,,,
,,choice,option,208.76885587500874,209.79332599998452,37,5,,,,,,,,,Sea,,,,
,,choice,choice,209.79344054160174,222.00151737499982,37,5,,,1,1,11.19883987493813,,,,Sea,,,,
,,choice,fixation,222.00162875000387,223.00497512496077,38,5,,,,,,,,,Land,,,,
,,choice,option,223.01063091657124,224.0343639999628,38,5,,,,,,,,,Land,,,,
,,choice,choice,224.03447674994823,233.3736755832797,38,5,,,2,1,8.331277500023134,,,,Land,,,,
,,choice,fixation,233.373799999943,234.63091258320492,39,5,,,,,,,,,Solid,,,,
,,choice,option,234.63700224994682,235.661047041649,39,5,,,,,,,,,Solid,,,,
,,choice,choice,235.6611741250381,248.34192395827267,39,5,,,2,1,11.672434333246201,,,,Solid,,,,
,,choice,fixation,248.3420281666331,249.0952604166232,40,5,,,,,,,,,Small,,,,
,,choice,option,249.10093862493522,250.1248004999943,40,5,,,,,,,,,Small,,,,
,,choice,choice,250.1249019582756,258.4557509999722,40,5,,,2,1,7.320082374964841,,,,Small,,,,
,,memory,free_recall,270.4031028749887,289.7316876249388,24,5,,,,,,,,,,,,,
,,memory,value_recall,298.32471437496133,301.042886500014,25,5,Animal_Sea_Pattern_Small,,,,2.7122876250650734,,,,,-9,,,
,,memory,value_recall,302.3320614999393,304.3061580832582,26,5,Animal_Land_Solid_Small,,,,1.9705824999837205,,,,,3,,,
,,memory,value_recall,305.5949523332529,307.8034962499514,27,5,Animal_Sea_Pattern_Large,,,,2.2050831667147577,,,,,8,,,
,,memory,value_recall,309.34304537496064,311.2904470831854,28,5,Object_Sea_Solid_Small,,,,1.943892000010237,,,,,3,,,
,,memory,value_recall,312.8309906249633,314.2570226249518,29,5,Object_Land_Solid_Large,,,,1.4223558332305402,,,,,-9,,,
,,memory,value_recall,315.5386449582875,317.0573042082833,30,5,Object_Land_Pattern_Large,,,,1.514904999989085,,,,,2,,,
,,memory,spatial_recall,321.61439929157495,323.6702316249721,30,5,Animal_Land_Solid_Small,,,1,2.052107374998741,,,,,,"[-329, -190]","[-329, -190]",
,,memory,spatial_recall,324.98452054162044,326.38719104160555,30,5,Object_Sea_Solid_Small,,,1,1.3990043749799952,,,,,,"[0, -380]","[0, -380]",
,,memory,spatial_recall,327.44733504159376,328.95640554162674,30,5,Animal_Sea_Pattern_Small,,,1,1.5070298332720995,,,,,,"[329, -190]","[329, -190]",
,,memory,spatial_recall,330.52437933324836,332.4667515832698,30,5,Object_Land_Solid_Large,,,1,1.9361211250070482,,,,,,"[0, 380]","[0, 380]",
,,memory,spatial_recall,334.2828765416052,336.7206858332502,30,5,Object_Land_Pattern_Large,,,1,2.4343889999436215,,,,,,"[-329, 190]","[-329, 190]",
,,memory,spatial_recall,338.7844316250412,340.1923130416544,30,5,Animal_Sea_Pattern_Large,,,1,1.4045485833194107,,,,,,"[329, 189]","[329, 189]",
,,encoding,fixation,4.493855458218604,5.747308166581206,31,6,Animal_Land_Pattern_Small,-1,,,,,,,,,,,
,,encoding,image,5.7474096249789,6.7567613332066685,31,6,Animal_Land_Pattern_Small,-1,,,,,,,,,,,
,,encoding,value,6.7568600833183154,12.766468208283186,31,6,Animal_Land_Pattern_Small,-1,,,,,,,,,,,
,,encoding,attention,12.76658983330708,15.780261166626588,31,6,Animal_Land_Pattern_Small,-1,-1,1,0.9743687917944044,,,,,,,,
,,encoding,fixation,15.780394166591577,16.284849583287723,32,6,Object_Land_Solid_Small,7,,,,,,,,,,,
,,encoding,image,16.284939000033773,17.293076708214357,32,6,Object_Land_Solid_Small,7,,,,,,,,,,,
,,encoding,value,17.293164833215997,23.302899583242834,32,6,Object_Land_Solid_Small,7,,,,,,,,,,,
,,encoding,attention,23.302997791673988,26.31684474996291,32,6,Object_Land_Solid_Small,7,+7,1,0.9968553750077263,,,,,,,,
,,encoding,fixation,26.31696958327666,27.071319666691124,33,6,Object_Sea_Pattern_Large,-1,,,,,,,,,,,
,,encoding,image,27.07142233324703,28.08057241665665,33,6,Object_Sea_Pattern_Large,-1,,,,,,,,,,,
,,encoding,value,28.08068875002209,34.08928662503604,33,6,Object_Sea_Pattern_Large,-1,,,,,,,,,,,
,,encoding,attention,34.089391083223745,37.105479916674085,33,6,Object_Sea_Pattern_Large,-1,-1,1,1.368766333325766,,,,,,,,
,,encoding,fixation,37.10567254165653,38.359251208254136,34,6,Object_Sea_Solid_Large,-1,,,,,,,,,,,
,,encoding,image,38.35937179159373,39.36860404163599,34,6,Object_Sea_Solid_Large,-1,,,,,,,,,,,
,,encoding,value,39.36871070822235,45.37745937507134,34,6,Object_Sea_Solid_Large,-1,,,,,,,,,,,
,,encoding,attention,45.37756074999925,48.39144391659647,34,6,Object_Sea_Solid_Large,-1,-1,1,0.6829558750614524,,,,,,,,
,,encoding,fixation,48.39157241664361,48.89549562497996,35,6,Animal_Sea_Pattern_Large,9,,,,,,,,,,,
,,encoding,image,48.89559037506115,49.90370233322028,35,6,Animal_Sea_Pattern_Large,9,,,,,,,,,,,
,,encoding,value,49.9038182500517,55.91238937503658,35,6,Animal_Sea_Pattern_Large,9,,,,,,,,,,,
,,encoding,attention,55.912490708287805,58.92531137506012,35,6,Animal_Sea_Pattern_Large,9,+9,1,0.7088654167018831,,,,,,,,
,,encoding,fixation,58.92543795821257,60.42914970824495,36,6,Animal_Land_Solid_Small,-4,,,,,,,,,,,
,,encoding,image,60.42925649997778,61.43826054164674,36,6,Animal_Land_Solid_Small,-4,,,,,,,,,,,
,,encoding,value,61.438366291695274,67.44746749999467,36,6,Animal_Land_Solid_Small,-4,,,,,,,,,,,
,,encoding,attention,67.44756866665557,70.46128787496127,36,6,Animal_Land_Solid_Small,-4,-4,1,1.340292499982752,,,,,,,,
,,n-back,,,,151,6,,,,1,None,N,False,None,,,,,
,,n-back,,,,152,6,,,,1,None,X,False,None,,,,,
,,n-back,,,,153,6,,,,1,None,C,False,None,,,,,
,,n-back,,,,154,6,,,,1,None,B,False,None,,,,,
,,n-back,,,,155,6,,,,1,0.6399436249630526,C,True,1,,,,,
,,n-back,,,,156,6,,,,1,None,X,False,None,,,,,
,,n-back,,,,157,6,,,,1,0.5117892499547452,C,True,1,,,,,
,,n-back,,,,158,6,,,,1,None,B,False,None,,,,,
,,n-back,,,,159,6,,,,1,None,B,False,None,,,,,
,,n-back,,,,160,6,,,,1,None,V,False,None,,,,,
,,n-back,,,,161,6,,,,1,None,Z,False,None,,,,,
,,n-back,,,,162,6,,,,1,None,N,False,None,,,,,
,,n-back,,,,163,6,,,,0,0.9603577082743868,V,False,1,,,,,
,,n-back,,,,164,6,,,,1,0.7524122500326484,N,True,1,,,,,
,,n-back,,,,165,6,,,,1,None,C,False,None,,,,,
,,n-back,,,,166,6,,,,1,None,C,False,None,,,,,
,,n-back,,,,167,6,,,,1,0.7536008333554491,C,True,1,,,,,
,,n-back,,,,168,6,,,,1,0.977454875013791,C,True,1,,,,,
,,n-back,,,,169,6,,,,1,None,Z,False,None,,,,,
,,n-back,,,,170,6,,,,1,0.8679574582492933,C,True,1,,,,,
,,n-back,,,,171,6,,,,0,None,Z,True,None,,,,,
,,n-back,,,,172,6,,,,0,None,C,True,None,,,,,
,,n-back,,,,173,6,,,,1,None,N,False,None,,,,,
,,n-back,,,,174,6,,,,1,None,V,False,None,,,,,
,,n-back,,,,175,6,,,,0,None,N,True,None,,,,,
,,n-back,,,,176,6,,,,0,None,V,True,None,,,,,
,,n-back,,,,177,6,,,,1,None,V,False,None,,,,,
,,n-back,,,,178,6,,,,1,None,Z,False,None,,,,,
,,n-back,,,,179,6,,,,1,None,X,False,None,,,,,
,,n-back,,,,180,6,,,,1,None,N,False,None,,,,,
,,choice,fixation,149.25888500001747,150.01082391664386,41,6,,,,,,,,,Small,,,,
,,choice,option,150.01690262497868,151.03969208325725,41,6,,,,,,,,,Small,,,,
,,choice,choice,151.03979379159864,160.15290329162963,41,6,,,1,1,8.105194624979049,,,,Small,,,,
,,choice,fixation,160.15302512503695,160.90645237499848,42,6,,,,,,,,,Solid,,,,
,,choice,option,160.91246374999173,161.93660695827566,42,6,,,,,,,,,Solid,,,,
,,choice,choice,161.93671195826028,173.47481745830737,42,6,,,1,1,10.530210583354346,,,,Solid,,,,
,,choice,fixation,173.4749270832399,174.97847662505228,43,6,,,,,,,,,Sea,,,,
,,choice,option,174.9837841250701,176.00783716666047,43,6,,,,,,,,,Sea,,,,
,,choice,choice,176.00792991661,181.20215779158752,43,6,,,1,1,4.186821958399378,,,,Sea,,,,
,,choice,fixation,181.2022681250237,181.95554633322172,44,6,,,,,,,,,Animal,,,,
,,choice,option,181.96155308326706,182.98627524997573,44,6,,,,,,,,,Animal,,,,
,,choice,choice,182.98636879166588,187.1239242082229,44,6,,,1,1,3.1301509583136067,,,,Animal,,,,
,,choice,fixation,187.12406812503468,187.87730620824732,45,6,,,,,,,,,Land,,,,
,,choice,option,187.8829444582807,188.90752870822325,45,6,,,,,,,,,Land,,,,
,,choice,choice,188.90762341662776,194.73639391665347,45,6,,,1,1,4.821315791807137,,,,Land,,,,
,,choice,fixation,194.73659391666297,195.23988187499344,46,6,,,,,,,,,Large,,,,
,,choice,option,195.24565995822195,196.26956341660116,46,6,,,,,,,,,Large,,,,
,,choice,choice,196.2696502499748,201.31223358330317,46,6,,,1,1,4.035375874955207,,,,Large,,,,
,,choice,fixation,201.3123478333,202.06811295822263,47,6,,,,,,,,,Pattern,,,,
,,choice,option,202.07430858328007,203.1005402499577,47,6,,,,,,,,,Pattern,,,,
,,choice,choice,203.10063233331311,207.9940950832097,47,6,,,1,1,3.8856051249895245,,,,Pattern,,,,
,,choice,fixation,207.99424366664607,208.99782241659705,48,6,,,,,,,,,Object,,,,
,,choice,option,209.004162833211,210.0282223332906,48,6,,,,,,,,,Object,,,,
,,choice,choice,210.02831612504087,216.34728862496559,48,6,,,1,1,5.309367541689426,,,,Object,,,,
,,memory,free_recall,225.5406886250712,241.75666441663634,30,6,,,,,,,,,,,,,
,,memory,value_recall,246.48500020825304,249.1091830416117,31,6,Animal_Land_Pattern_Small,,,,2.622185624903068,,,,,-1,,,
,,memory,value_recall,250.89933958323672,253.17396029166412,32,6,Animal_Sea_Pattern_Large,,,,2.271129500004463,,,,,9,,,
,,memory,value_recall,254.2132608749671,256.45002191665117,33,6,Object_Sea_Solid_Large,,,,2.2335205416893587,,,,,-1,,,
,,memory,value_recall,258.49082625005394,259.59913320827764,34,6,Object_Sea_Pattern_Large,,,,1.1040651665534824,,,,,-1,,,
,,memory,value_recall,261.38872320821974,263.23839158331975,35,6,Animal_Land_Solid_Small,,,,1.8461991250514984,,,,,-4,,,
,,memory,value_recall,264.27777337504085,265.7974765832769,36,6,Object_Land_Solid_Small,,,,1.5170685834018514,,,,,7,,,
,,memory,spatial_recall,269.48382766661234,271.80700058327056,36,6,Object_Sea_Solid_Large,,,1,2.319669249933213,,,,,,"[329, -190]","[329, -190]",
,,memory,spatial_recall,273.37150550005026,276.25974945828784,36,6,Object_Land_Solid_Small,,,1,2.884691958432086,,,,,,"[0, -380]","[0, -380]",
,,memory,spatial_recall,278.33378883323167,280.4748264582595,36,6,Object_Sea_Pattern_Large,,,1,2.1374848750419915,,,,,,"[0, 380]","[0, 380]",
,,memory,spatial_recall,282.03797695820685,283.3624170832336,36,6,Animal_Sea_Pattern_Large,,,1,1.3210147500503808,,,,,,"[329, 189]","[329, 189]",
,,memory,spatial_recall,285.18236624996644,286.3909370416077,36,6,Animal_Land_Solid_Small,,,1,1.2051440000068396,,,,,,"[-329, -190]","[-329, -190]",
,,memory,spatial_recall,287.69940179167315,289.2082702500047,36,6,Animal_Land_Pattern_Small,,,1,1.5054295416921377,,,,,,"[-329, 190]","[-329, 190]",
,,encoding,fixation,8.470719416625798,9.724313666694798,37,7,Animal_Land_Solid_Large,1,,,,,,,,,,,
,,encoding,image,9.724445375031792,10.733750458457507,37,7,Animal_Land_Solid_Large,1,,,,,,,,,,,
,,encoding,value,10.733866666676477,16.744292124989443,37,7,Animal_Land_Solid_Large,1,,,,,,,,,,,
,,encoding,attention,16.744402250042185,19.759047999978065,37,7,Animal_Land_Solid_Large,1,+1,1,0.7570140417665243,,,,,,,,
,,encoding,fixation,19.75925220840145,21.0128165417118,38,7,Animal_Land_Pattern_Large,7,,,,,,,,,,,
,,encoding,image,21.012922166613862,22.021806749980897,38,7,Animal_Land_Pattern_Large,7,,,,,,,,,,,
,,encoding,value,22.021918208454736,28.030985000077635,38,7,Animal_Land_Pattern_Large,7,,,,,,,,,,,
,,encoding,attention,28.031095375074074,31.045798916602507,38,7,Animal_Land_Pattern_Large,7,+7,1,0.9254077916266397,,,,,,,,
,,encoding,fixation,31.045941416639835,32.29927737498656,39,7,Object_Sea_Solid_Small,1,,,,,,,,,,,
,,encoding,image,32.29938995838165,33.31130825006403,39,7,Object_Sea_Solid_Small,1,,,,,,,,,,,
,,encoding,value,33.31142079166602,39.319476125063375,39,7,Object_Sea_Solid_Small,1,,,,,,,,,,,
,,encoding,attention,39.31956850003917,42.33350454166066,39,7,Object_Sea_Solid_Small,1,+1,1,1.2810227083973587,,,,,,,,
,,encoding,fixation,42.33364575006999,43.58731216669548,40,7,Object_Sea_Pattern_Small,7,,,,,,,,,,,
,,encoding,image,43.587403958430514,44.59624245844316,40,7,Object_Sea_Pattern_Small,7,,,,,,,,,,,
,,encoding,value,44.5963271666551,50.60506312502548,40,7,Object_Sea_Pattern_Small,7,,,,,,,,,,,
,,encoding,attention,50.605161041603424,53.61917470837943,40,7,Object_Sea_Pattern_Small,7,+7,1,1.6723492082674056,,,,,,,,
,,encoding,fixation,53.61932241660543,55.122882708441466,41,7,Object_Land_Pattern_Large,-9,,,,,,,,,,,
,,encoding,image,55.12297262507491,56.132174125057645,41,7,Object_Land_Pattern_Large,-9,,,,,,,,,,,
,,encoding,value,56.13227762503084,62.14333458337933,41,7,Object_Land_Pattern_Large,-9,,,,,,,,,,,
,,encoding,attention,62.1434598750202,65.15801308338996,41,7,Object_Land_Pattern_Large,-9,-9,1,0.8038411249872297,,,,,,,,
,,encoding,fixation,65.1581865834305,66.16155545844231,42,7,Animal_Sea_Solid_Small,-7,,,,,,,,,,,
,,encoding,image,66.16165629168972,67.17059191665612,42,7,Animal_Sea_Solid_Small,-7,,,,,,,,,,,
,,encoding,value,67.17069279169664,73.1794634583639,42,7,Animal_Sea_Solid_Small,-7,,,,,,,,,,,
,,encoding,attention,73.1795698334463,76.19017362501472,42,7,Animal_Sea_Solid_Small,-7,None,None,None,,,,,,,,
,,n-back,,,,181,7,,,,1,None,N,False,None,,,,,
,,n-back,,,,182,7,,,,1,None,B,False,None,,,,,
,,n-back,,,,183,7,,,,1,None,C,False,None,,,,,
,,n-back,,,,184,7,,,,1,None,V,False,None,,,,,
,,n-back,,,,185,7,,,,1,0.9453900834778324,C,True,1,,,,,
,,n-back,,,,186,7,,,,1,0.6923230832908303,V,True,1,,,,,
,,n-back,,,,187,7,,,,1,None,V,False,None,,,,,
,,n-back,,,,188,7,,,,1,None,Z,False,None,,,,,
,,n-back,,,,189,7,,,,1,0.5754138750489801,V,True,1,,,,,
,,n-back,,,,190,7,,,,1,None,C,False,None,,,,,
,,n-back,,,,191,7,,,,1,None,B,False,None,,,,,
,,n-back,,,,192,7,,,,1,None,V,False,None,,,,,
,,n-back,,,,193,7,,,,1,None,C,False,None,,,,,
,,n-back,,,,194,7,,,,1,None,Z,False,None,,,,,
,,n-back,,,,195,7,,,,0,None,C,True,None,,,,,
,,n-back,,,,196,7,,,,1,None,N,False,None,,,,,
,,n-back,,,,197,7,,,,1,0.5062175834318623,C,True,1,,,,,
,,n-back,,,,198,7,,,,1,None,X,False,None,,,,,
,,n-back,,,,199,7,,,,1,0.48729837499558926,C,True,1,,,,,
,,n-back,,,,200,7,,,,1,None,Z,False,None,,,,,
,,n-back,,,,201,7,,,,1,1.3261907084379345,C,True,1,,,,,
,,n-back,,,,202,7,,,,1,None,V,False,None,,,,,
,,n-back,,,,203,7,,,,1,1.4547347917687148,C,True,1,,,,,
,,n-back,,,,204,7,,,,1,None,N,False,None,,,,,
,,n-back,,,,205,7,,,,1,None,N,False,None,,,,,
,,n-back,,,,206,7,,,,1,None,B,False,None,,,,,
,,n-back,,,,207,7,,,,0,None,N,True,None,,,,,
,,n-back,,,,208,7,,,,1,0.7454835833050311,B,True,1,,,,,
,,n-back,,,,209,7,,,,1,None,X,False,None,,,,,
,,n-back,,,,210,7,,,,1,None,C,False,None,,,,,
,,choice,fixation,162.79846191662364,164.05035033344757,49,7,,,,,,,,,Pattern,,,,
,,choice,option,164.05626425007358,165.08229812502395,49,7,,,,,,,,,Pattern,,,,
,,choice,choice,165.08239491668064,174.52678762504365,49,7,,,1,1,8.425720000057481,,,,Pattern,,,,
,,choice,fixation,174.52689558337443,175.27876662497874,50,7,,,,,,,,,Large,,,,
,,choice,option,175.28474320843816,176.31080008344725,50,7,,,,,,,,,Large,,,,
,,choice,choice,176.31090504163876,189.05990275007207,50,7,,,2,1,11.738876833347604,,,,Large,,,,
,,choice,fixation,189.06002441665623,189.56341525004245,51,7,,,,,,,,,Sea,,,,
,,choice,option,189.5689565000357,190.5927362916991,51,7,,,,,,,,,Sea,,,,
,,choice,choice,190.59285050001927,204.46664141665678,51,7,,,1,1,12.865179458167404,,,,Sea,,,,
,,choice,fixation,204.46674633340444,205.72017800004687,52,7,,,,,,,,,Small,,,,
,,choice,option,205.7259542500833,206.7508949167095,52,7,,,,,,,,,Small,,,,
,,choice,choice,206.7510085416725,217.4901378750801,52,7,,,1,1,9.730477374978364,,,,Small,,,,
,,choice,fixation,217.49028737505432,218.74392145837191,53,7,,,,,,,,,Solid,,,,
,,choice,option,218.75028058339376,219.77562900003977,53,7,,,,,,,,,Solid,,,,
,,choice,choice,219.77572783338837,229.18839174997993,53,7,,,2,1,8.404446458327584,,,,Solid,,,,
,,choice,fixation,229.188516541617,229.9448372083716,54,7,,,,,,,,,Animal,,,,
,,choice,option,229.9507568749832,230.97561262501404,54,7,,,,,,,,,Animal,,,,
,,choice,choice,230.97571654163767,238.20142512500752,54,7,,,1,1,6.218034291639924,,,,Animal,,,,
,,choice,fixation,238.20154991664458,239.2052380000241,55,7,,,,,,,,,Object,,,,
,,choice,option,239.211562083452,240.23577274999116,55,7,,,,,,,,,Object,,,,
,,choice,choice,240.23587058344856,245.96667133341543,55,7,,,2,1,4.723450416699052,,,,Object,,,,
,,choice,fixation,245.96677450009156,247.2200198334176,56,7,,,,,,,,,Land,,,,
,,choice,option,247.22572929167654,248.2496854166966,56,7,,,,,,,,,Land,,,,
,,choice,choice,248.24978129169904,255.37957904161885,56,7,,,2,1,6.121797916828655,,,,Land,,,,
,,memory,free_recall,261.88587550004013,285.3975720416056,36,7,,,,,,,,,,,,,
,,memory,value_recall,292.2519927084213,294.47035970841534,37,7,Object_Land_Pattern_Large,,,,2.213819333235733,,,,,-9,,,
,,memory,value_recall,296.00990779162385,298.3500319584273,38,7,Animal_Land_Solid_Large,,,,2.336519583244808,,,,,1,,,
,,memory,value_recall,299.8897621666547,302.05400020838715,39,7,Object_Sea_Solid_Small,,,,2.160797666758299,,,,,1,,,
,,memory,value_recall,303.5967553333612,305.6635621250607,40,7,Object_Sea_Pattern_Small,,,,2.0632368749938905,,,,,7,,,
,,memory,value_recall,307.2022430833895,309.02774829161353,41,7,Animal_Land_Pattern_Large,,,,1.8217990833800286,,,,,7,,,
,,memory,value_recall,310.31620529165957,312.3184665000299,42,7,Animal_Sea_Solid_Small,,,,1.998678750009276,,,,,-7,,,
,,memory,spatial_recall,315.69057120836806,317.6676823333837,42,7,Object_Sea_Solid_Small,,,1,1.9736706665717065,,,,,,"[0, -380]","[0, -380]",
,,memory,spatial_recall,319.73683866660576,321.33473116671667,42,7,Object_Land_Pattern_Large,,,1,1.5942075416678563,,,,,,"[-329, 190]","[-329, 190]",
,,memory,spatial_recall,323.1526564999949,324.88876795838587,42,7,Animal_Land_Solid_Large,,,1,1.7323192916810513,,,,,,"[0, 380]","[0, 380]",
,,memory,spatial_recall,326.96038479171693,329.09769237507135,42,7,Animal_Land_Pattern_Large,,,1,2.1340061665978283,,,,,,"[329, -190]","[329, -190]",
,,memory,spatial_recall,330.91112045838963,333.09786083339714,42,7,Object_Sea_Pattern_Small,,,1,2.183364083408378,,,,,,"[-329, -190]","[-329, -190]",
,,memory,spatial_recall,334.1609272083733,335.7846949166851,42,7,Animal_Sea_Solid_Small,,,1,1.621867791749537,,,,,,"[329, 189]","[329, 189]",
