subject,phase,event,trial_number,game,option,choice,rt,roi_content,item_index,is_center,is_relevant,fix_start,fix_end,fix_duration_bounded
114,choice,choice,1,1.0,Solid,1.0,33.667738749994896,Animal_Land_Pattern_Small,0,0,0,9114380.0,9114626.0,246.0
114,choice,choice,1,1.0,Solid,1.0,33.667738749994896,fixation,-1,1,0,9114675.0,9114902.0,227.0
114,choice,choice,1,1.0,Solid,1.0,33.667738749994896,Animal_Sea_Solid_Large,1,0,1,9117076.0,9117257.0,181.0
114,choice,choice,1,1.0,Solid,1.0,33.667738749994896,fixation,-1,1,0,9117279.0,9118182.0,903.0
114,choice,choice,1,1.0,Solid,1.0,33.667738749994896,Object_Sea_Solid_Large,2,0,1,9118213.0,9118387.0,174.0
114,choice,choice,1,1.0,Solid,1.0,33.667738749994896,fixation,-1,1,0,9118412.0,9118995.0,583.0
114,choice,choice,1,1.0,Solid,1.0,33.667738749994896,Object_Sea_Solid_Large,2,0,1,9119018.0,9120143.0,1125.0
114,choice,choice,1,1.0,Solid,1.0,33.667738749994896,Animal_Land_Solid_Small,3,0,1,9120679.0,9120996.0,317.0
114,choice,choice,1,1.0,Solid,1.0,33.667738749994896,fixation,-1,1,0,9121008.0,9121231.0,223.0
114,choice,choice,1,1.0,Solid,1.0,33.667738749994896,Object_Land_Pattern_Small,4,0,0,9121251.0,9122413.0,1162.0
114,choice,choice,1,1.0,Solid,1.0,33.667738749994896,fixation,-1,1,0,9122494.0,9122929.0,435.0
114,choice,choice,1,1.0,Solid,1.0,33.667738749994896,Object_Land_Pattern_Small,4,0,0,9123128.0,9123433.0,305.0
114,choice,choice,1,1.0,Solid,1.0,33.667738749994896,Object_Sea_Solid_Large,2,0,1,9123450.0,9123642.0,192.0
114,choice,choice,1,1.0,Solid,1.0,33.667738749994896,Animal_Sea_Solid_Large,1,0,1,9123938.0,9123999.0,61.0
114,choice,choice,1,1.0,Solid,1.0,33.667738749994896,Object_Sea_Solid_Large,2,0,1,9124213.0,9124687.0,474.0
114,choice,choice,1,1.0,Solid,1.0,33.667738749994896,fixation,-1,1,0,9124734.0,9125088.0,354.0
114,choice,choice,1,1.0,Solid,1.0,33.667738749994896,Object_Sea_Solid_Large,2,0,1,9125440.0,9126059.0,619.0
114,choice,choice,1,1.0,Solid,1.0,33.667738749994896,fixation,-1,1,0,9126080.0,9126306.0,226.0
114,choice,choice,1,1.0,Solid,1.0,33.667738749994896,Animal_Sea_Solid_Large,1,0,1,9126614.0,9126861.0,247.0
114,choice,choice,1,1.0,Solid,1.0,33.667738749994896,fixation,-1,1,0,9126874.0,9127226.0,352.0
114,choice,choice,1,1.0,Solid,1.0,33.667738749994896,Object_Sea_Solid_Large,2,0,1,9127239.0,9127742.0,503.0
114,choice,choice,1,1.0,Solid,1.0,33.667738749994896,Animal_Land_Solid_Small,3,0,1,9127920.0,9128525.0,605.0
114,choice,choice,1,1.0,Solid,1.0,33.667738749994896,Animal_Land_Pattern_Small,0,0,0,9128562.0,9129058.0,496.0
114,choice,choice,1,1.0,Solid,1.0,33.667738749994896,Object_Sea_Pattern_Large,5,0,0,9129075.0,9129322.0,247.0
114,choice,choice,1,1.0,Solid,1.0,33.667738749994896,Animal_Land_Pattern_Small,0,0,0,9129344.0,9129386.0,42.0
114,choice,choice,1,1.0,Solid,1.0,33.667738749994896,Animal_Land_Solid_Small,3,0,1,9129572.0,9129810.0,238.0
114,choice,choice,1,1.0,Solid,1.0,33.667738749994896,Object_Sea_Pattern_Large,5,0,0,9129827.0,9130289.0,462.0
114,choice,choice,1,1.0,Solid,1.0,33.667738749994896,fixation,-1,1,0,9130492.0,9130699.0,207.0
114,choice,choice,1,1.0,Solid,1.0,33.667738749994896,Object_Sea_Pattern_Large,5,0,0,9130711.0,9131640.0,929.0
114,choice,choice,1,1.0,Solid,1.0,33.667738749994896,Animal_Land_Solid_Small,3,0,1,9131828.0,9132277.0,449.0
114,choice,choice,1,1.0,Solid,1.0,33.667738749994896,Animal_Land_Pattern_Small,0,0,0,9132518.0,9133003.0,485.0
114,choice,choice,1,1.0,Solid,1.0,33.667738749994896,Object_Sea_Pattern_Large,5,0,0,9133201.0,9133397.0,196.0
114,choice,choice,1,1.0,Solid,1.0,33.667738749994896,fixation,-1,1,0,9133589.0,9133807.0,218.0
114,choice,choice,1,1.0,Solid,1.0,33.667738749994896,Object_Sea_Pattern_Large,5,0,0,9133819.0,9134021.0,202.0
114,choice,choice,1,1.0,Solid,1.0,33.667738749994896,Animal_Land_Pattern_Small,0,0,0,9134029.0,9134252.0,223.0
114,choice,choice,1,1.0,Solid,1.0,33.667738749994896,Animal_Land_Solid_Small,3,0,1,9134432.0,9134591.0,159.0
114,choice,choice,1,1.0,Solid,1.0,33.667738749994896,fixation,-1,1,0,9134603.0,9134827.0,224.0
114,choice,choice,1,1.0,Solid,1.0,33.667738749994896,Object_Sea_Solid_Large,2,0,1,9135016.0,9135320.0,304.0
114,choice,choice,1,1.0,Solid,1.0,33.667738749994896,Animal_Land_Pattern_Small,0,0,0,9135340.0,9135761.0,421.0
114,choice,choice,1,1.0,Solid,1.0,33.667738749994896,Animal_Sea_Solid_Large,1,0,1,9135781.0,9136284.0,503.0
114,choice,choice,1,1.0,Solid,1.0,33.667738749994896,fixation,-1,1,0,9136306.0,9137261.0,955.0
114,choice,choice,1,1.0,Solid,1.0,33.667738749994896,Object_Sea_Solid_Large,2,0,1,9137514.0,9137679.0,165.0
114,choice,choice,1,1.0,Solid,1.0,33.667738749994896,fixation,-1,1,0,9137951.0,9138655.0,704.0
114,choice,choice,1,1.0,Solid,1.0,33.667738749994896,Object_Sea_Solid_Large,2,0,1,9138683.0,9139066.0,383.0
114,choice,choice,1,1.0,Solid,1.0,33.667738749994896,fixation,-1,1,0,9139275.0,9139515.0,240.0
114,choice,choice,1,1.0,Solid,1.0,33.667738749994896,Object_Land_Pattern_Small,4,0,0,9139525.0,9139700.0,175.0
114,choice,choice,1,1.0,Solid,1.0,33.667738749994896,Animal_Sea_Solid_Large,1,0,1,9139919.0,9140065.0,146.0
114,choice,choice,1,1.0,Solid,1.0,33.667738749994896,Animal_Land_Solid_Small,3,0,1,9140279.0,9140656.0,377.0
114,choice,choice,1,1.0,Solid,1.0,33.667738749994896,Object_Sea_Solid_Large,2,0,1,9140880.0,9141062.0,182.0
114,choice,choice,1,1.0,Solid,1.0,33.667738749994896,Animal_Land_Solid_Small,3,0,1,9141270.0,9141479.0,209.0
114,choice,choice,1,1.0,Solid,1.0,33.667738749994896,fixation,-1,1,0,9141492.0,9141863.0,371.0
114,choice,choice,1,1.0,Solid,1.0,33.667738749994896,Animal_Land_Solid_Small,3,0,1,9141880.0,9142146.0,266.0
114,choice,choice,1,1.0,Solid,1.0,33.667738749994896,Animal_Sea_Solid_Large,1,0,1,9142526.0,9142839.0,313.0
114,choice,choice,1,1.0,Solid,1.0,33.667738749994896,Object_Sea_Solid_Large,2,0,1,9143069.0,9143367.0,298.0
114,choice,choice,1,1.0,Solid,1.0,33.667738749994896,fixation,-1,1,0,9143390.0,9143587.0,197.0
114,choice,choice,1,1.0,Solid,1.0,33.667738749994896,Animal_Sea_Solid_Large,1,0,1,9143791.0,9143927.0,136.0
114,choice,choice,1,1.0,Solid,1.0,33.667738749994896,Object_Sea_Solid_Large,2,0,1,9143955.0,9144133.0,178.0
114,choice,choice,1,1.0,Solid,1.0,33.667738749994896,fixation,-1,1,0,9144158.0,9144286.0,128.0
114,choice,choice,1,1.0,Solid,1.0,33.667738749994896,Animal_Sea_Solid_Large,1,0,1,9144485.0,9144739.0,254.0
114,choice,choice,1,1.0,Solid,1.0,33.667738749994896,Animal_Land_Solid_Small,3,0,1,9144756.0,9145091.0,335.0
114,choice,choice,1,1.0,Solid,1.0,33.667738749994896,Animal_Sea_Solid_Large,1,0,1,9145293.0,9145628.0,335.0
114,choice,choice,1,1.0,Solid,1.0,33.667738749994896,fixation,-1,1,0,9145651.0,9146034.0,383.0
114,choice,choice,1,1.0,Solid,1.0,33.667738749994896,Animal_Land_Solid_Small,3,0,1,9146249.0,9147601.0,1352.0
114,choice,choice,2,1.0,Object,2.0,8.206451624981128,fixation,-1,1,0,9150201.0,9150743.0,542.0
114,choice,choice,2,1.0,Object,2.0,8.206451624981128,Animal_Land_Pattern_Small,0,0,0,9150755.0,9150978.0,223.0
114,choice,choice,2,1.0,Object,2.0,8.206451624981128,Animal_Land_Solid_Small,3,0,0,9151181.0,9151312.0,131.0
114,choice,choice,2,1.0,Object,2.0,8.206451624981128,Animal_Land_Pattern_Small,0,0,0,9151329.0,9151532.0,203.0
114,choice,choice,2,1.0,Object,2.0,8.206451624981128,Animal_Sea_Solid_Large,1,0,0,9151735.0,9152017.0,282.0
114,choice,choice,2,1.0,Object,2.0,8.206451624981128,fixation,-1,1,0,9152218.0,9153590.0,1372.0
114,choice,choice,2,1.0,Object,2.0,8.206451624981128,Animal_Land_Solid_Small,3,0,0,9154213.0,9154666.0,453.0
114,choice,choice,2,1.0,Object,2.0,8.206451624981128,fixation,-1,1,0,9155093.0,9155642.0,549.0
114,choice,choice,2,1.0,Object,2.0,8.206451624981128,Animal_Land_Solid_Small,3,0,0,9155855.0,9156040.0,185.0
114,choice,choice,2,1.0,Object,2.0,8.206451624981128,Object_Sea_Pattern_Large,5,0,1,9156057.0,9156298.0,241.0
114,choice,choice,2,1.0,Object,2.0,8.206451624981128,Animal_Land_Pattern_Small,0,0,0,9156313.0,9157183.0,870.0
114,choice,choice,2,1.0,Object,2.0,8.206451624981128,Object_Sea_Pattern_Large,5,0,1,9157191.0,9157436.0,245.0
114,choice,choice,2,1.0,Object,2.0,8.206451624981128,Animal_Land_Pattern_Small,0,0,0,9157443.0,9158376.0,933.0
114,choice,choice,3,1.0,Land,2.0,11.47333275002893,Animal_Land_Solid_Small,3,0,1,9162144.0,9162317.0,173.0
114,choice,choice,3,1.0,Land,2.0,11.47333275002893,Animal_Land_Pattern_Small,0,0,1,9162332.0,9164382.0,2050.0
114,choice,choice,3,1.0,Land,2.0,11.47333275002893,Animal_Sea_Solid_Large,1,0,0,9164871.0,9164979.0,108.0
114,choice,choice,3,1.0,Land,2.0,11.47333275002893,Animal_Land_Solid_Small,3,0,1,9165202.0,9165434.0,232.0
114,choice,choice,3,1.0,Land,2.0,11.47333275002893,Animal_Land_Pattern_Small,0,0,1,9165453.0,9167468.0,2015.0
114,choice,choice,3,1.0,Land,2.0,11.47333275002893,Animal_Land_Solid_Small,3,0,1,9167909.0,9168110.0,201.0
114,choice,choice,3,1.0,Land,2.0,11.47333275002893,Animal_Land_Pattern_Small,0,0,1,9168120.0,9168610.0,490.0
114,choice,choice,3,1.0,Land,2.0,11.47333275002893,Animal_Land_Solid_Small,3,0,1,9168865.0,9169159.0,294.0
114,choice,choice,3,1.0,Land,2.0,11.47333275002893,Animal_Land_Pattern_Small,0,0,1,9169177.0,9170453.0,1276.0
114,choice,choice,3,1.0,Land,2.0,11.47333275002893,Object_Sea_Pattern_Large,5,0,0,9171118.0,9171719.0,601.0
114,choice,choice,3,1.0,Land,2.0,11.47333275002893,Animal_Land_Pattern_Small,0,0,1,9172068.0,9172831.0,763.0
114,choice,choice,3,1.0,Land,2.0,11.47333275002893,Object_Sea_Pattern_Large,5,0,0,9172852.0,9173145.0,293.0
114,choice,choice,4,1.0,Pattern,2.0,12.18920504162088,Object_Sea_Pattern_Large,5,0,1,9176540.0,9177144.0,604.0
114,choice,choice,4,1.0,Pattern,2.0,12.18920504162088,Animal_Land_Pattern_Small,0,0,1,9177321.0,9177834.0,513.0
114,choice,choice,4,1.0,Pattern,2.0,12.18920504162088,Object_Sea_Pattern_Large,5,0,1,9178253.0,9178514.0,261.0
114,choice,choice,4,1.0,Pattern,2.0,12.18920504162088,Animal_Land_Pattern_Small,0,0,1,9178529.0,9180073.0,1544.0
114,choice,choice,4,1.0,Pattern,2.0,12.18920504162088,Object_Sea_Pattern_Large,5,0,1,9180718.0,9181336.0,618.0
114,choice,choice,4,1.0,Pattern,2.0,12.18920504162088,Animal_Land_Pattern_Small,0,0,1,9181779.0,9182116.0,337.0
114,choice,choice,4,1.0,Pattern,2.0,12.18920504162088,Animal_Land_Solid_Small,3,0,0,9182481.0,9182718.0,237.0
114,choice,choice,4,1.0,Pattern,2.0,12.18920504162088,Animal_Land_Pattern_Small,0,0,1,9182731.0,9183434.0,703.0
114,choice,choice,4,1.0,Pattern,2.0,12.18920504162088,Animal_Land_Solid_Small,3,0,0,9183843.0,9184088.0,245.0
114,choice,choice,4,1.0,Pattern,2.0,12.18920504162088,Animal_Land_Pattern_Small,0,0,1,9184313.0,9184640.0,327.0
114,choice,choice,4,1.0,Pattern,2.0,12.18920504162088,Object_Sea_Pattern_Large,5,0,1,9184652.0,9185334.0,682.0
114,choice,choice,4,1.0,Pattern,2.0,12.18920504162088,fixation,-1,1,0,9185885.0,9186389.0,504.0
114,choice,choice,4,1.0,Pattern,2.0,12.18920504162088,Animal_Land_Pattern_Small,0,0,1,9186411.0,9187445.0,1034.0
114,choice,choice,4,1.0,Pattern,2.0,12.18920504162088,fixation,-1,1,0,9187680.0,9187957.0,277.0
114,choice,choice,4,1.0,Pattern,2.0,12.18920504162088,Animal_Land_Pattern_Small,0,0,1,9187969.0,9188129.0,160.0
114,choice,choice,5,1.0,Animal,1.0,10.526956000016073,Animal_Land_Pattern_Small,0,0,1,9190979.0,9191179.0,200.0
114,choice,choice,5,1.0,Animal,1.0,10.526956000016073,Animal_Land_Solid_Small,3,0,1,9191362.0,9191848.0,486.0
114,choice,choice,5,1.0,Animal,1.0,10.526956000016073,Animal_Land_Pattern_Small,0,0,1,9192272.0,9193071.0,799.0
114,choice,choice,5,1.0,Animal,1.0,10.526956000016073,Animal_Land_Solid_Small,3,0,1,9193335.0,9193708.0,373.0
114,choice,choice,5,1.0,Animal,1.0,10.526956000016073,Animal_Land_Pattern_Small,0,0,1,9193726.0,9194780.0,1054.0
114,choice,choice,5,1.0,Animal,1.0,10.526956000016073,Object_Sea_Pattern_Large,5,0,0,9195230.0,9195587.0,357.0
114,choice,choice,5,1.0,Animal,1.0,10.526956000016073,Animal_Land_Pattern_Small,0,0,1,9195780.0,9196141.0,361.0
114,choice,choice,5,1.0,Animal,1.0,10.526956000016073,fixation,-1,1,0,9196353.0,9196609.0,256.0
114,choice,choice,5,1.0,Animal,1.0,10.526956000016073,Animal_Land_Pattern_Small,0,0,1,9196809.0,9198240.0,1431.0
114,choice,choice,5,1.0,Animal,1.0,10.526956000016073,Object_Sea_Pattern_Large,5,0,0,9198871.0,9199154.0,283.0
114,choice,choice,5,1.0,Animal,1.0,10.526956000016073,Animal_Land_Pattern_Small,0,0,1,9199166.0,9201013.0,1847.0
114,choice,choice,6,1.0,Large,1.0,16.171504208468832,Object_Sea_Pattern_Large,5,0,1,9204950.0,9205144.0,194.0
114,choice,choice,6,1.0,Large,1.0,16.171504208468832,Animal_Sea_Solid_Large,1,0,1,9205364.0,9205601.0,237.0
114,choice,choice,6,1.0,Large,1.0,16.171504208468832,fixation,-1,1,0,9205614.0,9205836.0,222.0
114,choice,choice,6,1.0,Large,1.0,16.171504208468832,Animal_Land_Pattern_Small,0,0,0,9205854.0,9206266.0,412.0
114,choice,choice,6,1.0,Large,1.0,16.171504208468832,Object_Sea_Pattern_Large,5,0,1,9206484.0,9206903.0,419.0
114,choice,choice,6,1.0,Large,1.0,16.171504208468832,Object_Land_Pattern_Small,4,0,0,9206938.0,9207220.0,282.0
114,choice,choice,6,1.0,Large,1.0,16.171504208468832,fixation,-1,1,0,9207403.0,9207654.0,251.0
114,choice,choice,6,1.0,Large,1.0,16.171504208468832,Animal_Land_Pattern_Small,0,0,0,9208097.0,9208742.0,645.0
114,choice,choice,6,1.0,Large,1.0,16.171504208468832,Animal_Land_Solid_Small,3,0,0,9208760.0,9208793.0,33.0
114,choice,choice,6,1.0,Large,1.0,16.171504208468832,Object_Sea_Pattern_Large,5,0,1,9208992.0,9209332.0,340.0
114,choice,choice,6,1.0,Large,1.0,16.171504208468832,Animal_Land_Pattern_Small,0,0,0,9209682.0,9210203.0,521.0
114,choice,choice,6,1.0,Large,1.0,16.171504208468832,Object_Sea_Pattern_Large,5,0,1,9210856.0,9215489.0,4633.0
114,choice,choice,6,1.0,Large,1.0,16.171504208468832,Animal_Land_Pattern_Small,0,0,0,9216244.0,9216656.0,412.0
114,choice,choice,6,1.0,Large,1.0,16.171504208468832,Object_Sea_Pattern_Large,5,0,1,9216665.0,9217318.0,653.0
114,choice,choice,6,1.0,Large,1.0,16.171504208468832,Animal_Land_Pattern_Small,0,0,0,9217537.0,9218375.0,838.0
114,choice,choice,6,1.0,Large,1.0,16.171504208468832,Object_Sea_Pattern_Large,5,0,1,9218590.0,9218728.0,138.0
114,choice,choice,6,1.0,Large,1.0,16.171504208468832,Animal_Land_Pattern_Small,0,0,0,9218935.0,9219196.0,261.0
114,choice,choice,6,1.0,Large,1.0,16.171504208468832,Object_Sea_Pattern_Large,5,0,1,9219209.0,9219532.0,323.0
114,choice,choice,6,1.0,Large,1.0,16.171504208468832,Animal_Land_Pattern_Small,0,0,0,9219749.0,9220145.0,396.0
114,choice,choice,6,1.0,Large,1.0,16.171504208468832,Object_Sea_Pattern_Large,5,0,1,9220160.0,9220568.0,408.0
114,choice,choice,6,1.0,Large,1.0,16.171504208468832,Animal_Land_Pattern_Small,0,0,0,9220578.0,9220667.0,89.0
114,choice,choice,7,1.0,Sea,1.0,5.449646708322689,Object_Sea_Pattern_Large,5,0,1,9223335.0,9223499.0,164.0
114,choice,choice,7,1.0,Sea,1.0,5.449646708322689,fixation,-1,1,0,9223709.0,9223889.0,180.0
114,choice,choice,7,1.0,Sea,1.0,5.449646708322689,Object_Sea_Pattern_Large,5,0,1,9224102.0,9224460.0,358.0
114,choice,choice,7,1.0,Sea,1.0,5.449646708322689,fixation,-1,1,0,9224657.0,9224979.0,322.0
114,choice,choice,7,1.0,Sea,1.0,5.449646708322689,Object_Sea_Pattern_Large,5,0,1,9225000.0,9225480.0,480.0
114,choice,choice,7,1.0,Sea,1.0,5.449646708322689,fixation,-1,1,0,9225666.0,9225754.0,88.0
114,choice,choice,7,1.0,Sea,1.0,5.449646708322689,Object_Sea_Pattern_Large,5,0,1,9226020.0,9226858.0,838.0
114,choice,choice,7,1.0,Sea,1.0,5.449646708322689,fixation,-1,1,0,9227078.0,9227520.0,442.0
114,choice,choice,7,1.0,Sea,1.0,5.449646708322689,Animal_Land_Pattern_Small,0,0,0,9227743.0,9228151.0,408.0
114,choice,choice,7,1.0,Sea,1.0,5.449646708322689,Object_Sea_Pattern_Large,5,0,1,9228173.0,9228333.0,160.0
114,choice,choice,7,1.0,Sea,1.0,5.449646708322689,Animal_Land_Pattern_Small,0,0,0,9228536.0,9228659.0,123.0
114,choice,choice,8,1.0,Small,2.0,6.595878249965608,Animal_Land_Solid_Small,3,0,1,9232337.0,9232665.0,328.0
114,choice,choice,8,1.0,Small,2.0,6.595878249965608,fixation,-1,1,0,9232688.0,9232769.0,81.0
114,choice,choice,8,1.0,Small,2.0,6.595878249965608,Animal_Sea_Solid_Large,1,0,0,9232992.0,9233080.0,88.0
114,choice,choice,8,1.0,Small,2.0,6.595878249965608,fixation,-1,1,0,9233281.0,9233485.0,204.0
114,choice,choice,8,1.0,Small,2.0,6.595878249965608,Animal_Land_Pattern_Small,0,0,1,9233516.0,9233874.0,358.0
114,choice,choice,8,1.0,Small,2.0,6.595878249965608,fixation,-1,1,0,9234103.0,9234813.0,710.0
114,choice,choice,8,1.0,Small,2.0,6.595878249965608,Animal_Land_Solid_Small,3,0,1,9235014.0,9235179.0,165.0
114,choice,choice,8,1.0,Small,2.0,6.595878249965608,Animal_Land_Pattern_Small,0,0,1,9235191.0,9235754.0,563.0
114,choice,choice,8,1.0,Small,2.0,6.595878249965608,Animal_Land_Solid_Small,3,0,1,9235977.0,9236209.0,232.0
114,choice,choice,8,1.0,Small,2.0,6.595878249965608,fixation,-1,1,0,9236584.0,9237623.0,1039.0
114,choice,choice,8,1.0,Small,2.0,6.595878249965608,Object_Land_Pattern_Small,4,0,1,9237648.0,9237840.0,192.0
114,choice,choice,8,1.0,Small,2.0,6.595878249965608,Object_Sea_Pattern_Large,5,0,0,9237859.0,9238331.0,472.0
114,choice,choice,8,1.0,Small,2.0,6.595878249965608,fixation,-1,1,0,9238506.0,9238547.0,41.0
114,choice,choice,9,2.0,Sea,1.0,6.82990379165858,Object_Land_Pattern_Large,0,0,0,9635221.0,9635373.0,152.0
114,choice,choice,9,2.0,Sea,1.0,6.82990379165858,Object_Sea_Pattern_Small,1,0,1,9635559.0,9635952.0,393.0
114,choice,choice,9,2.0,Sea,1.0,6.82990379165858,Object_Land_Pattern_Large,0,0,0,9635966.0,9636140.0,174.0
114,choice,choice,9,2.0,Sea,1.0,6.82990379165858,Object_Sea_Pattern_Small,1,0,1,9636348.0,9636703.0,355.0
114,choice,choice,9,2.0,Sea,1.0,6.82990379165858,Object_Sea_Solid_Small,2,0,1,9636956.0,9637114.0,158.0
114,choice,choice,9,2.0,Sea,1.0,6.82990379165858,Object_Sea_Pattern_Small,1,0,1,9637134.0,9637485.0,351.0
114,choice,choice,9,2.0,Sea,1.0,6.82990379165858,Object_Land_Pattern_Large,0,0,0,9637522.0,9638184.0,662.0
114,choice,choice,9,2.0,Sea,1.0,6.82990379165858,fixation,-1,1,0,9638190.0,9638398.0,208.0
114,choice,choice,9,2.0,Sea,1.0,6.82990379165858,Animal_Sea_Solid_Small,3,0,1,9638606.0,9639167.0,561.0
114,choice,choice,9,2.0,Sea,1.0,6.82990379165858,Animal_Land_Solid_Large,4,0,0,9639376.0,9639648.0,272.0
114,choice,choice,9,2.0,Sea,1.0,6.82990379165858,Object_Land_Pattern_Large,0,0,0,9639859.0,9640514.0,655.0
114,choice,choice,9,2.0,Sea,1.0,6.82990379165858,Object_Sea_Solid_Small,2,0,1,9640772.0,9640830.0,58.0
114,choice,choice,9,2.0,Sea,1.0,6.82990379165858,fixation,-1,1,0,9641123.0,9641431.0,308.0
114,choice,choice,9,2.0,Sea,1.0,6.82990379165858,Object_Land_Pattern_Large,0,0,0,9641441.0,9641658.0,217.0
114,choice,choice,10,2.0,Large,1.0,31.0537340833107,Object_Land_Pattern_Large,0,0,1,9645078.0,9645816.0,738.0
114,choice,choice,10,2.0,Large,1.0,31.0537340833107,Object_Sea_Pattern_Small,1,0,0,9646238.0,9646439.0,201.0
114,choice,choice,10,2.0,Large,1.0,31.0537340833107,Object_Land_Pattern_Large,0,0,1,9646459.0,9647914.0,1455.0
114,choice,choice,10,2.0,Large,1.0,31.0537340833107,Object_Sea_Solid_Small,2,0,0,9648749.0,9648959.0,210.0
114,choice,choice,10,2.0,Large,1.0,31.0537340833107,Object_Land_Pattern_Large,0,0,1,9648976.0,9649575.0,599.0
114,choice,choice,10,2.0,Large,1.0,31.0537340833107,Animal_Land_Solid_Large,4,0,1,9649788.0,9650096.0,308.0
114,choice,choice,10,2.0,Large,1.0,31.0537340833107,Object_Sea_Pattern_Small,1,0,0,9650277.0,9650876.0,599.0
114,choice,choice,10,2.0,Large,1.0,31.0537340833107,fixation,-1,1,0,9651132.0,9651432.0,300.0
114,choice,choice,10,2.0,Large,1.0,31.0537340833107,Animal_Land_Pattern_Large,5,0,1,9651626.0,9652017.0,391.0
114,choice,choice,10,2.0,Large,1.0,31.0537340833107,fixation,-1,1,0,9652050.0,9652118.0,68.0
114,choice,choice,10,2.0,Large,1.0,31.0537340833107,Object_Sea_Pattern_Small,1,0,0,9652321.0,9652553.0,232.0
114,choice,choice,10,2.0,Large,1.0,31.0537340833107,Animal_Land_Pattern_Large,5,0,1,9652571.0,9652748.0,177.0
114,choice,choice,10,2.0,Large,1.0,31.0537340833107,fixation,-1,1,0,9652947.0,9653209.0,262.0
114,choice,choice,10,2.0,Large,1.0,31.0537340833107,Animal_Land_Pattern_Large,5,0,1,9653227.0,9653422.0,195.0
114,choice,choice,10,2.0,Large,1.0,31.0537340833107,Object_Sea_Solid_Small,2,0,0,9653614.0,9653896.0,282.0
114,choice,choice,10,2.0,Large,1.0,31.0537340833107,fixation,-1,1,0,9653912.0,9654274.0,362.0
114,choice,choice,10,2.0,Large,1.0,31.0537340833107,Animal_Land_Pattern_Large,5,0,1,9654291.0,9654400.0,109.0
114,choice,choice,10,2.0,Large,1.0,31.0537340833107,Object_Land_Pattern_Large,0,0,1,9654628.0,9656060.0,1432.0
114,choice,choice,10,2.0,Large,1.0,31.0537340833107,fixation,-1,1,0,9656472.0,9657016.0,544.0
114,choice,choice,10,2.0,Large,1.0,31.0537340833107,Animal_Sea_Solid_Small,3,0,0,9657234.0,9659091.0,1857.0
114,choice,choice,10,2.0,Large,1.0,31.0537340833107,fixation,-1,1,0,9659551.0,9659980.0,429.0
114,choice,choice,10,2.0,Large,1.0,31.0537340833107,Animal_Sea_Solid_Small,3,0,0,9660194.0,9660401.0,207.0
114,choice,choice,10,2.0,Large,1.0,31.0537340833107,fixation,-1,1,0,9660604.0,9660869.0,265.0
114,choice,choice,10,2.0,Large,1.0,31.0537340833107,Animal_Sea_Solid_Small,3,0,0,9660884.0,9661470.0,586.0
114,choice,choice,10,2.0,Large,1.0,31.0537340833107,fixation,-1,1,0,9661510.0,9662592.0,1082.0
114,choice,choice,10,2.0,Large,1.0,31.0537340833107,Object_Sea_Pattern_Small,1,0,0,9663183.0,9663336.0,153.0
114,choice,choice,10,2.0,Large,1.0,31.0537340833107,Object_Land_Pattern_Large,0,0,1,9663511.0,9663649.0,138.0
114,choice,choice,10,2.0,Large,1.0,31.0537340833107,Animal_Land_Solid_Large,4,0,1,9663680.0,9663777.0,97.0
114,choice,choice,10,2.0,Large,1.0,31.0537340833107,Animal_Land_Pattern_Large,5,0,1,9663994.0,9664194.0,200.0
114,choice,choice,10,2.0,Large,1.0,31.0537340833107,fixation,-1,1,0,9664210.0,9664506.0,296.0
114,choice,choice,10,2.0,Large,1.0,31.0537340833107,Object_Sea_Solid_Small,2,0,0,9664723.0,9664942.0,219.0
114,choice,choice,10,2.0,Large,1.0,31.0537340833107,fixation,-1,1,0,9664960.0,9665314.0,354.0
114,choice,choice,10,2.0,Large,1.0,31.0537340833107,Object_Land_Pattern_Large,0,0,1,9665531.0,9666062.0,531.0
114,choice,choice,10,2.0,Large,1.0,31.0537340833107,Object_Sea_Pattern_Small,1,0,0,9666309.0,9666526.0,217.0
114,choice,choice,10,2.0,Large,1.0,31.0537340833107,Object_Land_Pattern_Large,0,0,1,9666561.0,9666847.0,286.0
114,choice,choice,10,2.0,Large,1.0,31.0537340833107,fixation,-1,1,0,9667050.0,9667604.0,554.0
114,choice,choice,10,2.0,Large,1.0,31.0537340833107,Animal_Sea_Solid_Small,3,0,0,9667622.0,9667765.0,143.0
114,choice,choice,10,2.0,Large,1.0,31.0537340833107,fixation,-1,1,0,9667781.0,9668380.0,599.0
114,choice,choice,10,2.0,Large,1.0,31.0537340833107,Animal_Land_Solid_Large,4,0,1,9668397.0,9668564.0,167.0
114,choice,choice,10,2.0,Large,1.0,31.0537340833107,Animal_Sea_Solid_Small,3,0,0,9668591.0,9668930.0,339.0
114,choice,choice,10,2.0,Large,1.0,31.0537340833107,Object_Land_Pattern_Large,0,0,1,9668962.0,9669163.0,201.0
114,choice,choice,10,2.0,Large,1.0,31.0537340833107,fixation,-1,1,0,9669540.0,9669803.0,263.0
114,choice,choice,10,2.0,Large,1.0,31.0537340833107,Animal_Land_Pattern_Large,5,0,1,9669825.0,9670619.0,794.0
114,choice,choice,10,2.0,Large,1.0,31.0537340833107,fixation,-1,1,0,9670678.0,9671172.0,494.0
114,choice,choice,10,2.0,Large,1.0,31.0537340833107,Animal_Land_Pattern_Large,5,0,1,9671205.0,9671701.0,496.0
114,choice,choice,10,2.0,Large,1.0,31.0537340833107,Object_Sea_Solid_Small,2,0,0,9672121.0,9672256.0,135.0
114,choice,choice,10,2.0,Large,1.0,31.0537340833107,fixation,-1,1,0,9672455.0,9672985.0,530.0
114,choice,choice,10,2.0,Large,1.0,31.0537340833107,Animal_Land_Pattern_Large,5,0,1,9673004.0,9673184.0,180.0
114,choice,choice,10,2.0,Large,1.0,31.0537340833107,Object_Sea_Pattern_Small,1,0,0,9673203.0,9673463.0,260.0
114,choice,choice,10,2.0,Large,1.0,31.0537340833107,fixation,-1,1,0,9673653.0,9674059.0,406.0
114,choice,choice,10,2.0,Large,1.0,31.0537340833107,Object_Sea_Pattern_Small,1,0,0,9674625.0,9674778.0,153.0
114,choice,choice,10,2.0,Large,1.0,31.0537340833107,fixation,-1,1,0,9674958.0,9675245.0,287.0
114,choice,choice,10,2.0,Large,1.0,31.0537340833107,Object_Land_Pattern_Large,0,0,1,9675279.0,9675372.0,93.0
114,choice,choice,10,2.0,Large,1.0,31.0537340833107,Object_Sea_Pattern_Small,1,0,0,9675551.0,9675701.0,150.0
114,choice,choice,10,2.0,Large,1.0,31.0537340833107,Object_Land_Pattern_Large,0,0,1,9675720.0,9676006.0,286.0
114,choice,choice,11,2.0,Animal,1.0,27.863988541648723,Object_Sea_Pattern_Small,1,0,0,9680082.0,9680931.0,849.0
114,choice,choice,11,2.0,Animal,1.0,27.863988541648723,fixation,-1,1,0,9681378.0,9681584.0,206.0
114,choice,choice,11,2.0,Animal,1.0,27.863988541648723,Object_Sea_Pattern_Small,1,0,0,9681786.0,9682187.0,401.0
114,choice,choice,11,2.0,Animal,1.0,27.863988541648723,Object_Land_Pattern_Large,0,0,0,9682415.0,9683075.0,660.0
114,choice,choice,11,2.0,Animal,1.0,27.863988541648723,Object_Sea_Pattern_Small,1,0,0,9683504.0,9684581.0,1077.0
114,choice,choice,11,2.0,Animal,1.0,27.863988541648723,Object_Sea_Solid_Small,2,0,0,9684851.0,9685247.0,396.0
114,choice,choice,11,2.0,Animal,1.0,27.863988541648723,Animal_Land_Pattern_Large,5,0,1,9685756.0,9686234.0,478.0
114,choice,choice,11,2.0,Animal,1.0,27.863988541648723,fixation,-1,1,0,9686298.0,9686596.0,298.0
114,choice,choice,11,2.0,Animal,1.0,27.863988541648723,Animal_Land_Pattern_Large,5,0,1,9686617.0,9687297.0,680.0
114,choice,choice,11,2.0,Animal,1.0,27.863988541648723,fixation,-1,1,0,9687674.0,9688028.0,354.0
114,choice,choice,11,2.0,Animal,1.0,27.863988541648723,Animal_Land_Pattern_Large,5,0,1,9688248.0,9688868.0,620.0
114,choice,choice,11,2.0,Animal,1.0,27.863988541648723,fixation,-1,1,0,9689085.0,9689350.0,265.0
114,choice,choice,11,2.0,Animal,1.0,27.863988541648723,Animal_Land_Pattern_Large,5,0,1,9689372.0,9689826.0,454.0
114,choice,choice,11,2.0,Animal,1.0,27.863988541648723,Object_Sea_Pattern_Small,1,0,0,9689851.0,9690140.0,289.0
114,choice,choice,11,2.0,Animal,1.0,27.863988541648723,Object_Land_Pattern_Large,0,0,0,9690318.0,9690828.0,510.0
114,choice,choice,11,2.0,Animal,1.0,27.863988541648723,Object_Sea_Solid_Small,2,0,0,9691038.0,9691427.0,389.0
114,choice,choice,11,2.0,Animal,1.0,27.863988541648723,Animal_Land_Pattern_Large,5,0,1,9691663.0,9692010.0,347.0
114,choice,choice,11,2.0,Animal,1.0,27.863988541648723,Object_Sea_Solid_Small,2,0,0,9692251.0,9692573.0,322.0
114,choice,choice,11,2.0,Animal,1.0,27.863988541648723,Animal_Land_Pattern_Large,5,0,1,9692778.0,9692982.0,204.0
114,choice,choice,11,2.0,Animal,1.0,27.863988541648723,Object_Sea_Solid_Small,2,0,0,9693198.0,9693583.0,385.0
114,choice,choice,11,2.0,Animal,1.0,27.863988541648723,Animal_Land_Pattern_Large,5,0,1,9693599.0,9693858.0,259.0
114,choice,choice,11,2.0,Animal,1.0,27.863988541648723,Object_Sea_Solid_Small,2,0,0,9694058.0,9694343.0,285.0
114,choice,choice,11,2.0,Animal,1.0,27.863988541648723,Animal_Land_Pattern_Large,5,0,1,9694362.0,9695442.0,1080.0
114,choice,choice,11,2.0,Animal,1.0,27.863988541648723,fixation,-1,1,0,9696477.0,9696759.0,282.0
114,choice,choice,11,2.0,Animal,1.0,27.863988541648723,Animal_Land_Pattern_Large,5,0,1,9696972.0,9697261.0,289.0
114,choice,choice,11,2.0,Animal,1.0,27.863988541648723,Animal_Sea_Solid_Small,3,0,1,9697281.0,9697450.0,169.0
114,choice,choice,11,2.0,Animal,1.0,27.863988541648723,fixation,-1,1,0,9697471.0,9697700.0,229.0
114,choice,choice,11,2.0,Animal,1.0,27.863988541648723,Object_Sea_Solid_Small,2,0,0,9697895.0,9698089.0,194.0
114,choice,choice,11,2.0,Animal,1.0,27.863988541648723,fixation,-1,1,0,9698107.0,9698326.0,219.0
114,choice,choice,11,2.0,Animal,1.0,27.863988541648723,Object_Sea_Pattern_Small,1,0,0,9698536.0,9698762.0,226.0
114,choice,choice,11,2.0,Animal,1.0,27.863988541648723,Animal_Land_Solid_Large,4,0,1,9698781.0,9699211.0,430.0
114,choice,choice,11,2.0,Animal,1.0,27.863988541648723,Animal_Sea_Solid_Small,3,0,1,9699260.0,9699486.0,226.0
114,choice,choice,11,2.0,Animal,1.0,27.863988541648723,Animal_Land_Pattern_Large,5,0,1,9699525.0,9699884.0,359.0
114,choice,choice,11,2.0,Animal,1.0,27.863988541648723,Object_Sea_Solid_Small,2,0,0,9700113.0,9700404.0,291.0
114,choice,choice,11,2.0,Animal,1.0,27.863988541648723,Animal_Land_Pattern_Large,5,0,1,9700421.0,9701350.0,929.0
114,choice,choice,11,2.0,Animal,1.0,27.863988541648723,Object_Sea_Solid_Small,2,0,0,9702165.0,9702380.0,215.0
114,choice,choice,11,2.0,Animal,1.0,27.863988541648723,Animal_Land_Pattern_Large,5,0,1,9702398.0,9702912.0,514.0
114,choice,choice,11,2.0,Animal,1.0,27.863988541648723,Object_Sea_Solid_Small,2,0,0,9703393.0,9703638.0,245.0
114,choice,choice,11,2.0,Animal,1.0,27.863988541648723,Animal_Sea_Solid_Small,3,0,1,9703660.0,9704289.0,629.0
114,choice,choice,11,2.0,Animal,1.0,27.863988541648723,Object_Land_Pattern_Large,0,0,0,9704511.0,9705023.0,512.0
114,choice,choice,11,2.0,Animal,1.0,27.863988541648723,Object_Sea_Pattern_Small,1,0,0,9705191.0,9705363.0,172.0
114,choice,choice,11,2.0,Animal,1.0,27.863988541648723,Object_Land_Pattern_Large,0,0,0,9705382.0,9705533.0,151.0
114,choice,choice,11,2.0,Animal,1.0,27.863988541648723,fixation,-1,1,0,9705714.0,9705970.0,256.0
114,choice,choice,11,2.0,Animal,1.0,27.863988541648723,Animal_Sea_Solid_Small,3,0,1,9705987.0,9706367.0,380.0
114,choice,choice,11,2.0,Animal,1.0,27.863988541648723,Animal_Land_Solid_Large,4,0,1,9706389.0,9706679.0,290.0
114,choice,choice,11,2.0,Animal,1.0,27.863988541648723,Animal_Sea_Solid_Small,3,0,1,9706696.0,9706762.0,66.0
114,choice,choice,11,2.0,Animal,1.0,27.863988541648723,Object_Sea_Solid_Small,2,0,0,9706959.0,9707054.0,95.0
114,choice,choice,11,2.0,Animal,1.0,27.863988541648723,Object_Sea_Pattern_Small,1,0,0,9707262.0,9707415.0,153.0
114,choice,choice,12,2.0,Land,1.0,5.954018875025213,Animal_Land_Pattern_Large,5,0,1,9710987.0,9711168.0,181.0
114,choice,choice,12,2.0,Land,1.0,5.954018875025213,Object_Sea_Solid_Small,2,0,0,9711373.0,9711500.0,127.0
114,choice,choice,12,2.0,Land,1.0,5.954018875025213,Object_Land_Pattern_Large,0,0,1,9711697.0,9711942.0,245.0
114,choice,choice,12,2.0,Land,1.0,5.954018875025213,fixation,-1,1,0,9712158.0,9712389.0,231.0
114,choice,choice,12,2.0,Land,1.0,5.954018875025213,Object_Sea_Pattern_Small,1,0,0,9712590.0,9712739.0,149.0
114,choice,choice,12,2.0,Land,1.0,5.954018875025213,Object_Land_Pattern_Large,0,0,1,9712982.0,9713456.0,474.0
114,choice,choice,12,2.0,Land,1.0,5.954018875025213,Animal_Land_Solid_Large,4,0,1,9713471.0,9713495.0,24.0
114,choice,choice,12,2.0,Land,1.0,5.954018875025213,fixation,-1,1,0,9713684.0,9713835.0,151.0
114,choice,choice,12,2.0,Land,1.0,5.954018875025213,Object_Land_Pattern_Large,0,0,1,9713851.0,9714234.0,383.0
114,choice,choice,12,2.0,Land,1.0,5.954018875025213,Animal_Land_Solid_Large,4,0,1,9714250.0,9714513.0,263.0
114,choice,choice,12,2.0,Land,1.0,5.954018875025213,Object_Land_Pattern_Large,0,0,1,9714536.0,9714580.0,44.0
114,choice,choice,12,2.0,Land,1.0,5.954018875025213,Animal_Land_Solid_Large,4,0,1,9714765.0,9715751.0,986.0
114,choice,choice,12,2.0,Land,1.0,5.954018875025213,Object_Land_Pattern_Large,0,0,1,9716142.0,9716875.0,733.0
114,choice,choice,13,2.0,Pattern,2.0,9.730553166824391,Object_Land_Pattern_Large,0,0,1,9720581.0,9721145.0,564.0
114,choice,choice,13,2.0,Pattern,2.0,9.730553166824391,Object_Sea_Solid_Small,2,0,0,9721364.0,9721443.0,79.0
114,choice,choice,13,2.0,Pattern,2.0,9.730553166824391,Object_Sea_Pattern_Small,1,0,1,9721643.0,9721784.0,141.0
114,choice,choice,13,2.0,Pattern,2.0,9.730553166824391,fixation,-1,1,0,9721804.0,9722020.0,216.0
114,choice,choice,13,2.0,Pattern,2.0,9.730553166824391,Object_Land_Pattern_Large,0,0,1,9722031.0,9722699.0,668.0
114,choice,choice,13,2.0,Pattern,2.0,9.730553166824391,Object_Sea_Solid_Small,2,0,0,9722890.0,9722951.0,61.0
114,choice,choice,13,2.0,Pattern,2.0,9.730553166824391,Object_Land_Pattern_Large,0,0,1,9723202.0,9725513.0,2311.0
114,choice,choice,13,2.0,Pattern,2.0,9.730553166824391,Object_Sea_Pattern_Small,1,0,1,9726131.0,9726490.0,359.0
114,choice,choice,13,2.0,Pattern,2.0,9.730553166824391,Object_Land_Pattern_Large,0,0,1,9726712.0,9727041.0,329.0
114,choice,choice,13,2.0,Pattern,2.0,9.730553166824391,Object_Sea_Pattern_Small,1,0,1,9727475.0,9727953.0,478.0
114,choice,choice,13,2.0,Pattern,2.0,9.730553166824391,Object_Land_Pattern_Large,0,0,1,9727970.0,9728241.0,271.0
114,choice,choice,13,2.0,Pattern,2.0,9.730553166824391,Object_Sea_Pattern_Small,1,0,1,9728263.0,9729054.0,791.0
114,choice,choice,13,2.0,Pattern,2.0,9.730553166824391,Object_Land_Pattern_Large,0,0,1,9729444.0,9729690.0,246.0
114,choice,choice,14,2.0,Solid,1.0,4.312130666803569,Object_Sea_Pattern_Small,1,0,0,9732482.0,9732651.0,169.0
114,choice,choice,14,2.0,Solid,1.0,4.312130666803569,Object_Land_Pattern_Large,0,0,0,9732856.0,9733059.0,203.0
114,choice,choice,14,2.0,Solid,1.0,4.312130666803569,Animal_Land_Solid_Large,4,0,1,9733071.0,9733346.0,275.0
114,choice,choice,14,2.0,Solid,1.0,4.312130666803569,Object_Sea_Pattern_Small,1,0,0,9733714.0,9733826.0,112.0
114,choice,choice,14,2.0,Solid,1.0,4.312130666803569,fixation,-1,1,0,9734015.0,9734230.0,215.0
114,choice,choice,14,2.0,Solid,1.0,4.312130666803569,Object_Land_Pattern_Large,0,0,0,9734246.0,9734530.0,284.0
114,choice,choice,14,2.0,Solid,1.0,4.312130666803569,fixation,-1,1,0,9734737.0,9736335.0,1598.0
114,choice,choice,15,2.0,Small,1.0,10.208125208271667,fixation,-1,1,0,9739991.0,9740325.0,334.0
114,choice,choice,15,2.0,Small,1.0,10.208125208271667,Object_Sea_Pattern_Small,1,0,1,9740648.0,9741168.0,520.0
114,choice,choice,15,2.0,Small,1.0,10.208125208271667,fixation,-1,1,0,9741587.0,9742167.0,580.0
114,choice,choice,15,2.0,Small,1.0,10.208125208271667,Object_Sea_Pattern_Small,1,0,1,9742379.0,9742760.0,381.0
114,choice,choice,15,2.0,Small,1.0,10.208125208271667,Object_Sea_Solid_Small,2,0,1,9743007.0,9743174.0,167.0
114,choice,choice,15,2.0,Small,1.0,10.208125208271667,Object_Land_Pattern_Large,0,0,0,9743181.0,9743399.0,218.0
114,choice,choice,15,2.0,Small,1.0,10.208125208271667,Object_Sea_Pattern_Small,1,0,1,9743624.0,9743864.0,240.0
114,choice,choice,15,2.0,Small,1.0,10.208125208271667,Object_Land_Pattern_Large,0,0,0,9744099.0,9745004.0,905.0
114,choice,choice,15,2.0,Small,1.0,10.208125208271667,Object_Sea_Pattern_Small,1,0,1,9745235.0,9745848.0,613.0
114,choice,choice,15,2.0,Small,1.0,10.208125208271667,fixation,-1,1,0,9745884.0,9745991.0,107.0
114,choice,choice,15,2.0,Small,1.0,10.208125208271667,Object_Sea_Solid_Small,2,0,1,9746213.0,9746361.0,148.0
114,choice,choice,15,2.0,Small,1.0,10.208125208271667,Object_Sea_Pattern_Small,1,0,1,9746578.0,9748041.0,1463.0
114,choice,choice,15,2.0,Small,1.0,10.208125208271667,Object_Sea_Solid_Small,2,0,1,9748485.0,9748536.0,51.0
114,choice,choice,15,2.0,Small,1.0,10.208125208271667,Object_Sea_Pattern_Small,1,0,1,9748760.0,9749381.0,621.0
114,choice,choice,16,2.0,Object,1.0,5.6195704999845475,fixation,-1,1,0,9753201.0,9753676.0,475.0
114,choice,choice,16,2.0,Object,1.0,5.6195704999845475,Object_Sea_Pattern_Small,1,0,1,9753871.0,9754040.0,169.0
114,choice,choice,16,2.0,Object,1.0,5.6195704999845475,fixation,-1,1,0,9754052.0,9754201.0,149.0
114,choice,choice,16,2.0,Object,1.0,5.6195704999845475,Object_Sea_Solid_Small,2,0,1,9754584.0,9754756.0,172.0
114,choice,choice,16,2.0,Object,1.0,5.6195704999845475,Object_Sea_Pattern_Small,1,0,1,9755003.0,9755227.0,224.0
114,choice,choice,16,2.0,Object,1.0,5.6195704999845475,Object_Sea_Solid_Small,2,0,1,9755444.0,9755549.0,105.0
114,choice,choice,16,2.0,Object,1.0,5.6195704999845475,Object_Sea_Pattern_Small,1,0,1,9755766.0,9756346.0,580.0
114,choice,choice,16,2.0,Object,1.0,5.6195704999845475,Object_Land_Pattern_Large,0,0,1,9756585.0,9756815.0,230.0
114,choice,choice,16,2.0,Object,1.0,5.6195704999845475,fixation,-1,1,0,9756828.0,9757077.0,249.0
114,choice,choice,16,2.0,Object,1.0,5.6195704999845475,Object_Land_Pattern_Large,0,0,1,9757083.0,9757242.0,159.0
114,choice,choice,16,2.0,Object,1.0,5.6195704999845475,Object_Sea_Pattern_Small,1,0,1,9757440.0,9757733.0,293.0
114,choice,choice,16,2.0,Object,1.0,5.6195704999845475,Object_Land_Pattern_Large,0,0,1,9757745.0,9758211.0,466.0
114,choice,choice,17,3.0,Small,2.0,18.227773000020537,Animal_Land_Pattern_Small,0,0,1,10080032.0,10080469.0,437.0
114,choice,choice,17,3.0,Small,2.0,18.227773000020537,Object_Sea_Pattern_Large,1,0,0,10080689.0,10081294.0,605.0
114,choice,choice,17,3.0,Small,2.0,18.227773000020537,Animal_Land_Solid_Small,2,0,1,10081696.0,10081942.0,246.0
114,choice,choice,17,3.0,Small,2.0,18.227773000020537,Animal_Land_Pattern_Small,0,0,1,10081959.0,10082677.0,718.0
114,choice,choice,17,3.0,Small,2.0,18.227773000020537,Animal_Land_Solid_Small,2,0,1,10083089.0,10083312.0,223.0
114,choice,choice,17,3.0,Small,2.0,18.227773000020537,Animal_Land_Pattern_Small,0,0,1,10083337.0,10084045.0,708.0
114,choice,choice,17,3.0,Small,2.0,18.227773000020537,Animal_Land_Solid_Small,2,0,1,10084428.0,10084635.0,207.0
114,choice,choice,17,3.0,Small,2.0,18.227773000020537,Animal_Land_Pattern_Small,0,0,1,10084655.0,10084864.0,209.0
114,choice,choice,17,3.0,Small,2.0,18.227773000020537,fixation,-1,1,0,10084879.0,10085090.0,211.0
114,choice,choice,17,3.0,Small,2.0,18.227773000020537,Animal_Sea_Pattern_Large,3,0,0,10085115.0,10085260.0,145.0
114,choice,choice,17,3.0,Small,2.0,18.227773000020537,Animal_Land_Pattern_Small,0,0,1,10085444.0,10086046.0,602.0
114,choice,choice,17,3.0,Small,2.0,18.227773000020537,Animal_Land_Solid_Small,2,0,1,10086277.0,10086546.0,269.0
114,choice,choice,17,3.0,Small,2.0,18.227773000020537,Animal_Land_Pattern_Small,0,0,1,10086788.0,10087384.0,596.0
114,choice,choice,17,3.0,Small,2.0,18.227773000020537,Animal_Land_Solid_Small,2,0,1,10087616.0,10087860.0,244.0
114,choice,choice,17,3.0,Small,2.0,18.227773000020537,Animal_Land_Pattern_Small,0,0,1,10087883.0,10088067.0,184.0
114,choice,choice,17,3.0,Small,2.0,18.227773000020537,Animal_Land_Solid_Small,2,0,1,10088264.0,10089278.0,1014.0
114,choice,choice,17,3.0,Small,2.0,18.227773000020537,Animal_Land_Pattern_Small,0,0,1,10089507.0,10089739.0,232.0
114,choice,choice,17,3.0,Small,2.0,18.227773000020537,Animal_Land_Solid_Small,2,0,1,10089939.0,10092518.0,2579.0
114,choice,choice,17,3.0,Small,2.0,18.227773000020537,Object_Sea_Pattern_Large,1,0,0,10093972.0,10094865.0,893.0
114,choice,choice,17,3.0,Small,2.0,18.227773000020537,Animal_Land_Pattern_Small,0,0,1,10095111.0,10095383.0,272.0
114,choice,choice,17,3.0,Small,2.0,18.227773000020537,Object_Sea_Pattern_Large,1,0,0,10095597.0,10096314.0,717.0
114,choice,choice,17,3.0,Small,2.0,18.227773000020537,Animal_Land_Pattern_Small,0,0,1,10096543.0,10097505.0,962.0
114,choice,choice,17,3.0,Small,2.0,18.227773000020537,fixation,-1,1,0,10098056.0,10098210.0,154.0
114,choice,choice,18,3.0,Object,2.0,10.098824666580184,Animal_Land_Pattern_Small,0,0,0,10101936.0,10102034.0,98.0
114,choice,choice,18,3.0,Object,2.0,10.098824666580184,Animal_Land_Solid_Small,2,0,0,10102211.0,10102333.0,122.0
114,choice,choice,18,3.0,Object,2.0,10.098824666580184,fixation,-1,1,0,10102540.0,10103256.0,716.0
114,choice,choice,18,3.0,Object,2.0,10.098824666580184,Object_Sea_Solid_Large,4,0,1,10103842.0,10103966.0,124.0
114,choice,choice,18,3.0,Object,2.0,10.098824666580184,fixation,-1,1,0,10103981.0,10105889.0,1908.0
114,choice,choice,18,3.0,Object,2.0,10.098824666580184,Animal_Land_Pattern_Small,0,0,0,10106324.0,10106684.0,360.0
114,choice,choice,18,3.0,Object,2.0,10.098824666580184,Animal_Land_Solid_Small,2,0,0,10107083.0,10107181.0,98.0
114,choice,choice,18,3.0,Object,2.0,10.098824666580184,Animal_Land_Pattern_Small,0,0,0,10107376.0,10108006.0,630.0
114,choice,choice,18,3.0,Object,2.0,10.098824666580184,fixation,-1,1,0,10108193.0,10108426.0,233.0
114,choice,choice,18,3.0,Object,2.0,10.098824666580184,Animal_Sea_Pattern_Large,3,0,0,10108637.0,10108829.0,192.0
114,choice,choice,18,3.0,Object,2.0,10.098824666580184,Object_Sea_Pattern_Large,1,0,1,10108851.0,10109132.0,281.0
114,choice,choice,18,3.0,Object,2.0,10.098824666580184,Animal_Sea_Pattern_Large,3,0,0,10109146.0,10109575.0,429.0
114,choice,choice,18,3.0,Object,2.0,10.098824666580184,fixation,-1,1,0,10109774.0,10110026.0,252.0
114,choice,choice,18,3.0,Object,2.0,10.098824666580184,Animal_Land_Pattern_Small,0,0,0,10110247.0,10110573.0,326.0
114,choice,choice,18,3.0,Object,2.0,10.098824666580184,Object_Sea_Pattern_Large,1,0,1,10110586.0,10110947.0,361.0
114,choice,choice,18,3.0,Object,2.0,10.098824666580184,fixation,-1,1,0,10110964.0,10111434.0,470.0
114,choice,choice,18,3.0,Object,2.0,10.098824666580184,Animal_Land_Pattern_Small,0,0,0,10111443.0,10111603.0,160.0
114,choice,choice,19,3.0,Large,1.0,9.446413166704588,Object_Sea_Pattern_Large,1,0,1,10114970.0,10117162.0,2192.0
114,choice,choice,19,3.0,Large,1.0,9.446413166704588,Animal_Land_Pattern_Small,0,0,0,10118140.0,10118279.0,139.0
114,choice,choice,19,3.0,Large,1.0,9.446413166704588,Object_Sea_Pattern_Large,1,0,1,10118300.0,10118550.0,250.0
114,choice,choice,19,3.0,Large,1.0,9.446413166704588,Object_Sea_Solid_Large,4,0,1,10118574.0,10118727.0,153.0
114,choice,choice,19,3.0,Large,1.0,9.446413166704588,fixation,-1,1,0,10118748.0,10119075.0,327.0
114,choice,choice,19,3.0,Large,1.0,9.446413166704588,Animal_Land_Solid_Small,2,0,0,10119278.0,10119417.0,139.0
114,choice,choice,19,3.0,Large,1.0,9.446413166704588,Animal_Land_Pattern_Small,0,0,0,10119613.0,10119801.0,188.0
114,choice,choice,19,3.0,Large,1.0,9.446413166704588,Object_Land_Solid_Small,5,0,0,10120158.0,10120349.0,191.0
114,choice,choice,19,3.0,Large,1.0,9.446413166704588,Animal_Land_Pattern_Small,0,0,0,10120370.0,10120636.0,266.0
114,choice,choice,19,3.0,Large,1.0,9.446413166704588,Animal_Land_Solid_Small,2,0,0,10120658.0,10121031.0,373.0
114,choice,choice,19,3.0,Large,1.0,9.446413166704588,fixation,-1,1,0,10121252.0,10121477.0,225.0
114,choice,choice,19,3.0,Large,1.0,9.446413166704588,Animal_Sea_Pattern_Large,3,0,1,10121501.0,10121780.0,279.0
114,choice,choice,19,3.0,Large,1.0,9.446413166704588,Object_Sea_Pattern_Large,1,0,1,10121799.0,10122182.0,383.0
114,choice,choice,19,3.0,Large,1.0,9.446413166704588,Animal_Sea_Pattern_Large,3,0,1,10122207.0,10122324.0,117.0
114,choice,choice,19,3.0,Large,1.0,9.446413166704588,Object_Sea_Pattern_Large,1,0,1,10122621.0,10123332.0,711.0
114,choice,choice,19,3.0,Large,1.0,9.446413166704588,Animal_Sea_Pattern_Large,3,0,1,10123689.0,10123863.0,174.0
114,choice,choice,19,3.0,Large,1.0,9.446413166704588,Object_Sea_Pattern_Large,1,0,1,10123891.0,10124092.0,201.0
114,choice,choice,20,3.0,Animal,1.0,10.509371333406309,Object_Sea_Pattern_Large,1,0,0,10127034.0,10127688.0,654.0
114,choice,choice,20,3.0,Animal,1.0,10.509371333406309,Animal_Land_Pattern_Small,0,0,1,10128421.0,10128914.0,493.0
114,choice,choice,20,3.0,Animal,1.0,10.509371333406309,Animal_Land_Solid_Small,2,0,1,10129137.0,10129182.0,45.0
114,choice,choice,20,3.0,Animal,1.0,10.509371333406309,Animal_Land_Pattern_Small,0,0,1,10129455.0,10129985.0,530.0
114,choice,choice,20,3.0,Animal,1.0,10.509371333406309,Animal_Land_Solid_Small,2,0,1,10130214.0,10130448.0,234.0
114,choice,choice,20,3.0,Animal,1.0,10.509371333406309,Animal_Land_Pattern_Small,0,0,1,10130471.0,10130672.0,201.0
114,choice,choice,20,3.0,Animal,1.0,10.509371333406309,Animal_Land_Solid_Small,2,0,1,10130868.0,10131302.0,434.0
114,choice,choice,20,3.0,Animal,1.0,10.509371333406309,Animal_Land_Pattern_Small,0,0,1,10131503.0,10131804.0,301.0
114,choice,choice,20,3.0,Animal,1.0,10.509371333406309,fixation,-1,1,0,10131823.0,10132055.0,232.0
114,choice,choice,20,3.0,Animal,1.0,10.509371333406309,Animal_Land_Solid_Small,2,0,1,10132067.0,10132361.0,294.0
114,choice,choice,20,3.0,Animal,1.0,10.509371333406309,Animal_Land_Pattern_Small,0,0,1,10132385.0,10133197.0,812.0
114,choice,choice,20,3.0,Animal,1.0,10.509371333406309,Animal_Land_Solid_Small,2,0,1,10133651.0,10133787.0,136.0
114,choice,choice,20,3.0,Animal,1.0,10.509371333406309,Animal_Land_Pattern_Small,0,0,1,10133807.0,10134987.0,1180.0
114,choice,choice,20,3.0,Animal,1.0,10.509371333406309,Object_Sea_Pattern_Large,1,0,0,10135434.0,10135516.0,82.0
114,choice,choice,20,3.0,Animal,1.0,10.509371333406309,Animal_Sea_Pattern_Large,3,0,1,10135702.0,10136054.0,352.0
114,choice,choice,20,3.0,Animal,1.0,10.509371333406309,Animal_Land_Pattern_Small,0,0,1,10136247.0,10137157.0,910.0
114,choice,choice,21,3.0,Sea,1.0,3.7879821667447686,fixation,-1,1,0,10140386.0,10140478.0,92.0
114,choice,choice,21,3.0,Sea,1.0,3.7879821667447686,Object_Sea_Pattern_Large,1,0,1,10140673.0,10141322.0,649.0
114,choice,choice,21,3.0,Sea,1.0,3.7879821667447686,fixation,-1,1,0,10141722.0,10141830.0,108.0
114,choice,choice,21,3.0,Sea,1.0,3.7879821667447686,Object_Sea_Pattern_Large,1,0,1,10142031.0,10142251.0,220.0
114,choice,choice,21,3.0,Sea,1.0,3.7879821667447686,Animal_Land_Pattern_Small,0,0,0,10142269.0,10142845.0,576.0
114,choice,choice,21,3.0,Sea,1.0,3.7879821667447686,Object_Sea_Pattern_Large,1,0,1,10143043.0,10143291.0,248.0
114,choice,choice,21,3.0,Sea,1.0,3.7879821667447686,Animal_Land_Pattern_Small,0,0,0,10143478.0,10143731.0,253.0
114,choice,choice,22,3.0,Solid,2.0,13.084158208221195,Animal_Land_Solid_Small,2,0,1,10147699.0,10147917.0,218.0
114,choice,choice,22,3.0,Solid,2.0,13.084158208221195,Animal_Sea_Pattern_Large,3,0,0,10148203.0,10148768.0,565.0
114,choice,choice,22,3.0,Solid,2.0,13.084158208221195,Object_Sea_Solid_Large,4,0,1,10148810.0,10148948.0,138.0
114,choice,choice,22,3.0,Solid,2.0,13.084158208221195,fixation,-1,1,0,10148978.0,10149133.0,155.0
114,choice,choice,22,3.0,Solid,2.0,13.084158208221195,Object_Land_Solid_Small,5,0,1,10149348.0,10149441.0,93.0
114,choice,choice,22,3.0,Solid,2.0,13.084158208221195,Animal_Land_Solid_Small,2,0,1,10149649.0,10149813.0,164.0
114,choice,choice,22,3.0,Solid,2.0,13.084158208221195,fixation,-1,1,0,10149831.0,10150355.0,524.0
114,choice,choice,22,3.0,Solid,2.0,13.084158208221195,Animal_Land_Solid_Small,2,0,1,10150374.0,10150536.0,162.0
114,choice,choice,22,3.0,Solid,2.0,13.084158208221195,Object_Land_Solid_Small,5,0,1,10150779.0,10151027.0,248.0
114,choice,choice,22,3.0,Solid,2.0,13.084158208221195,Animal_Land_Pattern_Small,0,0,0,10151052.0,10151305.0,253.0
114,choice,choice,22,3.0,Solid,2.0,13.084158208221195,Animal_Land_Solid_Small,2,0,1,10151490.0,10151600.0,110.0
114,choice,choice,22,3.0,Solid,2.0,13.084158208221195,fixation,-1,1,0,10151805.0,10152394.0,589.0
114,choice,choice,22,3.0,Solid,2.0,13.084158208221195,Animal_Land_Solid_Small,2,0,1,10152784.0,10152957.0,173.0
114,choice,choice,22,3.0,Solid,2.0,13.084158208221195,fixation,-1,1,0,10152969.0,10153148.0,179.0
114,choice,choice,22,3.0,Solid,2.0,13.084158208221195,Animal_Land_Solid_Small,2,0,1,10153374.0,10153956.0,582.0
114,choice,choice,22,3.0,Solid,2.0,13.084158208221195,Animal_Land_Pattern_Small,0,0,0,10154203.0,10154363.0,160.0
114,choice,choice,22,3.0,Solid,2.0,13.084158208221195,Object_Land_Solid_Small,5,0,1,10154573.0,10154670.0,97.0
114,choice,choice,22,3.0,Solid,2.0,13.084158208221195,Animal_Land_Solid_Small,2,0,1,10154904.0,10155236.0,332.0
114,choice,choice,22,3.0,Solid,2.0,13.084158208221195,Animal_Land_Pattern_Small,0,0,0,10155246.0,10155451.0,205.0
114,choice,choice,22,3.0,Solid,2.0,13.084158208221195,Animal_Land_Solid_Small,2,0,1,10155472.0,10156036.0,564.0
114,choice,choice,22,3.0,Solid,2.0,13.084158208221195,Animal_Land_Pattern_Small,0,0,0,10156095.0,10156526.0,431.0
114,choice,choice,22,3.0,Solid,2.0,13.084158208221195,Animal_Land_Solid_Small,2,0,1,10156753.0,10157597.0,844.0
114,choice,choice,22,3.0,Solid,2.0,13.084158208221195,Animal_Land_Pattern_Small,0,0,0,10157928.0,10158202.0,274.0
114,choice,choice,22,3.0,Solid,2.0,13.084158208221195,Animal_Land_Solid_Small,2,0,1,10158450.0,10159004.0,554.0
114,choice,choice,22,3.0,Solid,2.0,13.084158208221195,Object_Sea_Solid_Large,4,0,1,10159262.0,10159422.0,160.0
114,choice,choice,22,3.0,Solid,2.0,13.084158208221195,Animal_Land_Solid_Small,2,0,1,10159630.0,10160074.0,444.0
114,choice,choice,23,3.0,Land,2.0,5.497897749999538,Animal_Land_Solid_Small,2,0,1,10163878.0,10163976.0,98.0
114,choice,choice,23,3.0,Land,2.0,5.497897749999538,Object_Land_Solid_Small,5,0,1,10164173.0,10164329.0,156.0
114,choice,choice,23,3.0,Land,2.0,5.497897749999538,Animal_Land_Solid_Small,2,0,1,10164757.0,10165006.0,249.0
114,choice,choice,23,3.0,Land,2.0,5.497897749999538,Animal_Land_Pattern_Small,0,0,1,10165025.0,10165250.0,225.0
114,choice,choice,23,3.0,Land,2.0,5.497897749999538,Animal_Land_Solid_Small,2,0,1,10165450.0,10165707.0,257.0
114,choice,choice,23,3.0,Land,2.0,5.497897749999538,Animal_Land_Pattern_Small,0,0,1,10165968.0,10166477.0,509.0
114,choice,choice,23,3.0,Land,2.0,5.497897749999538,Animal_Land_Solid_Small,2,0,1,10166703.0,10166965.0,262.0
114,choice,choice,23,3.0,Land,2.0,5.497897749999538,Animal_Land_Pattern_Small,0,0,1,10166989.0,10168327.0,1338.0
114,choice,choice,24,3.0,Pattern,1.0,7.488231458351947,fixation,-1,1,0,10172206.0,10172424.0,218.0
114,choice,choice,24,3.0,Pattern,1.0,7.488231458351947,Animal_Sea_Pattern_Large,3,0,1,10172445.0,10172882.0,437.0
114,choice,choice,24,3.0,Pattern,1.0,7.488231458351947,Object_Land_Solid_Small,5,0,0,10173283.0,10173433.0,150.0
114,choice,choice,24,3.0,Pattern,1.0,7.488231458351947,Animal_Land_Solid_Small,2,0,0,10173446.0,10174092.0,646.0
114,choice,choice,24,3.0,Pattern,1.0,7.488231458351947,Animal_Land_Pattern_Small,0,0,1,10174329.0,10175173.0,844.0
114,choice,choice,24,3.0,Pattern,1.0,7.488231458351947,Animal_Land_Solid_Small,2,0,0,10175603.0,10175884.0,281.0
114,choice,choice,24,3.0,Pattern,1.0,7.488231458351947,Animal_Land_Pattern_Small,0,0,1,10175907.0,10176261.0,354.0
114,choice,choice,24,3.0,Pattern,1.0,7.488231458351947,fixation,-1,1,0,10176454.0,10176681.0,227.0
114,choice,choice,24,3.0,Pattern,1.0,7.488231458351947,Object_Land_Solid_Small,5,0,0,10176894.0,10176919.0,25.0
114,choice,choice,24,3.0,Pattern,1.0,7.488231458351947,Animal_Land_Pattern_Small,0,0,1,10177453.0,10177678.0,225.0
114,choice,choice,24,3.0,Pattern,1.0,7.488231458351947,fixation,-1,1,0,10177874.0,10178074.0,200.0
114,choice,choice,24,3.0,Pattern,1.0,7.488231458351947,Animal_Land_Pattern_Small,0,0,1,10178290.0,10178614.0,324.0
114,choice,choice,24,3.0,Pattern,1.0,7.488231458351947,Object_Sea_Pattern_Large,1,0,1,10178635.0,10178954.0,319.0
114,choice,choice,24,3.0,Pattern,1.0,7.488231458351947,Animal_Land_Pattern_Small,0,0,1,10178973.0,10179177.0,204.0
114,choice,choice,25,4.0,Object,1.0,10.514569833292626,Animal_Land_Pattern_Small,0,0,0,10451546.0,10451823.0,277.0
114,choice,choice,25,4.0,Object,1.0,10.514569833292626,fixation,-1,1,0,10452041.0,10452371.0,330.0
114,choice,choice,25,4.0,Object,1.0,10.514569833292626,Object_Land_Pattern_Small,1,0,1,10452387.0,10453021.0,634.0
114,choice,choice,25,4.0,Object,1.0,10.514569833292626,Animal_Land_Solid_Large,2,0,0,10453403.0,10453904.0,501.0
114,choice,choice,25,4.0,Object,1.0,10.514569833292626,Object_Sea_Pattern_Small,3,0,1,10454276.0,10455059.0,783.0
114,choice,choice,25,4.0,Object,1.0,10.514569833292626,Animal_Land_Pattern_Small,0,0,0,10455497.0,10455799.0,302.0
114,choice,choice,25,4.0,Object,1.0,10.514569833292626,Object_Sea_Pattern_Small,3,0,1,10455998.0,10456400.0,402.0
114,choice,choice,25,4.0,Object,1.0,10.514569833292626,fixation,-1,1,0,10456632.0,10456807.0,175.0
114,choice,choice,25,4.0,Object,1.0,10.514569833292626,Animal_Sea_Solid_Large,4,0,0,10457021.0,10457274.0,253.0
114,choice,choice,25,4.0,Object,1.0,10.514569833292626,Object_Sea_Solid_Large,5,0,1,10457287.0,10457696.0,409.0
114,choice,choice,25,4.0,Object,1.0,10.514569833292626,Animal_Sea_Solid_Large,4,0,0,10457913.0,10458119.0,206.0
114,choice,choice,25,4.0,Object,1.0,10.514569833292626,Animal_Land_Solid_Large,2,0,0,10458162.0,10458419.0,257.0
114,choice,choice,25,4.0,Object,1.0,10.514569833292626,Object_Land_Pattern_Small,1,0,1,10458748.0,10459289.0,541.0
114,choice,choice,25,4.0,Object,1.0,10.514569833292626,Animal_Land_Solid_Large,2,0,0,10459339.0,10459595.0,256.0
114,choice,choice,25,4.0,Object,1.0,10.514569833292626,Animal_Land_Pattern_Small,0,0,0,10459620.0,10459920.0,300.0
114,choice,choice,25,4.0,Object,1.0,10.514569833292626,Object_Sea_Pattern_Small,3,0,1,10460101.0,10460284.0,183.0
114,choice,choice,25,4.0,Object,1.0,10.514569833292626,Animal_Land_Solid_Large,2,0,0,10460313.0,10460594.0,281.0
114,choice,choice,25,4.0,Object,1.0,10.514569833292626,Object_Sea_Solid_Large,5,0,1,10460617.0,10461294.0,677.0
114,choice,choice,25,4.0,Object,1.0,10.514569833292626,fixation,-1,1,0,10461315.0,10461594.0,279.0
114,choice,choice,26,4.0,Large,2.0,20.420276666642167,Animal_Sea_Solid_Large,4,0,1,10465308.0,10465419.0,111.0
114,choice,choice,26,4.0,Large,2.0,20.420276666642167,fixation,-1,1,0,10465632.0,10465826.0,194.0
114,choice,choice,26,4.0,Large,2.0,20.420276666642167,Animal_Land_Solid_Large,2,0,1,10465877.0,10466132.0,255.0
114,choice,choice,26,4.0,Large,2.0,20.420276666642167,Object_Land_Pattern_Small,1,0,0,10466158.0,10466294.0,136.0
114,choice,choice,26,4.0,Large,2.0,20.420276666642167,Object_Sea_Solid_Large,5,0,1,10466630.0,10466752.0,122.0
114,choice,choice,26,4.0,Large,2.0,20.420276666642167,fixation,-1,1,0,10466777.0,10467183.0,406.0
114,choice,choice,26,4.0,Large,2.0,20.420276666642167,Animal_Land_Solid_Large,2,0,1,10467224.0,10467734.0,510.0
114,choice,choice,26,4.0,Large,2.0,20.420276666642167,Object_Land_Pattern_Small,1,0,0,10467768.0,10468137.0,369.0
114,choice,choice,26,4.0,Large,2.0,20.420276666642167,Animal_Land_Solid_Large,2,0,1,10468452.0,10468852.0,400.0
114,choice,choice,26,4.0,Large,2.0,20.420276666642167,Object_Land_Pattern_Small,1,0,0,10468873.0,10469271.0,398.0
114,choice,choice,26,4.0,Large,2.0,20.420276666642167,fixation,-1,1,0,10469645.0,10470158.0,513.0
114,choice,choice,26,4.0,Large,2.0,20.420276666642167,Animal_Land_Pattern_Small,0,0,0,10470367.0,10470611.0,244.0
114,choice,choice,26,4.0,Large,2.0,20.420276666642167,fixation,-1,1,0,10470620.0,10471384.0,764.0
114,choice,choice,26,4.0,Large,2.0,20.420276666642167,Animal_Land_Pattern_Small,0,0,0,10471575.0,10471836.0,261.0
114,choice,choice,26,4.0,Large,2.0,20.420276666642167,Object_Sea_Pattern_Small,3,0,0,10472034.0,10472242.0,208.0
114,choice,choice,26,4.0,Large,2.0,20.420276666642167,fixation,-1,1,0,10472467.0,10472751.0,284.0
114,choice,choice,26,4.0,Large,2.0,20.420276666642167,Animal_Sea_Solid_Large,4,0,1,10472954.0,10473121.0,167.0
114,choice,choice,26,4.0,Large,2.0,20.420276666642167,Object_Sea_Pattern_Small,3,0,0,10473369.0,10473550.0,181.0
114,choice,choice,26,4.0,Large,2.0,20.420276666642167,fixation,-1,1,0,10473573.0,10473829.0,256.0
114,choice,choice,26,4.0,Large,2.0,20.420276666642167,Object_Sea_Pattern_Small,3,0,0,10473853.0,10474051.0,198.0
114,choice,choice,26,4.0,Large,2.0,20.420276666642167,fixation,-1,1,0,10474259.0,10474474.0,215.0
114,choice,choice,26,4.0,Large,2.0,20.420276666642167,Animal_Land_Pattern_Small,0,0,0,10474496.0,10474641.0,145.0
114,choice,choice,26,4.0,Large,2.0,20.420276666642167,Object_Sea_Pattern_Small,3,0,0,10474846.0,10475630.0,784.0
114,choice,choice,26,4.0,Large,2.0,20.420276666642167,Animal_Land_Pattern_Small,0,0,0,10476095.0,10476351.0,256.0
114,choice,choice,26,4.0,Large,2.0,20.420276666642167,Object_Sea_Pattern_Small,3,0,0,10476547.0,10476762.0,215.0
114,choice,choice,26,4.0,Large,2.0,20.420276666642167,Animal_Land_Pattern_Small,0,0,0,10476785.0,10477047.0,262.0
114,choice,choice,26,4.0,Large,2.0,20.420276666642167,fixation,-1,1,0,10477239.0,10477419.0,180.0
114,choice,choice,26,4.0,Large,2.0,20.420276666642167,Animal_Land_Pattern_Small,0,0,0,10477441.0,10477693.0,252.0
114,choice,choice,26,4.0,Large,2.0,20.420276666642167,fixation,-1,1,0,10477715.0,10477942.0,227.0
114,choice,choice,26,4.0,Large,2.0,20.420276666642167,Animal_Land_Pattern_Small,0,0,0,10478162.0,10478845.0,683.0
114,choice,choice,26,4.0,Large,2.0,20.420276666642167,fixation,-1,1,0,10479071.0,10479248.0,177.0
114,choice,choice,26,4.0,Large,2.0,20.420276666642167,Animal_Land_Pattern_Small,0,0,0,10479258.0,10479574.0,316.0
114,choice,choice,26,4.0,Large,2.0,20.420276666642167,Animal_Land_Solid_Large,2,0,1,10479598.0,10479764.0,166.0
114,choice,choice,26,4.0,Large,2.0,20.420276666642167,Animal_Sea_Solid_Large,4,0,1,10479946.0,10480000.0,54.0
114,choice,choice,26,4.0,Large,2.0,20.420276666642167,Object_Sea_Solid_Large,5,0,1,10480361.0,10480623.0,262.0
114,choice,choice,26,4.0,Large,2.0,20.420276666642167,Animal_Land_Pattern_Small,0,0,0,10480639.0,10481067.0,428.0
114,choice,choice,26,4.0,Large,2.0,20.420276666642167,Animal_Land_Solid_Large,2,0,1,10481095.0,10481508.0,413.0
114,choice,choice,26,4.0,Large,2.0,20.420276666642167,Object_Land_Pattern_Small,1,0,0,10481741.0,10481843.0,102.0
114,choice,choice,26,4.0,Large,2.0,20.420276666642167,fixation,-1,1,0,10482027.0,10482382.0,355.0
114,choice,choice,26,4.0,Large,2.0,20.420276666642167,Animal_Sea_Solid_Large,4,0,1,10482573.0,10483009.0,436.0
114,choice,choice,26,4.0,Large,2.0,20.420276666642167,fixation,-1,1,0,10483073.0,10483241.0,168.0
114,choice,choice,26,4.0,Large,2.0,20.420276666642167,Animal_Sea_Solid_Large,4,0,1,10483441.0,10483811.0,370.0
114,choice,choice,26,4.0,Large,2.0,20.420276666642167,fixation,-1,1,0,10484066.0,10484473.0,407.0
114,choice,choice,26,4.0,Large,2.0,20.420276666642167,Animal_Land_Solid_Large,2,0,1,10484521.0,10484776.0,255.0
114,choice,choice,26,4.0,Large,2.0,20.420276666642167,fixation,-1,1,0,10485113.0,10485353.0,240.0
114,choice,choice,27,4.0,Solid,2.0,6.8318524999776855,Animal_Land_Solid_Large,2,0,1,10489044.0,10489572.0,528.0
114,choice,choice,27,4.0,Solid,2.0,6.8318524999776855,fixation,-1,1,0,10489787.0,10491055.0,1268.0
114,choice,choice,27,4.0,Solid,2.0,6.8318524999776855,Object_Sea_Solid_Large,5,0,1,10491806.0,10492046.0,240.0
114,choice,choice,27,4.0,Solid,2.0,6.8318524999776855,Object_Land_Pattern_Small,1,0,0,10492253.0,10492653.0,400.0
114,choice,choice,27,4.0,Solid,2.0,6.8318524999776855,fixation,-1,1,0,10492706.0,10493145.0,439.0
114,choice,choice,27,4.0,Solid,2.0,6.8318524999776855,Animal_Land_Pattern_Small,0,0,0,10493340.0,10493818.0,478.0
114,choice,choice,27,4.0,Solid,2.0,6.8318524999776855,Animal_Land_Solid_Large,2,0,1,10494212.0,10495491.0,1279.0
114,choice,choice,28,4.0,Sea,2.0,8.837861916748807,fixation,-1,1,0,10498792.0,10499385.0,593.0
114,choice,choice,28,4.0,Sea,2.0,8.837861916748807,Object_Sea_Solid_Large,5,0,1,10499638.0,10499824.0,186.0
114,choice,choice,28,4.0,Sea,2.0,8.837861916748807,Animal_Sea_Solid_Large,4,0,1,10500207.0,10500395.0,188.0
114,choice,choice,28,4.0,Sea,2.0,8.837861916748807,Object_Sea_Pattern_Small,3,0,1,10500417.0,10501285.0,868.0
114,choice,choice,28,4.0,Sea,2.0,8.837861916748807,Animal_Sea_Solid_Large,4,0,1,10501741.0,10501941.0,200.0
114,choice,choice,28,4.0,Sea,2.0,8.837861916748807,fixation,-1,1,0,10501963.0,10502022.0,59.0
114,choice,choice,28,4.0,Sea,2.0,8.837861916748807,Animal_Land_Pattern_Small,0,0,0,10502404.0,10503399.0,995.0
114,choice,choice,28,4.0,Sea,2.0,8.837861916748807,fixation,-1,1,0,10503994.0,10504278.0,284.0
114,choice,choice,28,4.0,Sea,2.0,8.837861916748807,Object_Sea_Pattern_Small,3,0,1,10504472.0,10504725.0,253.0
114,choice,choice,28,4.0,Sea,2.0,8.837861916748807,Animal_Land_Pattern_Small,0,0,0,10504740.0,10505985.0,1245.0
114,choice,choice,28,4.0,Sea,2.0,8.837861916748807,Object_Sea_Pattern_Small,3,0,1,10506284.0,10507393.0,1109.0
114,choice,choice,29,4.0,Land,2.0,16.814623249927536,Animal_Land_Pattern_Small,0,0,1,10510974.0,10511149.0,175.0
114,choice,choice,29,4.0,Land,2.0,16.814623249927536,Object_Sea_Pattern_Small,3,0,0,10511368.0,10511531.0,163.0
114,choice,choice,29,4.0,Land,2.0,16.814623249927536,Animal_Sea_Solid_Large,4,0,0,10511726.0,10511946.0,220.0
114,choice,choice,29,4.0,Land,2.0,16.814623249927536,Object_Sea_Pattern_Small,3,0,0,10511967.0,10512425.0,458.0
114,choice,choice,29,4.0,Land,2.0,16.814623249927536,fixation,-1,1,0,10512447.0,10513201.0,754.0
114,choice,choice,29,4.0,Land,2.0,16.814623249927536,Animal_Land_Solid_Large,2,0,1,10513405.0,10513509.0,104.0
114,choice,choice,29,4.0,Land,2.0,16.814623249927536,Object_Land_Pattern_Small,1,0,1,10513531.0,10513711.0,180.0
114,choice,choice,29,4.0,Land,2.0,16.814623249927536,Animal_Land_Solid_Large,2,0,1,10513743.0,10514004.0,261.0
114,choice,choice,29,4.0,Land,2.0,16.814623249927536,Animal_Land_Pattern_Small,0,0,1,10514017.0,10514188.0,171.0
114,choice,choice,29,4.0,Land,2.0,16.814623249927536,Object_Land_Pattern_Small,1,0,1,10514208.0,10514790.0,582.0
114,choice,choice,29,4.0,Land,2.0,16.814623249927536,Animal_Land_Pattern_Small,0,0,1,10514868.0,10515064.0,196.0
114,choice,choice,29,4.0,Land,2.0,16.814623249927536,fixation,-1,1,0,10515245.0,10515517.0,272.0
114,choice,choice,29,4.0,Land,2.0,16.814623249927536,Animal_Sea_Solid_Large,4,0,0,10515538.0,10516408.0,870.0
114,choice,choice,29,4.0,Land,2.0,16.814623249927536,Object_Sea_Solid_Large,5,0,0,10516866.0,10517026.0,160.0
114,choice,choice,29,4.0,Land,2.0,16.814623249927536,fixation,-1,1,0,10517046.0,10517379.0,333.0
114,choice,choice,29,4.0,Land,2.0,16.814623249927536,Object_Land_Pattern_Small,1,0,1,10517396.0,10517543.0,147.0
114,choice,choice,29,4.0,Land,2.0,16.814623249927536,fixation,-1,1,0,10517560.0,10517712.0,152.0
114,choice,choice,29,4.0,Land,2.0,16.814623249927536,Object_Land_Pattern_Small,1,0,1,10517894.0,10518416.0,522.0
114,choice,choice,29,4.0,Land,2.0,16.814623249927536,Animal_Land_Solid_Large,2,0,1,10518459.0,10519782.0,1323.0
114,choice,choice,29,4.0,Land,2.0,16.814623249927536,Animal_Land_Pattern_Small,0,0,1,10520545.0,10522439.0,1894.0
114,choice,choice,29,4.0,Land,2.0,16.814623249927536,Animal_Land_Solid_Large,2,0,1,10523077.0,10523683.0,606.0
114,choice,choice,29,4.0,Land,2.0,16.814623249927536,Object_Land_Pattern_Small,1,0,1,10523717.0,10524367.0,650.0
114,choice,choice,29,4.0,Land,2.0,16.814623249927536,Animal_Land_Solid_Large,2,0,1,10524587.0,10524813.0,226.0
114,choice,choice,29,4.0,Land,2.0,16.814623249927536,Object_Land_Pattern_Small,1,0,1,10524832.0,10525146.0,314.0
114,choice,choice,29,4.0,Land,2.0,16.814623249927536,Animal_Land_Solid_Large,2,0,1,10525171.0,10527107.0,1936.0
114,choice,choice,30,4.0,Animal,2.0,12.03279845835641,Animal_Land_Solid_Large,2,0,1,10531057.0,10532529.0,1472.0
114,choice,choice,30,4.0,Animal,2.0,12.03279845835641,Animal_Land_Pattern_Small,0,0,1,10533288.0,10533555.0,267.0
114,choice,choice,30,4.0,Animal,2.0,12.03279845835641,Animal_Land_Solid_Large,2,0,1,10533581.0,10533773.0,192.0
114,choice,choice,30,4.0,Animal,2.0,12.03279845835641,Animal_Land_Pattern_Small,0,0,1,10533795.0,10535237.0,1442.0
114,choice,choice,30,4.0,Animal,2.0,12.03279845835641,Animal_Land_Solid_Large,2,0,1,10535653.0,10535866.0,213.0
114,choice,choice,30,4.0,Animal,2.0,12.03279845835641,Animal_Land_Pattern_Small,0,0,1,10535879.0,10536900.0,1021.0
114,choice,choice,30,4.0,Animal,2.0,12.03279845835641,fixation,-1,1,0,10537188.0,10537435.0,247.0
114,choice,choice,30,4.0,Animal,2.0,12.03279845835641,Object_Sea_Pattern_Small,3,0,0,10537456.0,10537970.0,514.0
114,choice,choice,30,4.0,Animal,2.0,12.03279845835641,Animal_Land_Pattern_Small,0,0,1,10538140.0,10538663.0,523.0
114,choice,choice,30,4.0,Animal,2.0,12.03279845835641,fixation,-1,1,0,10538869.0,10539166.0,297.0
114,choice,choice,30,4.0,Animal,2.0,12.03279845835641,Animal_Land_Pattern_Small,0,0,1,10539188.0,10539783.0,595.0
114,choice,choice,30,4.0,Animal,2.0,12.03279845835641,Animal_Land_Solid_Large,2,0,1,10539994.0,10541261.0,1267.0
114,choice,choice,30,4.0,Animal,2.0,12.03279845835641,Animal_Land_Pattern_Small,0,0,1,10541481.0,10541846.0,365.0
114,choice,choice,30,4.0,Animal,2.0,12.03279845835641,fixation,-1,1,0,10542239.0,10542606.0,367.0
114,choice,choice,30,4.0,Animal,2.0,12.03279845835641,Animal_Land_Pattern_Small,0,0,1,10542623.0,10542849.0,226.0
114,choice,choice,31,4.0,Pattern,2.0,10.160036874935033,Object_Sea_Pattern_Small,3,0,1,10546582.0,10546711.0,129.0
114,choice,choice,31,4.0,Pattern,2.0,10.160036874935033,Animal_Land_Pattern_Small,0,0,1,10546880.0,10547223.0,343.0
114,choice,choice,31,4.0,Pattern,2.0,10.160036874935033,Object_Sea_Pattern_Small,3,0,1,10547429.0,10547470.0,41.0
114,choice,choice,31,4.0,Pattern,2.0,10.160036874935033,Animal_Land_Pattern_Small,0,0,1,10547652.0,10549121.0,1469.0
114,choice,choice,31,4.0,Pattern,2.0,10.160036874935033,fixation,-1,1,0,10549528.0,10549683.0,155.0
114,choice,choice,31,4.0,Pattern,2.0,10.160036874935033,Animal_Sea_Solid_Large,4,0,0,10549886.0,10550268.0,382.0
114,choice,choice,31,4.0,Pattern,2.0,10.160036874935033,Animal_Land_Pattern_Small,0,0,1,10550306.0,10551355.0,1049.0
114,choice,choice,31,4.0,Pattern,2.0,10.160036874935033,Object_Sea_Pattern_Small,3,0,1,10552017.0,10553062.0,1045.0
114,choice,choice,31,4.0,Pattern,2.0,10.160036874935033,Animal_Land_Pattern_Small,0,0,1,10553831.0,10554520.0,689.0
114,choice,choice,31,4.0,Pattern,2.0,10.160036874935033,Animal_Land_Solid_Large,2,0,0,10554918.0,10555271.0,353.0
114,choice,choice,31,4.0,Pattern,2.0,10.160036874935033,Object_Land_Pattern_Small,1,0,1,10555288.0,10556043.0,755.0
114,choice,choice,31,4.0,Pattern,2.0,10.160036874935033,Animal_Land_Solid_Large,2,0,0,10556116.0,10556277.0,161.0
114,choice,choice,31,4.0,Pattern,2.0,10.160036874935033,fixation,-1,1,0,10556467.0,10556500.0,33.0
114,choice,choice,32,4.0,Small,2.0,7.920833125011995,Animal_Land_Pattern_Small,0,0,1,10560528.0,10561766.0,1238.0
114,choice,choice,32,4.0,Small,2.0,7.920833125011995,Object_Sea_Pattern_Small,3,0,1,10562358.0,10562779.0,421.0
114,choice,choice,32,4.0,Small,2.0,7.920833125011995,Animal_Land_Pattern_Small,0,0,1,10563017.0,10563259.0,242.0
114,choice,choice,32,4.0,Small,2.0,7.920833125011995,Object_Sea_Pattern_Small,3,0,1,10563567.0,10564260.0,693.0
114,choice,choice,32,4.0,Small,2.0,7.920833125011995,Animal_Land_Pattern_Small,0,0,1,10564473.0,10565056.0,583.0
114,choice,choice,32,4.0,Small,2.0,7.920833125011995,Object_Land_Pattern_Small,1,0,1,10565114.0,10565751.0,637.0
114,choice,choice,32,4.0,Small,2.0,7.920833125011995,Animal_Land_Solid_Large,2,0,0,10565976.0,10566202.0,226.0
114,choice,choice,32,4.0,Small,2.0,7.920833125011995,fixation,-1,1,0,10566599.0,10566783.0,184.0
114,choice,choice,32,4.0,Small,2.0,7.920833125011995,Animal_Land_Solid_Large,2,0,0,10566796.0,10567247.0,451.0
114,choice,choice,32,4.0,Small,2.0,7.920833125011995,Object_Land_Pattern_Small,1,0,1,10567417.0,10567592.0,175.0
114,choice,choice,32,4.0,Small,2.0,7.920833125011995,Animal_Land_Solid_Large,2,0,0,10567605.0,10567966.0,361.0
114,choice,choice,33,5.0,Pattern,1.0,12.997330000041984,Object_Land_Pattern_Large,0,0,1,10835650.0,10836065.0,415.0
114,choice,choice,33,5.0,Pattern,1.0,12.997330000041984,Object_Land_Solid_Large,1,0,0,10836084.0,10836253.0,169.0
114,choice,choice,33,5.0,Pattern,1.0,12.997330000041984,Object_Land_Pattern_Large,0,0,1,10836465.0,10837482.0,1017.0
114,choice,choice,33,5.0,Pattern,1.0,12.997330000041984,Object_Land_Solid_Large,1,0,0,10838444.0,10840243.0,1799.0
114,choice,choice,33,5.0,Pattern,1.0,12.997330000041984,fixation,-1,1,0,10840865.0,10841237.0,372.0
114,choice,choice,33,5.0,Pattern,1.0,12.997330000041984,Object_Sea_Solid_Small,2,0,0,10841442.0,10841662.0,220.0
114,choice,choice,33,5.0,Pattern,1.0,12.997330000041984,Animal_Sea_Pattern_Small,3,0,1,10841676.0,10842096.0,420.0
114,choice,choice,33,5.0,Pattern,1.0,12.997330000041984,fixation,-1,1,0,10842318.0,10842599.0,281.0
114,choice,choice,33,5.0,Pattern,1.0,12.997330000041984,Object_Sea_Solid_Small,2,0,0,10842818.0,10842955.0,137.0
114,choice,choice,33,5.0,Pattern,1.0,12.997330000041984,fixation,-1,1,0,10843154.0,10843554.0,400.0
114,choice,choice,33,5.0,Pattern,1.0,12.997330000041984,Animal_Sea_Pattern_Small,3,0,1,10843772.0,10844055.0,283.0
114,choice,choice,33,5.0,Pattern,1.0,12.997330000041984,Object_Sea_Solid_Small,2,0,0,10844292.0,10844595.0,303.0
114,choice,choice,33,5.0,Pattern,1.0,12.997330000041984,Animal_Sea_Pattern_Small,3,0,1,10844830.0,10845158.0,328.0
114,choice,choice,33,5.0,Pattern,1.0,12.997330000041984,fixation,-1,1,0,10845175.0,10845351.0,176.0
114,choice,choice,33,5.0,Pattern,1.0,12.997330000041984,Animal_Sea_Pattern_Small,3,0,1,10845555.0,10845815.0,260.0
114,choice,choice,33,5.0,Pattern,1.0,12.997330000041984,fixation,-1,1,0,10845830.0,10846062.0,232.0
114,choice,choice,33,5.0,Pattern,1.0,12.997330000041984,Animal_Sea_Pattern_Large,4,0,1,10846076.0,10846661.0,585.0
114,choice,choice,33,5.0,Pattern,1.0,12.997330000041984,Object_Land_Pattern_Large,0,0,1,10847247.0,10847529.0,282.0
114,choice,choice,33,5.0,Pattern,1.0,12.997330000041984,Object_Land_Solid_Large,1,0,0,10847548.0,10847573.0,25.0
114,choice,choice,33,5.0,Pattern,1.0,12.997330000041984,Object_Land_Pattern_Large,0,0,1,10847758.0,10848059.0,301.0
114,choice,choice,34,5.0,Object,2.0,13.0829655417474,Object_Land_Pattern_Large,0,0,1,10850990.0,10851134.0,144.0
114,choice,choice,34,5.0,Object,2.0,13.0829655417474,Animal_Land_Solid_Small,5,0,0,10851535.0,10851661.0,126.0
114,choice,choice,34,5.0,Object,2.0,13.0829655417474,fixation,-1,1,0,10851679.0,10852166.0,487.0
114,choice,choice,34,5.0,Object,2.0,13.0829655417474,Object_Land_Pattern_Large,0,0,1,10852175.0,10852423.0,248.0
114,choice,choice,34,5.0,Object,2.0,13.0829655417474,Animal_Land_Solid_Small,5,0,0,10852614.0,10853002.0,388.0
114,choice,choice,34,5.0,Object,2.0,13.0829655417474,Object_Sea_Solid_Small,2,0,1,10853231.0,10853532.0,301.0
114,choice,choice,34,5.0,Object,2.0,13.0829655417474,Animal_Land_Solid_Small,5,0,0,10853921.0,10854449.0,528.0
114,choice,choice,34,5.0,Object,2.0,13.0829655417474,Object_Land_Pattern_Large,0,0,1,10854488.0,10854809.0,321.0
114,choice,choice,34,5.0,Object,2.0,13.0829655417474,Object_Sea_Solid_Small,2,0,1,10855361.0,10855522.0,161.0
114,choice,choice,34,5.0,Object,2.0,13.0829655417474,Animal_Land_Solid_Small,5,0,0,10855543.0,10856062.0,519.0
114,choice,choice,34,5.0,Object,2.0,13.0829655417474,Object_Land_Pattern_Large,0,0,1,10856290.0,10857176.0,886.0
114,choice,choice,34,5.0,Object,2.0,13.0829655417474,Object_Land_Solid_Large,1,0,1,10858294.0,10858557.0,263.0
114,choice,choice,34,5.0,Object,2.0,13.0829655417474,fixation,-1,1,0,10858579.0,10859694.0,1115.0
114,choice,choice,34,5.0,Object,2.0,13.0829655417474,Object_Sea_Solid_Small,2,0,1,10859708.0,10860979.0,1271.0
114,choice,choice,34,5.0,Object,2.0,13.0829655417474,fixation,-1,1,0,10861446.0,10861983.0,537.0
114,choice,choice,34,5.0,Object,2.0,13.0829655417474,Object_Land_Pattern_Large,0,0,1,10862329.0,10863712.0,1383.0
114,choice,choice,35,5.0,Large,1.0,7.022147999959998,Object_Land_Pattern_Large,0,0,1,10867796.0,10868963.0,1167.0
114,choice,choice,35,5.0,Large,1.0,7.022147999959998,fixation,-1,1,0,10869233.0,10869333.0,100.0
114,choice,choice,35,5.0,Large,1.0,7.022147999959998,Object_Sea_Solid_Small,2,0,0,10869597.0,10869781.0,184.0
114,choice,choice,35,5.0,Large,1.0,7.022147999959998,fixation,-1,1,0,10869794.0,10870057.0,263.0
114,choice,choice,35,5.0,Large,1.0,7.022147999959998,Object_Land_Pattern_Large,0,0,1,10870081.0,10870347.0,266.0
114,choice,choice,35,5.0,Large,1.0,7.022147999959998,Object_Land_Solid_Large,1,0,1,10870373.0,10870549.0,176.0
114,choice,choice,35,5.0,Large,1.0,7.022147999959998,Animal_Sea_Pattern_Large,4,0,1,10870925.0,10871085.0,160.0
114,choice,choice,35,5.0,Large,1.0,7.022147999959998,Object_Land_Solid_Large,1,0,1,10871109.0,10871434.0,325.0
114,choice,choice,35,5.0,Large,1.0,7.022147999959998,fixation,-1,1,0,10871450.0,10871947.0,497.0
114,choice,choice,35,5.0,Large,1.0,7.022147999959998,Object_Land_Pattern_Large,0,0,1,10872149.0,10872940.0,791.0
114,choice,choice,35,5.0,Large,1.0,7.022147999959998,Object_Land_Solid_Large,1,0,1,10873113.0,10873361.0,248.0
114,choice,choice,35,5.0,Large,1.0,7.022147999959998,Object_Land_Pattern_Large,0,0,1,10873526.0,10873690.0,164.0
114,choice,choice,35,5.0,Large,1.0,7.022147999959998,Object_Land_Solid_Large,1,0,1,10873708.0,10873932.0,224.0
114,choice,choice,35,5.0,Large,1.0,7.022147999959998,Animal_Sea_Pattern_Small,3,0,0,10873956.0,10874071.0,115.0
114,choice,choice,35,5.0,Large,1.0,7.022147999959998,fixation,-1,1,0,10874254.0,10874511.0,257.0
114,choice,choice,36,5.0,Animal,1.0,6.278813083306886,Animal_Sea_Pattern_Large,4,0,1,10878281.0,10878430.0,149.0
114,choice,choice,36,5.0,Animal,1.0,6.278813083306886,Object_Land_Solid_Large,1,0,0,10878581.0,10879067.0,486.0
114,choice,choice,36,5.0,Animal,1.0,6.278813083306886,Animal_Sea_Pattern_Large,4,0,1,10879590.0,10880465.0,875.0
114,choice,choice,36,5.0,Animal,1.0,6.278813083306886,Object_Land_Solid_Large,1,0,0,10880867.0,10881041.0,174.0
114,choice,choice,36,5.0,Animal,1.0,6.278813083306886,Animal_Sea_Pattern_Large,4,0,1,10881568.0,10881868.0,300.0
114,choice,choice,36,5.0,Animal,1.0,6.278813083306886,Animal_Land_Solid_Small,5,0,1,10882065.0,10882166.0,101.0
114,choice,choice,36,5.0,Animal,1.0,6.278813083306886,Object_Land_Pattern_Large,0,0,0,10882366.0,10882573.0,207.0
114,choice,choice,36,5.0,Animal,1.0,6.278813083306886,Object_Land_Solid_Large,1,0,0,10882588.0,10882900.0,312.0
114,choice,choice,36,5.0,Animal,1.0,6.278813083306886,Object_Land_Pattern_Large,0,0,0,10882935.0,10883608.0,673.0
114,choice,choice,36,5.0,Animal,1.0,6.278813083306886,Animal_Land_Solid_Small,5,0,1,10884056.0,10884253.0,197.0
114,choice,choice,36,5.0,Animal,1.0,6.278813083306886,Object_Land_Pattern_Large,0,0,0,10884271.0,10884332.0,61.0
114,choice,choice,37,5.0,Sea,1.0,11.19883987493813,Object_Sea_Solid_Small,2,0,1,10887581.0,10887601.0,20.0
114,choice,choice,37,5.0,Sea,1.0,11.19883987493813,Object_Land_Solid_Large,1,0,0,10887796.0,10888255.0,459.0
114,choice,choice,37,5.0,Sea,1.0,11.19883987493813,fixation,-1,1,0,10888755.0,10888808.0,53.0
114,choice,choice,37,5.0,Sea,1.0,11.19883987493813,Object_Land_Pattern_Large,0,0,0,10888992.0,10889590.0,598.0
114,choice,choice,37,5.0,Sea,1.0,11.19883987493813,Object_Land_Solid_Large,1,0,0,10889637.0,10889831.0,194.0
114,choice,choice,37,5.0,Sea,1.0,11.19883987493813,Animal_Sea_Pattern_Large,4,0,1,10889854.0,10890286.0,432.0
114,choice,choice,37,5.0,Sea,1.0,11.19883987493813,Object_Land_Solid_Large,1,0,0,10890659.0,10890746.0,87.0
114,choice,choice,37,5.0,Sea,1.0,11.19883987493813,fixation,-1,1,0,10890934.0,10891122.0,188.0
114,choice,choice,37,5.0,Sea,1.0,11.19883987493813,Animal_Land_Solid_Small,5,0,0,10891321.0,10891630.0,309.0
114,choice,choice,37,5.0,Sea,1.0,11.19883987493813,fixation,-1,1,0,10891642.0,10891831.0,189.0
114,choice,choice,37,5.0,Sea,1.0,11.19883987493813,Animal_Land_Solid_Small,5,0,0,10892032.0,10892422.0,390.0
114,choice,choice,37,5.0,Sea,1.0,11.19883987493813,Object_Sea_Solid_Small,2,0,1,10892481.0,10893959.0,1478.0
114,choice,choice,37,5.0,Sea,1.0,11.19883987493813,Object_Land_Pattern_Large,0,0,0,10894766.0,10894923.0,157.0
114,choice,choice,37,5.0,Sea,1.0,11.19883987493813,Animal_Land_Solid_Small,5,0,0,10895106.0,10895755.0,649.0
114,choice,choice,37,5.0,Sea,1.0,11.19883987493813,Object_Land_Pattern_Large,0,0,0,10896375.0,10896665.0,290.0
114,choice,choice,37,5.0,Sea,1.0,11.19883987493813,fixation,-1,1,0,10896675.0,10896879.0,204.0
114,choice,choice,37,5.0,Sea,1.0,11.19883987493813,Animal_Sea_Pattern_Large,4,0,1,10896900.0,10897634.0,734.0
114,choice,choice,37,5.0,Sea,1.0,11.19883987493813,Animal_Sea_Pattern_Small,3,0,1,10897871.0,10898118.0,247.0
114,choice,choice,38,5.0,Land,2.0,8.331277500023134,Object_Land_Pattern_Large,0,0,1,10901471.0,10901650.0,179.0
114,choice,choice,38,5.0,Land,2.0,8.331277500023134,fixation,-1,1,0,10901671.0,10901785.0,114.0
114,choice,choice,38,5.0,Land,2.0,8.331277500023134,Object_Land_Pattern_Large,0,0,1,10902137.0,10902559.0,422.0
114,choice,choice,38,5.0,Land,2.0,8.331277500023134,Animal_Sea_Pattern_Large,4,0,0,10902599.0,10902843.0,244.0
114,choice,choice,38,5.0,Land,2.0,8.331277500023134,Animal_Sea_Pattern_Small,3,0,0,10902863.0,10902990.0,127.0
114,choice,choice,38,5.0,Land,2.0,8.331277500023134,Object_Land_Pattern_Large,0,0,1,10903015.0,10905012.0,1997.0
114,choice,choice,38,5.0,Land,2.0,8.331277500023134,Object_Land_Solid_Large,1,0,1,10906037.0,10907176.0,1139.0
114,choice,choice,38,5.0,Land,2.0,8.331277500023134,Animal_Sea_Pattern_Large,4,0,0,10907802.0,10908039.0,237.0
114,choice,choice,38,5.0,Land,2.0,8.331277500023134,Object_Land_Solid_Large,1,0,1,10908057.0,10908381.0,324.0
114,choice,choice,38,5.0,Land,2.0,8.331277500023134,Object_Land_Pattern_Large,0,0,1,10908402.0,10908838.0,436.0
114,choice,choice,38,5.0,Land,2.0,8.331277500023134,Object_Land_Solid_Large,1,0,1,10909219.0,10909661.0,442.0
114,choice,choice,39,5.0,Solid,2.0,11.6724343332462,Object_Land_Pattern_Large,0,0,0,10913378.0,10913966.0,588.0
114,choice,choice,39,5.0,Solid,2.0,11.6724343332462,Object_Land_Solid_Large,1,0,1,10914014.0,10914271.0,257.0
114,choice,choice,39,5.0,Solid,2.0,11.6724343332462,fixation,-1,1,0,10914469.0,10914684.0,215.0
114,choice,choice,39,5.0,Solid,2.0,11.6724343332462,Animal_Land_Solid_Small,5,0,1,10915058.0,10915159.0,101.0
114,choice,choice,39,5.0,Solid,2.0,11.6724343332462,Object_Land_Pattern_Large,0,0,0,10915539.0,10915698.0,159.0
114,choice,choice,39,5.0,Solid,2.0,11.6724343332462,Object_Land_Solid_Large,1,0,1,10915712.0,10916061.0,349.0
114,choice,choice,39,5.0,Solid,2.0,11.6724343332462,Object_Land_Pattern_Large,0,0,0,10916070.0,10916291.0,221.0
114,choice,choice,39,5.0,Solid,2.0,11.6724343332462,fixation,-1,1,0,10916302.0,10916708.0,406.0
114,choice,choice,39,5.0,Solid,2.0,11.6724343332462,Object_Land_Pattern_Large,0,0,0,10916922.0,10916962.0,40.0
114,choice,choice,39,5.0,Solid,2.0,11.6724343332462,fixation,-1,1,0,10917188.0,10918128.0,940.0
114,choice,choice,39,5.0,Solid,2.0,11.6724343332462,Object_Sea_Solid_Small,2,0,1,10918338.0,10918471.0,133.0
114,choice,choice,39,5.0,Solid,2.0,11.6724343332462,fixation,-1,1,0,10918882.0,10919525.0,643.0
114,choice,choice,39,5.0,Solid,2.0,11.6724343332462,Animal_Land_Solid_Small,5,0,1,10919720.0,10921546.0,1826.0
114,choice,choice,39,5.0,Solid,2.0,11.6724343332462,Object_Sea_Solid_Small,2,0,1,10921822.0,10921875.0,53.0
114,choice,choice,39,5.0,Solid,2.0,11.6724343332462,Animal_Land_Solid_Small,5,0,1,10922088.0,10923087.0,999.0
114,choice,choice,39,5.0,Solid,2.0,11.6724343332462,fixation,-1,1,0,10923110.0,10923196.0,86.0
114,choice,choice,39,5.0,Solid,2.0,11.6724343332462,Object_Land_Solid_Large,1,0,1,10923548.0,10924627.0,1079.0
114,choice,choice,40,5.0,Small,2.0,7.320082374964841,Object_Land_Solid_Large,1,0,0,10927820.0,10928151.0,331.0
114,choice,choice,40,5.0,Small,2.0,7.320082374964841,Animal_Sea_Pattern_Large,4,0,0,10928168.0,10928414.0,246.0
114,choice,choice,40,5.0,Small,2.0,7.320082374964841,Object_Land_Pattern_Large,0,0,0,10928451.0,10928683.0,232.0
114,choice,choice,40,5.0,Small,2.0,7.320082374964841,Animal_Land_Solid_Small,5,0,1,10928897.0,10929068.0,171.0
114,choice,choice,40,5.0,Small,2.0,7.320082374964841,Object_Sea_Solid_Small,2,0,1,10929286.0,10929697.0,411.0
114,choice,choice,40,5.0,Small,2.0,7.320082374964841,fixation,-1,1,0,10929984.0,10930245.0,261.0
114,choice,choice,40,5.0,Small,2.0,7.320082374964841,Animal_Land_Solid_Small,5,0,1,10930265.0,10930718.0,453.0
114,choice,choice,40,5.0,Small,2.0,7.320082374964841,Object_Sea_Solid_Small,2,0,1,10931126.0,10931471.0,345.0
114,choice,choice,40,5.0,Small,2.0,7.320082374964841,Animal_Land_Solid_Small,5,0,1,10931494.0,10932201.0,707.0
114,choice,choice,40,5.0,Small,2.0,7.320082374964841,Animal_Sea_Pattern_Small,3,0,1,10932660.0,10932778.0,118.0
114,choice,choice,40,5.0,Small,2.0,7.320082374964841,Object_Sea_Solid_Small,2,0,1,10932988.0,10933212.0,224.0
114,choice,choice,40,5.0,Small,2.0,7.320082374964841,Animal_Land_Solid_Small,5,0,1,10933228.0,10933523.0,295.0
114,choice,choice,40,5.0,Small,2.0,7.320082374964841,fixation,-1,1,0,10933539.0,10933754.0,215.0
114,choice,choice,40,5.0,Small,2.0,7.320082374964841,Animal_Sea_Pattern_Large,4,0,0,10933773.0,10933972.0,199.0
114,choice,choice,40,5.0,Small,2.0,7.320082374964841,Animal_Sea_Pattern_Small,3,0,1,10933992.0,10934388.0,396.0
114,choice,choice,40,5.0,Small,2.0,7.320082374964841,fixation,-1,1,0,10934413.0,10934602.0,189.0
114,choice,choice,40,5.0,Small,2.0,7.320082374964841,Animal_Sea_Pattern_Small,3,0,1,10934621.0,10934782.0,161.0
114,choice,choice,41,6.0,Small,1.0,8.105194624979049,Animal_Land_Pattern_Small,0,0,1,11209664.0,11210448.0,784.0
114,choice,choice,41,6.0,Small,1.0,8.105194624979049,Animal_Land_Solid_Small,1,0,1,11210677.0,11210820.0,143.0
114,choice,choice,41,6.0,Small,1.0,8.105194624979049,Animal_Land_Pattern_Small,0,0,1,11211006.0,11211720.0,714.0
114,choice,choice,41,6.0,Small,1.0,8.105194624979049,Animal_Land_Solid_Small,1,0,1,11211972.0,11212006.0,34.0
114,choice,choice,41,6.0,Small,1.0,8.105194624979049,Animal_Land_Pattern_Small,0,0,1,11212189.0,11212436.0,247.0
114,choice,choice,41,6.0,Small,1.0,8.105194624979049,Object_Sea_Pattern_Large,2,0,0,11212454.0,11212745.0,291.0
114,choice,choice,41,6.0,Small,1.0,8.105194624979049,fixation,-1,1,0,11212945.0,11213138.0,193.0
114,choice,choice,41,6.0,Small,1.0,8.105194624979049,Animal_Sea_Pattern_Large,3,0,0,11213163.0,11213389.0,226.0
114,choice,choice,41,6.0,Small,1.0,8.105194624979049,Object_Sea_Pattern_Large,2,0,0,11213552.0,11213734.0,182.0
114,choice,choice,41,6.0,Small,1.0,8.105194624979049,fixation,-1,1,0,11213906.0,11214017.0,111.0
114,choice,choice,41,6.0,Small,1.0,8.105194624979049,Animal_Land_Solid_Small,1,0,1,11214216.0,11214420.0,204.0
114,choice,choice,41,6.0,Small,1.0,8.105194624979049,Animal_Land_Pattern_Small,0,0,1,11214610.0,11215314.0,704.0
114,choice,choice,41,6.0,Small,1.0,8.105194624979049,Animal_Land_Solid_Small,1,0,1,11215513.0,11216304.0,791.0
114,choice,choice,41,6.0,Small,1.0,8.105194624979049,Object_Land_Solid_Small,4,0,1,11216336.0,11217212.0,876.0
114,choice,choice,41,6.0,Small,1.0,8.105194624979049,Animal_Land_Pattern_Small,0,0,1,11217438.0,11217504.0,66.0
114,choice,choice,42,6.0,Solid,1.0,10.530210583354346,Object_Land_Solid_Small,4,0,1,11220739.0,11220763.0,24.0
114,choice,choice,42,6.0,Solid,1.0,10.530210583354346,Animal_Land_Pattern_Small,0,0,0,11220947.0,11221186.0,239.0
114,choice,choice,42,6.0,Solid,1.0,10.530210583354346,Object_Sea_Pattern_Large,2,0,0,11221202.0,11221686.0,484.0
114,choice,choice,42,6.0,Solid,1.0,10.530210583354346,fixation,-1,1,0,11222081.0,11222280.0,199.0
114,choice,choice,42,6.0,Solid,1.0,10.530210583354346,Animal_Sea_Pattern_Large,3,0,0,11222297.0,11222429.0,132.0
114,choice,choice,42,6.0,Solid,1.0,10.530210583354346,fixation,-1,1,0,11222446.0,11223074.0,628.0
114,choice,choice,42,6.0,Solid,1.0,10.530210583354346,Object_Land_Solid_Small,4,0,1,11223459.0,11223524.0,65.0
114,choice,choice,42,6.0,Solid,1.0,10.530210583354346,Animal_Land_Solid_Small,1,0,1,11223749.0,11223945.0,196.0
114,choice,choice,42,6.0,Solid,1.0,10.530210583354346,Animal_Land_Pattern_Small,0,0,0,11223965.0,11224242.0,277.0
114,choice,choice,42,6.0,Solid,1.0,10.530210583354346,Animal_Land_Solid_Small,1,0,1,11224484.0,11224747.0,263.0
114,choice,choice,42,6.0,Solid,1.0,10.530210583354346,Animal_Land_Pattern_Small,0,0,0,11224777.0,11225053.0,276.0
114,choice,choice,42,6.0,Solid,1.0,10.530210583354346,fixation,-1,1,0,11225086.0,11225262.0,176.0
114,choice,choice,42,6.0,Solid,1.0,10.530210583354346,Object_Land_Solid_Small,4,0,1,11225442.0,11225970.0,528.0
114,choice,choice,42,6.0,Solid,1.0,10.530210583354346,fixation,-1,1,0,11226264.0,11226710.0,446.0
114,choice,choice,42,6.0,Solid,1.0,10.530210583354346,Object_Land_Solid_Small,4,0,1,11227129.0,11227422.0,293.0
114,choice,choice,42,6.0,Solid,1.0,10.530210583354346,fixation,-1,1,0,11227655.0,11228188.0,533.0
114,choice,choice,42,6.0,Solid,1.0,10.530210583354346,Object_Sea_Solid_Large,5,0,1,11228217.0,11228432.0,215.0
114,choice,choice,42,6.0,Solid,1.0,10.530210583354346,fixation,-1,1,0,11228631.0,11229032.0,401.0
114,choice,choice,42,6.0,Solid,1.0,10.530210583354346,Animal_Land_Solid_Small,1,0,1,11229051.0,11230788.0,1737.0
114,choice,choice,43,6.0,Sea,1.0,4.186821958399378,Animal_Sea_Pattern_Large,3,0,1,11234597.0,11234679.0,82.0
114,choice,choice,43,6.0,Sea,1.0,4.186821958399378,fixation,-1,1,0,11234862.0,11235094.0,232.0
114,choice,choice,43,6.0,Sea,1.0,4.186821958399378,Object_Land_Solid_Small,4,0,0,11235459.0,11235566.0,107.0
114,choice,choice,43,6.0,Sea,1.0,4.186821958399378,Animal_Land_Solid_Small,1,0,0,11235777.0,11236035.0,258.0
114,choice,choice,43,6.0,Sea,1.0,4.186821958399378,Animal_Land_Pattern_Small,0,0,0,11236043.0,11236242.0,199.0
114,choice,choice,43,6.0,Sea,1.0,4.186821958399378,Animal_Sea_Pattern_Large,3,0,1,11236263.0,11237098.0,835.0
114,choice,choice,43,6.0,Sea,1.0,4.186821958399378,Object_Sea_Pattern_Large,2,0,1,11237123.0,11237285.0,162.0
114,choice,choice,43,6.0,Sea,1.0,4.186821958399378,fixation,-1,1,0,11237471.0,11238156.0,685.0
114,choice,choice,44,6.0,Animal,1.0,3.1301509583136067,Animal_Sea_Pattern_Large,3,0,1,11241599.0,11242267.0,668.0
114,choice,choice,44,6.0,Animal,1.0,3.1301509583136067,Object_Sea_Pattern_Large,2,0,0,11242293.0,11242513.0,220.0
114,choice,choice,44,6.0,Animal,1.0,3.1301509583136067,Animal_Land_Pattern_Small,0,0,1,11242533.0,11243286.0,753.0
114,choice,choice,44,6.0,Animal,1.0,3.1301509583136067,Object_Sea_Pattern_Large,2,0,0,11243552.0,11243761.0,209.0
114,choice,choice,44,6.0,Animal,1.0,3.1301509583136067,Animal_Land_Solid_Small,1,0,1,11243951.0,11244261.0,310.0
114,choice,choice,44,6.0,Animal,1.0,3.1301509583136067,Animal_Land_Pattern_Small,0,0,1,11244283.0,11244477.0,194.0
114,choice,choice,45,6.0,Land,1.0,4.821315791807137,Animal_Land_Solid_Small,1,0,1,11247548.0,11247949.0,401.0
114,choice,choice,45,6.0,Land,1.0,4.821315791807137,Animal_Land_Pattern_Small,0,0,1,11248181.0,11249053.0,872.0
114,choice,choice,45,6.0,Land,1.0,4.821315791807137,Animal_Land_Solid_Small,1,0,1,11249304.0,11249621.0,317.0
114,choice,choice,45,6.0,Land,1.0,4.821315791807137,Animal_Land_Pattern_Small,0,0,1,11249646.0,11249873.0,227.0
114,choice,choice,45,6.0,Land,1.0,4.821315791807137,Animal_Land_Solid_Small,1,0,1,11250335.0,11250634.0,299.0
114,choice,choice,45,6.0,Land,1.0,4.821315791807137,Animal_Land_Pattern_Small,0,0,1,11250646.0,11250915.0,269.0
114,choice,choice,45,6.0,Land,1.0,4.821315791807137,Animal_Land_Solid_Small,1,0,1,11251128.0,11251276.0,148.0
114,choice,choice,45,6.0,Land,1.0,4.821315791807137,Animal_Land_Pattern_Small,0,0,1,11251301.0,11251799.0,498.0
114,choice,choice,45,6.0,Land,1.0,4.821315791807137,Animal_Land_Solid_Small,1,0,1,11251858.0,11252090.0,232.0
114,choice,choice,46,6.0,Large,1.0,4.035375874955207,Object_Sea_Pattern_Large,2,0,1,11254962.0,11254992.0,30.0
114,choice,choice,46,6.0,Large,1.0,4.035375874955207,Animal_Land_Solid_Small,1,0,0,11255176.0,11255310.0,134.0
114,choice,choice,46,6.0,Large,1.0,4.035375874955207,Animal_Land_Pattern_Small,0,0,0,11255506.0,11255930.0,424.0
114,choice,choice,46,6.0,Large,1.0,4.035375874955207,Object_Sea_Pattern_Large,2,0,1,11255964.0,11256381.0,417.0
114,choice,choice,46,6.0,Large,1.0,4.035375874955207,Animal_Land_Pattern_Small,0,0,0,11256954.0,11257423.0,469.0
114,choice,choice,46,6.0,Large,1.0,4.035375874955207,Object_Sea_Pattern_Large,2,0,1,11257436.0,11257616.0,180.0
114,choice,choice,46,6.0,Large,1.0,4.035375874955207,Object_Land_Solid_Small,4,0,0,11257824.0,11258000.0,176.0
114,choice,choice,46,6.0,Large,1.0,4.035375874955207,Animal_Sea_Pattern_Large,3,0,1,11258022.0,11258200.0,178.0
114,choice,choice,46,6.0,Large,1.0,4.035375874955207,fixation,-1,1,0,11258221.0,11258666.0,445.0
114,choice,choice,47,6.0,Pattern,1.0,3.885605124989525,Animal_Land_Pattern_Small,0,0,1,11262091.0,11262531.0,440.0
114,choice,choice,47,6.0,Pattern,1.0,3.885605124989525,Object_Sea_Pattern_Large,2,0,1,11262730.0,11263426.0,696.0
114,choice,choice,47,6.0,Pattern,1.0,3.885605124989525,Object_Land_Solid_Small,4,0,0,11263610.0,11263667.0,57.0
114,choice,choice,47,6.0,Pattern,1.0,3.885605124989525,Animal_Land_Solid_Small,1,0,0,11263880.0,11264185.0,305.0
114,choice,choice,47,6.0,Pattern,1.0,3.885605124989525,Object_Sea_Pattern_Large,2,0,1,11264200.0,11264371.0,171.0
114,choice,choice,47,6.0,Pattern,1.0,3.885605124989525,Animal_Sea_Pattern_Large,3,0,1,11264402.0,11265177.0,775.0
114,choice,choice,47,6.0,Pattern,1.0,3.885605124989525,Object_Sea_Pattern_Large,2,0,1,11265246.0,11265348.0,102.0
114,choice,choice,48,6.0,Object,1.0,5.309367541689426,Animal_Land_Solid_Small,1,0,0,11268490.0,11268626.0,136.0
114,choice,choice,48,6.0,Object,1.0,5.309367541689426,Animal_Land_Pattern_Small,0,0,0,11268858.0,11269432.0,574.0
114,choice,choice,48,6.0,Object,1.0,5.309367541689426,Object_Sea_Pattern_Large,2,0,1,11269800.0,11269934.0,134.0
114,choice,choice,48,6.0,Object,1.0,5.309367541689426,Animal_Land_Pattern_Small,0,0,0,11269958.0,11270257.0,299.0
114,choice,choice,48,6.0,Object,1.0,5.309367541689426,Animal_Land_Solid_Small,1,0,0,11270461.0,11270630.0,169.0
114,choice,choice,48,6.0,Object,1.0,5.309367541689426,Object_Land_Solid_Small,4,0,1,11270832.0,11270854.0,22.0
114,choice,choice,48,6.0,Object,1.0,5.309367541689426,Object_Sea_Pattern_Large,2,0,1,11271073.0,11272387.0,1314.0
114,choice,choice,48,6.0,Object,1.0,5.309367541689426,Object_Land_Solid_Small,4,0,1,11272675.0,11272874.0,199.0
114,choice,choice,48,6.0,Object,1.0,5.309367541689426,Object_Sea_Solid_Large,5,0,1,11272892.0,11273601.0,709.0
114,choice,choice,48,6.0,Object,1.0,5.309367541689426,fixation,-1,1,0,11273636.0,11273700.0,64.0
114,choice,choice,49,7.0,Pattern,1.0,8.425720000057481,fixation,-1,1,0,11525870.0,11526064.0,194.0
114,choice,choice,49,7.0,Pattern,1.0,8.425720000057481,Animal_Land_Solid_Large,0,0,0,11526118.0,11526674.0,556.0
114,choice,choice,49,7.0,Pattern,1.0,8.425720000057481,Object_Land_Pattern_Large,1,0,1,11527257.0,11528220.0,963.0
114,choice,choice,49,7.0,Pattern,1.0,8.425720000057481,Object_Sea_Solid_Small,2,0,0,11528909.0,11528941.0,32.0
114,choice,choice,49,7.0,Pattern,1.0,8.425720000057481,fixation,-1,1,0,11529137.0,11529304.0,167.0
114,choice,choice,49,7.0,Pattern,1.0,8.425720000057481,Animal_Sea_Solid_Small,3,0,0,11529318.0,11529901.0,583.0
114,choice,choice,49,7.0,Pattern,1.0,8.425720000057481,Animal_Land_Pattern_Large,4,0,1,11530272.0,11530376.0,104.0
114,choice,choice,49,7.0,Pattern,1.0,8.425720000057481,fixation,-1,1,0,11530608.0,11531314.0,706.0
114,choice,choice,49,7.0,Pattern,1.0,8.425720000057481,Animal_Sea_Solid_Small,3,0,0,11531542.0,11531698.0,156.0
114,choice,choice,49,7.0,Pattern,1.0,8.425720000057481,fixation,-1,1,0,11531716.0,11531906.0,190.0
114,choice,choice,49,7.0,Pattern,1.0,8.425720000057481,Object_Sea_Pattern_Small,5,0,1,11532088.0,11532291.0,203.0
114,choice,choice,49,7.0,Pattern,1.0,8.425720000057481,Object_Land_Pattern_Large,1,0,1,11532310.0,11532918.0,608.0
114,choice,choice,49,7.0,Pattern,1.0,8.425720000057481,Object_Sea_Pattern_Small,5,0,1,11533145.0,11533602.0,457.0
114,choice,choice,49,7.0,Pattern,1.0,8.425720000057481,Object_Land_Pattern_Large,1,0,1,11533658.0,11533945.0,287.0
114,choice,choice,49,7.0,Pattern,1.0,8.425720000057481,Object_Sea_Pattern_Small,5,0,1,11533970.0,11534088.0,118.0
114,choice,choice,50,7.0,Large,2.0,11.738876833347604,Object_Land_Pattern_Large,1,0,1,11537034.0,11537549.0,515.0
114,choice,choice,50,7.0,Large,2.0,11.738876833347604,Animal_Land_Solid_Large,0,0,1,11537773.0,11538503.0,730.0
114,choice,choice,50,7.0,Large,2.0,11.738876833347604,Object_Land_Pattern_Large,1,0,1,11538707.0,11538995.0,288.0
114,choice,choice,50,7.0,Large,2.0,11.738876833347604,Animal_Land_Solid_Large,0,0,1,11539195.0,11540320.0,1125.0
114,choice,choice,50,7.0,Large,2.0,11.738876833347604,Animal_Sea_Solid_Small,3,0,0,11540748.0,11541094.0,346.0
114,choice,choice,50,7.0,Large,2.0,11.738876833347604,Animal_Land_Solid_Large,0,0,1,11541108.0,11541382.0,274.0
114,choice,choice,50,7.0,Large,2.0,11.738876833347604,Animal_Sea_Solid_Small,3,0,0,11541390.0,11541909.0,519.0
114,choice,choice,50,7.0,Large,2.0,11.738876833347604,Animal_Land_Solid_Large,0,0,1,11542519.0,11542724.0,205.0
114,choice,choice,50,7.0,Large,2.0,11.738876833347604,Animal_Sea_Solid_Small,3,0,0,11542738.0,11543076.0,338.0
114,choice,choice,50,7.0,Large,2.0,11.738876833347604,Animal_Land_Solid_Large,0,0,1,11543298.0,11545501.0,2203.0
114,choice,choice,50,7.0,Large,2.0,11.738876833347604,Object_Sea_Solid_Small,2,0,0,11546375.0,11546650.0,275.0
114,choice,choice,50,7.0,Large,2.0,11.738876833347604,Object_Land_Pattern_Large,1,0,1,11546869.0,11547409.0,540.0
114,choice,choice,50,7.0,Large,2.0,11.738876833347604,fixation,-1,1,0,11547752.0,11547838.0,86.0
114,choice,choice,50,7.0,Large,2.0,11.738876833347604,Object_Sea_Solid_Small,2,0,0,11548018.0,11548324.0,306.0
114,choice,choice,50,7.0,Large,2.0,11.738876833347604,Animal_Land_Pattern_Large,4,0,1,11548532.0,11548631.0,99.0
114,choice,choice,51,7.0,Sea,1.0,12.865179458167404,fixation,-1,1,0,11551331.0,11551595.0,264.0
114,choice,choice,51,7.0,Sea,1.0,12.865179458167404,Object_Sea_Pattern_Small,5,0,1,11552186.0,11552368.0,182.0
114,choice,choice,51,7.0,Sea,1.0,12.865179458167404,Animal_Land_Solid_Large,0,0,0,11552387.0,11552744.0,357.0
114,choice,choice,51,7.0,Sea,1.0,12.865179458167404,Animal_Sea_Solid_Small,3,0,1,11552766.0,11553406.0,640.0
114,choice,choice,51,7.0,Sea,1.0,12.865179458167404,Animal_Land_Solid_Large,0,0,0,11553772.0,11553972.0,200.0
114,choice,choice,51,7.0,Sea,1.0,12.865179458167404,Object_Land_Pattern_Large,1,0,0,11553992.0,11554366.0,374.0
114,choice,choice,51,7.0,Sea,1.0,12.865179458167404,Animal_Land_Solid_Large,0,0,0,11554568.0,11554933.0,365.0
114,choice,choice,51,7.0,Sea,1.0,12.865179458167404,Object_Sea_Pattern_Small,5,0,1,11555327.0,11555580.0,253.0
114,choice,choice,51,7.0,Sea,1.0,12.865179458167404,Object_Land_Pattern_Large,1,0,0,11555588.0,11555875.0,287.0
114,choice,choice,51,7.0,Sea,1.0,12.865179458167404,Object_Sea_Pattern_Small,5,0,1,11556096.0,11556706.0,610.0
114,choice,choice,51,7.0,Sea,1.0,12.865179458167404,fixation,-1,1,0,11557220.0,11557975.0,755.0
114,choice,choice,51,7.0,Sea,1.0,12.865179458167404,Object_Sea_Pattern_Small,5,0,1,11558217.0,11558484.0,267.0
114,choice,choice,51,7.0,Sea,1.0,12.865179458167404,Object_Land_Pattern_Large,1,0,0,11558503.0,11558639.0,136.0
114,choice,choice,51,7.0,Sea,1.0,12.865179458167404,Object_Sea_Pattern_Small,5,0,1,11558828.0,11559045.0,217.0
114,choice,choice,51,7.0,Sea,1.0,12.865179458167404,Object_Land_Pattern_Large,1,0,0,11559069.0,11559297.0,228.0
114,choice,choice,51,7.0,Sea,1.0,12.865179458167404,Object_Sea_Pattern_Small,5,0,1,11559494.0,11559748.0,254.0
114,choice,choice,51,7.0,Sea,1.0,12.865179458167404,Object_Land_Pattern_Large,1,0,0,11559761.0,11559964.0,203.0
114,choice,choice,51,7.0,Sea,1.0,12.865179458167404,Object_Sea_Pattern_Small,5,0,1,11560145.0,11560366.0,221.0
114,choice,choice,51,7.0,Sea,1.0,12.865179458167404,Object_Land_Pattern_Large,1,0,0,11560386.0,11560606.0,220.0
114,choice,choice,51,7.0,Sea,1.0,12.865179458167404,Object_Sea_Solid_Small,2,0,1,11560802.0,11561005.0,203.0
114,choice,choice,51,7.0,Sea,1.0,12.865179458167404,Animal_Sea_Solid_Small,3,0,1,11561204.0,11562379.0,1175.0
114,choice,choice,51,7.0,Sea,1.0,12.865179458167404,fixation,-1,1,0,11562624.0,11562700.0,76.0
114,choice,choice,51,7.0,Sea,1.0,12.865179458167404,Object_Sea_Pattern_Small,5,0,1,11562898.0,11563046.0,148.0
114,choice,choice,51,7.0,Sea,1.0,12.865179458167404,Object_Land_Pattern_Large,1,0,0,11563068.0,11563412.0,344.0
114,choice,choice,51,7.0,Sea,1.0,12.865179458167404,Object_Sea_Solid_Small,2,0,1,11563607.0,11563756.0,149.0
114,choice,choice,51,7.0,Sea,1.0,12.865179458167404,Object_Sea_Pattern_Small,5,0,1,11563973.0,11564040.0,67.0
114,choice,choice,52,7.0,Small,1.0,9.730477374978364,Animal_Land_Solid_Large,0,0,0,11567640.0,11568101.0,461.0
114,choice,choice,52,7.0,Small,1.0,9.730477374978364,Object_Land_Pattern_Large,1,0,0,11568304.0,11568354.0,50.0
114,choice,choice,52,7.0,Small,1.0,9.730477374978364,Animal_Land_Solid_Large,0,0,0,11568545.0,11569440.0,895.0
114,choice,choice,52,7.0,Small,1.0,9.730477374978364,Object_Land_Pattern_Large,1,0,0,11569644.0,11570654.0,1010.0
114,choice,choice,52,7.0,Small,1.0,9.730477374978364,Animal_Land_Solid_Large,0,0,0,11571026.0,11571404.0,378.0
114,choice,choice,52,7.0,Small,1.0,9.730477374978364,Object_Sea_Pattern_Small,5,0,1,11571760.0,11571890.0,130.0
114,choice,choice,52,7.0,Small,1.0,9.730477374978364,Object_Land_Pattern_Large,1,0,0,11572088.0,11572344.0,256.0
114,choice,choice,52,7.0,Small,1.0,9.730477374978364,Animal_Land_Solid_Large,0,0,0,11572355.0,11572689.0,334.0
114,choice,choice,52,7.0,Small,1.0,9.730477374978364,Object_Land_Pattern_Large,1,0,0,11572708.0,11572902.0,194.0
114,choice,choice,52,7.0,Small,1.0,9.730477374978364,Animal_Land_Solid_Large,0,0,0,11573087.0,11573686.0,599.0
114,choice,choice,52,7.0,Small,1.0,9.730477374978364,Object_Sea_Pattern_Small,5,0,1,11573926.0,11574206.0,280.0
114,choice,choice,52,7.0,Small,1.0,9.730477374978364,Animal_Land_Solid_Large,0,0,0,11574227.0,11574672.0,445.0
114,choice,choice,52,7.0,Small,1.0,9.730477374978364,Animal_Sea_Solid_Small,3,0,1,11575019.0,11575194.0,175.0
114,choice,choice,52,7.0,Small,1.0,9.730477374978364,fixation,-1,1,0,11575238.0,11575580.0,342.0
114,choice,choice,52,7.0,Small,1.0,9.730477374978364,Object_Land_Pattern_Large,1,0,0,11575586.0,11575816.0,230.0
114,choice,choice,52,7.0,Small,1.0,9.730477374978364,Object_Sea_Solid_Small,2,0,1,11575834.0,11576256.0,422.0
114,choice,choice,52,7.0,Small,1.0,9.730477374978364,Object_Sea_Pattern_Small,5,0,1,11576769.0,11577064.0,295.0
114,choice,choice,53,7.0,Solid,2.0,8.404446458327584,Object_Land_Pattern_Large,1,0,0,11580823.0,11581657.0,834.0
114,choice,choice,53,7.0,Solid,2.0,8.404446458327584,Animal_Land_Solid_Large,0,0,1,11582034.0,11583693.0,1659.0
114,choice,choice,53,7.0,Solid,2.0,8.404446458327584,Object_Land_Pattern_Large,1,0,0,11584450.0,11584807.0,357.0
114,choice,choice,53,7.0,Solid,2.0,8.404446458327584,Animal_Land_Solid_Large,0,0,1,11584829.0,11585542.0,713.0
114,choice,choice,53,7.0,Solid,2.0,8.404446458327584,fixation,-1,1,0,11585984.0,11586465.0,481.0
114,choice,choice,53,7.0,Solid,2.0,8.404446458327584,Object_Sea_Solid_Small,2,0,1,11586701.0,11587014.0,313.0
114,choice,choice,53,7.0,Solid,2.0,8.404446458327584,Animal_Sea_Solid_Small,3,0,1,11587240.0,11587965.0,725.0
114,choice,choice,53,7.0,Solid,2.0,8.404446458327584,fixation,-1,1,0,11588205.0,11588347.0,142.0
114,choice,choice,53,7.0,Solid,2.0,8.404446458327584,Object_Land_Pattern_Large,1,0,0,11588360.0,11588763.0,403.0
114,choice,choice,54,7.0,Animal,1.0,6.218034291639924,Animal_Sea_Solid_Small,3,0,1,11591983.0,11592291.0,308.0
114,choice,choice,54,7.0,Animal,1.0,6.218034291639924,Animal_Land_Solid_Large,0,0,1,11592520.0,11592750.0,230.0
114,choice,choice,54,7.0,Animal,1.0,6.218034291639924,Object_Sea_Pattern_Small,5,0,0,11592932.0,11592964.0,32.0
114,choice,choice,54,7.0,Animal,1.0,6.218034291639924,Object_Land_Pattern_Large,1,0,0,11593138.0,11593411.0,273.0
114,choice,choice,54,7.0,Animal,1.0,6.218034291639924,Animal_Land_Solid_Large,0,0,1,11593434.0,11593464.0,30.0
114,choice,choice,54,7.0,Animal,1.0,6.218034291639924,fixation,-1,1,0,11593661.0,11593817.0,156.0
114,choice,choice,54,7.0,Animal,1.0,6.218034291639924,Animal_Sea_Solid_Small,3,0,1,11593833.0,11594093.0,260.0
114,choice,choice,54,7.0,Animal,1.0,6.218034291639924,fixation,-1,1,0,11594112.0,11594659.0,547.0
114,choice,choice,54,7.0,Animal,1.0,6.218034291639924,Animal_Sea_Solid_Small,3,0,1,11594876.0,11595241.0,365.0
114,choice,choice,54,7.0,Animal,1.0,6.218034291639924,Animal_Land_Pattern_Large,4,0,1,11595425.0,11595674.0,249.0
114,choice,choice,54,7.0,Animal,1.0,6.218034291639924,Animal_Sea_Solid_Small,3,0,1,11595696.0,11596327.0,631.0
114,choice,choice,54,7.0,Animal,1.0,6.218034291639924,Animal_Land_Solid_Large,0,0,1,11596733.0,11597361.0,628.0
114,choice,choice,54,7.0,Animal,1.0,6.218034291639924,Object_Land_Pattern_Large,1,0,0,11597526.0,11597777.0,251.0
114,choice,choice,55,7.0,Object,2.0,4.723450416699052,Animal_Land_Solid_Large,0,0,0,11601109.0,11601596.0,487.0
114,choice,choice,55,7.0,Object,2.0,4.723450416699052,Animal_Sea_Solid_Small,3,0,0,11601617.0,11602137.0,520.0
114,choice,choice,55,7.0,Object,2.0,4.723450416699052,fixation,-1,1,0,11602530.0,11602713.0,183.0
114,choice,choice,55,7.0,Object,2.0,4.723450416699052,Object_Land_Pattern_Large,1,0,1,11602736.0,11603311.0,575.0
114,choice,choice,55,7.0,Object,2.0,4.723450416699052,Object_Sea_Pattern_Small,5,0,1,11603707.0,11603967.0,260.0
114,choice,choice,55,7.0,Object,2.0,4.723450416699052,Object_Land_Pattern_Large,1,0,1,11603977.0,11604789.0,812.0
114,choice,choice,55,7.0,Object,2.0,4.723450416699052,Object_Sea_Pattern_Small,5,0,1,11605033.0,11605363.0,330.0
