phase,event,trial_number,eyetracker_onset,eyetracker_offset,fix_start,fix_end,fix_duration_full,fix_duration_bounded,fix_x,fix_y,roi_x,roi_y,roi_content,thisRow.t,notes,onset,offset,game,image,outcome,choice,correct,rt,letter,match,response,option,true_value,true_position,recalled_position,Unnamed: 20
encoding,fixation,1,8961384,8962142,8961485.0,8961636.0,152.0,152.0,1709.5,1161.6,1591.0,891.0,Animal_Land_Pattern_Small,,,13.63024866662454,14.38841158314608,1.0,Object_Sea_Solid_Large,2.0,,,,,,,,,,,
encoding,fixation,1,8961384,8962142,8961658.0,8961900.0,243.0,243.0,1891.0,1114.1,1920.0,1080.0,fixation,,,13.63024866662454,14.38841158314608,1.0,Object_Sea_Solid_Large,2.0,,,,,,,,,,,
encoding,fixation,1,8961384,8962142,8962040.0,8962350.0,311.0,102.0,1822.7,1341.6,1920.0,700.0,Object_Sea_Pattern_Large,,,13.63024866662454,14.38841158314608,1.0,Object_Sea_Solid_Large,2.0,,,,,,,,,,,
encoding,image,1,8962142,8963160,8962396.0,8963382.0,987.0,764.0,2182.1,911.8,2249.0,1269.0,Object_Sea_Solid_Large,,,14.388527333154345,15.406622708193026,1.0,Object_Sea_Solid_Large,2.0,,,,,,,,,,,
encoding,value,1,8963160,8969170,8963394.0,8963755.0,362.0,362.0,2217.2,858.5,2249.0,1269.0,Object_Sea_Solid_Large,,,15.406709416536614,21.41660683322698,1.0,Object_Sea_Solid_Large,2.0,,,,,,,,,,,
encoding,value,1,8963160,8969170,8963764.0,8964489.0,726.0,726.0,2190.5,895.8,2249.0,1269.0,Object_Sea_Solid_Large,,,15.406709416536614,21.41660683322698,1.0,Object_Sea_Solid_Large,2.0,,,,,,,,,,,
encoding,value,1,8963160,8969170,8964500.0,8964770.0,271.0,271.0,2206.6,859.4000000000001,2249.0,1269.0,Object_Sea_Solid_Large,,,15.406709416536614,21.41660683322698,1.0,Object_Sea_Solid_Large,2.0,,,,,,,,,,,
encoding,value,1,8963160,8969170,8964783.0,8965454.0,672.0,672.0,2182.2,899.0999999999999,2249.0,1269.0,Object_Sea_Solid_Large,,,15.406709416536614,21.41660683322698,1.0,Object_Sea_Solid_Large,2.0,,,,,,,,,,,
encoding,value,1,8963160,8969170,8965466.0,8965684.0,219.0,219.0,2216.1,833.7,2249.0,1269.0,Object_Sea_Solid_Large,,,15.406709416536614,21.41660683322698,1.0,Object_Sea_Solid_Large,2.0,,,,,,,,,,,
encoding,value,1,8963160,8969170,8965695.0,8965949.0,255.0,255.0,2191.2,879.5999999999999,2249.0,1269.0,Object_Sea_Solid_Large,,,15.406709416536614,21.41660683322698,1.0,Object_Sea_Solid_Large,2.0,,,,,,,,,,,
encoding,value,1,8963160,8969170,8966166.0,8966197.0,32.0,32.0,2221.7,784.0999999999999,2249.0,1269.0,Object_Sea_Solid_Large,,,15.406709416536614,21.41660683322698,1.0,Object_Sea_Solid_Large,2.0,,,,,,,,,,,
encoding,value,1,8963160,8969170,8966586.0,8967477.0,892.0,892.0,2188.0,911.0999999999999,2249.0,1269.0,Object_Sea_Solid_Large,,,15.406709416536614,21.41660683322698,1.0,Object_Sea_Solid_Large,2.0,,,,,,,,,,,
encoding,value,1,8963160,8969170,8967635.0,8968687.0,1053.0,1053.0,2185.8,888.0999999999999,2249.0,1269.0,Object_Sea_Solid_Large,,,15.406709416536614,21.41660683322698,1.0,Object_Sea_Solid_Large,2.0,,,,,,,,,,,
encoding,value,1,8963160,8969170,8968695.0,8968911.0,217.0,217.0,2206.5,919.8,2249.0,1269.0,Object_Sea_Solid_Large,,,15.406709416536614,21.41660683322698,1.0,Object_Sea_Solid_Large,2.0,,,,,,,,,,,
encoding,value,1,8963160,8969170,8969090.0,8969411.0,322.0,80.0,2188.5,885.4000000000001,2249.0,1269.0,Object_Sea_Solid_Large,,,15.406709416536614,21.41660683322698,1.0,Object_Sea_Solid_Large,2.0,,,,,,,,,,,
encoding,attention,1,8969170,8972185,8969427.0,8969556.0,130.0,130.0,2170.3,828.0999999999999,2249.0,1269.0,Object_Sea_Solid_Large,,,21.416708124917932,24.430940166581426,1.0,Object_Sea_Solid_Large,2.0,2.0,1.0,1.65176466666162,,,,,,,,
encoding,attention,1,8969170,8972185,8969571.0,8969987.0,417.0,417.0,2254.2,805.0,2249.0,1269.0,Object_Sea_Solid_Large,,,21.416708124917932,24.430940166581426,1.0,Object_Sea_Solid_Large,2.0,2.0,1.0,1.65176466666162,,,,,,,,
encoding,attention,1,8969170,8972185,8969999.0,8970186.0,188.0,188.0,2184.8,808.5999999999999,2249.0,1269.0,Object_Sea_Solid_Large,,,21.416708124917932,24.430940166581426,1.0,Object_Sea_Solid_Large,2.0,2.0,1.0,1.65176466666162,,,,,,,,
encoding,attention,1,8969170,8972185,8970928.0,8971060.0,133.0,133.0,2265.3,849.5,2249.0,1269.0,Object_Sea_Solid_Large,,,21.416708124917932,24.430940166581426,1.0,Object_Sea_Solid_Large,2.0,2.0,1.0,1.65176466666162,,,,,,,,
encoding,attention,1,8969170,8972185,8971071.0,8971191.0,121.0,121.0,2204.1,840.8,2249.0,1269.0,Object_Sea_Solid_Large,,,21.416708124917932,24.430940166581426,1.0,Object_Sea_Solid_Large,2.0,2.0,1.0,1.65176466666162,,,,,,,,
encoding,attention,1,8969170,8972185,8971398.0,8971439.0,42.0,42.0,2229.7,831.2,2249.0,1269.0,Object_Sea_Solid_Large,,,21.416708124917932,24.430940166581426,1.0,Object_Sea_Solid_Large,2.0,2.0,1.0,1.65176466666162,,,,,,,,
encoding,fixation,2,8972185,8972939,8972346.0,8972480.0,135.0,135.0,1933.2,1047.8,1920.0,1080.0,fixation,,,24.431146874907427,25.184882708243094,1.0,Animal_Land_Solid_Small,-1.0,,,,,,,,,,,
encoding,fixation,2,8972185,8972939,8972492.0,8972802.0,311.0,311.0,1912.7,1089.3,1920.0,1080.0,fixation,,,24.431146874907427,25.184882708243094,1.0,Animal_Land_Solid_Small,-1.0,,,,,,,,,,,
encoding,image,2,8972939,8973948,8973716.0,8974041.0,326.0,232.0,1619.0,951.7,1591.0,1269.0,Animal_Land_Solid_Small,,,25.185012833215296,26.19373629160691,1.0,Animal_Land_Solid_Small,-1.0,,,,,,,,,,,
encoding,value,2,8973948,8979957,8974734.0,8974882.0,149.0,149.0,1536.4,896.8,1591.0,1269.0,Animal_Land_Solid_Small,,,26.19383933325298,32.20296512497589,1.0,Animal_Land_Solid_Small,-1.0,,,,,,,,,,,
encoding,value,2,8973948,8979957,8974896.0,8975052.0,157.0,157.0,1593.5,827.0999999999999,1591.0,1269.0,Animal_Land_Solid_Small,,,26.19383933325298,32.20296512497589,1.0,Animal_Land_Solid_Small,-1.0,,,,,,,,,,,
encoding,value,2,8973948,8979957,8975159.0,8975262.0,104.0,104.0,1602.3,879.7,1591.0,1269.0,Animal_Land_Solid_Small,,,26.19383933325298,32.20296512497589,1.0,Animal_Land_Solid_Small,-1.0,,,,,,,,,,,
encoding,value,2,8973948,8979957,8975426.0,8975628.0,203.0,203.0,1627.4,933.8,1591.0,1269.0,Animal_Land_Solid_Small,,,26.19383933325298,32.20296512497589,1.0,Animal_Land_Solid_Small,-1.0,,,,,,,,,,,
encoding,value,2,8973948,8979957,8975650.0,8975999.0,350.0,350.0,1584.8,780.0,1591.0,1269.0,Animal_Land_Solid_Small,,,26.19383933325298,32.20296512497589,1.0,Animal_Land_Solid_Small,-1.0,,,,,,,,,,,
encoding,value,2,8973948,8979957,8976006.0,8977545.0,1540.0,1540.0,1594.0,813.5,1591.0,1269.0,Animal_Land_Solid_Small,,,26.19383933325298,32.20296512497589,1.0,Animal_Land_Solid_Small,-1.0,,,,,,,,,,,
encoding,value,2,8973948,8979957,8977568.0,8977661.0,94.0,94.0,1599.0,937.5,1591.0,1269.0,Animal_Land_Solid_Small,,,26.19383933325298,32.20296512497589,1.0,Animal_Land_Solid_Small,-1.0,,,,,,,,,,,
encoding,value,2,8973948,8979957,8977836.0,8978404.0,569.0,569.0,1615.5,931.5,1591.0,1269.0,Animal_Land_Solid_Small,,,26.19383933325298,32.20296512497589,1.0,Animal_Land_Solid_Small,-1.0,,,,,,,,,,,
encoding,value,2,8973948,8979957,8978424.0,8978630.0,207.0,207.0,1598.6,817.8,1591.0,1269.0,Animal_Land_Solid_Small,,,26.19383933325298,32.20296512497589,1.0,Animal_Land_Solid_Small,-1.0,,,,,,,,,,,
encoding,value,2,8973948,8979957,8978650.0,8978928.0,279.0,279.0,1612.7,930.0999999999999,1591.0,1269.0,Animal_Land_Solid_Small,,,26.19383933325298,32.20296512497589,1.0,Animal_Land_Solid_Small,-1.0,,,,,,,,,,,
encoding,value,2,8973948,8979957,8979271.0,8979486.0,216.0,216.0,1587.8,812.7,1591.0,1269.0,Animal_Land_Solid_Small,,,26.19383933325298,32.20296512497589,1.0,Animal_Land_Solid_Small,-1.0,,,,,,,,,,,
encoding,value,2,8973948,8979957,8979504.0,8979777.0,274.0,274.0,1608.1,943.0,1591.0,1269.0,Animal_Land_Solid_Small,,,26.19383933325298,32.20296512497589,1.0,Animal_Land_Solid_Small,-1.0,,,,,,,,,,,
encoding,attention,2,8979957,8982971,8979962.0,8980159.0,198.0,198.0,1578.1,891.0,1591.0,1269.0,Animal_Land_Solid_Small,,,32.2030887498986,35.21667449991219,1.0,Animal_Land_Solid_Small,-1.0,-1.0,1.0,1.6437484165653586,,,,,,,,
encoding,attention,2,8979957,8982971,8980174.0,8980713.0,540.0,540.0,1615.4,859.4000000000001,1591.0,1269.0,Animal_Land_Solid_Small,,,32.2030887498986,35.21667449991219,1.0,Animal_Land_Solid_Small,-1.0,-1.0,1.0,1.6437484165653586,,,,,,,,
encoding,attention,2,8979957,8982971,8980726.0,8980915.0,190.0,190.0,1554.4,843.3,1591.0,1269.0,Animal_Land_Solid_Small,,,32.2030887498986,35.21667449991219,1.0,Animal_Land_Solid_Small,-1.0,-1.0,1.0,1.6437484165653586,,,,,,,,
encoding,attention,2,8979957,8982971,8980924.0,8981858.0,935.0,935.0,1616.7,826.9000000000001,1591.0,1269.0,Animal_Land_Solid_Small,,,32.2030887498986,35.21667449991219,1.0,Animal_Land_Solid_Small,-1.0,-1.0,1.0,1.6437484165653586,,,,,,,,
encoding,attention,2,8979957,8982971,8982060.0,8982603.0,544.0,544.0,1598.0,926.8,1591.0,1269.0,Animal_Land_Solid_Small,,,32.2030887498986,35.21667449991219,1.0,Animal_Land_Solid_Small,-1.0,-1.0,1.0,1.6437484165653586,,,,,,,,
encoding,fixation,3,8982971,8984225,8983238.0,8984501.0,1264.0,987.0,1900.9,1080.8,1920.0,1080.0,fixation,,,35.216794958221726,36.471072041545995,1.0,Animal_Sea_Solid_Large,-2.0,,,,,,,,,,,
encoding,image,3,8984225,8985235,8984545.0,8985414.0,870.0,690.0,1910.9,733.0,1920.0,1460.0,Animal_Sea_Solid_Large,,,36.47116620815359,37.480388416559435,1.0,Animal_Sea_Solid_Large,-2.0,,,,,,,,,,,
encoding,value,3,8985235,8991244,8985438.0,8985745.0,308.0,308.0,1914.3,617.2,1920.0,1460.0,Animal_Sea_Solid_Large,,,37.48051129153464,43.48907999997027,1.0,Animal_Sea_Solid_Large,-2.0,,,,,,,,,,,
encoding,value,3,8985235,8991244,8985765.0,8986074.0,310.0,310.0,1902.8,715.0,1920.0,1460.0,Animal_Sea_Solid_Large,,,37.48051129153464,43.48907999997027,1.0,Animal_Sea_Solid_Large,-2.0,,,,,,,,,,,
encoding,value,3,8985235,8991244,8986299.0,8986801.0,503.0,503.0,1903.7,680.7,1920.0,1460.0,Animal_Sea_Solid_Large,,,37.48051129153464,43.48907999997027,1.0,Animal_Sea_Solid_Large,-2.0,,,,,,,,,,,
encoding,value,3,8985235,8991244,8986820.0,8987014.0,195.0,195.0,1890.0,647.8,1920.0,1460.0,Animal_Sea_Solid_Large,,,37.48051129153464,43.48907999997027,1.0,Animal_Sea_Solid_Large,-2.0,,,,,,,,,,,
encoding,value,3,8985235,8991244,8987024.0,8987911.0,888.0,888.0,1902.4,605.0,1920.0,1460.0,Animal_Sea_Solid_Large,,,37.48051129153464,43.48907999997027,1.0,Animal_Sea_Solid_Large,-2.0,,,,,,,,,,,
encoding,value,3,8985235,8991244,8987931.0,8988164.0,234.0,234.0,1890.1,721.4000000000001,1920.0,1460.0,Animal_Sea_Solid_Large,,,37.48051129153464,43.48907999997027,1.0,Animal_Sea_Solid_Large,-2.0,,,,,,,,,,,
encoding,value,3,8985235,8991244,8988404.0,8988893.0,490.0,490.0,1885.6,709.0,1920.0,1460.0,Animal_Sea_Solid_Large,,,37.48051129153464,43.48907999997027,1.0,Animal_Sea_Solid_Large,-2.0,,,,,,,,,,,
encoding,value,3,8985235,8991244,8988906.0,8989477.0,572.0,572.0,1878.3,718.4000000000001,1920.0,1460.0,Animal_Sea_Solid_Large,,,37.48051129153464,43.48907999997027,1.0,Animal_Sea_Solid_Large,-2.0,,,,,,,,,,,
encoding,value,3,8985235,8991244,8989491.0,8989732.0,242.0,242.0,1903.0,634.8,1920.0,1460.0,Animal_Sea_Solid_Large,,,37.48051129153464,43.48907999997027,1.0,Animal_Sea_Solid_Large,-2.0,,,,,,,,,,,
encoding,value,3,8985235,8991244,8990003.0,8990299.0,297.0,297.0,1927.2,481.0,,,none,,,37.48051129153464,43.48907999997027,1.0,Animal_Sea_Solid_Large,-2.0,,,,,,,,,,,
encoding,value,3,8985235,8991244,8990316.0,8990575.0,260.0,260.0,1887.3,672.8,1920.0,1460.0,Animal_Sea_Solid_Large,,,37.48051129153464,43.48907999997027,1.0,Animal_Sea_Solid_Large,-2.0,,,,,,,,,,,
encoding,value,3,8985235,8991244,8990588.0,8990680.0,93.0,93.0,1898.9,582.5,1920.0,1460.0,Animal_Sea_Solid_Large,,,37.48051129153464,43.48907999997027,1.0,Animal_Sea_Solid_Large,-2.0,,,,,,,,,,,
encoding,value,3,8985235,8991244,8991062.0,8991652.0,591.0,182.0,1905.6,499.4000000000001,,,none,,,37.48051129153464,43.48907999997027,1.0,Animal_Sea_Solid_Large,-2.0,,,,,,,,,,,
encoding,attention,3,8991244,8994258,8991666.0,8992319.0,654.0,654.0,1964.0,555.0999999999999,1920.0,1460.0,Animal_Sea_Solid_Large,,,43.489231874933466,46.50301699992269,1.0,Animal_Sea_Solid_Large,-2.0,-2.0,1.0,0.8336799582466483,,,,,,,,
encoding,attention,3,8991244,8994258,8992343.0,8992486.0,144.0,144.0,1891.5,727.9000000000001,1920.0,1460.0,Animal_Sea_Solid_Large,,,43.489231874933466,46.50301699992269,1.0,Animal_Sea_Solid_Large,-2.0,-2.0,1.0,0.8336799582466483,,,,,,,,
encoding,attention,3,8991244,8994258,8992701.0,8992845.0,145.0,145.0,1999.2,791.8,1920.0,1460.0,Animal_Sea_Solid_Large,,,43.489231874933466,46.50301699992269,1.0,Animal_Sea_Solid_Large,-2.0,-2.0,1.0,0.8336799582466483,,,,,,,,
encoding,attention,3,8991244,8994258,8992870.0,8993193.0,324.0,324.0,2145.2,993.0999999999999,2249.0,1269.0,Object_Sea_Solid_Large,,,43.489231874933466,46.50301699992269,1.0,Animal_Sea_Solid_Large,-2.0,-2.0,1.0,0.8336799582466483,,,,,,,,
encoding,attention,3,8991244,8994258,8993215.0,8993438.0,224.0,224.0,1965.5,1055.8,1920.0,1080.0,fixation,,,43.489231874933466,46.50301699992269,1.0,Animal_Sea_Solid_Large,-2.0,-2.0,1.0,0.8336799582466483,,,,,,,,
encoding,attention,3,8991244,8994258,8993479.0,8993613.0,135.0,135.0,1913.3,716.4000000000001,1920.0,1460.0,Animal_Sea_Solid_Large,,,43.489231874933466,46.50301699992269,1.0,Animal_Sea_Solid_Large,-2.0,-2.0,1.0,0.8336799582466483,,,,,,,,
encoding,fixation,4,8994258,8995011,8994480.0,8994607.0,128.0,128.0,1837.4,1042.4,1591.0,1269.0,Animal_Land_Solid_Small,,,46.503165958216414,47.2565822500037,1.0,Object_Sea_Pattern_Large,1.0,,,,,,,,,,,
encoding,fixation,4,8994258,8995011,8994625.0,8994728.0,104.0,104.0,1887.2,1097.1,1920.0,1080.0,fixation,,,46.503165958216414,47.2565822500037,1.0,Object_Sea_Pattern_Large,1.0,,,,,,,,,,,
encoding,fixation,4,8994258,8995011,8994956.0,8995252.0,297.0,55.0,1502.8,981.3,1591.0,1269.0,Animal_Land_Solid_Small,,,46.503165958216414,47.2565822500037,1.0,Object_Sea_Pattern_Large,1.0,,,,,,,,,,,
encoding,image,4,8995012,8996020,8995298.0,8995531.0,234.0,234.0,1920.4,1425.7,1920.0,700.0,Object_Sea_Pattern_Large,,,47.25668608315755,48.26546704152133,1.0,Object_Sea_Pattern_Large,1.0,,,,,,,,,,,
encoding,image,4,8995012,8996020,8995538.0,8995739.0,202.0,202.0,1894.1,1391.2,1920.0,700.0,Object_Sea_Pattern_Large,,,47.25668608315755,48.26546704152133,1.0,Object_Sea_Pattern_Large,1.0,,,,,,,,,,,
encoding,image,4,8995012,8996020,8995754.0,8996057.0,304.0,266.0,1901.8,1317.7,1920.0,700.0,Object_Sea_Pattern_Large,,,47.25668608315755,48.26546704152133,1.0,Object_Sea_Pattern_Large,1.0,,,,,,,,,,,
encoding,value,4,8996020,9002029,8996287.0,8996480.0,194.0,194.0,1907.8,1290.4,1920.0,700.0,Object_Sea_Pattern_Large,,,48.265561333158985,54.27395583316684,1.0,Object_Sea_Pattern_Large,1.0,,,,,,,,,,,
encoding,value,4,8996020,9002029,8996681.0,8996886.0,206.0,206.0,1900.7,1321.8,1920.0,700.0,Object_Sea_Pattern_Large,,,48.265561333158985,54.27395583316684,1.0,Object_Sea_Pattern_Large,1.0,,,,,,,,,,,
encoding,value,4,8996020,9002029,8996895.0,8997472.0,578.0,578.0,1904.2,1394.9,1920.0,700.0,Object_Sea_Pattern_Large,,,48.265561333158985,54.27395583316684,1.0,Object_Sea_Pattern_Large,1.0,,,,,,,,,,,
encoding,value,4,8996020,9002029,8997633.0,8997769.0,137.0,137.0,1913.8,1356.5,1920.0,700.0,Object_Sea_Pattern_Large,,,48.265561333158985,54.27395583316684,1.0,Object_Sea_Pattern_Large,1.0,,,,,,,,,,,
encoding,value,4,8996020,9002029,8998144.0,8998428.0,285.0,285.0,1922.3,1318.3,1920.0,700.0,Object_Sea_Pattern_Large,,,48.265561333158985,54.27395583316684,1.0,Object_Sea_Pattern_Large,1.0,,,,,,,,,,,
encoding,value,4,8996020,9002029,8998662.0,8999132.0,471.0,471.0,1896.4,1375.2,1920.0,700.0,Object_Sea_Pattern_Large,,,48.265561333158985,54.27395583316684,1.0,Object_Sea_Pattern_Large,1.0,,,,,,,,,,,
encoding,value,4,8996020,9002029,8999144.0,8999327.0,184.0,184.0,1914.9,1352.2,1920.0,700.0,Object_Sea_Pattern_Large,,,48.265561333158985,54.27395583316684,1.0,Object_Sea_Pattern_Large,1.0,,,,,,,,,,,
encoding,value,4,8996020,9002029,8999529.0,9000147.0,619.0,619.0,1902.1,1352.4,1920.0,700.0,Object_Sea_Pattern_Large,,,48.265561333158985,54.27395583316684,1.0,Object_Sea_Pattern_Large,1.0,,,,,,,,,,,
encoding,value,4,8996020,9002029,9000164.0,9000470.0,307.0,307.0,1912.0,1416.1,1920.0,700.0,Object_Sea_Pattern_Large,,,48.265561333158985,54.27395583316684,1.0,Object_Sea_Pattern_Large,1.0,,,,,,,,,,,
encoding,value,4,8996020,9002029,9000482.0,9000713.0,232.0,232.0,1906.2,1354.2,1920.0,700.0,Object_Sea_Pattern_Large,,,48.265561333158985,54.27395583316684,1.0,Object_Sea_Pattern_Large,1.0,,,,,,,,,,,
encoding,value,4,8996020,9002029,9000876.0,9001213.0,338.0,338.0,1892.3,1306.8,1920.0,700.0,Object_Sea_Pattern_Large,,,48.265561333158985,54.27395583316684,1.0,Object_Sea_Pattern_Large,1.0,,,,,,,,,,,
encoding,value,4,8996020,9002029,9001415.0,9001962.0,548.0,548.0,1894.8,1325.8,1920.0,700.0,Object_Sea_Pattern_Large,,,48.265561333158985,54.27395583316684,1.0,Object_Sea_Pattern_Large,1.0,,,,,,,,,,,
encoding,value,4,8996020,9002029,9001969.0,9002147.0,179.0,60.0,1881.5,1358.4,1920.0,700.0,Object_Sea_Pattern_Large,,,48.265561333158985,54.27395583316684,1.0,Object_Sea_Pattern_Large,1.0,,,,,,,,,,,
encoding,attention,4,9002029,9005043,9002283.0,9002635.0,353.0,353.0,1940.6,1339.0,1920.0,700.0,Object_Sea_Pattern_Large,,,54.27405437489506,57.28770808316767,1.0,Object_Sea_Pattern_Large,1.0,1.0,1.0,1.1467479165876284,,,,,,,,
encoding,attention,4,9002029,9005043,9002651.0,9002900.0,250.0,250.0,1850.9,1346.1,1920.0,700.0,Object_Sea_Pattern_Large,,,54.27405437489506,57.28770808316767,1.0,Object_Sea_Pattern_Large,1.0,1.0,1.0,1.1467479165876284,,,,,,,,
encoding,attention,4,9002029,9005043,9003103.0,9003461.0,359.0,359.0,1880.5,1309.6,1920.0,700.0,Object_Sea_Pattern_Large,,,54.27405437489506,57.28770808316767,1.0,Object_Sea_Pattern_Large,1.0,1.0,1.0,1.1467479165876284,,,,,,,,
encoding,attention,4,9002029,9005043,9003647.0,9003805.0,159.0,159.0,1911.2,1366.7,1920.0,700.0,Object_Sea_Pattern_Large,,,54.27405437489506,57.28770808316767,1.0,Object_Sea_Pattern_Large,1.0,1.0,1.0,1.1467479165876284,,,,,,,,
encoding,attention,4,9002029,9005043,9003825.0,9004005.0,181.0,181.0,1980.1,1333.9,1920.0,700.0,Object_Sea_Pattern_Large,,,54.27405437489506,57.28770808316767,1.0,Object_Sea_Pattern_Large,1.0,1.0,1.0,1.1467479165876284,,,,,,,,
encoding,attention,4,9002029,9005043,9004055.0,9004378.0,324.0,324.0,2066.5,968.5999999999999,2249.0,1269.0,Object_Sea_Solid_Large,,,54.27405437489506,57.28770808316767,1.0,Object_Sea_Pattern_Large,1.0,1.0,1.0,1.1467479165876284,,,,,,,,
encoding,attention,4,9002029,9005043,9004645.0,9004854.0,210.0,210.0,1844.3,1041.4,1591.0,1269.0,Animal_Land_Solid_Small,,,54.27405437489506,57.28770808316767,1.0,Object_Sea_Pattern_Large,1.0,1.0,1.0,1.1467479165876284,,,,,,,,
encoding,fixation,5,9005043,9006047,9005288.0,9005351.0,64.0,64.0,1873.4,976.5,1920.0,1460.0,Animal_Sea_Solid_Large,,,57.287848124979064,58.29125854151789,1.0,Object_Land_Pattern_Small,-6.0,,,,,,,,,,,
encoding,fixation,5,9005043,9006047,9005914.0,9006283.0,370.0,133.0,1839.3,748.2,1920.0,1460.0,Animal_Sea_Solid_Large,,,57.287848124979064,58.29125854151789,1.0,Object_Land_Pattern_Small,-6.0,,,,,,,,,,,
encoding,image,5,9006047,9007057,9006327.0,9006825.0,499.0,499.0,2186.8,1265.4,2249.0,891.0,Object_Land_Pattern_Small,,,58.29135845822748,59.30121387494728,1.0,Object_Land_Pattern_Small,-6.0,,,,,,,,,,,
encoding,image,5,9006047,9007057,9006978.0,9007258.0,281.0,79.0,2167.8,1144.4,2249.0,891.0,Object_Land_Pattern_Small,,,58.29135845822748,59.30121387494728,1.0,Object_Land_Pattern_Small,-6.0,,,,,,,,,,,
encoding,value,5,9007057,9013067,9007587.0,9007987.0,401.0,401.0,2213.8,1142.8,2249.0,891.0,Object_Land_Pattern_Small,,,59.30136058316566,65.31082866655197,1.0,Object_Land_Pattern_Small,-6.0,,,,,,,,,,,
encoding,value,5,9007057,9013067,9008001.0,9008084.0,84.0,84.0,2202.9,1221.0,2249.0,891.0,Object_Land_Pattern_Small,,,59.30136058316566,65.31082866655197,1.0,Object_Land_Pattern_Small,-6.0,,,,,,,,,,,
encoding,value,5,9007057,9013067,9008773.0,9008938.0,166.0,166.0,2236.0,1255.0,2249.0,891.0,Object_Land_Pattern_Small,,,59.30136058316566,65.31082866655197,1.0,Object_Land_Pattern_Small,-6.0,,,,,,,,,,,
encoding,value,5,9007057,9013067,9008957.0,9009079.0,123.0,123.0,2192.6,1165.7,2249.0,891.0,Object_Land_Pattern_Small,,,59.30136058316566,65.31082866655197,1.0,Object_Land_Pattern_Small,-6.0,,,,,,,,,,,
encoding,value,5,9007057,9013067,9009294.0,9010011.0,718.0,718.0,2192.6,1162.0,2249.0,891.0,Object_Land_Pattern_Small,,,59.30136058316566,65.31082866655197,1.0,Object_Land_Pattern_Small,-6.0,,,,,,,,,,,
encoding,value,5,9007057,9013067,9010025.0,9010146.0,122.0,122.0,2215.1,1214.9,2249.0,891.0,Object_Land_Pattern_Small,,,59.30136058316566,65.31082866655197,1.0,Object_Land_Pattern_Small,-6.0,,,,,,,,,,,
encoding,value,5,9007057,9013067,9010316.0,9010568.0,253.0,253.0,2211.9,1230.4,2249.0,891.0,Object_Land_Pattern_Small,,,59.30136058316566,65.31082866655197,1.0,Object_Land_Pattern_Small,-6.0,,,,,,,,,,,
encoding,value,5,9007057,9013067,9010586.0,9011205.0,620.0,620.0,2196.4,1163.9,2249.0,891.0,Object_Land_Pattern_Small,,,59.30136058316566,65.31082866655197,1.0,Object_Land_Pattern_Small,-6.0,,,,,,,,,,,
encoding,value,5,9007057,9013067,9011219.0,9011390.0,172.0,172.0,2203.5,1253.1,2249.0,891.0,Object_Land_Pattern_Small,,,59.30136058316566,65.31082866655197,1.0,Object_Land_Pattern_Small,-6.0,,,,,,,,,,,
encoding,value,5,9007057,9013067,9011545.0,9012222.0,678.0,678.0,2209.2,1263.7,2249.0,891.0,Object_Land_Pattern_Small,,,59.30136058316566,65.31082866655197,1.0,Object_Land_Pattern_Small,-6.0,,,,,,,,,,,
encoding,value,5,9007057,9013067,9012234.0,9013320.0,1087.0,833.0,2214.3,1254.0,2249.0,891.0,Object_Land_Pattern_Small,,,59.30136058316566,65.31082866655197,1.0,Object_Land_Pattern_Small,-6.0,,,,,,,,,,,
encoding,attention,5,9013067,9016083,9013339.0,9013418.0,80.0,80.0,2202.2,1169.6,2249.0,891.0,Object_Land_Pattern_Small,,,65.31092254153918,68.32717016653623,1.0,Object_Land_Pattern_Small,-6.0,-6.0,1.0,0.8331028333632275,,,,,,,,
encoding,attention,5,9013067,9016083,9013599.0,9014139.0,541.0,541.0,2186.1,1156.4,2249.0,891.0,Object_Land_Pattern_Small,,,65.31092254153918,68.32717016653623,1.0,Object_Land_Pattern_Small,-6.0,-6.0,1.0,0.8331028333632275,,,,,,,,
encoding,attention,5,9013067,9016083,9014333.0,9014744.0,412.0,412.0,2208.2,1230.1,2249.0,891.0,Object_Land_Pattern_Small,,,65.31092254153918,68.32717016653623,1.0,Object_Land_Pattern_Small,-6.0,-6.0,1.0,0.8331028333632275,,,,,,,,
encoding,attention,5,9013067,9016083,9014775.0,9014982.0,208.0,208.0,1914.0,1446.0,1920.0,700.0,Object_Sea_Pattern_Large,,,65.31092254153918,68.32717016653623,1.0,Object_Land_Pattern_Small,-6.0,-6.0,1.0,0.8331028333632275,,,,,,,,
encoding,attention,5,9013067,9016083,9015158.0,9015254.0,97.0,97.0,2211.3,1132.8,2249.0,891.0,Object_Land_Pattern_Small,,,65.31092254153918,68.32717016653623,1.0,Object_Land_Pattern_Small,-6.0,-6.0,1.0,0.8331028333632275,,,,,,,,
encoding,attention,5,9013067,9016083,9015636.0,9015781.0,146.0,146.0,2132.5,1314.7,2249.0,891.0,Object_Land_Pattern_Small,,,65.31092254153918,68.32717016653623,1.0,Object_Land_Pattern_Small,-6.0,-6.0,1.0,0.8331028333632275,,,,,,,,
encoding,attention,5,9013067,9016083,9015805.0,9015888.0,84.0,84.0,2221.5,1215.1,2249.0,891.0,Object_Land_Pattern_Small,,,65.31092254153918,68.32717016653623,1.0,Object_Land_Pattern_Small,-6.0,-6.0,1.0,0.8331028333632275,,,,,,,,
encoding,attention,5,9013067,9016083,9016040.0,9016077.0,38.0,38.0,2238.6,1106.8,2249.0,891.0,Object_Land_Pattern_Small,,,65.31092254153918,68.32717016653623,1.0,Object_Land_Pattern_Small,-6.0,-6.0,1.0,0.8331028333632275,,,,,,,,
encoding,fixation,6,9016083,9017086,9016274.0,9016395.0,122.0,122.0,2207.2,1224.7,2249.0,891.0,Object_Land_Pattern_Small,,,68.3273356249556,69.33062766655348,1.0,Animal_Land_Pattern_Small,4.0,,,,,,,,,,,
encoding,fixation,6,9016083,9017086,9016430.0,9016645.0,216.0,216.0,1893.7,1103.7,1920.0,1080.0,fixation,,,68.3273356249556,69.33062766655348,1.0,Animal_Land_Pattern_Small,4.0,,,,,,,,,,,
encoding,fixation,6,9016083,9017086,9016808.0,9017266.0,459.0,278.0,1907.4,1062.9,1920.0,1080.0,fixation,,,68.3273356249556,69.33062766655348,1.0,Animal_Land_Pattern_Small,4.0,,,,,,,,,,,
encoding,image,6,9017086,9018095,9017304.0,9017777.0,474.0,474.0,1576.9,1268.6,1591.0,891.0,Animal_Land_Pattern_Small,,,69.33072374993935,70.33882170822471,1.0,Animal_Land_Pattern_Small,4.0,,,,,,,,,,,
encoding,image,6,9017086,9018095,9017792.0,9017993.0,202.0,202.0,1607.0,1212.3,1591.0,891.0,Animal_Land_Pattern_Small,,,69.33072374993935,70.33882170822471,1.0,Animal_Land_Pattern_Small,4.0,,,,,,,,,,,
encoding,value,6,9018095,9024104,9018218.0,9018327.0,110.0,110.0,1827.1,1094.7,1591.0,891.0,Animal_Land_Pattern_Small,,,70.33894008316565,76.34829208324663,1.0,Animal_Land_Pattern_Small,4.0,,,,,,,,,,,
encoding,value,6,9018095,9024104,9018342.0,9018401.0,60.0,60.0,1915.8,1138.3,1920.0,1080.0,fixation,,,70.33894008316565,76.34829208324663,1.0,Animal_Land_Pattern_Small,4.0,,,,,,,,,,,
encoding,value,6,9018095,9024104,9018433.0,9018891.0,459.0,459.0,1610.6,1160.2,1591.0,891.0,Animal_Land_Pattern_Small,,,70.33894008316565,76.34829208324663,1.0,Animal_Land_Pattern_Small,4.0,,,,,,,,,,,
encoding,value,6,9018095,9024104,9018909.0,9019084.0,176.0,176.0,1610.1,1250.7,1591.0,891.0,Animal_Land_Pattern_Small,,,70.33894008316565,76.34829208324663,1.0,Animal_Land_Pattern_Small,4.0,,,,,,,,,,,
encoding,value,6,9018095,9024104,9019254.0,9019565.0,312.0,312.0,1596.2,1165.2,1591.0,891.0,Animal_Land_Pattern_Small,,,70.33894008316565,76.34829208324663,1.0,Animal_Land_Pattern_Small,4.0,,,,,,,,,,,
encoding,value,6,9018095,9024104,9019747.0,9020061.0,315.0,315.0,1590.3,1148.6,1591.0,891.0,Animal_Land_Pattern_Small,,,70.33894008316565,76.34829208324663,1.0,Animal_Land_Pattern_Small,4.0,,,,,,,,,,,
encoding,value,6,9018095,9024104,9020249.0,9021005.0,757.0,757.0,1588.9,1166.9,1591.0,891.0,Animal_Land_Pattern_Small,,,70.33894008316565,76.34829208324663,1.0,Animal_Land_Pattern_Small,4.0,,,,,,,,,,,
encoding,value,6,9018095,9024104,9021031.0,9022129.0,1099.0,1099.0,1892.4,1115.4,1920.0,1080.0,fixation,,,70.33894008316565,76.34829208324663,1.0,Animal_Land_Pattern_Small,4.0,,,,,,,,,,,
encoding,value,6,9018095,9024104,9022354.0,9022665.0,312.0,312.0,1883.7,1049.0,1920.0,1080.0,fixation,,,70.33894008316565,76.34829208324663,1.0,Animal_Land_Pattern_Small,4.0,,,,,,,,,,,
encoding,value,6,9018095,9024104,9022676.0,9023172.0,497.0,497.0,1944.7,1108.5,1920.0,1080.0,fixation,,,70.33894008316565,76.34829208324663,1.0,Animal_Land_Pattern_Small,4.0,,,,,,,,,,,
encoding,value,6,9018095,9024104,9023210.0,9023290.0,81.0,81.0,1602.7,1198.5,1591.0,891.0,Animal_Land_Pattern_Small,,,70.33894008316565,76.34829208324663,1.0,Animal_Land_Pattern_Small,4.0,,,,,,,,,,,
encoding,value,6,9018095,9024104,9023487.0,9023687.0,201.0,201.0,1572.1,1080.1,1591.0,891.0,Animal_Land_Pattern_Small,,,70.33894008316565,76.34829208324663,1.0,Animal_Land_Pattern_Small,4.0,,,,,,,,,,,
encoding,value,6,9018095,9024104,9023896.0,9024324.0,429.0,208.0,1566.0,1154.2,1591.0,891.0,Animal_Land_Pattern_Small,,,70.33894008316565,76.34829208324663,1.0,Animal_Land_Pattern_Small,4.0,,,,,,,,,,,
encoding,attention,6,9024104,9027118,9024332.0,9024911.0,580.0,580.0,1614.2,1189.1,1591.0,891.0,Animal_Land_Pattern_Small,,,76.34841437498108,79.36193829157855,1.0,Animal_Land_Pattern_Small,4.0,4.0,1.0,0.5678831667173654,,,,,,,,
encoding,attention,6,9024104,9027118,9025208.0,9025605.0,398.0,398.0,1949.5,1097.3,1920.0,1080.0,fixation,,,76.34841437498108,79.36193829157855,1.0,Animal_Land_Pattern_Small,4.0,4.0,1.0,0.5678831667173654,,,,,,,,
encoding,attention,6,9024104,9027118,9025627.0,9025935.0,309.0,309.0,2078.3,1200.5,2249.0,891.0,Object_Land_Pattern_Small,,,76.34841437498108,79.36193829157855,1.0,Animal_Land_Pattern_Small,4.0,4.0,1.0,0.5678831667173654,,,,,,,,
encoding,attention,6,9024104,9027118,9025956.0,9026202.0,247.0,247.0,2204.6,1286.5,2249.0,891.0,Object_Land_Pattern_Small,,,76.34841437498108,79.36193829157855,1.0,Animal_Land_Pattern_Small,4.0,4.0,1.0,0.5678831667173654,,,,,,,,
encoding,attention,6,9024104,9027118,9026248.0,9026447.0,200.0,200.0,1648.0,1226.8,1591.0,891.0,Animal_Land_Pattern_Small,,,76.34841437498108,79.36193829157855,1.0,Animal_Land_Pattern_Small,4.0,4.0,1.0,0.5678831667173654,,,,,,,,
encoding,attention,6,9024104,9027118,9026456.0,9026552.0,97.0,97.0,1600.6,1234.5,1591.0,891.0,Animal_Land_Pattern_Small,,,76.34841437498108,79.36193829157855,1.0,Animal_Land_Pattern_Small,4.0,4.0,1.0,0.5678831667173654,,,,,,,,
encoding,attention,6,9024104,9027118,9026770.0,9026885.0,116.0,116.0,1606.2,1189.0,1591.0,891.0,Animal_Land_Pattern_Small,,,76.34841437498108,79.36193829157855,1.0,Animal_Land_Pattern_Small,4.0,4.0,1.0,0.5678831667173654,,,,,,,,
encoding,fixation,7,9481800,9482304,9482083.0,9482336.0,254.0,221.0,1914.9,1140.6,1920.0,1080.0,fixation,,,13.20870349998586,13.711904791533016,2.0,Animal_Sea_Solid_Small,9.0,,,,,,,,,,,
encoding,image,7,9482304,9483313,9482475.0,9482588.0,114.0,114.0,1888.7,1136.8,1920.0,1080.0,fixation,,,13.712000041618012,14.721418708213603,2.0,Animal_Sea_Solid_Small,9.0,,,,,,,,,,,
encoding,image,7,9482304,9483313,9482623.0,9483436.0,814.0,690.0,2234.1,1254.2,2249.0,891.0,Animal_Sea_Solid_Small,,,13.712000041618012,14.721418708213603,2.0,Animal_Sea_Solid_Small,9.0,,,,,,,,,,,
encoding,value,7,9483313,9489323,9483447.0,9483794.0,348.0,348.0,2252.6,1194.7,2249.0,891.0,Animal_Sea_Solid_Small,,,14.721533833188005,20.73131183325313,2.0,Animal_Sea_Solid_Small,9.0,,,,,,,,,,,
encoding,value,7,9483313,9489323,9483932.0,9484336.0,405.0,405.0,2237.6,1216.8,2249.0,891.0,Animal_Sea_Solid_Small,,,14.721533833188005,20.73131183325313,2.0,Animal_Sea_Solid_Small,9.0,,,,,,,,,,,
encoding,value,7,9483313,9489323,9484347.0,9484623.0,277.0,277.0,2241.5,1169.5,2249.0,891.0,Animal_Sea_Solid_Small,,,14.721533833188005,20.73131183325313,2.0,Animal_Sea_Solid_Small,9.0,,,,,,,,,,,
encoding,value,7,9483313,9489323,9484638.0,9485460.0,823.0,823.0,2222.0,1244.0,2249.0,891.0,Animal_Sea_Solid_Small,,,14.721533833188005,20.73131183325313,2.0,Animal_Sea_Solid_Small,9.0,,,,,,,,,,,
encoding,value,7,9483313,9489323,9485637.0,9485974.0,338.0,338.0,2217.3,1224.5,2249.0,891.0,Animal_Sea_Solid_Small,,,14.721533833188005,20.73131183325313,2.0,Animal_Sea_Solid_Small,9.0,,,,,,,,,,,
encoding,value,7,9483313,9489323,9485982.0,9486492.0,511.0,511.0,2233.2,1250.3,2249.0,891.0,Animal_Sea_Solid_Small,,,14.721533833188005,20.73131183325313,2.0,Animal_Sea_Solid_Small,9.0,,,,,,,,,,,
encoding,value,7,9483313,9489323,9486664.0,9486979.0,316.0,316.0,2245.2,1238.1,2249.0,891.0,Animal_Sea_Solid_Small,,,14.721533833188005,20.73131183325313,2.0,Animal_Sea_Solid_Small,9.0,,,,,,,,,,,
encoding,value,7,9483313,9489323,9486996.0,9487470.0,475.0,475.0,2230.6,1155.6,2249.0,891.0,Animal_Sea_Solid_Small,,,14.721533833188005,20.73131183325313,2.0,Animal_Sea_Solid_Small,9.0,,,,,,,,,,,
encoding,value,7,9483313,9489323,9487648.0,9488061.0,414.0,414.0,2233.2,1149.2,2249.0,891.0,Animal_Sea_Solid_Small,,,14.721533833188005,20.73131183325313,2.0,Animal_Sea_Solid_Small,9.0,,,,,,,,,,,
encoding,value,7,9483313,9489323,9488078.0,9488284.0,207.0,207.0,2213.1,1237.3,2249.0,891.0,Animal_Sea_Solid_Small,,,14.721533833188005,20.73131183325313,2.0,Animal_Sea_Solid_Small,9.0,,,,,,,,,,,
encoding,value,7,9483313,9489323,9488467.0,9489057.0,591.0,591.0,2222.3,1229.8,2249.0,891.0,Animal_Sea_Solid_Small,,,14.721533833188005,20.73131183325313,2.0,Animal_Sea_Solid_Small,9.0,,,,,,,,,,,
encoding,value,7,9483313,9489323,9489075.0,9489262.0,188.0,188.0,2232.6,1155.4,2249.0,891.0,Animal_Sea_Solid_Small,,,14.721533833188005,20.73131183325313,2.0,Animal_Sea_Solid_Small,9.0,,,,,,,,,,,
encoding,attention,7,9489323,9492337,9489468.0,9489698.0,231.0,231.0,2247.8,1179.7,2249.0,891.0,Animal_Sea_Solid_Small,,,20.73143491661176,23.745033166604117,2.0,Animal_Sea_Solid_Small,9.0,9.0,1.0,1.6020523749757558,,,,,,,,
encoding,attention,7,9489323,9492337,9489708.0,9490147.0,440.0,440.0,2184.9,1174.4,2249.0,891.0,Animal_Sea_Solid_Small,,,20.73143491661176,23.745033166604117,2.0,Animal_Sea_Solid_Small,9.0,9.0,1.0,1.6020523749757558,,,,,,,,
encoding,attention,7,9489323,9492337,9490160.0,9490718.0,559.0,559.0,2265.3,1175.4,2249.0,891.0,Animal_Sea_Solid_Small,,,20.73143491661176,23.745033166604117,2.0,Animal_Sea_Solid_Small,9.0,9.0,1.0,1.6020523749757558,,,,,,,,
encoding,attention,7,9489323,9492337,9490729.0,9491199.0,471.0,471.0,2223.6,1221.2,2249.0,891.0,Animal_Sea_Solid_Small,,,20.73143491661176,23.745033166604117,2.0,Animal_Sea_Solid_Small,9.0,9.0,1.0,1.6020523749757558,,,,,,,,
encoding,fixation,8,9492337,9493091,9492933.0,9493126.0,194.0,158.0,1970.3,1075.8,1920.0,1080.0,fixation,,,23.745165125001225,24.49891874997411,2.0,Object_Sea_Solid_Small,9.0,,,,,,,,,,,
encoding,image,8,9493091,9494099,9493145.0,9493328.0,184.0,184.0,2049.6,1026.2,2249.0,1269.0,Animal_Land_Pattern_Large,,,24.49901654163841,25.506926083238795,2.0,Object_Sea_Solid_Small,9.0,,,,,,,,,,,
encoding,image,8,9493091,9494099,9493365.0,9494163.0,799.0,734.0,1902.2,735.0,1920.0,1460.0,Object_Sea_Solid_Small,,,24.49901654163841,25.506926083238795,2.0,Object_Sea_Solid_Small,9.0,,,,,,,,,,,
encoding,value,8,9494099,9500108,9494175.0,9494313.0,139.0,139.0,1933.1,677.4000000000001,1920.0,1460.0,Object_Sea_Solid_Small,,,25.50703945825808,31.51515449990984,2.0,Object_Sea_Solid_Small,9.0,,,,,,,,,,,
encoding,value,8,9494099,9500108,9494331.0,9494572.0,242.0,242.0,1908.9,631.4000000000001,1920.0,1460.0,Object_Sea_Solid_Small,,,25.50703945825808,31.51515449990984,2.0,Object_Sea_Solid_Small,9.0,,,,,,,,,,,
encoding,value,8,9494099,9500108,9494594.0,9494789.0,196.0,196.0,1896.7,752.0,1920.0,1460.0,Object_Sea_Solid_Small,,,25.50703945825808,31.51515449990984,2.0,Object_Sea_Solid_Small,9.0,,,,,,,,,,,
encoding,value,8,9494099,9500108,9494958.0,9495099.0,142.0,142.0,1887.6,741.2,1920.0,1460.0,Object_Sea_Solid_Small,,,25.50703945825808,31.51515449990984,2.0,Object_Sea_Solid_Small,9.0,,,,,,,,,,,
encoding,value,8,9494099,9500108,9495135.0,9495309.0,175.0,175.0,1908.2,1093.0,1920.0,1080.0,fixation,,,25.50703945825808,31.51515449990984,2.0,Object_Sea_Solid_Small,9.0,,,,,,,,,,,
encoding,value,8,9494099,9500108,9495506.0,9495717.0,212.0,212.0,1920.3,858.3,1920.0,1460.0,Object_Sea_Solid_Small,,,25.50703945825808,31.51515449990984,2.0,Object_Sea_Solid_Small,9.0,,,,,,,,,,,
encoding,value,8,9494099,9500108,9495738.0,9496113.0,376.0,376.0,1887.0,808.9000000000001,1920.0,1460.0,Object_Sea_Solid_Small,,,25.50703945825808,31.51515449990984,2.0,Object_Sea_Solid_Small,9.0,,,,,,,,,,,
encoding,value,8,9494099,9500108,9496121.0,9496499.0,379.0,379.0,1905.9,757.0999999999999,1920.0,1460.0,Object_Sea_Solid_Small,,,25.50703945825808,31.51515449990984,2.0,Object_Sea_Solid_Small,9.0,,,,,,,,,,,
encoding,value,8,9494099,9500108,9496523.0,9496876.0,354.0,354.0,1923.8,615.7,1920.0,1460.0,Object_Sea_Solid_Small,,,25.50703945825808,31.51515449990984,2.0,Object_Sea_Solid_Small,9.0,,,,,,,,,,,
encoding,value,8,9494099,9500108,9497098.0,9497251.0,154.0,154.0,1949.2,601.4000000000001,1920.0,1460.0,Object_Sea_Solid_Small,,,25.50703945825808,31.51515449990984,2.0,Object_Sea_Solid_Small,9.0,,,,,,,,,,,
encoding,value,8,9494099,9500108,9497260.0,9497534.0,275.0,275.0,1917.8,646.4000000000001,1920.0,1460.0,Object_Sea_Solid_Small,,,25.50703945825808,31.51515449990984,2.0,Object_Sea_Solid_Small,9.0,,,,,,,,,,,
encoding,value,8,9494099,9500108,9497775.0,9497970.0,196.0,196.0,1944.5,748.0,1920.0,1460.0,Object_Sea_Solid_Small,,,25.50703945825808,31.51515449990984,2.0,Object_Sea_Solid_Small,9.0,,,,,,,,,,,
encoding,value,8,9494099,9500108,9497986.0,9498267.0,282.0,282.0,1892.3,713.0999999999999,1920.0,1460.0,Object_Sea_Solid_Small,,,25.50703945825808,31.51515449990984,2.0,Object_Sea_Solid_Small,9.0,,,,,,,,,,,
encoding,value,8,9494099,9500108,9498284.0,9498802.0,519.0,519.0,1928.0,658.8,1920.0,1460.0,Object_Sea_Solid_Small,,,25.50703945825808,31.51515449990984,2.0,Object_Sea_Solid_Small,9.0,,,,,,,,,,,
encoding,value,8,9494099,9500108,9498821.0,9499436.0,616.0,616.0,1898.7,748.9000000000001,1920.0,1460.0,Object_Sea_Solid_Small,,,25.50703945825808,31.51515449990984,2.0,Object_Sea_Solid_Small,9.0,,,,,,,,,,,
encoding,value,8,9494099,9500108,9499449.0,9499652.0,204.0,204.0,1932.1,639.4000000000001,1920.0,1460.0,Object_Sea_Solid_Small,,,25.50703945825808,31.51515449990984,2.0,Object_Sea_Solid_Small,9.0,,,,,,,,,,,
encoding,value,8,9494099,9500108,9499663.0,9499775.0,113.0,113.0,1916.8,695.3,1920.0,1460.0,Object_Sea_Solid_Small,,,25.50703945825808,31.51515449990984,2.0,Object_Sea_Solid_Small,9.0,,,,,,,,,,,
encoding,value,8,9494099,9500108,9499991.0,9500115.0,125.0,117.0,1938.8,661.0999999999999,1920.0,1460.0,Object_Sea_Solid_Small,,,25.50703945825808,31.51515449990984,2.0,Object_Sea_Solid_Small,9.0,,,,,,,,,,,
encoding,attention,8,9500108,9503121,9500342.0,9500464.0,123.0,123.0,1939.2,674.4000000000001,1920.0,1460.0,Object_Sea_Solid_Small,,,31.515253874938935,34.52892199996859,2.0,Object_Sea_Solid_Small,9.0,9.0,1.0,1.7849596249870956,,,,,,,,
encoding,attention,8,9500108,9503121,9500483.0,9501012.0,530.0,530.0,1988.9,645.5999999999999,1920.0,1460.0,Object_Sea_Solid_Small,,,31.515253874938935,34.52892199996859,2.0,Object_Sea_Solid_Small,9.0,9.0,1.0,1.7849596249870956,,,,,,,,
encoding,attention,8,9500108,9503121,9501029.0,9501419.0,391.0,391.0,1927.2,735.2,1920.0,1460.0,Object_Sea_Solid_Small,,,31.515253874938935,34.52892199996859,2.0,Object_Sea_Solid_Small,9.0,9.0,1.0,1.7849596249870956,,,,,,,,
encoding,attention,8,9500108,9503121,9501437.0,9502156.0,720.0,720.0,1979.5,647.9000000000001,1920.0,1460.0,Object_Sea_Solid_Small,,,31.515253874938935,34.52892199996859,2.0,Object_Sea_Solid_Small,9.0,9.0,1.0,1.7849596249870956,,,,,,,,
encoding,attention,8,9500108,9503121,9502176.0,9502268.0,93.0,93.0,1910.9,750.0,1920.0,1460.0,Object_Sea_Solid_Small,,,31.515253874938935,34.52892199996859,2.0,Object_Sea_Solid_Small,9.0,9.0,1.0,1.7849596249870956,,,,,,,,
encoding,attention,8,9500108,9503121,9502474.0,9502655.0,182.0,182.0,1928.1,744.5,1920.0,1460.0,Object_Sea_Solid_Small,,,31.515253874938935,34.52892199996859,2.0,Object_Sea_Solid_Small,9.0,9.0,1.0,1.7849596249870956,,,,,,,,
encoding,attention,8,9500108,9503121,9502688.0,9502753.0,66.0,66.0,1928.8,1071.2,1920.0,1080.0,fixation,,,31.515253874938935,34.52892199996859,2.0,Object_Sea_Solid_Small,9.0,9.0,1.0,1.7849596249870956,,,,,,,,
encoding,attention,8,9500108,9503121,9502958.0,9503076.0,119.0,119.0,1958.1,984.8,1920.0,1460.0,Object_Sea_Solid_Small,,,31.515253874938935,34.52892199996859,2.0,Object_Sea_Solid_Small,9.0,9.0,1.0,1.7849596249870956,,,,,,,,
encoding,fixation,9,9503122,9503875,9503568.0,9503729.0,162.0,162.0,1931.5,1089.9,1920.0,1080.0,fixation,,,34.52904758322984,35.282737833214924,2.0,Animal_Land_Solid_Large,-4.0,,,,,,,,,,,
encoding,fixation,9,9503122,9503875,9503748.0,9503967.0,220.0,127.0,1994.4,1056.4,2249.0,1269.0,Animal_Land_Pattern_Large,,,34.52904758322984,35.282737833214924,2.0,Animal_Land_Solid_Large,-4.0,,,,,,,,,,,
encoding,image,9,9503875,9504885,9503990.0,9504063.0,74.0,74.0,1930.3,1157.6,1920.0,700.0,Animal_Land_Solid_Large,,,35.28284283319954,36.29247783322353,2.0,Animal_Land_Solid_Large,-4.0,,,,,,,,,,,
encoding,image,9,9503875,9504885,9504098.0,9504256.0,159.0,159.0,1942.6,1399.2,1920.0,700.0,Animal_Land_Solid_Large,,,35.28284283319954,36.29247783322353,2.0,Animal_Land_Solid_Large,-4.0,,,,,,,,,,,
encoding,image,9,9503875,9504885,9504271.0,9504841.0,571.0,571.0,1943.4,1442.0,1920.0,700.0,Animal_Land_Solid_Large,,,35.28284283319954,36.29247783322353,2.0,Animal_Land_Solid_Large,-4.0,,,,,,,,,,,
encoding,value,9,9504885,9510895,9504988.0,9505148.0,161.0,161.0,1961.2,1424.1,1920.0,700.0,Animal_Land_Solid_Large,,,36.292567583266646,42.302109541604295,2.0,Animal_Land_Solid_Large,-4.0,,,,,,,,,,,
encoding,value,9,9504885,9510895,9505323.0,9505998.0,676.0,676.0,1919.4,1361.6,1920.0,700.0,Animal_Land_Solid_Large,,,36.292567583266646,42.302109541604295,2.0,Animal_Land_Solid_Large,-4.0,,,,,,,,,,,
encoding,value,9,9504885,9510895,9506016.0,9506134.0,119.0,119.0,1948.7,1459.0,1920.0,700.0,Animal_Land_Solid_Large,,,36.292567583266646,42.302109541604295,2.0,Animal_Land_Solid_Large,-4.0,,,,,,,,,,,
encoding,value,9,9504885,9510895,9506300.0,9506456.0,157.0,157.0,1952.9,1431.8,1920.0,700.0,Animal_Land_Solid_Large,,,36.292567583266646,42.302109541604295,2.0,Animal_Land_Solid_Large,-4.0,,,,,,,,,,,
encoding,value,9,9504885,9510895,9506476.0,9506587.0,112.0,112.0,1915.5,1389.7,1920.0,700.0,Animal_Land_Solid_Large,,,36.292567583266646,42.302109541604295,2.0,Animal_Land_Solid_Large,-4.0,,,,,,,,,,,
encoding,value,9,9504885,9510895,9506777.0,9506896.0,120.0,120.0,1921.0,1292.7,1920.0,700.0,Animal_Land_Solid_Large,,,36.292567583266646,42.302109541604295,2.0,Animal_Land_Solid_Large,-4.0,,,,,,,,,,,
encoding,value,9,9504885,9510895,9507084.0,9507477.0,394.0,394.0,1914.5,1343.0,1920.0,700.0,Animal_Land_Solid_Large,,,36.292567583266646,42.302109541604295,2.0,Animal_Land_Solid_Large,-4.0,,,,,,,,,,,
encoding,value,9,9504885,9510895,9507499.0,9507786.0,288.0,288.0,1939.6,1459.3,1920.0,700.0,Animal_Land_Solid_Large,,,36.292567583266646,42.302109541604295,2.0,Animal_Land_Solid_Large,-4.0,,,,,,,,,,,
encoding,value,9,9504885,9510895,9507965.0,9508474.0,510.0,510.0,1897.9,1365.8,1920.0,700.0,Animal_Land_Solid_Large,,,36.292567583266646,42.302109541604295,2.0,Animal_Land_Solid_Large,-4.0,,,,,,,,,,,
encoding,value,9,9504885,9510895,9508672.0,9509987.0,1316.0,1316.0,1884.0,1358.3,1920.0,700.0,Animal_Land_Solid_Large,,,36.292567583266646,42.302109541604295,2.0,Animal_Land_Solid_Large,-4.0,,,,,,,,,,,
encoding,value,9,9504885,9510895,9510194.0,9510415.0,222.0,222.0,1896.7,1312.5,1920.0,700.0,Animal_Land_Solid_Large,,,36.292567583266646,42.302109541604295,2.0,Animal_Land_Solid_Large,-4.0,,,,,,,,,,,
encoding,value,9,9504885,9510895,9510610.0,9510840.0,231.0,231.0,1917.6,1348.0,1920.0,700.0,Animal_Land_Solid_Large,,,36.292567583266646,42.302109541604295,2.0,Animal_Land_Solid_Large,-4.0,,,,,,,,,,,
encoding,attention,9,9510895,9513909,9511019.0,9512004.0,986.0,986.0,1862.2,1385.7,1920.0,700.0,Animal_Land_Solid_Large,,,42.30220487492625,45.316078749950975,2.0,Animal_Land_Solid_Large,-4.0,-4.0,1.0,0.8772951667197049,,,,,,,,
encoding,attention,9,9510895,9513909,9512196.0,9512265.0,70.0,70.0,1934.7,1326.3,1920.0,700.0,Animal_Land_Solid_Large,,,42.30220487492625,45.316078749950975,2.0,Animal_Land_Solid_Large,-4.0,-4.0,1.0,0.8772951667197049,,,,,,,,
encoding,attention,9,9510895,9513909,9512447.0,9512801.0,355.0,355.0,1913.7,1432.1,1920.0,700.0,Animal_Land_Solid_Large,,,42.30220487492625,45.316078749950975,2.0,Animal_Land_Solid_Large,-4.0,-4.0,1.0,0.8772951667197049,,,,,,,,
encoding,attention,9,9510895,9513909,9512815.0,9513029.0,215.0,215.0,1944.2,1384.8,1920.0,700.0,Animal_Land_Solid_Large,,,42.30220487492625,45.316078749950975,2.0,Animal_Land_Solid_Large,-4.0,-4.0,1.0,0.8772951667197049,,,,,,,,
encoding,attention,9,9510895,9513909,9513231.0,9513477.0,247.0,247.0,1876.6,1377.6,1920.0,700.0,Animal_Land_Solid_Large,,,42.30220487492625,45.316078749950975,2.0,Animal_Land_Solid_Large,-4.0,-4.0,1.0,0.8772951667197049,,,,,,,,
encoding,fixation,10,9513909,9515414,9514205.0,9514229.0,25.0,25.0,1875.5,1192.9,1920.0,700.0,Animal_Land_Solid_Large,,,45.31619562499691,46.82132079161238,2.0,Object_Sea_Pattern_Small,-9.0,,,,,,,,,,,
encoding,fixation,10,9513909,9515414,9514445.0,9514556.0,112.0,112.0,1879.4,1012.9000000000001,1591.0,1269.0,Object_Sea_Pattern_Small,,,45.31619562499691,46.82132079161238,2.0,Object_Sea_Pattern_Small,-9.0,,,,,,,,,,,
encoding,fixation,10,9513909,9515414,9514583.0,9514833.0,251.0,251.0,1827.3,1344.5,1920.0,700.0,Animal_Land_Solid_Large,,,45.31619562499691,46.82132079161238,2.0,Object_Sea_Pattern_Small,-9.0,,,,,,,,,,,
encoding,fixation,10,9513909,9515414,9514857.0,9515369.0,513.0,513.0,1927.3,1173.6,1920.0,700.0,Animal_Land_Solid_Large,,,45.31619562499691,46.82132079161238,2.0,Object_Sea_Pattern_Small,-9.0,,,,,,,,,,,
encoding,fixation,10,9513909,9515414,9515387.0,9515668.0,282.0,27.0,1885.7,1115.2,1920.0,1080.0,fixation,,,45.31619562499691,46.82132079161238,2.0,Object_Sea_Pattern_Small,-9.0,,,,,,,,,,,
encoding,image,10,9515414,9516424,9515706.0,9515975.0,270.0,270.0,1575.6,988.3,1591.0,1269.0,Object_Sea_Pattern_Small,,,46.82140658318531,47.83075799990911,2.0,Object_Sea_Pattern_Small,-9.0,,,,,,,,,,,
encoding,image,10,9515414,9516424,9516176.0,9516273.0,98.0,98.0,1757.9,938.4000000000001,1591.0,1269.0,Object_Sea_Pattern_Small,,,46.82140658318531,47.83075799990911,2.0,Object_Sea_Pattern_Small,-9.0,,,,,,,,,,,
encoding,image,10,9515414,9516424,9516292.0,9516602.0,311.0,132.0,1880.8,1114.6,1920.0,1080.0,fixation,,,46.82140658318531,47.83075799990911,2.0,Object_Sea_Pattern_Small,-9.0,,,,,,,,,,,
encoding,value,10,9516424,9522434,9516643.0,9516924.0,282.0,282.0,1583.6,864.2,1591.0,1269.0,Object_Sea_Pattern_Small,,,47.830858458182774,53.84009591664653,2.0,Object_Sea_Pattern_Small,-9.0,,,,,,,,,,,
encoding,value,10,9516424,9522434,9517112.0,9517245.0,134.0,134.0,1584.3,831.7,1591.0,1269.0,Object_Sea_Pattern_Small,,,47.830858458182774,53.84009591664653,2.0,Object_Sea_Pattern_Small,-9.0,,,,,,,,,,,
encoding,value,10,9516424,9522434,9517464.0,9517866.0,403.0,403.0,1597.5,955.5999999999999,1591.0,1269.0,Object_Sea_Pattern_Small,,,47.830858458182774,53.84009591664653,2.0,Object_Sea_Pattern_Small,-9.0,,,,,,,,,,,
encoding,value,10,9516424,9522434,9518050.0,9518206.0,157.0,157.0,1924.7,1061.1,1920.0,1080.0,fixation,,,47.830858458182774,53.84009591664653,2.0,Object_Sea_Pattern_Small,-9.0,,,,,,,,,,,
encoding,value,10,9516424,9522434,9518220.0,9518319.0,100.0,100.0,1854.1,1088.9,1920.0,1080.0,fixation,,,47.830858458182774,53.84009591664653,2.0,Object_Sea_Pattern_Small,-9.0,,,,,,,,,,,
encoding,value,10,9516424,9522434,9518524.0,9518755.0,232.0,232.0,1578.1,805.0999999999999,1591.0,1269.0,Object_Sea_Pattern_Small,,,47.830858458182774,53.84009591664653,2.0,Object_Sea_Pattern_Small,-9.0,,,,,,,,,,,
encoding,value,10,9516424,9522434,9518766.0,9519139.0,374.0,374.0,1588.4,939.5999999999999,1591.0,1269.0,Object_Sea_Pattern_Small,,,47.830858458182774,53.84009591664653,2.0,Object_Sea_Pattern_Small,-9.0,,,,,,,,,,,
encoding,value,10,9516424,9522434,9519360.0,9519478.0,119.0,119.0,1787.7,1052.3,1591.0,1269.0,Object_Sea_Pattern_Small,,,47.830858458182774,53.84009591664653,2.0,Object_Sea_Pattern_Small,-9.0,,,,,,,,,,,
encoding,value,10,9516424,9522434,9519505.0,9519666.0,162.0,162.0,1574.0,951.3,1591.0,1269.0,Object_Sea_Pattern_Small,,,47.830858458182774,53.84009591664653,2.0,Object_Sea_Pattern_Small,-9.0,,,,,,,,,,,
encoding,value,10,9516424,9522434,9519953.0,9520244.0,292.0,292.0,1592.7,839.3,1591.0,1269.0,Object_Sea_Pattern_Small,,,47.830858458182774,53.84009591664653,2.0,Object_Sea_Pattern_Small,-9.0,,,,,,,,,,,
encoding,value,10,9516424,9522434,9520258.0,9520747.0,490.0,490.0,1605.9,928.2,1591.0,1269.0,Object_Sea_Pattern_Small,,,47.830858458182774,53.84009591664653,2.0,Object_Sea_Pattern_Small,-9.0,,,,,,,,,,,
encoding,value,10,9516424,9522434,9520757.0,9520972.0,216.0,216.0,1605.7,869.7,1591.0,1269.0,Object_Sea_Pattern_Small,,,47.830858458182774,53.84009591664653,2.0,Object_Sea_Pattern_Small,-9.0,,,,,,,,,,,
encoding,value,10,9516424,9522434,9520992.0,9521162.0,171.0,171.0,1683.2,975.2,1591.0,1269.0,Object_Sea_Pattern_Small,,,47.830858458182774,53.84009591664653,2.0,Object_Sea_Pattern_Small,-9.0,,,,,,,,,,,
encoding,value,10,9516424,9522434,9521186.0,9521372.0,187.0,187.0,1874.4,1071.6,1920.0,1080.0,fixation,,,47.830858458182774,53.84009591664653,2.0,Object_Sea_Pattern_Small,-9.0,,,,,,,,,,,
encoding,value,10,9516424,9522434,9521559.0,9521889.0,331.0,331.0,1935.2,1078.5,1920.0,1080.0,fixation,,,47.830858458182774,53.84009591664653,2.0,Object_Sea_Pattern_Small,-9.0,,,,,,,,,,,
encoding,value,10,9516424,9522434,9521929.0,9522059.0,131.0,131.0,1599.5,937.9000000000001,1591.0,1269.0,Object_Sea_Pattern_Small,,,47.830858458182774,53.84009591664653,2.0,Object_Sea_Pattern_Small,-9.0,,,,,,,,,,,
encoding,value,10,9516424,9522434,9522278.0,9522710.0,433.0,156.0,1587.6,863.2,1591.0,1269.0,Object_Sea_Pattern_Small,,,47.830858458182774,53.84009591664653,2.0,Object_Sea_Pattern_Small,-9.0,,,,,,,,,,,
encoding,attention,10,9522434,9525447,9522724.0,9522860.0,137.0,137.0,1641.5,887.5,1591.0,1269.0,Object_Sea_Pattern_Small,,,53.84021237492561,56.853847833233885,2.0,Object_Sea_Pattern_Small,-9.0,-9.0,1.0,1.2911348333582282,,,,,,,,
encoding,attention,10,9522434,9525447,9522873.0,9523007.0,135.0,135.0,1583.3,848.2,1591.0,1269.0,Object_Sea_Pattern_Small,,,53.84021237492561,56.853847833233885,2.0,Object_Sea_Pattern_Small,-9.0,-9.0,1.0,1.2911348333582282,,,,,,,,
encoding,attention,10,9522434,9525447,9523016.0,9523236.0,221.0,221.0,1531.5,826.9000000000001,1591.0,1269.0,Object_Sea_Pattern_Small,,,53.84021237492561,56.853847833233885,2.0,Object_Sea_Pattern_Small,-9.0,-9.0,1.0,1.2911348333582282,,,,,,,,
encoding,attention,10,9522434,9525447,9523430.0,9523597.0,168.0,168.0,1556.9,614.0999999999999,,,none,,,53.84021237492561,56.853847833233885,2.0,Object_Sea_Pattern_Small,-9.0,-9.0,1.0,1.2911348333582282,,,,,,,,
encoding,attention,10,9522434,9525447,9523611.0,9524053.0,443.0,443.0,1572.6,819.3,1591.0,1269.0,Object_Sea_Pattern_Small,,,53.84021237492561,56.853847833233885,2.0,Object_Sea_Pattern_Small,-9.0,-9.0,1.0,1.2911348333582282,,,,,,,,
encoding,attention,10,9522434,9525447,9524076.0,9524273.0,198.0,198.0,1677.8,721.2,1591.0,1269.0,Object_Sea_Pattern_Small,,,53.84021237492561,56.853847833233885,2.0,Object_Sea_Pattern_Small,-9.0,-9.0,1.0,1.2911348333582282,,,,,,,,
encoding,attention,10,9522434,9525447,9524295.0,9524429.0,135.0,135.0,1580.6,866.9000000000001,1591.0,1269.0,Object_Sea_Pattern_Small,,,53.84021237492561,56.853847833233885,2.0,Object_Sea_Pattern_Small,-9.0,-9.0,1.0,1.2911348333582282,,,,,,,,
encoding,fixation,11,9525448,9526951,9525581.0,9525642.0,62.0,62.0,1868.6,1194.8,1920.0,700.0,Animal_Land_Solid_Large,,,56.85397225001361,58.35732304153498,2.0,Animal_Land_Pattern_Large,-1.0,,,,,,,,,,,
encoding,fixation,11,9525448,9526951,9525809.0,9526226.0,418.0,418.0,1915.8,1302.0,1920.0,700.0,Animal_Land_Solid_Large,,,56.85397225001361,58.35732304153498,2.0,Animal_Land_Pattern_Large,-1.0,,,,,,,,,,,
encoding,fixation,11,9525448,9526951,9526235.0,9526452.0,218.0,218.0,1866.0,1307.1,1920.0,700.0,Animal_Land_Solid_Large,,,56.85397225001361,58.35732304153498,2.0,Animal_Land_Pattern_Large,-1.0,,,,,,,,,,,
encoding,fixation,11,9525448,9526951,9526474.0,9526759.0,286.0,286.0,1936.2,1195.5,1920.0,700.0,Animal_Land_Solid_Large,,,56.85397225001361,58.35732304153498,2.0,Animal_Land_Pattern_Large,-1.0,,,,,,,,,,,
encoding,fixation,11,9525448,9526951,9526775.0,9527197.0,423.0,176.0,1874.2,1244.8,1920.0,700.0,Animal_Land_Solid_Large,,,56.85397225001361,58.35732304153498,2.0,Animal_Land_Pattern_Large,-1.0,,,,,,,,,,,
encoding,image,11,9526951,9527960,9527240.0,9527839.0,600.0,600.0,2184.7,920.0999999999999,2249.0,1269.0,Animal_Land_Pattern_Large,,,58.357441999949515,59.36610933323391,2.0,Animal_Land_Pattern_Large,-1.0,,,,,,,,,,,
encoding,image,11,9526951,9527960,9527853.0,9528096.0,244.0,107.0,2213.7,854.9000000000001,2249.0,1269.0,Animal_Land_Pattern_Large,,,58.357441999949515,59.36610933323391,2.0,Animal_Land_Pattern_Large,-1.0,,,,,,,,,,,
encoding,value,11,9527960,9533969,9528106.0,9528253.0,148.0,148.0,2228.2,804.9000000000001,2249.0,1269.0,Animal_Land_Pattern_Large,,,59.366249666549265,65.37544404156506,2.0,Animal_Land_Pattern_Large,-1.0,,,,,,,,,,,
encoding,value,11,9527960,9533969,9528465.0,9528885.0,421.0,421.0,2201.1,909.9000000000001,2249.0,1269.0,Animal_Land_Pattern_Large,,,59.366249666549265,65.37544404156506,2.0,Animal_Land_Pattern_Large,-1.0,,,,,,,,,,,
encoding,value,11,9527960,9533969,9528894.0,9529074.0,181.0,181.0,2244.5,896.9000000000001,2249.0,1269.0,Animal_Land_Pattern_Large,,,59.366249666549265,65.37544404156506,2.0,Animal_Land_Pattern_Large,-1.0,,,,,,,,,,,
encoding,value,11,9527960,9533969,9529302.0,9529443.0,142.0,142.0,2166.6,876.8,2249.0,1269.0,Animal_Land_Pattern_Large,,,59.366249666549265,65.37544404156506,2.0,Animal_Land_Pattern_Large,-1.0,,,,,,,,,,,
encoding,value,11,9527960,9533969,9529452.0,9529693.0,242.0,242.0,2202.1,931.2,2249.0,1269.0,Animal_Land_Pattern_Large,,,59.366249666549265,65.37544404156506,2.0,Animal_Land_Pattern_Large,-1.0,,,,,,,,,,,
encoding,value,11,9527960,9533969,9529888.0,9530007.0,120.0,120.0,1914.0,1080.4,1920.0,1080.0,fixation,,,59.366249666549265,65.37544404156506,2.0,Animal_Land_Pattern_Large,-1.0,,,,,,,,,,,
encoding,value,11,9527960,9533969,9530047.0,9530236.0,190.0,190.0,2207.7,919.2,2249.0,1269.0,Animal_Land_Pattern_Large,,,59.366249666549265,65.37544404156506,2.0,Animal_Land_Pattern_Large,-1.0,,,,,,,,,,,
encoding,value,11,9527960,9533969,9530445.0,9531072.0,628.0,628.0,2188.6,898.9000000000001,2249.0,1269.0,Animal_Land_Pattern_Large,,,59.366249666549265,65.37544404156506,2.0,Animal_Land_Pattern_Large,-1.0,,,,,,,,,,,
encoding,value,11,9527960,9533969,9531081.0,9531332.0,252.0,252.0,2229.0,895.5,2249.0,1269.0,Animal_Land_Pattern_Large,,,59.366249666549265,65.37544404156506,2.0,Animal_Land_Pattern_Large,-1.0,,,,,,,,,,,
encoding,value,11,9527960,9533969,9531341.0,9531756.0,416.0,416.0,2195.0,901.5,2249.0,1269.0,Animal_Land_Pattern_Large,,,59.366249666549265,65.37544404156506,2.0,Animal_Land_Pattern_Large,-1.0,,,,,,,,,,,
encoding,value,11,9527960,9533969,9531970.0,9532588.0,619.0,619.0,2197.2,892.0,2249.0,1269.0,Animal_Land_Pattern_Large,,,59.366249666549265,65.37544404156506,2.0,Animal_Land_Pattern_Large,-1.0,,,,,,,,,,,
encoding,value,11,9527960,9533969,9532601.0,9533172.0,572.0,572.0,2226.2,855.7,2249.0,1269.0,Animal_Land_Pattern_Large,,,59.366249666549265,65.37544404156506,2.0,Animal_Land_Pattern_Large,-1.0,,,,,,,,,,,
encoding,value,11,9527960,9533969,9533182.0,9534043.0,862.0,787.0,2219.5,815.8,2249.0,1269.0,Animal_Land_Pattern_Large,,,59.366249666549265,65.37544404156506,2.0,Animal_Land_Pattern_Large,-1.0,,,,,,,,,,,
encoding,attention,11,9533969,9536984,9534059.0,9534339.0,281.0,281.0,2181.9,881.4000000000001,2249.0,1269.0,Animal_Land_Pattern_Large,,,65.37553883320652,68.38963374996092,2.0,Animal_Land_Pattern_Large,-1.0,-1.0,1.0,1.0194952915189788,,,,,,,,
encoding,attention,11,9533969,9536984,9534580.0,9534630.0,51.0,51.0,2276.6,743.0999999999999,2249.0,1269.0,Animal_Land_Pattern_Large,,,65.37553883320652,68.38963374996092,2.0,Animal_Land_Pattern_Large,-1.0,-1.0,1.0,1.0194952915189788,,,,,,,,
encoding,attention,11,9533969,9536984,9534855.0,9535239.0,385.0,385.0,2282.8,797.7,2249.0,1269.0,Animal_Land_Pattern_Large,,,65.37553883320652,68.38963374996092,2.0,Animal_Land_Pattern_Large,-1.0,-1.0,1.0,1.0194952915189788,,,,,,,,
encoding,attention,11,9533969,9536984,9535269.0,9535520.0,252.0,252.0,2178.0,927.5999999999999,2249.0,1269.0,Animal_Land_Pattern_Large,,,65.37553883320652,68.38963374996092,2.0,Animal_Land_Pattern_Large,-1.0,-1.0,1.0,1.0194952915189788,,,,,,,,
encoding,attention,11,9533969,9536984,9535548.0,9535645.0,98.0,98.0,1915.4,1107.6,1920.0,1080.0,fixation,,,65.37553883320652,68.38963374996092,2.0,Animal_Land_Pattern_Large,-1.0,-1.0,1.0,1.0194952915189788,,,,,,,,
encoding,attention,11,9533969,9536984,9535880.0,9536844.0,965.0,965.0,2188.9,929.4000000000001,2249.0,1269.0,Animal_Land_Pattern_Large,,,65.37553883320652,68.38963374996092,2.0,Animal_Land_Pattern_Large,-1.0,-1.0,1.0,1.0194952915189788,,,,,,,,
encoding,fixation,12,9536984,9538487,9537097.0,9537210.0,114.0,114.0,2192.9,937.2,2249.0,1269.0,Animal_Land_Pattern_Large,,,68.38983783323783,69.89327291655354,2.0,Object_Land_Pattern_Large,8.0,,,,,,,,,,,
encoding,fixation,12,9536984,9538487,9537247.0,9537320.0,74.0,74.0,1881.8,1100.8,1920.0,1080.0,fixation,,,68.38983783323783,69.89327291655354,2.0,Object_Land_Pattern_Large,8.0,,,,,,,,,,,
encoding,fixation,12,9536984,9538487,9537480.0,9537793.0,314.0,314.0,1825.9,1118.0,1591.0,891.0,Object_Land_Pattern_Large,,,68.38983783323783,69.89327291655354,2.0,Object_Land_Pattern_Large,8.0,,,,,,,,,,,
encoding,fixation,12,9536984,9538487,9537813.0,9538116.0,304.0,304.0,1688.5,1159.8,1591.0,891.0,Object_Land_Pattern_Large,,,68.38983783323783,69.89327291655354,2.0,Object_Land_Pattern_Large,8.0,,,,,,,,,,,
encoding,fixation,12,9536984,9538487,9538132.0,9538670.0,539.0,355.0,1594.3,1179.4,1591.0,891.0,Object_Land_Pattern_Large,,,68.38983783323783,69.89327291655354,2.0,Object_Land_Pattern_Large,8.0,,,,,,,,,,,
encoding,image,12,9538487,9539499,9538687.0,9538897.0,211.0,211.0,1602.7,1245.8,1591.0,891.0,Object_Land_Pattern_Large,,,69.8933669582475,70.90520070819184,2.0,Object_Land_Pattern_Large,8.0,,,,,,,,,,,
encoding,image,12,9538487,9539499,9539057.0,9539235.0,179.0,179.0,1627.6,1191.2,1591.0,891.0,Object_Land_Pattern_Large,,,69.8933669582475,70.90520070819184,2.0,Object_Land_Pattern_Large,8.0,,,,,,,,,,,
encoding,image,12,9538487,9539499,9539246.0,9539845.0,600.0,253.0,1599.1,1185.0,1591.0,891.0,Object_Land_Pattern_Large,,,69.8933669582475,70.90520070819184,2.0,Object_Land_Pattern_Large,8.0,,,,,,,,,,,
encoding,value,12,9539499,9545509,9540018.0,9540255.0,238.0,238.0,1604.6,1232.6,1591.0,891.0,Object_Land_Pattern_Large,,,70.9053069165675,76.91457104159053,2.0,Object_Land_Pattern_Large,8.0,,,,,,,,,,,
encoding,value,12,9539499,9545509,9540450.0,9540989.0,540.0,540.0,1586.2,1232.2,1591.0,891.0,Object_Land_Pattern_Large,,,70.9053069165675,76.91457104159053,2.0,Object_Land_Pattern_Large,8.0,,,,,,,,,,,
encoding,value,12,9539499,9545509,9541001.0,9541476.0,476.0,476.0,1595.8,1191.1,1591.0,891.0,Object_Land_Pattern_Large,,,70.9053069165675,76.91457104159053,2.0,Object_Land_Pattern_Large,8.0,,,,,,,,,,,
encoding,value,12,9539499,9545509,9541704.0,9541930.0,227.0,227.0,1591.4,1211.3,1591.0,891.0,Object_Land_Pattern_Large,,,70.9053069165675,76.91457104159053,2.0,Object_Land_Pattern_Large,8.0,,,,,,,,,,,
encoding,value,12,9539499,9545509,9542135.0,9542682.0,548.0,548.0,1599.0,1250.2,1591.0,891.0,Object_Land_Pattern_Large,,,70.9053069165675,76.91457104159053,2.0,Object_Land_Pattern_Large,8.0,,,,,,,,,,,
encoding,value,12,9539499,9545509,9542690.0,9543060.0,371.0,371.0,1643.8,1267.8,1591.0,891.0,Object_Land_Pattern_Large,,,70.9053069165675,76.91457104159053,2.0,Object_Land_Pattern_Large,8.0,,,,,,,,,,,
encoding,value,12,9539499,9545509,9543292.0,9543417.0,126.0,126.0,1582.3,1083.4,1591.0,891.0,Object_Land_Pattern_Large,,,70.9053069165675,76.91457104159053,2.0,Object_Land_Pattern_Large,8.0,,,,,,,,,,,
encoding,value,12,9539499,9545509,9543620.0,9543883.0,264.0,264.0,1588.6,1167.2,1591.0,891.0,Object_Land_Pattern_Large,,,70.9053069165675,76.91457104159053,2.0,Object_Land_Pattern_Large,8.0,,,,,,,,,,,
encoding,value,12,9539499,9545509,9543897.0,9544415.0,519.0,519.0,1601.3,1277.6,1591.0,891.0,Object_Land_Pattern_Large,,,70.9053069165675,76.91457104159053,2.0,Object_Land_Pattern_Large,8.0,,,,,,,,,,,
encoding,value,12,9539499,9545509,9544429.0,9544666.0,238.0,238.0,1607.7,1243.1,1591.0,891.0,Object_Land_Pattern_Large,,,70.9053069165675,76.91457104159053,2.0,Object_Land_Pattern_Large,8.0,,,,,,,,,,,
encoding,value,12,9539499,9545509,9544679.0,9545181.0,503.0,503.0,1586.9,1273.9,1591.0,891.0,Object_Land_Pattern_Large,,,70.9053069165675,76.91457104159053,2.0,Object_Land_Pattern_Large,8.0,,,,,,,,,,,
encoding,value,12,9539499,9545509,9545373.0,9545587.0,215.0,136.0,1612.2,1220.7,1591.0,891.0,Object_Land_Pattern_Large,,,70.9053069165675,76.91457104159053,2.0,Object_Land_Pattern_Large,8.0,,,,,,,,,,,
encoding,attention,12,9545509,9548523,9545603.0,9545769.0,167.0,167.0,1588.6,1224.0,1591.0,891.0,Object_Land_Pattern_Large,,,76.9146725415485,79.92887304164469,2.0,Object_Land_Pattern_Large,8.0,8.0,1.0,1.081590083311312,,,,,,,,
encoding,attention,12,9545509,9548523,9545777.0,9545918.0,142.0,142.0,1632.0,1196.2,1591.0,891.0,Object_Land_Pattern_Large,,,76.9146725415485,79.92887304164469,2.0,Object_Land_Pattern_Large,8.0,8.0,1.0,1.081590083311312,,,,,,,,
encoding,attention,12,9545509,9548523,9545933.0,9546519.0,587.0,587.0,1542.4,1208.3,1591.0,891.0,Object_Land_Pattern_Large,,,76.9146725415485,79.92887304164469,2.0,Object_Land_Pattern_Large,8.0,8.0,1.0,1.081590083311312,,,,,,,,
encoding,attention,12,9545509,9548523,9546534.0,9546797.0,264.0,264.0,1586.7,1277.4,1591.0,891.0,Object_Land_Pattern_Large,,,76.9146725415485,79.92887304164469,2.0,Object_Land_Pattern_Large,8.0,8.0,1.0,1.081590083311312,,,,,,,,
encoding,attention,12,9545509,9548523,9546973.0,9547148.0,176.0,176.0,1895.9,1376.0,1920.0,700.0,Animal_Land_Solid_Large,,,76.9146725415485,79.92887304164469,2.0,Object_Land_Pattern_Large,8.0,8.0,1.0,1.081590083311312,,,,,,,,
encoding,attention,12,9545509,9548523,9547326.0,9547478.0,153.0,153.0,1875.1,1120.3,1920.0,1080.0,fixation,,,76.9146725415485,79.92887304164469,2.0,Object_Land_Pattern_Large,8.0,8.0,1.0,1.081590083311312,,,,,,,,
encoding,attention,12,9545509,9548523,9547495.0,9547610.0,116.0,116.0,1830.1,1127.0,1591.0,891.0,Object_Land_Pattern_Large,,,76.9146725415485,79.92887304164469,2.0,Object_Land_Pattern_Large,8.0,8.0,1.0,1.081590083311312,,,,,,,,
encoding,attention,12,9545509,9548523,9547636.0,9547790.0,155.0,155.0,1588.6,1215.1,1591.0,891.0,Object_Land_Pattern_Large,,,76.9146725415485,79.92887304164469,2.0,Object_Land_Pattern_Large,8.0,8.0,1.0,1.081590083311312,,,,,,,,
encoding,attention,12,9545509,9548523,9547800.0,9548098.0,299.0,299.0,1532.4,1185.7,1591.0,891.0,Object_Land_Pattern_Large,,,76.9146725415485,79.92887304164469,2.0,Object_Land_Pattern_Large,8.0,8.0,1.0,1.081590083311312,,,,,,,,
encoding,attention,12,9545509,9548523,9548290.0,9548436.0,147.0,147.0,1554.8,1128.9,1591.0,891.0,Object_Land_Pattern_Large,,,76.9146725415485,79.92887304164469,2.0,Object_Land_Pattern_Large,8.0,8.0,1.0,1.081590083311312,,,,,,,,
encoding,fixation,13,9921434,9922687,9921740.0,9921817.0,78.0,78.0,1892.9,1171.0,1920.0,700.0,Object_Sea_Pattern_Large,,,4.912211333285086,6.165709208347835,3.0,Object_Land_Solid_Small,1.0,,,,,,,,,,,
encoding,fixation,13,9921434,9922687,9921963.0,9922064.0,102.0,102.0,1901.1,1151.9,1920.0,700.0,Object_Sea_Pattern_Large,,,4.912211333285086,6.165709208347835,3.0,Object_Land_Solid_Small,1.0,,,,,,,,,,,
encoding,fixation,13,9921434,9922687,9922076.0,9922883.0,808.0,611.0,1939.1,1099.3,1920.0,1080.0,fixation,,,4.912211333285086,6.165709208347835,3.0,Object_Land_Solid_Small,1.0,,,,,,,,,,,
encoding,image,13,9922688,9923697,9922923.0,9923079.0,157.0,157.0,1887.8,712.8,1920.0,1460.0,Object_Land_Solid_Small,,,6.165825041709468,7.174834833364002,3.0,Object_Land_Solid_Small,1.0,,,,,,,,,,,
encoding,image,13,9922688,9923697,9923292.0,9923895.0,604.0,405.0,1886.4,725.5999999999999,1920.0,1460.0,Object_Land_Solid_Small,,,6.165825041709468,7.174834833364002,3.0,Object_Land_Solid_Small,1.0,,,,,,,,,,,
encoding,value,13,9923697,9929707,9923912.0,9924140.0,229.0,229.0,1908.2,624.7,1920.0,1460.0,Object_Land_Solid_Small,,,7.174933249945752,13.184517416753806,3.0,Object_Land_Solid_Small,1.0,,,,,,,,,,,
encoding,value,13,9923697,9929707,9924156.0,9925830.0,1675.0,1675.0,1917.3,717.2,1920.0,1460.0,Object_Land_Solid_Small,,,7.174933249945752,13.184517416753806,3.0,Object_Land_Solid_Small,1.0,,,,,,,,,,,
encoding,value,13,9923697,9929707,9926035.0,9927011.0,977.0,977.0,1905.0,728.9000000000001,1920.0,1460.0,Object_Land_Solid_Small,,,7.174933249945752,13.184517416753806,3.0,Object_Land_Solid_Small,1.0,,,,,,,,,,,
encoding,value,13,9923697,9929707,9927029.0,9927221.0,193.0,193.0,1916.3,654.7,1920.0,1460.0,Object_Land_Solid_Small,,,7.174933249945752,13.184517416753806,3.0,Object_Land_Solid_Small,1.0,,,,,,,,,,,
encoding,value,13,9923697,9929707,9927236.0,9927866.0,631.0,631.0,1921.2,725.0,1920.0,1460.0,Object_Land_Solid_Small,,,7.174933249945752,13.184517416753806,3.0,Object_Land_Solid_Small,1.0,,,,,,,,,,,
encoding,value,13,9923697,9929707,9928061.0,9928397.0,337.0,337.0,1910.0,735.4000000000001,1920.0,1460.0,Object_Land_Solid_Small,,,7.174933249945752,13.184517416753806,3.0,Object_Land_Solid_Small,1.0,,,,,,,,,,,
encoding,value,13,9923697,9929707,9928607.0,9928728.0,122.0,122.0,1924.8,720.0999999999999,1920.0,1460.0,Object_Land_Solid_Small,,,7.174933249945752,13.184517416753806,3.0,Object_Land_Solid_Small,1.0,,,,,,,,,,,
encoding,value,13,9923697,9929707,9928747.0,9928918.0,172.0,172.0,1920.8,657.5,1920.0,1460.0,Object_Land_Solid_Small,,,7.174933249945752,13.184517416753806,3.0,Object_Land_Solid_Small,1.0,,,,,,,,,,,
encoding,value,13,9923697,9929707,9928936.0,9929298.0,363.0,363.0,1921.7,712.5,1920.0,1460.0,Object_Land_Solid_Small,,,7.174933249945752,13.184517416753806,3.0,Object_Land_Solid_Small,1.0,,,,,,,,,,,
encoding,value,13,9923697,9929707,9929314.0,9929469.0,156.0,156.0,1940.7,617.0,1920.0,1460.0,Object_Land_Solid_Small,,,7.174933249945752,13.184517416753806,3.0,Object_Land_Solid_Small,1.0,,,,,,,,,,,
encoding,value,13,9923697,9929707,9929488.0,9929610.0,123.0,123.0,1923.4,745.5,1920.0,1460.0,Object_Land_Solid_Small,,,7.174933249945752,13.184517416753806,3.0,Object_Land_Solid_Small,1.0,,,,,,,,,,,
encoding,attention,13,9929707,9932722,9929791.0,9929965.0,175.0,175.0,1909.3,713.0999999999999,1920.0,1460.0,Object_Land_Solid_Small,,,13.184628499904647,16.19995683338493,3.0,Object_Land_Solid_Small,1.0,1.0,1.0,1.1792405417654663,,,,,,,,
encoding,attention,13,9929707,9932722,9929983.0,9930121.0,139.0,139.0,1908.2,657.0,1920.0,1460.0,Object_Land_Solid_Small,,,13.184628499904647,16.19995683338493,3.0,Object_Land_Solid_Small,1.0,1.0,1.0,1.1792405417654663,,,,,,,,
encoding,attention,13,9929707,9932722,9930132.0,9930304.0,173.0,173.0,1978.9,643.5,1920.0,1460.0,Object_Land_Solid_Small,,,13.184628499904647,16.19995683338493,3.0,Object_Land_Solid_Small,1.0,1.0,1.0,1.1792405417654663,,,,,,,,
encoding,attention,13,9929707,9932722,9930318.0,9930584.0,267.0,267.0,1892.0,648.7,1920.0,1460.0,Object_Land_Solid_Small,,,13.184628499904647,16.19995683338493,3.0,Object_Land_Solid_Small,1.0,1.0,1.0,1.1792405417654663,,,,,,,,
encoding,attention,13,9929707,9932722,9930598.0,9931115.0,518.0,518.0,1979.0,635.7,1920.0,1460.0,Object_Land_Solid_Small,,,13.184628499904647,16.19995683338493,3.0,Object_Land_Solid_Small,1.0,1.0,1.0,1.1792405417654663,,,,,,,,
encoding,attention,13,9929707,9932722,9931291.0,9931360.0,70.0,70.0,1919.1,518.3,1920.0,1460.0,Object_Land_Solid_Small,,,13.184628499904647,16.19995683338493,3.0,Object_Land_Solid_Small,1.0,1.0,1.0,1.1792405417654663,,,,,,,,
encoding,attention,13,9929707,9932722,9931548.0,9931573.0,26.0,26.0,1943.6,437.9000000000001,,,none,,,13.184628499904647,16.19995683338493,3.0,Object_Land_Solid_Small,1.0,1.0,1.0,1.1792405417654663,,,,,,,,
encoding,attention,13,9929707,9932722,9931789.0,9931975.0,187.0,187.0,1912.5,765.0,1920.0,1460.0,Object_Land_Solid_Small,,,13.184628499904647,16.19995683338493,3.0,Object_Land_Solid_Small,1.0,1.0,1.0,1.1792405417654663,,,,,,,,
encoding,attention,13,9929707,9932722,9932013.0,9932378.0,366.0,366.0,1907.2,1076.2,1920.0,1080.0,fixation,,,13.184628499904647,16.19995683338493,3.0,Object_Land_Solid_Small,1.0,1.0,1.0,1.1792405417654663,,,,,,,,
encoding,attention,13,9929707,9932722,9932428.0,9932638.0,211.0,211.0,1922.9,712.3,1920.0,1460.0,Object_Land_Solid_Small,,,13.184628499904647,16.19995683338493,3.0,Object_Land_Solid_Small,1.0,1.0,1.0,1.1792405417654663,,,,,,,,
encoding,fixation,14,9932722,9933726,9932942.0,9933116.0,175.0,175.0,1913.1,1135.2,1920.0,1080.0,fixation,,,16.20010562497191,17.203466999926604,3.0,Object_Sea_Solid_Large,-9.0,,,,,,,,,,,
encoding,fixation,14,9932722,9933726,9933127.0,9933742.0,616.0,599.0,1901.2,1083.7,1920.0,1080.0,fixation,,,16.20010562497191,17.203466999926604,3.0,Object_Sea_Solid_Large,-9.0,,,,,,,,,,,
encoding,image,14,9933726,9934735,9933759.0,9933910.0,152.0,152.0,1896.2,995.0999999999999,1920.0,1460.0,Object_Land_Solid_Small,,,17.20356729172636,18.212299249949865,3.0,Object_Sea_Solid_Large,-9.0,,,,,,,,,,,
encoding,image,14,9933726,9934735,9933946.0,9934099.0,154.0,154.0,2232.9,925.0,2249.0,1269.0,Object_Sea_Solid_Large,,,17.20356729172636,18.212299249949865,3.0,Object_Sea_Solid_Large,-9.0,,,,,,,,,,,
encoding,image,14,9933726,9934735,9934277.0,9934616.0,340.0,340.0,2195.3,897.5,2249.0,1269.0,Object_Sea_Solid_Large,,,17.20356729172636,18.212299249949865,3.0,Object_Sea_Solid_Large,-9.0,,,,,,,,,,,
encoding,image,14,9933726,9934735,9934627.0,9934884.0,258.0,108.0,2179.6,870.4000000000001,2249.0,1269.0,Object_Sea_Solid_Large,,,17.20356729172636,18.212299249949865,3.0,Object_Sea_Solid_Large,-9.0,,,,,,,,,,,
encoding,value,14,9934735,9940744,9934893.0,9935063.0,171.0,171.0,2214.2,836.0,2249.0,1269.0,Object_Sea_Solid_Large,,,18.212411999935284,24.221549458336085,3.0,Object_Sea_Solid_Large,-9.0,,,,,,,,,,,
encoding,value,14,9934735,9940744,9935242.0,9935594.0,353.0,353.0,2190.7,884.2,2249.0,1269.0,Object_Sea_Solid_Large,,,18.212411999935284,24.221549458336085,3.0,Object_Sea_Solid_Large,-9.0,,,,,,,,,,,
encoding,value,14,9934735,9940744,9935815.0,9935958.0,144.0,144.0,2180.0,835.5,2249.0,1269.0,Object_Sea_Solid_Large,,,18.212411999935284,24.221549458336085,3.0,Object_Sea_Solid_Large,-9.0,,,,,,,,,,,
encoding,value,14,9934735,9940744,9935971.0,9936224.0,254.0,254.0,2208.1,839.5,2249.0,1269.0,Object_Sea_Solid_Large,,,18.212411999935284,24.221549458336085,3.0,Object_Sea_Solid_Large,-9.0,,,,,,,,,,,
encoding,value,14,9934735,9940744,9936268.0,9936396.0,129.0,129.0,1889.3,1082.6,1920.0,1080.0,fixation,,,18.212411999935284,24.221549458336085,3.0,Object_Sea_Solid_Large,-9.0,,,,,,,,,,,
encoding,value,14,9934735,9940744,9936566.0,9936668.0,103.0,103.0,1947.2,964.7,1920.0,1460.0,Object_Land_Solid_Small,,,18.212411999935284,24.221549458336085,3.0,Object_Sea_Solid_Large,-9.0,,,,,,,,,,,
encoding,value,14,9934735,9940744,9936707.0,9936973.0,267.0,267.0,2217.0,872.7,2249.0,1269.0,Object_Sea_Solid_Large,,,18.212411999935284,24.221549458336085,3.0,Object_Sea_Solid_Large,-9.0,,,,,,,,,,,
encoding,value,14,9934735,9940744,9937175.0,9937403.0,229.0,229.0,2231.9,812.0999999999999,2249.0,1269.0,Object_Sea_Solid_Large,,,18.212411999935284,24.221549458336085,3.0,Object_Sea_Solid_Large,-9.0,,,,,,,,,,,
encoding,value,14,9934735,9940744,9937415.0,9937551.0,137.0,137.0,2194.2,900.5999999999999,2249.0,1269.0,Object_Sea_Solid_Large,,,18.212411999935284,24.221549458336085,3.0,Object_Sea_Solid_Large,-9.0,,,,,,,,,,,
encoding,value,14,9934735,9940744,9937765.0,9938226.0,462.0,462.0,2224.1,861.5,2249.0,1269.0,Object_Sea_Solid_Large,,,18.212411999935284,24.221549458336085,3.0,Object_Sea_Solid_Large,-9.0,,,,,,,,,,,
encoding,value,14,9934735,9940744,9938238.0,9938544.0,307.0,307.0,2237.0,836.5999999999999,2249.0,1269.0,Object_Sea_Solid_Large,,,18.212411999935284,24.221549458336085,3.0,Object_Sea_Solid_Large,-9.0,,,,,,,,,,,
encoding,value,14,9934735,9940744,9938561.0,9938967.0,407.0,407.0,2214.8,918.5999999999999,2249.0,1269.0,Object_Sea_Solid_Large,,,18.212411999935284,24.221549458336085,3.0,Object_Sea_Solid_Large,-9.0,,,,,,,,,,,
encoding,value,14,9934735,9940744,9939188.0,9939326.0,139.0,139.0,2218.9,755.9000000000001,2249.0,1269.0,Object_Sea_Solid_Large,,,18.212411999935284,24.221549458336085,3.0,Object_Sea_Solid_Large,-9.0,,,,,,,,,,,
encoding,value,14,9934735,9940744,9939336.0,9939747.0,412.0,412.0,2190.0,893.8,2249.0,1269.0,Object_Sea_Solid_Large,,,18.212411999935284,24.221549458336085,3.0,Object_Sea_Solid_Large,-9.0,,,,,,,,,,,
encoding,value,14,9934735,9940744,9939954.0,9940089.0,136.0,136.0,2228.0,704.2,2249.0,1269.0,Object_Sea_Solid_Large,,,18.212411999935284,24.221549458336085,3.0,Object_Sea_Solid_Large,-9.0,,,,,,,,,,,
encoding,value,14,9934735,9940744,9940104.0,9940123.0,20.0,20.0,2240.7,713.8,2249.0,1269.0,Object_Sea_Solid_Large,,,18.212411999935284,24.221549458336085,3.0,Object_Sea_Solid_Large,-9.0,,,,,,,,,,,
encoding,value,14,9934735,9940744,9940369.0,9940616.0,248.0,248.0,2221.4,745.5999999999999,2249.0,1269.0,Object_Sea_Solid_Large,,,18.212411999935284,24.221549458336085,3.0,Object_Sea_Solid_Large,-9.0,,,,,,,,,,,
encoding,attention,14,9940744,9943758,9940847.0,9941026.0,180.0,180.0,2206.2,823.0999999999999,2249.0,1269.0,Object_Sea_Solid_Large,,,24.22163754166104,27.235503583331592,3.0,Object_Sea_Solid_Large,-9.0,-9.0,1.0,0.8982118749991059,,,,,,,,
encoding,attention,14,9940744,9943758,9941038.0,9941184.0,147.0,147.0,2272.1,831.8,2249.0,1269.0,Object_Sea_Solid_Large,,,24.22163754166104,27.235503583331592,3.0,Object_Sea_Solid_Large,-9.0,-9.0,1.0,0.8982118749991059,,,,,,,,
encoding,attention,14,9940744,9943758,9941195.0,9941429.0,235.0,235.0,2196.1,823.9000000000001,2249.0,1269.0,Object_Sea_Solid_Large,,,24.22163754166104,27.235503583331592,3.0,Object_Sea_Solid_Large,-9.0,-9.0,1.0,0.8982118749991059,,,,,,,,
encoding,attention,14,9940744,9943758,9941442.0,9941888.0,447.0,447.0,2272.6,817.8,2249.0,1269.0,Object_Sea_Solid_Large,,,24.22163754166104,27.235503583331592,3.0,Object_Sea_Solid_Large,-9.0,-9.0,1.0,0.8982118749991059,,,,,,,,
encoding,attention,14,9940744,9943758,9942155.0,9942308.0,154.0,154.0,2176.5,681.8,2249.0,1269.0,Object_Sea_Solid_Large,,,24.22163754166104,27.235503583331592,3.0,Object_Sea_Solid_Large,-9.0,-9.0,1.0,0.8982118749991059,,,,,,,,
encoding,attention,14,9940744,9943758,9942319.0,9942625.0,307.0,307.0,2217.1,891.5999999999999,2249.0,1269.0,Object_Sea_Solid_Large,,,24.22163754166104,27.235503583331592,3.0,Object_Sea_Solid_Large,-9.0,-9.0,1.0,0.8982118749991059,,,,,,,,
encoding,attention,14,9940744,9943758,9942641.0,9942861.0,221.0,221.0,2254.3,850.0999999999999,2249.0,1269.0,Object_Sea_Solid_Large,,,24.22163754166104,27.235503583331592,3.0,Object_Sea_Solid_Large,-9.0,-9.0,1.0,0.8982118749991059,,,,,,,,
encoding,attention,14,9940744,9943758,9943064.0,9943131.0,68.0,68.0,2166.5,508.4000000000001,,,none,,,24.22163754166104,27.235503583331592,3.0,Object_Sea_Solid_Large,-9.0,-9.0,1.0,0.8982118749991059,,,,,,,,
encoding,attention,14,9940744,9943758,9943576.0,9943754.0,179.0,179.0,2174.3,692.4000000000001,2249.0,1269.0,Object_Sea_Solid_Large,,,24.22163754166104,27.235503583331592,3.0,Object_Sea_Solid_Large,-9.0,-9.0,1.0,0.8982118749991059,,,,,,,,
encoding,fixation,15,9943758,9944512,9943774.0,9943965.0,192.0,192.0,2206.9,889.9000000000001,2249.0,1269.0,Object_Sea_Solid_Large,,,27.235633249976672,27.988942249910902,3.0,Animal_Sea_Pattern_Large,9.0,,,,,,,,,,,
encoding,fixation,15,9943758,9944512,9944000.0,9944238.0,239.0,239.0,1893.8,1105.1,1920.0,1080.0,fixation,,,27.235633249976672,27.988942249910902,3.0,Animal_Sea_Pattern_Large,9.0,,,,,,,,,,,
encoding,fixation,15,9943758,9944512,9944258.0,9944600.0,343.0,254.0,2050.5,1051.3,2249.0,1269.0,Object_Sea_Solid_Large,,,27.235633249976672,27.988942249910902,3.0,Animal_Sea_Pattern_Large,9.0,,,,,,,,,,,
encoding,image,15,9944512,9945520,9944615.0,9944700.0,86.0,86.0,2141.4,1069.4,2249.0,1269.0,Object_Sea_Solid_Large,,,27.989053916651756,28.997261583339423,3.0,Animal_Sea_Pattern_Large,9.0,,,,,,,,,,,
encoding,image,15,9944512,9945520,9944725.0,9945072.0,348.0,348.0,2182.6,1272.0,2249.0,891.0,Animal_Sea_Pattern_Large,,,27.989053916651756,28.997261583339423,3.0,Animal_Sea_Pattern_Large,9.0,,,,,,,,,,,
encoding,image,15,9944512,9945520,9945089.0,9945826.0,738.0,431.0,2185.7,1192.0,2249.0,891.0,Animal_Sea_Pattern_Large,,,27.989053916651756,28.997261583339423,3.0,Animal_Sea_Pattern_Large,9.0,,,,,,,,,,,
encoding,value,15,9945520,9951529,9945983.0,9946115.0,133.0,133.0,2190.3,1209.3,2249.0,891.0,Animal_Sea_Pattern_Large,,,28.997367666685022,35.00565829174593,3.0,Animal_Sea_Pattern_Large,9.0,,,,,,,,,,,
encoding,value,15,9945520,9951529,9946124.0,9946323.0,200.0,200.0,2155.8,1266.8,2249.0,891.0,Animal_Sea_Pattern_Large,,,28.997367666685022,35.00565829174593,3.0,Animal_Sea_Pattern_Large,9.0,,,,,,,,,,,
encoding,value,15,9945520,9951529,9946515.0,9946648.0,134.0,134.0,2180.2,1240.5,2249.0,891.0,Animal_Sea_Pattern_Large,,,28.997367666685022,35.00565829174593,3.0,Animal_Sea_Pattern_Large,9.0,,,,,,,,,,,
encoding,value,15,9945520,9951529,9946667.0,9946868.0,202.0,202.0,2206.1,1177.5,2249.0,891.0,Animal_Sea_Pattern_Large,,,28.997367666685022,35.00565829174593,3.0,Animal_Sea_Pattern_Large,9.0,,,,,,,,,,,
encoding,value,15,9945520,9951529,9947062.0,9947409.0,348.0,348.0,2198.3,1166.1,2249.0,891.0,Animal_Sea_Pattern_Large,,,28.997367666685022,35.00565829174593,3.0,Animal_Sea_Pattern_Large,9.0,,,,,,,,,,,
encoding,value,15,9945520,9951529,9947573.0,9947937.0,365.0,365.0,2191.1,1202.3,2249.0,891.0,Animal_Sea_Pattern_Large,,,28.997367666685022,35.00565829174593,3.0,Animal_Sea_Pattern_Large,9.0,,,,,,,,,,,
encoding,value,15,9945520,9951529,9948131.0,9948208.0,78.0,78.0,2209.3,1052.0,2249.0,1269.0,Object_Sea_Solid_Large,,,28.997367666685022,35.00565829174593,3.0,Animal_Sea_Pattern_Large,9.0,,,,,,,,,,,
encoding,value,15,9945520,9951529,9948418.0,9948601.0,184.0,184.0,2173.2,1147.2,2249.0,891.0,Animal_Sea_Pattern_Large,,,28.997367666685022,35.00565829174593,3.0,Animal_Sea_Pattern_Large,9.0,,,,,,,,,,,
encoding,value,15,9945520,9951529,9948617.0,9948854.0,238.0,238.0,2153.2,1258.4,2249.0,891.0,Animal_Sea_Pattern_Large,,,28.997367666685022,35.00565829174593,3.0,Animal_Sea_Pattern_Large,9.0,,,,,,,,,,,
encoding,value,15,9945520,9951529,9948867.0,9948902.0,36.0,36.0,2216.7,1221.8,2249.0,891.0,Animal_Sea_Pattern_Large,,,28.997367666685022,35.00565829174593,3.0,Animal_Sea_Pattern_Large,9.0,,,,,,,,,,,
encoding,value,15,9945520,9951529,9949099.0,9949215.0,117.0,117.0,2189.5,1095.7,2249.0,891.0,Animal_Sea_Pattern_Large,,,28.997367666685022,35.00565829174593,3.0,Animal_Sea_Pattern_Large,9.0,,,,,,,,,,,
encoding,value,15,9945520,9951529,9949414.0,9950311.0,898.0,898.0,2175.1,1183.4,2249.0,891.0,Animal_Sea_Pattern_Large,,,28.997367666685022,35.00565829174593,3.0,Animal_Sea_Pattern_Large,9.0,,,,,,,,,,,
encoding,value,15,9945520,9951529,9950530.0,9950714.0,185.0,185.0,2193.7,1116.1,2249.0,891.0,Animal_Sea_Pattern_Large,,,28.997367666685022,35.00565829174593,3.0,Animal_Sea_Pattern_Large,9.0,,,,,,,,,,,
encoding,value,15,9945520,9951529,9950732.0,9950943.0,212.0,212.0,2155.0,1269.0,2249.0,891.0,Animal_Sea_Pattern_Large,,,28.997367666685022,35.00565829174593,3.0,Animal_Sea_Pattern_Large,9.0,,,,,,,,,,,
encoding,value,15,9945520,9951529,9950957.0,9951559.0,603.0,572.0,2187.5,1188.3,2249.0,891.0,Animal_Sea_Pattern_Large,,,28.997367666685022,35.00565829174593,3.0,Animal_Sea_Pattern_Large,9.0,,,,,,,,,,,
encoding,attention,15,9951529,9954538,9951756.0,9951984.0,229.0,229.0,2221.2,1128.3,2249.0,891.0,Animal_Sea_Pattern_Large,,,35.0057543333387,38.01498574996367,3.0,Animal_Sea_Pattern_Large,9.0,,,,,,,,,,,
encoding,attention,15,9951529,9954538,9951997.0,9952631.0,635.0,635.0,2145.6,1186.8,2249.0,891.0,Animal_Sea_Pattern_Large,,,35.0057543333387,38.01498574996367,3.0,Animal_Sea_Pattern_Large,9.0,,,,,,,,,,,
encoding,attention,15,9951529,9954538,9952654.0,9952825.0,172.0,172.0,1948.9,1141.6,1920.0,1080.0,fixation,,,35.0057543333387,38.01498574996367,3.0,Animal_Sea_Pattern_Large,9.0,,,,,,,,,,,
encoding,attention,15,9951529,9954538,9952847.0,9952996.0,150.0,150.0,2115.3,1201.5,2249.0,891.0,Animal_Sea_Pattern_Large,,,35.0057543333387,38.01498574996367,3.0,Animal_Sea_Pattern_Large,9.0,,,,,,,,,,,
encoding,attention,15,9951529,9954538,9953169.0,9953275.0,107.0,107.0,2142.9,996.4000000000001,2249.0,1269.0,Object_Sea_Solid_Large,,,35.0057543333387,38.01498574996367,3.0,Animal_Sea_Pattern_Large,9.0,,,,,,,,,,,
encoding,fixation,16,9954538,9955042,9954800.0,9955490.0,691.0,242.0,2131.2,1203.8,2249.0,891.0,Animal_Sea_Pattern_Large,,,38.01510612491984,38.51847529166844,3.0,Object_Sea_Pattern_Large,-1.0,,,,,,,,,,,
encoding,image,16,9955042,9956050,9955527.0,9955642.0,116.0,116.0,1901.5,1446.1,1920.0,700.0,Object_Sea_Pattern_Large,,,38.51857141673099,39.52682679169811,3.0,Object_Sea_Pattern_Large,-1.0,,,,,,,,,,,
encoding,image,16,9955042,9956050,9955820.0,9956796.0,977.0,230.0,1877.5,1403.7,1920.0,700.0,Object_Sea_Pattern_Large,,,38.51857141673099,39.52682679169811,3.0,Object_Sea_Pattern_Large,-1.0,,,,,,,,,,,
encoding,value,16,9956050,9962059,9956978.0,9957093.0,116.0,116.0,1876.6,1282.8,1920.0,700.0,Object_Sea_Pattern_Large,,,39.52692341664806,45.53560908336658,3.0,Object_Sea_Pattern_Large,-1.0,,,,,,,,,,,
encoding,value,16,9956050,9962059,9957267.0,9957494.0,228.0,228.0,1869.5,1393.8,1920.0,700.0,Object_Sea_Pattern_Large,,,39.52692341664806,45.53560908336658,3.0,Object_Sea_Pattern_Large,-1.0,,,,,,,,,,,
encoding,value,16,9956050,9962059,9957503.0,9957578.0,76.0,76.0,1874.5,1403.0,1920.0,700.0,Object_Sea_Pattern_Large,,,39.52692341664806,45.53560908336658,3.0,Object_Sea_Pattern_Large,-1.0,,,,,,,,,,,
encoding,value,16,9956050,9962059,9957771.0,9957866.0,96.0,96.0,1881.1,1219.2,1920.0,700.0,Object_Sea_Pattern_Large,,,39.52692341664806,45.53560908336658,3.0,Object_Sea_Pattern_Large,-1.0,,,,,,,,,,,
encoding,value,16,9956050,9962059,9958054.0,9958271.0,218.0,218.0,1865.9,1297.2,1920.0,700.0,Object_Sea_Pattern_Large,,,39.52692341664806,45.53560908336658,3.0,Object_Sea_Pattern_Large,-1.0,,,,,,,,,,,
encoding,value,16,9956050,9962059,9958290.0,9958419.0,130.0,130.0,1976.7,1396.4,1920.0,700.0,Object_Sea_Pattern_Large,,,39.52692341664806,45.53560908336658,3.0,Object_Sea_Pattern_Large,-1.0,,,,,,,,,,,
encoding,value,16,9956050,9962059,9958436.0,9958571.0,136.0,136.0,1858.2,1383.5,1920.0,700.0,Object_Sea_Pattern_Large,,,39.52692341664806,45.53560908336658,3.0,Object_Sea_Pattern_Large,-1.0,,,,,,,,,,,
encoding,value,16,9956050,9962059,9958752.0,9959440.0,689.0,689.0,1868.9,1376.4,1920.0,700.0,Object_Sea_Pattern_Large,,,39.52692341664806,45.53560908336658,3.0,Object_Sea_Pattern_Large,-1.0,,,,,,,,,,,
encoding,value,16,9956050,9962059,9959621.0,9959660.0,40.0,40.0,1885.2,1048.9,1920.0,1080.0,fixation,,,39.52692341664806,45.53560908336658,3.0,Object_Sea_Pattern_Large,-1.0,,,,,,,,,,,
encoding,value,16,9956050,9962059,9959840.0,9961997.0,2158.0,2158.0,1864.8,1350.4,1920.0,700.0,Object_Sea_Pattern_Large,,,39.52692341664806,45.53560908336658,3.0,Object_Sea_Pattern_Large,-1.0,,,,,,,,,,,
encoding,attention,16,9962059,9965074,9962185.0,9962391.0,207.0,207.0,1859.1,1319.2,1920.0,700.0,Object_Sea_Pattern_Large,,,45.53571299999021,48.55026199994609,3.0,Object_Sea_Pattern_Large,-1.0,-1.0,1.0,0.6216942500323057,,,,,,,,
encoding,attention,16,9962059,9965074,9962401.0,9962901.0,501.0,501.0,1909.4,1353.1,1920.0,700.0,Object_Sea_Pattern_Large,,,45.53571299999021,48.55026199994609,3.0,Object_Sea_Pattern_Large,-1.0,-1.0,1.0,0.6216942500323057,,,,,,,,
encoding,attention,16,9962059,9965074,9963165.0,9963265.0,101.0,101.0,1851.0,730.3,1920.0,1460.0,Object_Land_Solid_Small,,,45.53571299999021,48.55026199994609,3.0,Object_Sea_Pattern_Large,-1.0,-1.0,1.0,0.6216942500323057,,,,,,,,
encoding,attention,16,9962059,9965074,9963451.0,9963593.0,143.0,143.0,1864.4,1123.3,1591.0,891.0,Animal_Land_Pattern_Small,,,45.53571299999021,48.55026199994609,3.0,Object_Sea_Pattern_Large,-1.0,-1.0,1.0,0.6216942500323057,,,,,,,,
encoding,attention,16,9962059,9965074,9963613.0,9963909.0,297.0,297.0,1873.9,1330.8,1920.0,700.0,Object_Sea_Pattern_Large,,,45.53571299999021,48.55026199994609,3.0,Object_Sea_Pattern_Large,-1.0,-1.0,1.0,0.6216942500323057,,,,,,,,
encoding,attention,16,9962059,9965074,9963927.0,9964087.0,161.0,161.0,1933.7,1280.3,1920.0,700.0,Object_Sea_Pattern_Large,,,45.53571299999021,48.55026199994609,3.0,Object_Sea_Pattern_Large,-1.0,-1.0,1.0,0.6216942500323057,,,,,,,,
encoding,attention,16,9962059,9965074,9964114.0,9964445.0,332.0,332.0,1851.4,1056.5,1591.0,1269.0,Animal_Land_Solid_Small,,,45.53571299999021,48.55026199994609,3.0,Object_Sea_Pattern_Large,-1.0,-1.0,1.0,0.6216942500323057,,,,,,,,
encoding,attention,16,9962059,9965074,9964485.0,9964860.0,376.0,376.0,1883.4,1335.9,1920.0,700.0,Object_Sea_Pattern_Large,,,45.53571299999021,48.55026199994609,3.0,Object_Sea_Pattern_Large,-1.0,-1.0,1.0,0.6216942500323057,,,,,,,,
encoding,fixation,17,9965074,9965577,9965335.0,9965397.0,63.0,63.0,1869.2,1129.0,1591.0,891.0,Animal_Land_Pattern_Small,,,48.55038858333137,49.05376833328046,3.0,Animal_Land_Solid_Small,4.0,,,,,,,,,,,
encoding,fixation,17,9965074,9965577,9965577.0,9965741.0,165.0,0.0,1870.2,969.9000000000001,1920.0,1460.0,Object_Land_Solid_Small,,,48.55038858333137,49.05376833328046,3.0,Animal_Land_Solid_Small,4.0,,,,,,,,,,,
encoding,image,17,9965578,9966586,9965775.0,9966004.0,230.0,230.0,1555.6,955.0,1591.0,1269.0,Animal_Land_Solid_Small,,,49.05386899993755,50.062089666724205,3.0,Animal_Land_Solid_Small,4.0,,,,,,,,,,,
encoding,image,17,9965578,9966586,9966017.0,9967189.0,1173.0,569.0,1568.0,909.0,1591.0,1269.0,Animal_Land_Solid_Small,,,49.05386899993755,50.062089666724205,3.0,Animal_Land_Solid_Small,4.0,,,,,,,,,,,
encoding,value,17,9966586,9972595,9967377.0,9967619.0,243.0,243.0,1575.5,901.2,1591.0,1269.0,Animal_Land_Solid_Small,,,50.06225133338012,56.071019958355464,3.0,Animal_Land_Solid_Small,4.0,,,,,,,,,,,
encoding,value,17,9966586,9972595,9967818.0,9967964.0,147.0,147.0,1687.1,915.9000000000001,1591.0,1269.0,Animal_Land_Solid_Small,,,50.06225133338012,56.071019958355464,3.0,Animal_Land_Solid_Small,4.0,,,,,,,,,,,
encoding,value,17,9966586,9972595,9967987.0,9968039.0,53.0,53.0,1519.2,863.4000000000001,1591.0,1269.0,Animal_Land_Solid_Small,,,50.06225133338012,56.071019958355464,3.0,Animal_Land_Solid_Small,4.0,,,,,,,,,,,
encoding,value,17,9966586,9972595,9968276.0,9968613.0,338.0,338.0,1575.5,900.3,1591.0,1269.0,Animal_Land_Solid_Small,,,50.06225133338012,56.071019958355464,3.0,Animal_Land_Solid_Small,4.0,,,,,,,,,,,
encoding,value,17,9966586,9972595,9968765.0,9969085.0,321.0,321.0,1895.0,1095.9,1920.0,1080.0,fixation,,,50.06225133338012,56.071019958355464,3.0,Animal_Land_Solid_Small,4.0,,,,,,,,,,,
encoding,value,17,9966586,9972595,9969304.0,9969887.0,584.0,584.0,1930.7,1411.5,1920.0,700.0,Object_Sea_Pattern_Large,,,50.06225133338012,56.071019958355464,3.0,Animal_Land_Solid_Small,4.0,,,,,,,,,,,
encoding,value,17,9966586,9972595,9970083.0,9970140.0,58.0,58.0,1625.2,590.0999999999999,1591.0,1269.0,Animal_Land_Solid_Small,,,50.06225133338012,56.071019958355464,3.0,Animal_Land_Solid_Small,4.0,,,,,,,,,,,
encoding,value,17,9966586,9972595,9970403.0,9970632.0,230.0,230.0,1566.9,676.5,1591.0,1269.0,Animal_Land_Solid_Small,,,50.06225133338012,56.071019958355464,3.0,Animal_Land_Solid_Small,4.0,,,,,,,,,,,
encoding,value,17,9966586,9972595,9970924.0,9972569.0,1646.0,1646.0,1555.3,743.7,1591.0,1269.0,Animal_Land_Solid_Small,,,50.06225133338012,56.071019958355464,3.0,Animal_Land_Solid_Small,4.0,,,,,,,,,,,
encoding,attention,17,9972595,9975609,9972798.0,9973040.0,243.0,243.0,1585.5,673.8,1591.0,1269.0,Animal_Land_Solid_Small,,,56.071123958332464,59.085242999950424,3.0,Animal_Land_Solid_Small,4.0,4.0,1.0,1.6627541249617934,,,,,,,,
encoding,attention,17,9972595,9975609,9973048.0,9974528.0,1481.0,1481.0,1502.9,732.5999999999999,1591.0,1269.0,Animal_Land_Solid_Small,,,56.071123958332464,59.085242999950424,3.0,Animal_Land_Solid_Small,4.0,4.0,1.0,1.6627541249617934,,,,,,,,
encoding,attention,17,9972595,9975609,9974726.0,9974800.0,75.0,75.0,1579.3,755.2,1591.0,1269.0,Animal_Land_Solid_Small,,,56.071123958332464,59.085242999950424,3.0,Animal_Land_Solid_Small,4.0,4.0,1.0,1.6627541249617934,,,,,,,,
encoding,attention,17,9972595,9975609,9974976.0,9975150.0,175.0,175.0,1606.4,1143.0,1591.0,891.0,Animal_Land_Pattern_Small,,,56.071123958332464,59.085242999950424,3.0,Animal_Land_Solid_Small,4.0,4.0,1.0,1.6627541249617934,,,,,,,,
encoding,fixation,18,9975609,9976364,9975643.0,9975746.0,104.0,104.0,1616.9,838.9000000000001,1591.0,1269.0,Animal_Land_Solid_Small,,,59.085410958272405,59.83992679172661,3.0,Animal_Land_Pattern_Small,-7.0,,,,,,,,,,,
encoding,fixation,18,9975609,9976364,9976086.0,9976275.0,190.0,190.0,1832.7,1177.8,1591.0,891.0,Animal_Land_Pattern_Small,,,59.085410958272405,59.83992679172661,3.0,Animal_Land_Pattern_Small,-7.0,,,,,,,,,,,
encoding,fixation,18,9975609,9976364,9976298.0,9976544.0,247.0,66.0,1624.0,1208.8,1591.0,891.0,Animal_Land_Pattern_Small,,,59.085410958272405,59.83992679172661,3.0,Animal_Land_Pattern_Small,-7.0,,,,,,,,,,,
encoding,image,18,9976364,9977372,9976557.0,9976905.0,349.0,349.0,1582.3,1246.9,1591.0,891.0,Animal_Land_Pattern_Small,,,59.84001691674348,60.847974833333865,3.0,Animal_Land_Pattern_Small,-7.0,,,,,,,,,,,
encoding,image,18,9976364,9977372,9977075.0,9977231.0,157.0,157.0,1610.1,1199.9,1591.0,891.0,Animal_Land_Pattern_Small,,,59.84001691674348,60.847974833333865,3.0,Animal_Land_Pattern_Small,-7.0,,,,,,,,,,,
encoding,image,18,9976364,9977372,9977246.0,9977391.0,146.0,126.0,1713.8,1266.4,1591.0,891.0,Animal_Land_Pattern_Small,,,59.84001691674348,60.847974833333865,3.0,Animal_Land_Pattern_Small,-7.0,,,,,,,,,,,
encoding,value,18,9977372,9983382,9977407.0,9977625.0,219.0,219.0,1612.9,1258.5,1591.0,891.0,Animal_Land_Pattern_Small,,,60.8480743332766,66.85715974995401,3.0,Animal_Land_Pattern_Small,-7.0,,,,,,,,,,,
encoding,value,18,9977372,9983382,9977640.0,9977801.0,162.0,162.0,1583.3,1200.7,1591.0,891.0,Animal_Land_Pattern_Small,,,60.8480743332766,66.85715974995401,3.0,Animal_Land_Pattern_Small,-7.0,,,,,,,,,,,
encoding,value,18,9977372,9983382,9977976.0,9978126.0,151.0,151.0,1583.7,1151.1,1591.0,891.0,Animal_Land_Pattern_Small,,,60.8480743332766,66.85715974995401,3.0,Animal_Land_Pattern_Small,-7.0,,,,,,,,,,,
encoding,value,18,9977372,9983382,9978135.0,9978674.0,540.0,540.0,1580.6,1278.4,1591.0,891.0,Animal_Land_Pattern_Small,,,60.8480743332766,66.85715974995401,3.0,Animal_Land_Pattern_Small,-7.0,,,,,,,,,,,
encoding,value,18,9977372,9983382,9978864.0,9979031.0,168.0,168.0,1591.4,1184.8,1591.0,891.0,Animal_Land_Pattern_Small,,,60.8480743332766,66.85715974995401,3.0,Animal_Land_Pattern_Small,-7.0,,,,,,,,,,,
encoding,value,18,9977372,9983382,9979044.0,9979212.0,169.0,169.0,1587.6,1222.3,1591.0,891.0,Animal_Land_Pattern_Small,,,60.8480743332766,66.85715974995401,3.0,Animal_Land_Pattern_Small,-7.0,,,,,,,,,,,
encoding,value,18,9977372,9983382,9979410.0,9979673.0,264.0,264.0,1591.9,1199.9,1591.0,891.0,Animal_Land_Pattern_Small,,,60.8480743332766,66.85715974995401,3.0,Animal_Land_Pattern_Small,-7.0,,,,,,,,,,,
encoding,value,18,9977372,9983382,9979680.0,9980004.0,325.0,325.0,1594.6,1272.0,1591.0,891.0,Animal_Land_Pattern_Small,,,60.8480743332766,66.85715974995401,3.0,Animal_Land_Pattern_Small,-7.0,,,,,,,,,,,
encoding,value,18,9977372,9983382,9980018.0,9980644.0,627.0,627.0,1581.3,1210.2,1591.0,891.0,Animal_Land_Pattern_Small,,,60.8480743332766,66.85715974995401,3.0,Animal_Land_Pattern_Small,-7.0,,,,,,,,,,,
encoding,value,18,9977372,9983382,9980658.0,9981319.0,662.0,662.0,1576.7,1264.0,1591.0,891.0,Animal_Land_Pattern_Small,,,60.8480743332766,66.85715974995401,3.0,Animal_Land_Pattern_Small,-7.0,,,,,,,,,,,
encoding,value,18,9977372,9983382,9981335.0,9981432.0,98.0,98.0,1590.5,1186.5,1591.0,891.0,Animal_Land_Pattern_Small,,,60.8480743332766,66.85715974995401,3.0,Animal_Land_Pattern_Small,-7.0,,,,,,,,,,,
encoding,value,18,9977372,9983382,9981638.0,9982212.0,575.0,575.0,1576.1,1181.7,1591.0,891.0,Animal_Land_Pattern_Small,,,60.8480743332766,66.85715974995401,3.0,Animal_Land_Pattern_Small,-7.0,,,,,,,,,,,
encoding,value,18,9977372,9983382,9982438.0,9982659.0,222.0,222.0,1557.5,1102.5,1591.0,891.0,Animal_Land_Pattern_Small,,,60.8480743332766,66.85715974995401,3.0,Animal_Land_Pattern_Small,-7.0,,,,,,,,,,,
encoding,value,18,9977372,9983382,9982852.0,9983576.0,725.0,530.0,1610.6,1249.7,1591.0,891.0,Animal_Land_Pattern_Small,,,60.8480743332766,66.85715974995401,3.0,Animal_Land_Pattern_Small,-7.0,,,,,,,,,,,
encoding,attention,18,9983382,9986399,9983595.0,9983804.0,210.0,210.0,1563.6,1187.9,1591.0,891.0,Animal_Land_Pattern_Small,,,66.8573090833379,69.87436141667422,3.0,Animal_Land_Pattern_Small,-7.0,-7.0,1.0,0.6793082499643788,,,,,,,,
encoding,attention,18,9983382,9986399,9983817.0,9984000.0,184.0,184.0,1629.5,1193.1,1591.0,891.0,Animal_Land_Pattern_Small,,,66.8573090833379,69.87436141667422,3.0,Animal_Land_Pattern_Small,-7.0,-7.0,1.0,0.6793082499643788,,,,,,,,
encoding,attention,18,9983382,9986399,9984020.0,9984365.0,346.0,346.0,1608.4,1283.8,1591.0,891.0,Animal_Land_Pattern_Small,,,66.8573090833379,69.87436141667422,3.0,Animal_Land_Pattern_Small,-7.0,-7.0,1.0,0.6793082499643788,,,,,,,,
encoding,attention,18,9983382,9986399,9984544.0,9985337.0,794.0,794.0,1602.1,1264.7,1591.0,891.0,Animal_Land_Pattern_Small,,,66.8573090833379,69.87436141667422,3.0,Animal_Land_Pattern_Small,-7.0,-7.0,1.0,0.6793082499643788,,,,,,,,
encoding,attention,18,9983382,9986399,9985551.0,9985845.0,295.0,295.0,1614.3,1254.3,1591.0,891.0,Animal_Land_Pattern_Small,,,66.8573090833379,69.87436141667422,3.0,Animal_Land_Pattern_Small,-7.0,-7.0,1.0,0.6793082499643788,,,,,,,,
encoding,attention,18,9983382,9986399,9985855.0,9986207.0,353.0,353.0,1572.3,1267.8,1591.0,891.0,Animal_Land_Pattern_Small,,,66.8573090833379,69.87436141667422,3.0,Animal_Land_Pattern_Small,-7.0,-7.0,1.0,0.6793082499643788,,,,,,,,
encoding,attention,18,9983382,9986399,9986226.0,9986390.0,165.0,165.0,1559.2,1186.0,1591.0,891.0,Animal_Land_Pattern_Small,,,66.8573090833379,69.87436141667422,3.0,Animal_Land_Pattern_Small,-7.0,-7.0,1.0,0.6793082499643788,,,,,,,,
encoding,fixation,19,10305018,10305523,10305095.0,10305251.0,157.0,157.0,1758.1,1149.1,1591.0,891.0,Animal_Land_Pattern_Small,,,12.7556259999983,13.260524999932386,4.0,Object_Sea_Solid_Large,-4.0,,,,,,,,,,,
encoding,fixation,19,10305018,10305523,10305269.0,10305421.0,153.0,153.0,1885.0,1120.9,1920.0,1080.0,fixation,,,12.7556259999983,13.260524999932386,4.0,Object_Sea_Solid_Large,-4.0,,,,,,,,,,,
encoding,image,19,10305523,10306534,10305618.0,10305807.0,190.0,190.0,1623.6,1123.6,1591.0,891.0,Animal_Land_Pattern_Small,,,13.260684583336117,14.27117491653189,4.0,Object_Sea_Solid_Large,-4.0,,,,,,,,,,,
encoding,image,19,10305523,10306534,10305853.0,10306028.0,176.0,176.0,2221.0,861.3,2249.0,1269.0,Object_Sea_Solid_Large,,,13.260684583336117,14.27117491653189,4.0,Object_Sea_Solid_Large,-4.0,,,,,,,,,,,
encoding,image,19,10305523,10306534,10306038.0,10306432.0,395.0,395.0,2204.7,886.7,2249.0,1269.0,Object_Sea_Solid_Large,,,13.260684583336117,14.27117491653189,4.0,Object_Sea_Solid_Large,-4.0,,,,,,,,,,,
encoding,image,19,10305523,10306534,10306445.0,10306827.0,383.0,89.0,2213.8,820.0,2249.0,1269.0,Object_Sea_Solid_Large,,,13.260684583336117,14.27117491653189,4.0,Object_Sea_Solid_Large,-4.0,,,,,,,,,,,
encoding,value,19,10306534,10312544,10307000.0,10307717.0,718.0,718.0,2217.4,882.5,2249.0,1269.0,Object_Sea_Solid_Large,,,14.271306124981493,20.28110774990637,4.0,Object_Sea_Solid_Large,-4.0,,,,,,,,,,,
encoding,value,19,10306534,10312544,10307905.0,10309365.0,1461.0,1461.0,2205.6,889.2,2249.0,1269.0,Object_Sea_Solid_Large,,,14.271306124981493,20.28110774990637,4.0,Object_Sea_Solid_Large,-4.0,,,,,,,,,,,
encoding,value,19,10306534,10312544,10309375.0,10309421.0,47.0,47.0,2219.4,905.5999999999999,2249.0,1269.0,Object_Sea_Solid_Large,,,14.271306124981493,20.28110774990637,4.0,Object_Sea_Solid_Large,-4.0,,,,,,,,,,,
encoding,value,19,10306534,10312544,10309594.0,10309720.0,127.0,127.0,2209.8,828.0999999999999,2249.0,1269.0,Object_Sea_Solid_Large,,,14.271306124981493,20.28110774990637,4.0,Object_Sea_Solid_Large,-4.0,,,,,,,,,,,
encoding,value,19,10306534,10312544,10309938.0,10310651.0,714.0,714.0,2190.1,894.5,2249.0,1269.0,Object_Sea_Solid_Large,,,14.271306124981493,20.28110774990637,4.0,Object_Sea_Solid_Large,-4.0,,,,,,,,,,,
encoding,value,19,10306534,10312544,10310660.0,10310814.0,155.0,155.0,2211.0,907.7,2249.0,1269.0,Object_Sea_Solid_Large,,,14.271306124981493,20.28110774990637,4.0,Object_Sea_Solid_Large,-4.0,,,,,,,,,,,
encoding,value,19,10306534,10312544,10311003.0,10311268.0,266.0,266.0,2206.9,891.4000000000001,2249.0,1269.0,Object_Sea_Solid_Large,,,14.271306124981493,20.28110774990637,4.0,Object_Sea_Solid_Large,-4.0,,,,,,,,,,,
encoding,value,19,10306534,10312544,10311493.0,10311936.0,444.0,444.0,2203.4,857.5,2249.0,1269.0,Object_Sea_Solid_Large,,,14.271306124981493,20.28110774990637,4.0,Object_Sea_Solid_Large,-4.0,,,,,,,,,,,
encoding,value,19,10306534,10312544,10311947.0,10312310.0,364.0,364.0,2184.1,881.0,2249.0,1269.0,Object_Sea_Solid_Large,,,14.271306124981493,20.28110774990637,4.0,Object_Sea_Solid_Large,-4.0,,,,,,,,,,,
encoding,value,19,10306534,10312544,10312513.0,10313042.0,530.0,31.0,2207.4,866.5,2249.0,1269.0,Object_Sea_Solid_Large,,,14.271306124981493,20.28110774990637,4.0,Object_Sea_Solid_Large,-4.0,,,,,,,,,,,
encoding,attention,19,10312544,10315558,10313053.0,10313699.0,647.0,647.0,2184.7,858.2,2249.0,1269.0,Object_Sea_Solid_Large,,,20.281215458293445,23.295320583274588,4.0,Object_Sea_Solid_Large,-4.0,-4.0,1.0,0.9038280416280032,,,,,,,,
encoding,attention,19,10312544,10315558,10313938.0,10314038.0,101.0,101.0,2195.6,810.3,2249.0,1269.0,Object_Sea_Solid_Large,,,20.281215458293445,23.295320583274588,4.0,Object_Sea_Solid_Large,-4.0,-4.0,1.0,0.9038280416280032,,,,,,,,
encoding,attention,19,10312544,10315558,10314250.0,10314545.0,296.0,296.0,2226.8,880.0999999999999,2249.0,1269.0,Object_Sea_Solid_Large,,,20.281215458293445,23.295320583274588,4.0,Object_Sea_Solid_Large,-4.0,-4.0,1.0,0.9038280416280032,,,,,,,,
encoding,attention,19,10312544,10315558,10314552.0,10314795.0,244.0,244.0,2193.6,888.0999999999999,2249.0,1269.0,Object_Sea_Solid_Large,,,20.281215458293445,23.295320583274588,4.0,Object_Sea_Solid_Large,-4.0,-4.0,1.0,0.9038280416280032,,,,,,,,
encoding,attention,19,10312544,10315558,10315004.0,10315095.0,92.0,92.0,2219.3,779.5,2249.0,1269.0,Object_Sea_Solid_Large,,,20.281215458293445,23.295320583274588,4.0,Object_Sea_Solid_Large,-4.0,-4.0,1.0,0.9038280416280032,,,,,,,,
encoding,attention,19,10312544,10315558,10315117.0,10315328.0,212.0,212.0,2274.0,832.7,2249.0,1269.0,Object_Sea_Solid_Large,,,20.281215458293445,23.295320583274588,4.0,Object_Sea_Solid_Large,-4.0,-4.0,1.0,0.9038280416280032,,,,,,,,
encoding,fixation,20,10315558,10316812,10315799.0,10315841.0,43.0,43.0,1895.6,1082.0,1920.0,1080.0,fixation,,,23.295486833318137,24.549060916528106,4.0,Object_Land_Pattern_Small,-2.0,,,,,,,,,,,
encoding,fixation,20,10315558,10316812,10316055.0,10316215.0,161.0,161.0,1887.4,918.2,1920.0,1460.0,Animal_Sea_Solid_Large,,,23.295486833318137,24.549060916528106,4.0,Object_Land_Pattern_Small,-2.0,,,,,,,,,,,
encoding,fixation,20,10315558,10316812,10316235.0,10316657.0,423.0,423.0,1885.4,855.7,1920.0,1460.0,Animal_Sea_Solid_Large,,,23.295486833318137,24.549060916528106,4.0,Object_Land_Pattern_Small,-2.0,,,,,,,,,,,
encoding,fixation,20,10315558,10316812,10316666.0,10317033.0,368.0,146.0,1876.6,809.0999999999999,1920.0,1460.0,Animal_Sea_Solid_Large,,,23.295486833318137,24.549060916528106,4.0,Object_Land_Pattern_Small,-2.0,,,,,,,,,,,
encoding,image,20,10316812,10317821,10317079.0,10317199.0,121.0,121.0,2176.5,1247.0,2249.0,891.0,Object_Land_Pattern_Small,,,24.549157083267342,25.558155874954537,4.0,Object_Land_Pattern_Small,-2.0,,,,,,,,,,,
encoding,image,20,10316812,10317821,10317378.0,10317529.0,152.0,152.0,2214.8,1205.3,2249.0,891.0,Object_Land_Pattern_Small,,,24.549157083267342,25.558155874954537,4.0,Object_Land_Pattern_Small,-2.0,,,,,,,,,,,
encoding,image,20,10316812,10317821,10317543.0,10318123.0,581.0,278.0,2207.6,1162.0,2249.0,891.0,Object_Land_Pattern_Small,,,24.549157083267342,25.558155874954537,4.0,Object_Land_Pattern_Small,-2.0,,,,,,,,,,,
encoding,value,20,10317821,10323831,10318299.0,10318455.0,157.0,157.0,2212.8,1193.7,2249.0,891.0,Object_Land_Pattern_Small,,,25.558315124944784,31.56784362497274,4.0,Object_Land_Pattern_Small,-2.0,,,,,,,,,,,
encoding,value,20,10317821,10323831,10318469.0,10318774.0,306.0,306.0,2219.1,1263.0,2249.0,891.0,Object_Land_Pattern_Small,,,25.558315124944784,31.56784362497274,4.0,Object_Land_Pattern_Small,-2.0,,,,,,,,,,,
encoding,value,20,10317821,10323831,10318956.0,10319115.0,160.0,160.0,2215.8,1214.4,2249.0,891.0,Object_Land_Pattern_Small,,,25.558315124944784,31.56784362497274,4.0,Object_Land_Pattern_Small,-2.0,,,,,,,,,,,
encoding,value,20,10317821,10323831,10319129.0,10319426.0,298.0,298.0,2221.3,1180.1,2249.0,891.0,Object_Land_Pattern_Small,,,25.558315124944784,31.56784362497274,4.0,Object_Land_Pattern_Small,-2.0,,,,,,,,,,,
encoding,value,20,10317821,10323831,10319608.0,10319865.0,258.0,258.0,2217.9,1186.6,2249.0,891.0,Object_Land_Pattern_Small,,,25.558315124944784,31.56784362497274,4.0,Object_Land_Pattern_Small,-2.0,,,,,,,,,,,
encoding,value,20,10317821,10323831,10319894.0,10320036.0,143.0,143.0,1964.0,1151.1,2249.0,891.0,Object_Land_Pattern_Small,,,25.558315124944784,31.56784362497274,4.0,Object_Land_Pattern_Small,-2.0,,,,,,,,,,,
encoding,value,20,10317821,10323831,10320050.0,10320196.0,147.0,147.0,1889.8,1119.3,1920.0,1080.0,fixation,,,25.558315124944784,31.56784362497274,4.0,Object_Land_Pattern_Small,-2.0,,,,,,,,,,,
