phase,event,onset,offset,trial_number,game,image,outcome,choice,correct,rt,letter,match,response,option,true_value,true_position,recalled_position,
encoding,fixation,23.520758583996212,24.28568850000738,1,1,Animal_Sea_Solid_Large,-2,,,,,,,,,,,
encoding,image,24.2858399169927,25.305787999997847,1,1,Animal_Sea_Solid_Large,-2,,,,,,,,,,,
encoding,value,25.305934917007107,31.322343917010585,1,1,Animal_Sea_Solid_Large,-2,,,,,,,,,,,
encoding,attention,31.322469250007998,34.342830084002344,1,1,Animal_Sea_Solid_Large,-2,-2,1,1.832426334003685,,,,,,,,
encoding,fixation,34.343004209018545,34.84872291699867,2,1,Animal_Sea_Pattern_Large,-1,,,,,,,,,,,
encoding,image,34.84882949999883,35.859937417000765,2,1,Animal_Sea_Pattern_Large,-1,,,,,,,,,,,
encoding,value,35.860054292017594,41.87218412500806,2,1,Animal_Sea_Pattern_Large,-1,,,,,,,,,,,
encoding,attention,41.872324958996614,44.889280292001786,2,1,Animal_Sea_Pattern_Large,-1,-1,1,2.000630791997537,,,,,,,,
encoding,fixation,44.889470791997155,45.64433275000192,3,1,Animal_Land_Solid_Small,4,,,,,,,,,,,
encoding,image,45.64445424999576,46.655209334014216,3,1,Animal_Land_Solid_Small,4,,,,,,,,,,,
encoding,value,46.65536500001326,52.66635345900431,3,1,Animal_Land_Solid_Small,4,,,,,,,,,,,
encoding,attention,52.66645179199986,55.68410850001965,3,1,Animal_Land_Solid_Small,4,+4,1,1.808630749990698,,,,,,,,
encoding,fixation,55.68426000000909,56.68934833400999,4,1,Object_Land_Solid_Small,-7,,,,,,,,,,,
encoding,image,56.68945525001618,57.70098154200241,4,1,Object_Land_Solid_Small,-7,,,,,,,,,,,
encoding,value,57.701106374996016,63.7134205000184,4,1,Object_Land_Solid_Small,-7,,,,,,,,,,,
encoding,attention,63.71353854201152,66.72963570899446,4,1,Object_Land_Solid_Small,-7,-7,1,1.4833260000159498,,,,,,,,
encoding,fixation,66.72977970901411,68.23470537501271,5,1,Object_Sea_Pattern_Small,2,,,,,,,,,,,
encoding,image,68.23482199999853,69.24568333401112,5,1,Object_Sea_Pattern_Small,2,,,,,,,,,,,
encoding,value,69.24578512500739,75.25659508400713,5,1,Object_Sea_Pattern_Small,2,,,,,,,,,,,
encoding,attention,75.2567080000008,78.32011645901366,5,1,Object_Sea_Pattern_Small,2,+2,1,1.8448516660137102,,,,,,,,
encoding,fixation,78.32026866701199,78.82523554199724,6,1,Object_Land_Pattern_Large,7,,,,,,,,,,,
encoding,image,78.82535337499576,79.83737350002048,6,1,Object_Land_Pattern_Large,7,,,,,,,,,,,
encoding,value,79.83747733401833,85.8503875840106,6,1,Object_Land_Pattern_Large,7,,,,,,,,,,,
encoding,attention,85.85062516701873,88.86905925002065,6,1,Object_Land_Pattern_Large,7,+7,1,2.5076604999776464,,,,,,,,
n-back,,,,1,1,,,,1,None,N,False,None,,,,,
n-back,,,,2,1,,,,0,None,C,True,None,,,,,
n-back,,,,3,1,,,,1,None,B,False,None,,,,,
n-back,,,,4,1,,,,1,None,N,False,None,,,,,
n-back,,,,5,1,,,,1,None,N,False,None,,,,,
n-back,,,,6,1,,,,1,None,V,False,None,,,,,
n-back,,,,7,1,,,,1,None,X,False,None,,,,,
n-back,,,,8,1,,,,0,0.9182243339892011,N,False,1,,,,,
n-back,,,,9,1,,,,1,None,B,False,None,,,,,
n-back,,,,10,1,,,,1,None,Z,False,None,,,,,
n-back,,,,11,1,,,,1,0.7220587920164689,B,True,1,,,,,
n-back,,,,12,1,,,,1,0.8115013750211801,Z,True,1,,,,,
n-back,,,,13,1,,,,1,0.803516457992373,B,True,1,,,,,
n-back,,,,14,1,,,,1,0.5940640420012642,Z,True,1,,,,,
n-back,,,,15,1,,,,1,0.6027429160021711,B,True,1,,,,,
n-back,,,,16,1,,,,1,None,B,False,None,,,,,
n-back,,,,17,1,,,,1,0.5829153749800753,B,True,1,,,,,
n-back,,,,18,1,,,,1,None,X,False,None,,,,,
n-back,,,,19,1,,,,1,None,C,False,None,,,,,
n-back,,,,20,1,,,,1,0.8821833750116639,X,True,1,,,,,
n-back,,,,21,1,,,,1,None,Z,False,None,,,,,
n-back,,,,22,1,,,,1,1.0017143329896498,X,True,1,,,,,
n-back,,,,23,1,,,,1,None,X,False,None,,,,,
n-back,,,,24,1,,,,1,None,B,False,None,,,,,
n-back,,,,25,1,,,,1,0.9147856670024339,X,True,1,,,,,
n-back,,,,26,1,,,,1,None,C,False,None,,,,,
n-back,,,,27,1,,,,1,None,C,False,None,,,,,
n-back,,,,28,1,,,,1,None,V,False,None,,,,,
n-back,,,,29,1,,,,1,None,X,False,None,,,,,
n-back,,,,30,1,,,,1,None,Z,False,None,,,,,
choice,fixation,180.03264049999416,180.7888810840086,1,1,,,,,,,,,Sea,,,,
choice,option,180.79783841699827,181.9943292500102,1,1,,,,,,,,,Sea,,,,
choice,choice,181.9944438340026,195.22359300000244,1,1,,,1,0,12.215594792010961,,,,Sea,,,,
choice,fixation,195.22379600000568,195.72879862500122,2,1,,,,,,,,,Pattern,,,,
choice,option,195.73827775000245,196.7654203340062,2,1,,,,,,,,,Pattern,,,,
choice,choice,196.76553191701532,202.42998975000228,2,1,,,1,1,4.652762833982706,,,,Pattern,,,,
choice,fixation,202.43010012499872,203.93509633399663,3,1,,,,,,,,,Large,,,,
choice,option,203.94419208401814,204.9719664590084,3,1,,,,,,,,,Large,,,,
choice,choice,204.97208529201453,218.57720341699314,3,1,,,1,1,12.594375042011961,,,,Large,,,,
choice,fixation,218.5773278340057,219.33232016701368,4,1,,,,,,,,,Solid,,,,
choice,option,219.3416755000071,220.36882925001555,4,1,,,,,,,,,Solid,,,,
choice,choice,220.3689403750177,234.31962329201633,4,1,,,2,1,12.93897712501348,,,,Solid,,,,
choice,fixation,234.31975879200036,235.57477220901637,5,1,,,,,,,,,Small,,,,
choice,option,235.58435841702158,236.6121247500123,5,1,,,,,,,,,Small,,,,
choice,choice,236.61225258401828,252.68012095900485,5,1,,,2,1,15.05699845799245,,,,Small,,,,
choice,fixation,252.68028200001572,253.43528233401594,6,1,,,,,,,,,Land,,,,
choice,option,253.4441700000025,254.47140216699336,6,1,,,,,,,,,Land,,,,
choice,choice,254.4715178750048,265.17552254200564,6,1,,,1,1,9.69387554199784,,,,Land,,,,
choice,fixation,265.17564712499734,265.93075720901834,7,1,,,,,,,,,Animal,,,,
choice,option,265.94058412499726,266.9683092920168,7,1,,,,,,,,,Animal,,,,
choice,choice,266.9684268750134,270.7642682919977,7,1,,,2,0,2.78623445800622,,,,Animal,,,,
choice,fixation,270.7644009999931,271.77220779200434,8,1,,,,,,,,,Object,,,,
choice,option,271.78198900001007,272.80799958400894,8,1,,,,,,,,,Object,,,,
choice,choice,272.8081117499969,282.8782000000065,8,1,,,1,1,9.059786708996398,,,,Object,,,,
memory,free_recall,347.1231660420017,359.03056737501174,0,1,,,,,,,,,,,,,
memory,value_recall,525.1563926250092,539.3288008340169,1,1,Object_Sea_Pattern_Small,,,,14.16912495798897,,,,,2,,,
memory,value_recall,541.3765543750196,554.8405170000042,2,1,Animal_Sea_Solid_Large,,,,13.45977462499286,,,,,-2,,,
memory,value_recall,555.8880349590036,561.2625404589926,3,1,Animal_Land_Solid_Small,,,,5.371263209002791,,,,,4,,,
memory,value_recall,563.3071888340055,566.7875056250195,4,1,Object_Land_Solid_Small,,,,3.4763801250082906,,,,,-7,,,
memory,value_recall,567.8338032920146,570.1760143749998,5,1,Object_Land_Pattern_Large,,,,2.3395213749899995,,,,,7,,,
memory,value_recall,571.4716157499934,579.0473926670093,6,1,Animal_Sea_Pattern_Large,,,,7.571586957987165,,,,,-1,,,
memory,spatial_recall,605.3875116670097,615.8119173340092,6,1,Animal_Sea_Solid_Large,,,1,10.42119362502126,,,,,,"[-329, -190]","[-329, -190]",
memory,spatial_recall,617.3730307090154,628.2977172500105,6,1,Object_Land_Pattern_Large,,,1,10.920792958000675,,,,,,"[0, -380]","[0, -380]",
memory,spatial_recall,630.3617735840089,639.3618967090151,6,1,Object_Land_Solid_Small,,,1,8.996150249993661,,,,,,"[0, 380]","[0, 380]",
memory,spatial_recall,640.4157386250154,645.8778835840058,6,1,Animal_Land_Solid_Small,,,1,5.456681625015335,,,,,,"[-329, 190]","[-329, 190]",
memory,spatial_recall,647.4335967090155,654.7477743340132,6,1,Object_Sea_Pattern_Small,,,1,7.310340790980263,,,,,,"[329, 189]","[329, 189]",
memory,spatial_recall,656.0574396669981,662.3815344590112,6,1,Animal_Sea_Pattern_Large,,,1,6.320005709014367,,,,,,"[329, -190]","[329, -190]",
encoding,fixation,31.054993915982777,32.31136733299354,7,2,Animal_Land_Pattern_Large,-5,,,,,,,,,,,
encoding,image,32.31149654099136,33.32501683299779,7,2,Animal_Land_Pattern_Large,-5,,,,,,,,,,,
encoding,value,33.32513895799639,39.338061791000655,7,2,Animal_Land_Pattern_Large,-5,,,,,,,,,,,
encoding,attention,39.33818424999481,42.35677787498571,7,2,Animal_Land_Pattern_Large,-5,-5,1,1.7433439580199774,,,,,,,,
encoding,fixation,42.35692220798228,43.112060540996026,8,2,Animal_Sea_Solid_Small,1,,,,,,,,,,,
encoding,image,43.11216270798468,44.12327137499233,8,2,Animal_Sea_Solid_Small,1,,,,,,,,,,,
encoding,value,44.123374999995576,50.13520799999242,8,2,Animal_Sea_Solid_Small,1,,,,,,,,,,,
encoding,attention,50.13533712498611,53.15337975000148,8,2,Animal_Sea_Solid_Small,1,+1,1,2.811122208018787,,,,,,,,
encoding,fixation,53.15351441598614,53.65815816598479,9,2,Animal_Land_Solid_Small,3,,,,,,,,,,,
encoding,image,53.658266165992245,54.6676950409892,9,2,Animal_Land_Solid_Small,3,,,,,,,,,,,
encoding,value,54.667920082982164,60.680110040993895,9,2,Animal_Land_Solid_Small,3,,,,,,,,,,,
encoding,attention,60.68022062498494,63.69197975000134,9,2,Animal_Land_Solid_Small,3,None,None,None,,,,,,,,
encoding,fixation,63.692118207982276,64.19996041597915,10,2,Object_Land_Pattern_Small,-7,,,,,,,,,,,
encoding,image,64.20006133298739,65.21099370799493,10,2,Object_Land_Pattern_Small,-7,,,,,,,,,,,
encoding,value,65.2111068329832,71.22304724997957,10,2,Object_Land_Pattern_Small,-7,,,,,,,,,,,
encoding,attention,71.22317404099158,74.24037495799712,10,2,Object_Land_Pattern_Small,-7,-7,1,1.4937200830026995,,,,,,,,
encoding,fixation,74.24052720799227,75.49724220798817,11,2,Object_Sea_Solid_Large,-7,,,,,,,,,,,
encoding,image,75.49735654098913,76.50878837498021,11,2,Object_Sea_Solid_Large,-7,,,,,,,,,,,
encoding,value,76.50893362498027,82.52084483299404,11,2,Object_Sea_Solid_Large,-7,,,,,,,,,,,
encoding,attention,82.52095133299008,85.53802279097727,11,2,Object_Sea_Solid_Large,-7,-7,1,1.4690544999903068,,,,,,,,
encoding,fixation,85.53817666598479,86.7941380830016,12,2,Object_Sea_Pattern_Large,8,,,,,,,,,,,
encoding,image,86.79426879098173,87.80491891599377,12,2,Object_Sea_Pattern_Large,8,,,,,,,,,,,
encoding,value,87.80501929100137,93.81650741599151,12,2,Object_Sea_Pattern_Large,8,,,,,,,,,,,
encoding,attention,93.81662145798327,96.83392741598072,12,2,Object_Sea_Pattern_Large,8,+8,1,1.2692758750054054,,,,,,,,
n-back,,,,31,2,,,,0,None,X,True,None,,,,,
n-back,,,,32,2,,,,1,None,B,False,None,,,,,
n-back,,,,33,2,,,,1,None,C,False,None,,,,,
n-back,,,,34,2,,,,1,0.7766195419826545,B,True,1,,,,,
n-back,,,,35,2,,,,1,None,Z,False,None,,,,,
n-back,,,,36,2,,,,1,1.0165122910111677,B,True,1,,,,,
n-back,,,,37,2,,,,1,0.9391719590057619,Z,True,1,,,,,
n-back,,,,38,2,,,,1,None,X,False,None,,,,,
n-back,,,,39,2,,,,1,None,V,False,None,,,,,
n-back,,,,40,2,,,,1,None,B,False,None,,,,,
n-back,,,,41,2,,,,1,None,Z,False,None,,,,,
n-back,,,,42,2,,,,1,0.8228453750198241,B,True,1,,,,,
n-back,,,,43,2,,,,1,None,N,False,None,,,,,
n-back,,,,44,2,,,,0,1.0857098750129808,Z,False,1,,,,,
n-back,,,,45,2,,,,1,None,Z,False,None,,,,,
n-back,,,,46,2,,,,1,0.5910809579945635,Z,True,1,,,,,
n-back,,,,47,2,,,,1,0.9945971669803839,Z,True,1,,,,,
n-back,,,,48,2,,,,1,0.7808827089902479,Z,True,1,,,,,
n-back,,,,49,2,,,,1,None,N,False,None,,,,,
n-back,,,,50,2,,,,1,None,V,False,None,,,,,
n-back,,,,51,2,,,,1,0.8805117089941632,N,True,1,,,,,
n-back,,,,52,2,,,,1,None,N,False,None,,,,,
n-back,,,,53,2,,,,1,None,Z,False,None,,,,,
n-back,,,,54,2,,,,1,None,C,False,None,,,,,
n-back,,,,55,2,,,,1,None,N,False,None,,,,,
n-back,,,,56,2,,,,0,0.824079707992496,Z,False,1,,,,,
n-back,,,,57,2,,,,1,1.2014928340213373,N,True,1,,,,,
n-back,,,,58,2,,,,1,None,V,False,None,,,,,
n-back,,,,59,2,,,,1,None,V,False,None,,,,,
n-back,,,,60,2,,,,1,None,B,False,None,,,,,
choice,fixation,207.60664595797425,209.1110575409839,9,2,,,,,,,,,Pattern,,,,
choice,option,209.12029699998675,210.14686662500026,9,2,,,,,,,,,Pattern,,,,
choice,choice,210.14698237497942,223.07424191597966,9,2,,,2,1,11.916586666979128,,,,Pattern,,,,
choice,fixation,223.07442587497644,224.32938441599254,10,2,,,,,,,,,Animal,,,,
choice,option,224.33936166597414,225.3663860829838,10,2,,,,,,,,,Animal,,,,
choice,choice,225.36649454099825,231.32331387497834,10,2,,,2,1,4.947430333006196,,,,Animal,,,,
choice,fixation,231.32344504099456,232.32843612498255,11,2,,,,,,,,,Sea,,,,
choice,option,232.3366381659871,233.36261716598528,11,2,,,,,,,,,Sea,,,,
choice,choice,233.36271962500177,242.72102733299835,11,2,,,1,1,8.34819275001064,,,,Sea,,,,
choice,fixation,242.72115574998315,243.97613187498064,12,2,,,,,,,,,Small,,,,
choice,option,243.98528574997908,245.01100708299782,12,2,,,,,,,,,Small,,,,
choice,choice,245.01112558299792,260.5531441249768,12,2,,,2,1,14.531720124999993,,,,Small,,,,
choice,fixation,260.55328304099385,261.55819799998426,13,2,,,,,,,,,Large,,,,
choice,option,261.56661049998365,262.59312087498256,13,2,,,,,,,,,Large,,,,
choice,choice,262.59325291597634,265.13351791599416,13,2,,,1,0,1.526725624979008,,,,Large,,,,
choice,fixation,265.1336405829934,265.8885488329979,14,2,,,,,,,,,Land,,,,
choice,option,265.89725762497983,266.9231487909856,14,2,,,,,,,,,Land,,,,
choice,choice,266.9232712079829,279.17280458298046,14,2,,,2,1,11.238421167014167,,,,Land,,,,
choice,fixation,279.17293708299985,280.42812779097585,15,2,,,,,,,,,Object,,,,
choice,option,280.43777608298115,281.46599020800204,15,2,,,,,,,,,Object,,,,
choice,choice,281.4661052079755,287.3155837910017,15,2,,,1,0,4.840171624993673,,,,Object,,,,
choice,fixation,287.3156988749979,287.8206639159762,16,2,,,,,,,,,Solid,,,,
choice,option,287.830046957999,288.8561222080025,16,2,,,,,,,,,Solid,,,,
choice,choice,288.8562268749811,298.40761204098817,16,2,,,2,1,8.541461750020972,,,,Solid,,,,
memory,free_recall,421.52649041599943,442.7521417499811,6,2,,,,,,,,,,,,,
memory,value_recall,503.81290816600085,512.5436404579959,7,2,Object_Sea_Pattern_Large,,,,8.726693624979816,,,,,8,,,
memory,value_recall,514.5912184579938,522.6889312079875,8,2,Object_Land_Pattern_Small,,,,8.093485959019745,,,,,-7,,,
memory,value_recall,524.7361872079782,530.3120299159782,9,2,Animal_Sea_Solid_Small,,,,5.571806749998359,,,,,1,,,
memory,value_recall,532.3568870000017,535.7825327079918,10,2,Animal_Land_Solid_Small,,,,3.421648042014567,,,,,3,,,
memory,value_recall,537.5790566249925,541.7741510829946,11,2,Animal_Land_Pattern_Large,,,,4.191076000017347,,,,,-5,,,
memory,value_recall,543.8196253329806,549.4008676660014,12,2,Object_Sea_Solid_Large,,,,5.5771987909975,,,,,-7,,,
memory,spatial_recall,560.3385229579872,566.9935536659905,12,2,Animal_Land_Pattern_Large,,,1,6.650757291994523,,,,,,"[329, 189]","[329, 189]",
memory,spatial_recall,568.8104632499744,576.6722861659946,12,2,Object_Sea_Pattern_Large,,,1,7.856286583002657,,,,,,"[0, 380]","[0, 380]",
memory,spatial_recall,577.9778695409768,583.0263234579761,12,2,Object_Land_Pattern_Small,,,1,5.0446921249968,,,,,,"[329, -190]","[329, -190]",
memory,spatial_recall,584.8379986249784,590.6057159579941,12,2,Animal_Land_Solid_Small,,,1,5.763678500021342,,,,,,"[-329, 190]","[-329, 190]",
memory,spatial_recall,591.9118862079922,596.0749622079893,12,2,Animal_Sea_Solid_Small,,,1,4.1591587089933455,,,,,,"[0, -380]","[0, -380]",
memory,spatial_recall,598.1415084159817,602.5936357079772,12,2,Object_Sea_Solid_Large,,,1,4.448066959012067,,,,,,"[-329, -190]","[-329, -190]",
encoding,fixation,11.759552917006658,12.765436541987583,13,3,Animal_Sea_Pattern_Small,9,,,,,,,,,,,
encoding,image,12.765552333992673,13.777260375005426,13,3,Animal_Sea_Pattern_Small,9,,,,,,,,,,,
encoding,value,13.7773548749974,19.792185792000964,13,3,Animal_Sea_Pattern_Small,9,,,,,,,,,,,
encoding,attention,19.792305167007726,22.809848125005374,13,3,Animal_Sea_Pattern_Small,9,+9,1,0.9789738749968819,,,,,,,,
encoding,fixation,22.810021541983588,23.565230709005846,14,3,Animal_Land_Solid_Large,9,,,,,,,,,,,
encoding,image,23.565349624986993,24.57642445899546,14,3,Animal_Land_Solid_Large,9,,,,,,,,,,,
encoding,value,24.576533958985237,30.58821570899454,14,3,Animal_Land_Solid_Large,9,,,,,,,,,,,
encoding,attention,30.58832529198844,33.60606020898558,14,3,Animal_Land_Solid_Large,9,+9,1,1.3976919999986421,,,,,,,,
encoding,fixation,33.60621312499279,34.61143774999073,15,3,Animal_Sea_Solid_Large,-9,,,,,,,,,,,
encoding,image,34.61163887500879,35.62263566700858,15,3,Animal_Sea_Solid_Large,-9,,,,,,,,,,,
encoding,value,35.62278587499168,41.635974584001815,15,3,Animal_Sea_Solid_Large,-9,,,,,,,,,,,
encoding,attention,41.63607908398262,44.65369883400854,15,3,Animal_Sea_Solid_Large,-9,-9,1,1.8855325829936191,,,,,,,,
encoding,fixation,44.65385112501099,46.15893750000396,16,3,Object_Land_Solid_Large,8,,,,,,,,,,,
encoding,image,46.159070749999955,47.16930612499709,16,3,Object_Land_Solid_Large,8,,,,,,,,,,,
encoding,value,47.169409249996534,53.1803252499958,16,3,Object_Land_Solid_Large,8,,,,,,,,,,,
encoding,attention,53.18045158399036,56.20031433398253,16,3,Object_Land_Solid_Large,8,+8,1,1.0928735409979708,,,,,,,,
encoding,fixation,56.20046670900774,57.205436958989594,17,3,Object_Sea_Pattern_Small,-2,,,,,,,,,,,
encoding,image,57.20563341700472,58.21671079201042,17,3,Object_Sea_Pattern_Small,-2,,,,,,,,,,,
encoding,value,58.216835125000216,64.22856912499992,17,3,Object_Sea_Pattern_Small,-2,,,,,,,,,,,
encoding,attention,64.22868624998955,67.24858487499296,17,3,Object_Sea_Pattern_Small,-2,-2,1,1.6827749589865562,,,,,,,,
encoding,fixation,67.24874791700859,68.7536500839924,18,3,Object_Land_Pattern_Small,-2,,,,,,,,,,,
encoding,image,68.7537540839985,69.7649577499833,18,3,Object_Land_Pattern_Small,-2,,,,,,,,,,,
encoding,value,69.76506804200471,75.77638366699102,18,3,Object_Land_Pattern_Small,-2,,,,,,,,,,,
encoding,attention,75.77650104198256,78.79281404198264,18,3,Object_Land_Pattern_Small,-2,-2,1,1.5064843329892028,,,,,,,,
n-back,,,,61,3,,,,1,None,X,False,None,,,,,
n-back,,,,62,3,,,,0,None,C,True,None,,,,,
n-back,,,,63,3,,,,1,None,N,False,None,,,,,
n-back,,,,64,3,,,,1,0.46973941702162847,C,True,1,,,,,
n-back,,,,65,3,,,,1,0.7205592909886036,N,True,1,,,,,
n-back,,,,66,3,,,,1,None,B,False,None,,,,,
n-back,,,,67,3,,,,0,None,N,True,None,,,,,
n-back,,,,68,3,,,,1,None,C,False,None,,,,,
n-back,,,,69,3,,,,1,None,C,False,None,,,,,
n-back,,,,70,3,,,,1,0.5676510829944164,C,True,1,,,,,
n-back,,,,71,3,,,,1,None,V,False,None,,,,,
n-back,,,,72,3,,,,1,1.0038579160172958,C,True,1,,,,,
n-back,,,,73,3,,,,1,0.7122466660221107,V,True,1,,,,,
n-back,,,,74,3,,,,1,0.7266154169919901,C,True,1,,,,,
n-back,,,,75,3,,,,1,None,N,False,None,,,,,
n-back,,,,76,3,,,,1,None,X,False,None,,,,,
n-back,,,,77,3,,,,1,None,B,False,None,,,,,
n-back,,,,78,3,,,,1,None,B,False,None,,,,,
n-back,,,,79,3,,,,1,None,N,False,None,,,,,
n-back,,,,80,3,,,,1,None,V,False,None,,,,,
n-back,,,,81,3,,,,1,None,B,False,None,,,,,
n-back,,,,82,3,,,,1,None,Z,False,None,,,,,
n-back,,,,83,3,,,,1,None,Z,False,None,,,,,
n-back,,,,84,3,,,,1,None,N,False,None,,,,,
n-back,,,,85,3,,,,1,None,C,False,None,,,,,
n-back,,,,86,3,,,,1,0.5726169999979902,N,True,1,,,,,
n-back,,,,87,3,,,,1,None,N,False,None,,,,,
n-back,,,,88,3,,,,1,None,V,False,None,,,,,
n-back,,,,89,3,,,,0,None,N,True,None,,,,,
n-back,,,,90,3,,,,1,None,Z,False,None,,,,,
choice,fixation,156.4212261250068,157.17466116699507,17,3,,,,,,,,,Pattern,,,,
choice,option,157.1836708339979,158.2097328339878,17,3,,,,,,,,,Pattern,,,,
choice,choice,158.20986304199323,181.10914462499204,17,3,,,1,1,21.887606875010533,,,,Pattern,,,,
choice,fixation,181.10927504199208,182.1142845840077,18,3,,,,,,,,,Animal,,,,
choice,option,182.12370262498735,183.15013491699938,18,3,,,,,,,,,Animal,,,,
choice,choice,183.1502503750089,192.50172450000537,18,3,,,1,1,8.341083333012648,,,,Animal,,,,
choice,fixation,192.50186370901065,194.00686858399422,19,3,,,,,,,,,Land,,,,
choice,option,194.01580479199765,195.04336091698497,19,3,,,,,,,,,Land,,,,
choice,choice,195.0434630420059,211.38146537498687,19,3,,,1,1,15.328010333003476,,,,Land,,,,
choice,fixation,211.38158891699277,212.63674891699338,20,3,,,,,,,,,Small,,,,
choice,option,212.6459327089833,213.67205262498464,20,3,,,,,,,,,Small,,,,
choice,choice,213.67215420899447,226.40567474998534,20,3,,,1,1,11.72288812501938,,,,Small,,,,
choice,fixation,226.40579324998544,227.91067700000713,21,3,,,,,,,,,Sea,,,,
choice,option,227.91896045900648,228.94464100000914,21,3,,,,,,,,,Sea,,,,
choice,choice,228.94476466698688,236.78728158399463,21,3,,,2,1,6.8328924590023234,,,,Sea,,,,
choice,fixation,236.78741691700998,238.2934400420054,22,3,,,,,,,,,Object,,,,
choice,option,238.30262974998914,239.32886929198867,22,3,,,,,,,,,Object,,,,
choice,choice,239.32899549999274,246.03493383398745,22,3,,,2,0,5.695176042005187,,,,Object,,,,
choice,fixation,246.03505266699358,246.79344120901078,23,3,,,,,,,,,Solid,,,,
choice,option,246.80282270899625,247.82879941700958,23,3,,,,,,,,,Solid,,,,
choice,choice,247.82892166700913,255.71638341699145,23,3,,,2,0,6.877719707990764,,,,Solid,,,,
choice,fixation,255.71651279198704,256.47170687498874,24,3,,,,,,,,,Large,,,,
choice,option,256.4803038339887,257.50883479201,24,3,,,,,,,,,Large,,,,
choice,choice,257.5089612090087,271.5895588749845,24,3,,,1,1,13.0692558340088,,,,Large,,,,
memory,free_recall,293.9108380420075,327.07896933399024,12,3,,,,,,,,,,,,,
memory,value_recall,353.9443160840019,358.6417023749964,13,3,Object_Sea_Pattern_Small,,,,4.693291625007987,,,,,-2,,,
memory,value_recall,360.18850320900674,363.7254207500082,14,3,Object_Land_Solid_Large,,,,3.5328364169981796,,,,,8,,,
memory,value_recall,365.2705059169966,372.64111070899526,15,3,Animal_Sea_Pattern_Small,,,,7.36559616701561,,,,,9,,,
memory,value_recall,374.6887235000031,376.8415502090065,16,3,Animal_Land_Solid_Large,,,,2.148612332995981,,,,,9,,,
memory,value_recall,378.38655845899484,381.48588879199815,17,3,Animal_Sea_Solid_Large,,,,3.093363958003465,,,,,-9,,,
memory,value_recall,383.5320787919918,387.25587741698837,18,3,Object_Land_Pattern_Small,,,,3.7196627919911407,,,,,-2,,,
memory,spatial_recall,399.4687702090014,405.58234554200317,18,3,Object_Land_Solid_Large,,,1,6.107226333988365,,,,,,"[0, -380]","[0, -380]",
memory,spatial_recall,407.6437548339891,410.4482005840109,18,3,Animal_Land_Solid_Large,,,1,2.800345750001725,,,,,,"[-329, 190]","[-329, 190]",
memory,spatial_recall,412.00404837500537,414.47021833399776,18,3,Object_Land_Pattern_Small,,,1,2.4621345410123467,,,,,,"[329, -190]","[329, -190]",
memory,spatial_recall,416.28213624999626,419.6620851669868,18,3,Animal_Sea_Solid_Large,,,1,3.376032458007103,,,,,,"[-329, -190]","[-329, -190]",
memory,spatial_recall,421.4691721670097,426.35280608400353,18,3,Animal_Sea_Pattern_Small,,,1,4.87968829201418,,,,,,"[0, 380]","[0, 380]",
memory,spatial_recall,427.91257412498817,429.5365774589882,18,3,Object_Sea_Pattern_Small,,,1,1.6198369580088183,,,,,,"[329, 189]","[329, 189]",
encoding,fixation,4.352733457984868,5.358471291983733,19,4,Animal_Sea_Pattern_Small,2,,,,,,,,,,,
encoding,image,5.3585962079814635,6.369842832995346,19,4,Animal_Sea_Pattern_Small,2,,,,,,,,,,,
encoding,value,6.3699628329777624,12.383582791982917,19,4,Animal_Sea_Pattern_Small,2,,,,,,,,,,,
encoding,attention,12.383713249990251,15.401582249993226,19,4,Animal_Sea_Pattern_Small,2,+2,1,1.4451987909851596,,,,,,,,
encoding,fixation,15.4017582499946,16.909949124994455,20,4,Object_Sea_Solid_Small,-9,,,,,,,,,,,
encoding,image,16.910051666985964,17.920060292002745,20,4,Object_Sea_Solid_Small,-9,,,,,,,,,,,
encoding,value,17.920172916987212,23.931192249991,20,4,Object_Sea_Solid_Small,-9,,,,,,,,,,,
encoding,attention,23.931312832981348,26.949798624991672,20,4,Object_Sea_Solid_Small,-9,-9,1,1.9924279170227237,,,,,,,,
encoding,fixation,26.949954916985007,27.455675874982262,21,4,Animal_Land_Solid_Large,-4,,,,,,,,,,,
encoding,image,27.45578370799194,28.46681995797553,21,4,Animal_Land_Solid_Large,-4,,,,,,,,,,,
encoding,value,28.466939707985148,34.47931958298432,21,4,Animal_Land_Solid_Large,-4,,,,,,,,,,,
encoding,attention,34.47942708298797,37.49188287497964,21,4,Animal_Land_Solid_Large,-4,None,None,None,,,,,,,,
encoding,fixation,37.49204899999313,38.24728637500084,22,4,Object_Sea_Solid_Large,9,,,,,,,,,,,
encoding,image,38.247393792000366,39.25884075000067,22,4,Object_Sea_Solid_Large,9,,,,,,,,,,,
encoding,value,39.25901758298278,45.270424874994205,22,4,Object_Sea_Solid_Large,9,,,,,,,,,,,
encoding,attention,45.270531624992145,48.289247791981325,22,4,Object_Sea_Solid_Large,9,+9,1,2.126758540980518,,,,,,,,
encoding,fixation,48.289407582982676,49.29428362500039,23,4,Animal_Land_Pattern_Small,4,,,,,,,,,,,
encoding,image,49.29444612498628,50.30841091700131,23,4,Animal_Land_Pattern_Small,4,,,,,,,,,,,
encoding,value,50.30852708299062,56.319847332983045,23,4,Animal_Land_Pattern_Small,4,,,,,,,,,,,
encoding,attention,56.31997462498839,59.338047541998094,23,4,Animal_Land_Pattern_Small,4,+4,1,0.9650375829951372,,,,,,,,
encoding,fixation,59.3382282499806,60.09347845800221,24,4,Object_Land_Pattern_Large,-1,,,,,,,,,,,
encoding,image,60.093591707991436,61.10829874998308,24,4,Object_Land_Pattern_Large,-1,,,,,,,,,,,
encoding,value,61.108401791978395,67.12039404199459,24,4,Object_Land_Pattern_Large,-1,,,,,,,,,,,
encoding,attention,67.12051979199168,70.14055037498474,24,4,Object_Land_Pattern_Large,-1,-1,1,1.6015598330122884,,,,,,,,
n-back,,,,91,4,,,,1,None,N,False,None,,,,,
n-back,,,,92,4,,,,0,None,Z,True,None,,,,,
n-back,,,,93,4,,,,1,None,V,False,None,,,,,
n-back,,,,94,4,,,,1,0.5756590829987545,Z,True,1,,,,,
n-back,,,,95,4,,,,1,None,X,False,None,,,,,
n-back,,,,96,4,,,,1,0.7485419159929734,Z,True,1,,,,,
n-back,,,,97,4,,,,1,0.6795004589948803,X,True,1,,,,,
n-back,,,,98,4,,,,1,None,B,False,None,,,,,
n-back,,,,99,4,,,,1,None,V,False,None,,,,,
n-back,,,,100,4,,,,1,None,V,False,None,,,,,
n-back,,,,101,4,,,,1,0.5152332079887856,V,True,1,,,,,
n-back,,,,102,4,,,,1,None,N,False,None,,,,,
n-back,,,,103,4,,,,1,0.7339257090061437,V,True,1,,,,,
n-back,,,,104,4,,,,1,None,Z,False,None,,,,,
n-back,,,,105,4,,,,1,1.211941832996672,V,True,1,,,,,
n-back,,,,106,4,,,,1,0.7949333750002552,Z,True,1,,,,,
n-back,,,,107,4,,,,1,None,C,False,None,,,,,
n-back,,,,108,4,,,,1,None,B,False,None,,,,,
n-back,,,,109,4,,,,1,None,V,False,None,,,,,
n-back,,,,110,4,,,,1,None,C,False,None,,,,,
n-back,,,,111,4,,,,1,None,N,False,None,,,,,
n-back,,,,112,4,,,,1,0.9519978750031441,C,True,1,,,,,
n-back,,,,113,4,,,,1,0.8133187080093194,N,True,1,,,,,
n-back,,,,114,4,,,,1,None,N,False,None,,,,,
n-back,,,,115,4,,,,1,None,Z,False,None,,,,,
n-back,,,,116,4,,,,1,None,X,False,None,,,,,
n-back,,,,117,4,,,,1,None,C,False,None,,,,,
n-back,,,,118,4,,,,1,None,V,False,None,,,,,
n-back,,,,119,4,,,,1,None,B,False,None,,,,,
n-back,,,,120,4,,,,1,None,C,False,None,,,,,
choice,fixation,146.77501679200213,147.77869308297522,25,4,,,,,,,,,Small,,,,
choice,option,147.7873718329938,148.8132100419898,25,4,,,,,,,,,Small,,,,
choice,choice,148.81330712497584,165.8777311249869,25,4,,,2,1,16.053371749992948,,,,Small,,,,
choice,fixation,165.87786404197686,167.38301979200332,26,4,,,,,,,,,Solid,,,,
choice,option,167.3928279169777,168.41943620800157,26,4,,,,,,,,,Solid,,,,
choice,choice,168.41952537497855,177.1978828329884,26,4,,,2,1,7.7679578329843935,,,,Solid,,,,
choice,fixation,177.19802104198607,178.20300149999093,27,4,,,,,,,,,Object,,,,
choice,option,178.21235454198904,179.23907966699335,27,4,,,,,,,,,Object,,,,
choice,choice,179.2391939999943,190.20540083298692,27,4,,,2,1,9.956096458015963,,,,Object,,,,
choice,fixation,190.2055180829775,191.20974699998624,28,4,,,,,,,,,Pattern,,,,
choice,option,191.2190249999985,192.24504187499406,28,4,,,,,,,,,Pattern,,,,
choice,choice,192.24514554199413,195.82058545798645,28,4,,,1,1,2.565892957994947,,,,Pattern,,,,
choice,fixation,195.8207119999861,197.07565341697773,29,4,,,,,,,,,Land,,,,
choice,option,197.0843539579946,198.11008416698314,29,4,,,,,,,,,Land,,,,
choice,choice,198.1101823329809,209.5136492079764,29,4,,,1,0,10.392891875002533,,,,Land,,,,
choice,fixation,209.51376966698444,210.0194397919986,30,4,,,,,,,,,Animal,,,,
choice,option,210.02908545799437,211.05803587500122,30,4,,,,,,,,,Animal,,,,
choice,choice,211.05814904198633,219.42576245797682,30,4,,,1,1,7.355071375000989,,,,Animal,,,,
choice,fixation,219.42592266699648,220.4308309579792,31,4,,,,,,,,,Large,,,,
choice,option,220.44027987497975,221.46714079199592,31,4,,,,,,,,,Large,,,,
choice,choice,221.46725620797952,231.80594641697826,31,4,,,1,1,9.328316375002032,,,,Large,,,,
choice,fixation,231.80608104198473,232.81108220797614,32,4,,,,,,,,,Sea,,,,
choice,option,232.81946158298524,233.8452458329848,32,4,,,,,,,,,Sea,,,,
choice,choice,233.8454351669934,238.10129495800356,32,4,,,1,1,3.2463793749921024,,,,Sea,,,,
memory,free_recall,269.1613954579807,295.69679079198977,18,4,,,,,,,,,,,,,
memory,value_recall,330.07163558297907,338.8597562079958,19,4,Animal_Land_Pattern_Small,,,,8.78401308399043,,,,,4,,,
memory,value_recall,339.905413667002,343.0494407499791,20,4,Animal_Sea_Pattern_Small,,,,3.1408251250104513,,,,,2,,,
memory,value_recall,344.59558687498793,349.2006444579747,21,4,Object_Land_Pattern_Large,,,,4.600756708008703,,,,,-1,,,
memory,value_recall,350.24887724997825,353.1911987919884,22,4,Animal_Land_Solid_Large,,,,2.9391314999957103,,,,,-4,,,
memory,value_recall,355.2371917499986,361.340505250002,23,4,Object_Sea_Solid_Small,,,,6.099196249997476,,,,,-9,,,
memory,value_recall,362.3859302919882,371.84034129200154,24,4,Object_Sea_Solid_Large,,,,9.45112433299073,,,,,9,,,
memory,spatial_recall,376.54531112499535,385.2139648750017,24,4,Object_Sea_Solid_Small,,,1,8.66535629099235,,,,,,"[329, -190]","[329, -190]",
memory,spatial_recall,387.2741245829966,398.18480458299746,24,4,Animal_Land_Solid_Large,,,1,10.906687666021753,,,,,,"[-329, 190]","[-329, 190]",
memory,spatial_recall,399.74923466698965,403.914384417003,24,4,Object_Sea_Solid_Large,,,1,4.160937625012593,,,,,,"[-329, -190]","[-329, -190]",
memory,spatial_recall,405.72214316698955,412.49755891697714,24,4,Animal_Land_Pattern_Small,,,1,6.771338749997085,,,,,,"[329, 189]","[329, 189]",
memory,spatial_recall,413.5579606249812,420.6140319999831,24,4,Object_Land_Pattern_Large,,,1,7.053638707991922,,,,,,"[0, -380]","[0, -380]",
memory,spatial_recall,421.6703494579997,424.86744112498127,24,4,Animal_Sea_Pattern_Small,,,1,3.192579708993435,,,,,,"[0, 380]","[0, 380]",
encoding,fixation,5.296024124982068,6.8019101659883745,25,5,Object_Sea_Solid_Large,-2,,,,,,,,,,,
encoding,image,6.802025124983629,7.814984915981768,25,5,Object_Sea_Solid_Large,-2,,,,,,,,,,,
encoding,value,7.8150945409724955,13.830623415997252,25,5,Object_Sea_Solid_Large,-2,,,,,,,,,,,
encoding,attention,13.830740957986563,16.84785529098008,25,5,Object_Sea_Solid_Large,-2,-2,1,1.2487993750255555,,,,,,,,
encoding,fixation,16.848019499971997,18.10310920799384,26,5,Animal_Land_Solid_Small,8,,,,,,,,,,,
encoding,image,18.10323591597262,19.11428470799001,26,5,Animal_Land_Solid_Small,8,,,,,,,,,,,
encoding,value,19.11446329098544,25.12617783297901,26,5,Animal_Land_Solid_Small,8,,,,,,,,,,,
encoding,attention,25.126291415974265,28.143146957998397,26,5,Animal_Land_Solid_Small,8,+8,1,0.8673648330150172,,,,,,,,
encoding,fixation,28.14330974998302,29.39846045797458,27,5,Object_Sea_Pattern_Large,8,,,,,,,,,,,
encoding,image,29.398565207986394,30.409773415973177,27,5,Object_Sea_Pattern_Large,8,,,,,,,,,,,
encoding,value,30.40990495798178,36.42167212499771,27,5,Object_Sea_Pattern_Large,8,,,,,,,,,,,
encoding,attention,36.42178508298821,39.43901537498459,27,5,Object_Sea_Pattern_Large,8,+8,1,1.0181079999892972,,,,,,,,
encoding,fixation,39.4391622080002,40.69422308297362,28,5,Animal_Sea_Solid_Small,-3,,,,,,,,,,,
encoding,image,40.69432758298353,41.705502500000875,28,5,Animal_Sea_Solid_Small,-3,,,,,,,,,,,
encoding,value,41.70562404097291,47.7172124159988,28,5,Animal_Sea_Solid_Small,-3,,,,,,,,,,,
encoding,attention,47.7173197909724,50.73094604097423,28,5,Animal_Sea_Solid_Small,-3,None,None,None,,,,,,,,
encoding,fixation,50.73106683298829,51.23599199997261,29,5,Object_Land_Pattern_Small,-8,,,,,,,,,,,
encoding,image,51.236094249994494,52.247855040972354,29,5,Object_Land_Pattern_Small,-8,,,,,,,,,,,
encoding,value,52.24796412498108,58.25925570799154,29,5,Object_Land_Pattern_Small,-8,,,,,,,,,,,
encoding,attention,58.259365874982905,61.278233165998245,29,5,Object_Land_Pattern_Small,-8,-8,1,1.2356328750029206,,,,,,,,
encoding,fixation,61.27846412497456,62.03359699997236,30,5,Animal_Land_Pattern_Large,-2,,,,,,,,,,,
encoding,image,62.03370862497832,63.04458170797443,30,5,Animal_Land_Pattern_Large,-2,,,,,,,,,,,
encoding,value,63.044706457993016,69.05590641597519,30,5,Animal_Land_Pattern_Large,-2,,,,,,,,,,,
encoding,attention,69.0560237079917,72.07258304097923,30,5,Animal_Land_Pattern_Large,-2,-2,1,1.5374564170197118,,,,,,,,
n-back,,,,121,5,,,,1,None,C,False,None,,,,,
n-back,,,,122,5,,,,1,None,X,False,None,,,,,
n-back,,,,123,5,,,,1,0.7126419999985956,C,True,1,,,,,
n-back,,,,124,5,,,,1,None,B,False,None,,,,,
n-back,,,,125,5,,,,1,None,V,False,None,,,,,
n-back,,,,126,5,,,,1,None,X,False,None,,,,,
n-back,,,,127,5,,,,0,1.273984458995983,B,False,1,,,,,
n-back,,,,128,5,,,,1,None,N,False,None,,,,,
n-back,,,,129,5,,,,1,0.7676620840211399,B,True,1,,,,,
n-back,,,,130,5,,,,1,None,C,False,None,,,,,
n-back,,,,131,5,,,,1,None,C,False,None,,,,,
n-back,,,,132,5,,,,1,0.45845108400681056,C,True,1,,,,,
n-back,,,,133,5,,,,1,None,V,False,None,,,,,
n-back,,,,134,5,,,,1,None,X,False,None,,,,,
n-back,,,,135,5,,,,1,None,X,False,None,,,,,
n-back,,,,136,5,,,,1,None,Z,False,None,,,,,
n-back,,,,137,5,,,,1,None,B,False,None,,,,,
n-back,,,,138,5,,,,1,None,X,False,None,,,,,
n-back,,,,139,5,,,,1,None,N,False,None,,,,,
n-back,,,,140,5,,,,1,0.6120614160026889,X,True,1,,,,,
n-back,,,,141,5,,,,1,0.779999249993125,N,True,1,,,,,
n-back,,,,142,5,,,,1,None,B,False,None,,,,,
n-back,,,,143,5,,,,1,None,Z,False,None,,,,,
n-back,,,,144,5,,,,1,0.5332969590090215,B,True,1,,,,,
n-back,,,,145,5,,,,1,0.6757131670019589,Z,True,1,,,,,
n-back,,,,146,5,,,,1,None,X,False,None,,,,,
n-back,,,,147,5,,,,0,None,Z,True,None,,,,,
n-back,,,,148,5,,,,1,0.8943428329948802,X,True,1,,,,,
n-back,,,,149,5,,,,1,0.4435260420141276,Z,True,1,,,,,
n-back,,,,150,5,,,,1,None,B,False,None,,,,,
choice,fixation,152.60586483299267,153.6093873749778,33,5,,,,,,,,,Object,,,,
choice,option,153.6192255409842,154.6451659159793,33,5,,,,,,,,,Object,,,,
choice,choice,154.64528816597885,199.19453587499447,33,5,,,2,1,43.53842737499508,,,,Object,,,,
choice,fixation,199.19466429098975,200.6996006249974,34,5,,,,,,,,,Sea,,,,
choice,option,200.70799999998417,201.73504112497903,34,5,,,,,,,,,Sea,,,,
choice,choice,201.73514958299347,210.64436891599325,34,5,,,1,1,7.8989504580094945,,,,Sea,,,,
choice,fixation,210.64449466599035,212.14952883298974,35,5,,,,,,,,,Large,,,,
choice,option,212.15831916598836,213.18412212497788,35,5,,,,,,,,,Large,,,,
choice,choice,213.18424062497797,255.78993320799782,35,5,,,1,1,41.59524908399908,,,,Large,,,,
choice,fixation,255.7900712909759,257.29755108300014,36,5,,,,,,,,,Small,,,,
choice,option,257.3065432079893,258.33237895797356,36,5,,,,,,,,,Small,,,,
choice,choice,258.33248004099005,264.35536387498723,36,5,,,2,1,5.013592833012808,,,,Small,,,,
choice,fixation,264.3555277499836,265.8605967499898,37,5,,,,,,,,,Animal,,,,
choice,option,265.86976837497787,266.89737283298746,37,5,,,,,,,,,Animal,,,,
choice,choice,266.8974994579912,284.82053799999994,37,5,,,1,1,16.912446917005582,,,,Animal,,,,
choice,fixation,284.8206697499845,286.0757350829954,38,5,,,,,,,,,Land,,,,
choice,option,286.0843165409751,287.1105902909767,38,5,,,,,,,,,Land,,,,
choice,choice,287.1106990829867,308.71515774997533,38,5,,,2,1,20.592008166015148,,,,Land,,,,
choice,fixation,308.7152897499909,309.22023729098146,39,5,,,,,,,,,Pattern,,,,
choice,option,309.2300310829887,310.25623362499755,39,5,,,,,,,,,Pattern,,,,
choice,choice,310.2563378329796,314.0351342079812,39,5,,,2,1,2.768592250009533,,,,Pattern,,,,
choice,fixation,314.0353691659984,315.2902845829958,40,5,,,,,,,,,Solid,,,,
choice,option,315.3001129999757,316.3269782079733,40,5,,,,,,,,,Solid,,,,
choice,choice,316.3270918329945,317.9952399159956,40,5,,,1,1,0.658747042005416,,,,Solid,,,,
memory,free_recall,336.98282491599093,361.5642212909879,24,5,,,,,,,,,,,,,
memory,value_recall,379.43115829097223,383.8540659999999,25,5,Animal_Sea_Solid_Small,,,,4.418786042020656,,,,,-3,,,
memory,value_recall,385.1513804579736,388.1743655409955,26,5,Object_Sea_Pattern_Large,,,,3.018660750007257,,,,,8,,,
memory,value_recall,389.2225924579834,395.86979399999836,27,5,Object_Sea_Solid_Large,,,,6.643829209002433,,,,,-2,,,
memory,value_recall,397.9162492909818,405.29213070799597,28,5,Animal_Land_Pattern_Large,,,,7.371548208000604,,,,,-2,,,
memory,value_recall,407.0875636249839,421.16505849998794,29,5,Animal_Land_Solid_Small,,,,14.073084083996946,,,,,8,,,
memory,value_recall,422.2120062909962,431.29635058299755,30,5,Object_Land_Pattern_Small,,,,9.081737208995037,,,,,-8,,,
memory,spatial_recall,435.10451266597374,439.19193749999977,30,5,Animal_Land_Solid_Small,,,1,4.083099082985427,,,,,,"[-329, 190]","[-329, 190]",
memory,spatial_recall,441.25961362497765,444.90790649998235,30,5,Object_Sea_Solid_Large,,,1,3.6441238750121556,,,,,,"[-329, -190]","[-329, -190]",
memory,spatial_recall,446.7220531659841,451.48665670797345,30,5,Object_Sea_Pattern_Large,,,1,4.760256249981467,,,,,,"[0, 380]","[0, 380]",
memory,spatial_recall,453.54461729098693,456.6540294579754,30,5,Animal_Land_Pattern_Large,,,1,3.1053357909840997,,,,,,"[329, 189]","[329, 189]",
memory,spatial_recall,457.7084828329971,460.6427447499882,30,5,Animal_Sea_Solid_Small,,,1,2.9310585409984924,,,,,,"[0, -380]","[0, -380]",
memory,spatial_recall,462.4544059159816,465.18738020799356,30,5,Object_Land_Pattern_Small,,,1,2.728667540999595,,,,,,"[329, -190]","[329, -190]",
encoding,fixation,4.698569125001086,5.204279708996182,31,6,Animal_Land_Solid_Large,1,,,,,,,,,,,
encoding,image,5.204379542003153,6.216036500001792,31,6,Animal_Land_Solid_Large,1,,,,,,,,,,,
encoding,value,6.216150499996729,12.231689792010002,31,6,Animal_Land_Solid_Large,1,,,,,,,,,,,
encoding,attention,12.231860708998283,15.24988437499269,31,6,Animal_Land_Solid_Large,1,+1,1,0.6920536670077126,,,,,,,,
encoding,fixation,15.250035292003304,15.755343291995814,32,6,Object_Land_Pattern_Small,1,,,,,,,,,,,
encoding,image,15.755456167011289,16.765864999993937,32,6,Object_Land_Pattern_Small,1,,,,,,,,,,,
encoding,value,16.765973041998222,22.777712042006897,32,6,Object_Land_Pattern_Small,1,,,,,,,,,,,
encoding,attention,22.777827417012304,25.796865500014974,32,6,Object_Land_Pattern_Small,1,+1,1,1.154321375011932,,,,,,,,
encoding,fixation,25.797127541998634,27.052532208996126,33,6,Object_Sea_Pattern_Small,1,,,,,,,,,,,
encoding,image,27.0526339590142,28.064652625005692,33,6,Object_Sea_Pattern_Small,1,,,,,,,,,,,
encoding,value,28.064770209020935,34.07633733400144,33,6,Object_Sea_Pattern_Small,1,,,,,,,,,,,
encoding,attention,34.0764939590008,37.093865875009215,33,6,Object_Sea_Pattern_Small,1,+1,1,1.863212584023131,,,,,,,,
encoding,fixation,37.094008709012996,37.8490294170042,34,6,Animal_Sea_Pattern_Small,-6,,,,,,,,,,,
encoding,image,37.84915158399963,38.860743917000946,34,6,Animal_Sea_Pattern_Small,-6,,,,,,,,,,,
encoding,value,38.860858792002546,44.87250220900751,34,6,Animal_Sea_Pattern_Small,-6,,,,,,,,,,,
encoding,attention,44.872638917004224,47.88482900001691,34,6,Animal_Sea_Pattern_Small,-6,None,None,None,,,,,,,,
encoding,fixation,47.884958959009964,48.390190125006484,35,6,Animal_Sea_Solid_Large,4,,,,,,,,,,,
encoding,image,48.39035695901839,49.40083666701685,35,6,Animal_Sea_Solid_Large,4,,,,,,,,,,,
encoding,value,49.40104225001414,55.415513084008126,35,6,Animal_Sea_Solid_Large,4,,,,,,,,,,,
encoding,attention,55.415633041993715,58.43151712502004,35,6,Animal_Sea_Solid_Large,4,+4,1,2.9490762499917764,,,,,,,,
encoding,fixation,58.43164579200675,58.93493662500987,36,6,Object_Land_Solid_Large,-6,,,,,,,,,,,
encoding,image,58.93504004200804,59.943485374999,36,6,Object_Land_Solid_Large,-6,,,,,,,,,,,
encoding,value,59.943650708999485,65.9538604170084,36,6,Object_Land_Solid_Large,-6,,,,,,,,,,,
encoding,attention,65.95396479201736,68.97012708400143,36,6,Object_Land_Solid_Large,-6,-6,1,1.4607017080124933,,,,,,,,
n-back,,,,151,6,,,,1,None,Z,False,None,,,,,
n-back,,,,152,6,,,,0,None,C,True,None,,,,,
n-back,,,,153,6,,,,1,None,N,False,None,,,,,
n-back,,,,154,6,,,,1,None,Z,False,None,,,,,
n-back,,,,155,6,,,,1,None,Z,False,None,,,,,
n-back,,,,156,6,,,,1,None,V,False,None,,,,,
n-back,,,,157,6,,,,1,0.7033938749809749,Z,True,1,,,,,
n-back,,,,158,6,,,,1,0.5324015410151333,V,True,1,,,,,
n-back,,,,159,6,,,,1,None,C,False,None,,,,,
n-back,,,,160,6,,,,1,0.7476839589944575,V,True,1,,,,,
n-back,,,,161,6,,,,1,None,X,False,None,,,,,
n-back,,,,162,6,,,,1,None,N,False,None,,,,,
n-back,,,,163,6,,,,0,1.019350457994733,Z,False,1,,,,,
n-back,,,,164,6,,,,1,None,V,False,None,,,,,
n-back,,,,165,6,,,,1,None,X,False,None,,,,,
n-back,,,,166,6,,,,1,None,Z,False,None,,,,,
n-back,,,,167,6,,,,1,None,Z,False,None,,,,,
n-back,,,,168,6,,,,1,None,V,False,None,,,,,
n-back,,,,169,6,,,,1,None,N,False,None,,,,,
n-back,,,,170,6,,,,1,None,B,False,None,,,,,
n-back,,,,171,6,,,,1,None,V,False,None,,,,,
n-back,,,,172,6,,,,1,None,X,False,None,,,,,
n-back,,,,173,6,,,,1,1.1747454580035992,V,True,1,,,,,
n-back,,,,174,6,,,,1,0.9088443749933504,X,True,1,,,,,
n-back,,,,175,6,,,,1,0.8293986670032609,V,True,1,,,,,
n-back,,,,176,6,,,,1,0.4746344589802902,X,True,1,,,,,
n-back,,,,177,6,,,,1,None,B,False,None,,,,,
n-back,,,,178,6,,,,1,None,B,False,None,,,,,
n-back,,,,179,6,,,,1,0.6660422499990091,B,True,1,,,,,
n-back,,,,180,6,,,,1,0.5799214580038097,B,True,1,,,,,
choice,fixation,144.0877592920151,144.84239237499423,41,6,,,,,,,,,Small,,,,
choice,option,144.85075095901266,145.87580416700803,41,6,,,,,,,,,Small,,,,
choice,choice,145.8759531250107,169.0722345840186,41,6,,,1,0,22.18577425001422,,,,Small,,,,
choice,fixation,169.0723507090006,170.07718166700215,42,6,,,,,,,,,Sea,,,,
choice,option,170.08567637501983,171.11134762500296,42,6,,,,,,,,,Sea,,,,
choice,choice,171.11147429200355,179.4545958340168,42,6,,,1,0,7.3329157500120346,,,,Sea,,,,
choice,fixation,179.45471958399867,179.95976612501545,43,6,,,,,,,,,Animal,,,,
choice,option,179.9693809169985,180.99725004201173,43,6,,,,,,,,,Animal,,,,
choice,choice,180.99734358399292,184.1427450000192,43,6,,,2,1,2.1358035000157543,,,,Animal,,,,
choice,fixation,184.14286412499496,185.64780375000555,44,6,,,,,,,,,Large,,,,
choice,option,185.65628712502075,186.6821789999958,44,6,,,,,,,,,Large,,,,
choice,choice,186.682287292002,196.3852780419984,44,6,,,2,1,8.692778291995637,,,,Large,,,,
choice,fixation,196.38541600000462,196.8904517920164,45,6,,,,,,,,,Land,,,,
choice,option,196.89924241701374,197.92537833401002,45,6,,,,,,,,,Land,,,,
choice,choice,197.9255577920121,200.77404800002114,45,6,,,2,1,1.837958541000262,,,,Land,,,,
choice,fixation,200.77419341701898,202.28162858399446,46,6,,,,,,,,,Pattern,,,,
choice,option,202.2912908750004,203.3171953750134,46,6,,,,,,,,,Pattern,,,,
choice,choice,203.31734158401377,207.46120250000968,46,6,,,2,1,3.1339952499838546,,,,Pattern,,,,
choice,fixation,207.46134166701813,208.2163215840119,47,6,,,,,,,,,Object,,,,
choice,option,208.22575216699624,209.25146975001553,47,6,,,,,,,,,Object,,,,
choice,choice,209.25157737502013,212.05244212501566,47,6,,,1,0,1.791303500009235,,,,Object,,,,
choice,fixation,212.05256208401988,213.3075092920044,48,6,,,,,,,,,Solid,,,,
choice,option,213.31683637501555,214.34258641701308,48,6,,,,,,,,,Solid,,,,
choice,choice,214.3426940840145,217.01850220901542,48,6,,,1,0,1.665146541025024,,,,Solid,,,,
memory,free_recall,230.38441025000066,273.2399313750211,30,6,,,,,,,,,,,,,
memory,value_recall,276.85803841700545,280.2732885419973,31,6,Animal_Land_Solid_Large,,,,3.4099260000220966,,,,,1,,,
memory,value_recall,281.3209962499968,288.8400969170034,32,6,Animal_Sea_Pattern_Small,,,,7.515743374999147,,,,,-6,,,
memory,value_recall,289.8876359999995,292.9191637500189,33,6,Object_Land_Pattern_Small,,,,3.0277589169854764,,,,,1,,,
memory,value_recall,293.965000917,299.7439955419977,34,6,Object_Land_Solid_Large,,,,5.776411833008751,,,,,-6,,,
memory,value_recall,300.7890080420184,307.457556792011,35,6,Object_Sea_Pattern_Small,,,,6.664857083000243,,,,,1,,,
memory,value_recall,309.5045833339973,320.4073266250198,36,6,Animal_Sea_Solid_Large,,,,10.898345499997959,,,,,4,,,
memory,spatial_recall,323.1500217920111,327.05430066701956,36,6,Animal_Sea_Solid_Large,,,1,3.9011009999958333,,,,,,"[-329, -190]","[-329, -190]",
memory,spatial_recall,328.1134275000077,332.1875034169934,36,6,Object_Sea_Pattern_Small,,,1,4.070252750010695,,,,,,"[329, 189]","[329, 189]",
memory,spatial_recall,333.9937424590171,337.1744980420044,36,6,Animal_Sea_Pattern_Small,,,1,3.1767498339759186,,,,,,"[0, 380]","[0, 380]",
memory,spatial_recall,338.48248458400485,340.40748954200535,36,6,Object_Land_Solid_Large,,,1,1.9211253329995088,,,,,,"[0, -380]","[0, -380]",
memory,spatial_recall,341.4695338750025,342.80265324999345,36,6,Object_Land_Pattern_Small,,,1,1.3303526249947026,,,,,,"[329, -190]","[329, -190]",
memory,spatial_recall,344.10522116700304,346.9421017090208,36,6,Animal_Land_Solid_Large,,,1,2.8328231670020614,,,,,,"[-329, 190]","[-329, 190]",
encoding,fixation,14.8960696659924,15.901956457993947,37,7,Object_Sea_Pattern_Small,8,,,,,,,,,,,
encoding,image,15.902050541015342,16.91318695800146,37,7,Object_Sea_Pattern_Small,8,,,,,,,,,,,
encoding,value,16.913312415999826,22.926816332997987,37,7,Object_Sea_Pattern_Small,8,,,,,,,,,,,
encoding,attention,22.926946749998024,25.94452662501135,37,7,Object_Sea_Pattern_Small,8,+8,1,0.8477069170039613,,,,,,,,
encoding,fixation,25.944668166019255,26.699842833011644,38,7,Object_Land_Pattern_Large,8,,,,,,,,,,,
encoding,image,26.69996312499279,27.712296500016237,38,7,Object_Land_Pattern_Large,8,,,,,,,,,,,
encoding,value,27.7124052500003,33.72468854099861,38,7,Object_Land_Pattern_Large,8,,,,,,,,,,,
encoding,attention,33.72482662499533,36.74512187499204,38,7,Object_Land_Pattern_Large,8,+8,1,0.956740624998929,,,,,,,,
encoding,fixation,36.74528191599529,38.000829291006085,39,7,Animal_Sea_Solid_Large,9,,,,,,,,,,,
encoding,image,38.00093058301718,39.0120380409935,39,7,Animal_Sea_Solid_Large,9,,,,,,,,,,,
encoding,value,39.012216500006616,45.02467879100004,39,7,Animal_Sea_Solid_Large,9,,,,,,,,,,,
encoding,attention,45.024862332997145,48.044757458003005,39,7,Animal_Sea_Solid_Large,9,+9,1,0.831052916997578,,,,,,,,
encoding,fixation,48.04490087501472,48.79961412501871,40,7,Object_Land_Solid_Small,-1,,,,,,,,,,,
encoding,image,48.799713165994035,49.81124437501421,40,7,Object_Land_Solid_Small,-1,,,,,,,,,,,
encoding,value,49.81135166599415,55.82310416601831,40,7,Object_Land_Solid_Small,-1,,,,,,,,,,,
encoding,attention,55.823222125007305,58.8400993749965,40,7,Object_Land_Solid_Small,-1,-1,1,1.8594717500091065,,,,,,,,
encoding,fixation,58.84025712500443,60.34543458299595,41,7,Animal_Land_Solid_Small,-3,,,,,,,,,,,
encoding,image,60.34554224999738,61.356532166013494,41,7,Animal_Land_Solid_Small,-3,,,,,,,,,,,
encoding,value,61.35665683299885,67.36819345800905,41,7,Animal_Land_Solid_Small,-3,,,,,,,,,,,
encoding,attention,67.36830254099914,70.38369020799291,41,7,Animal_Land_Solid_Small,-3,-3,1,2.8132171250181273,,,,,,,,
encoding,fixation,70.38382554100826,71.63798037500237,42,7,Animal_Sea_Pattern_Large,-9,,,,,,,,,,,
encoding,image,71.63810962499701,72.64820158301154,42,7,Animal_Sea_Pattern_Large,-9,,,,,,,,,,,
encoding,value,72.64831379099633,78.65892179100774,42,7,Animal_Sea_Pattern_Large,-9,,,,,,,,,,,
encoding,attention,78.6590355829976,81.67605841599288,42,7,Animal_Sea_Pattern_Large,-9,-9,1,1.903905584011227,,,,,,,,
n-back,,,,181,7,,,,1,None,X,False,None,,,,,
n-back,,,,182,7,,,,1,None,C,False,None,,,,,
n-back,,,,183,7,,,,1,0.5935987080156337,X,True,1,,,,,
n-back,,,,184,7,,,,1,None,N,False,None,,,,,
n-back,,,,185,7,,,,1,None,N,False,None,,,,,
n-back,,,,186,7,,,,1,None,V,False,None,,,,,
n-back,,,,187,7,,,,1,None,C,False,None,,,,,
n-back,,,,188,7,,,,0,None,V,True,None,,,,,
n-back,,,,189,7,,,,1,None,N,False,None,,,,,
n-back,,,,190,7,,,,1,None,B,False,None,,,,,
n-back,,,,191,7,,,,1,None,C,False,None,,,,,
n-back,,,,192,7,,,,1,0.631207333994098,B,True,1,,,,,
n-back,,,,193,7,,,,1,None,B,False,None,,,,,
n-back,,,,194,7,,,,0,None,B,True,None,,,,,
n-back,,,,195,7,,,,1,None,X,False,None,,,,,
n-back,,,,196,7,,,,1,0.6486399169953074,B,True,1,,,,,
n-back,,,,197,7,,,,1,0.7388632080110256,X,True,1,,,,,
n-back,,,,198,7,,,,1,None,N,False,None,,,,,
n-back,,,,199,7,,,,1,None,Z,False,None,,,,,
n-back,,,,200,7,,,,1,None,V,False,None,,,,,
n-back,,,,201,7,,,,1,None,V,False,None,,,,,
n-back,,,,202,7,,,,1,None,B,False,None,,,,,
n-back,,,,203,7,,,,1,0.6199253330123611,V,True,1,,,,,
n-back,,,,204,7,,,,1,0.5560172919940669,B,True,1,,,,,
n-back,,,,205,7,,,,1,None,N,False,None,,,,,
n-back,,,,206,7,,,,1,None,C,False,None,,,,,
n-back,,,,207,7,,,,1,None,Z,False,None,,,,,
n-back,,,,208,7,,,,1,None,X,False,None,,,,,
n-back,,,,209,7,,,,1,0.7797474160033744,Z,True,1,,,,,
n-back,,,,210,7,,,,1,0.728135832992848,X,True,1,,,,,
choice,fixation,157.35543162500835,158.60868733300595,49,7,,,,,,,,,Small,,,,
choice,option,158.6174462500203,159.6431237910001,49,7,,,,,,,,,Small,,,,
choice,choice,159.64324258299894,183.15893583299476,49,7,,,2,0,22.504791917017428,,,,Small,,,,
choice,fixation,183.15907779100235,183.91407112500747,50,7,,,,,,,,,Solid,,,,
choice,option,183.9235694160161,184.9493039160152,50,7,,,,,,,,,Solid,,,,
choice,choice,184.94944004100398,189.74209729101858,50,7,,,1,1,3.781021583999973,,,,Solid,,,,
choice,fixation,189.74222612500307,190.99711225001374,51,7,,,,,,,,,Land,,,,
choice,option,191.00573825000902,192.03294420801103,51,7,,,,,,,,,Land,,,,
choice,choice,192.03304137501982,196.60660600001574,51,7,,,1,1,3.561256457993295,,,,Land,,,,
choice,fixation,196.60672716601402,197.86155875000986,52,7,,,,,,,,,Animal,,,,
choice,option,197.87082358301268,198.898523166019,52,7,,,,,,,,,Animal,,,,
choice,choice,198.8986408750061,205.20416333299363,52,7,,,2,1,5.292233083979227,,,,Animal,,,,
choice,fixation,205.2042824579985,206.45917904100497,53,7,,,,,,,,,Object,,,,
choice,option,206.4685383750184,207.49474683299195,53,7,,,,,,,,,Object,,,,
choice,choice,207.49487279099412,210.58081279101316,53,7,,,1,1,2.0761094999907073,,,,Object,,,,
choice,fixation,210.58093266599462,211.58584641601192,54,7,,,,,,,,,Pattern,,,,
choice,option,211.5952978330024,212.62229687499348,54,7,,,,,,,,,Pattern,,,,
choice,choice,212.6224004579999,224.2633971250034,54,7,,,2,0,10.630936708010267,,,,Pattern,,,,
choice,fixation,224.26353254099376,225.76854345801985,55,7,,,,,,,,,Sea,,,,
choice,option,225.7770325000165,226.80358537501888,55,7,,,,,,,,,Sea,,,,
choice,choice,226.80369125001016,244.93433204101166,55,7,,,2,0,17.12008787499508,,,,Sea,,,,
choice,fixation,244.9344571249967,245.6902529160143,56,7,,,,,,,,,Large,,,,
choice,option,245.6990124580043,246.7250913750031,56,7,,,,,,,,,Large,,,,
choice,choice,246.72519195801578,249.11066779101384,56,7,,,1,1,1.3760332080128137,,,,Large,,,,
memory,free_recall,263.2550884580123,298.2950728330179,36,7,,,,,,,,,,,,,
memory,value_recall,303.80154566600686,309.7280215409992,37,7,Object_Land_Pattern_Large,,,,5.921434624993708,,,,,8,,,
memory,value_recall,311.27347029099474,313.7275742079946,38,7,Animal_Sea_Solid_Large,,,,2.4499699590087403,,,,,9,,,
memory,value_recall,315.522635500005,321.09403120802017,39,7,Object_Land_Solid_Small,,,,5.567236167000374,,,,,-1,,,
memory,value_recall,322.8909321250103,334.61534720801865,40,7,Animal_Land_Solid_Small,,,,11.720463457982987,,,,,-3,,,
memory,value_recall,336.1639099580061,338.6786776249937,41,7,Animal_Sea_Pattern_Large,,,,2.5103724579967093,,,,,-9,,,
memory,value_recall,339.9739422080165,343.39838825000334,42,7,Object_Sea_Pattern_Small,,,,3.420386416983092,,,,,8,,,
memory,spatial_recall,346.48466899999767,353.8481897909951,42,7,Object_Land_Solid_Small,,,1,7.358760167000582,,,,,,"[0, 380]","[0, 380]",
memory,spatial_recall,355.4185872079979,358.7949985830055,42,7,Object_Land_Pattern_Large,,,1,3.371761666989187,,,,,,"[0, -380]","[0, -380]",
memory,spatial_recall,360.85212833300466,371.859084583004,42,7,Object_Sea_Pattern_Small,,,0,11.003111958998488,,,,,,"[329, 189]","[329, -190]",
memory,spatial_recall,372.913280208013,375.39509729100973,42,7,Animal_Sea_Solid_Large,,,1,2.477769499993883,,,,,,"[-329, -190]","[-329, -190]",
memory,spatial_recall,376.4500611660187,378.6123440829979,42,7,Animal_Land_Solid_Small,,,1,2.1583507909963373,,,,,,"[-329, 190]","[-329, 190]",
memory,spatial_recall,380.16628641600255,382.2592432910169,42,7,Animal_Sea_Pattern_Large,,,0,2.0881092909839936,,,,,,"[329, -190]","[329, 189]",
