subject,phase,event,trial_number,game,option,choice,rt,roi_content,item_index,is_center,is_relevant,fix_start,fix_end,fix_duration_bounded
135,choice,choice,1,1.0,Sea,1.0,12.21559479201096,Object_Land_Solid_Small,0,0,0,10428902.0,10429124.0,222.0
135,choice,choice,1,1.0,Sea,1.0,12.21559479201096,fixation,-1,1,0,10429150.0,10429496.0,346.0
135,choice,choice,1,1.0,Sea,1.0,12.21559479201096,Object_Land_Solid_Small,0,0,0,10429733.0,10430662.0,929.0
135,choice,choice,1,1.0,Sea,1.0,12.21559479201096,fixation,-1,1,0,10430872.0,10431539.0,667.0
135,choice,choice,1,1.0,Sea,1.0,12.21559479201096,Animal_Land_Solid_Small,1,0,0,10431560.0,10432008.0,448.0
135,choice,choice,1,1.0,Sea,1.0,12.21559479201096,fixation,-1,1,0,10432030.0,10432821.0,791.0
135,choice,choice,1,1.0,Sea,1.0,12.21559479201096,Object_Land_Solid_Small,0,0,0,10433313.0,10433465.0,152.0
135,choice,choice,1,1.0,Sea,1.0,12.21559479201096,fixation,-1,1,0,10433485.0,10434886.0,1401.0
135,choice,choice,1,1.0,Sea,1.0,12.21559479201096,Object_Sea_Pattern_Small,2,0,1,10435044.0,10435247.0,203.0
135,choice,choice,1,1.0,Sea,1.0,12.21559479201096,Object_Land_Solid_Small,0,0,0,10435271.0,10435601.0,330.0
135,choice,choice,1,1.0,Sea,1.0,12.21559479201096,Animal_Land_Solid_Small,1,0,0,10435627.0,10437508.0,1881.0
135,choice,choice,1,1.0,Sea,1.0,12.21559479201096,Object_Land_Solid_Small,0,0,0,10438042.0,10438988.0,946.0
135,choice,choice,1,1.0,Sea,1.0,12.21559479201096,Animal_Sea_Solid_Large,3,0,1,10439026.0,10439608.0,582.0
135,choice,choice,2,1.0,Pattern,1.0,4.652762833982706,fixation,-1,1,0,10442625.0,10442812.0,187.0
135,choice,choice,2,1.0,Pattern,1.0,4.652762833982706,Object_Land_Pattern_Large,4,0,1,10443905.0,10444073.0,168.0
135,choice,choice,2,1.0,Pattern,1.0,4.652762833982706,fixation,-1,1,0,10444093.0,10445111.0,1018.0
135,choice,choice,2,1.0,Pattern,1.0,4.652762833982706,Object_Land_Pattern_Large,4,0,1,10445367.0,10445730.0,363.0
135,choice,choice,2,1.0,Pattern,1.0,4.652762833982706,fixation,-1,1,0,10445786.0,10446523.0,737.0
135,choice,choice,2,1.0,Pattern,1.0,4.652762833982706,Animal_Sea_Solid_Large,3,0,0,10446540.0,10446994.0,454.0
135,choice,choice,3,1.0,Large,1.0,12.59437504201196,Object_Land_Solid_Small,0,0,0,10451069.0,10451473.0,404.0
135,choice,choice,3,1.0,Large,1.0,12.59437504201196,Animal_Land_Solid_Small,1,0,0,10451794.0,10452460.0,666.0
135,choice,choice,3,1.0,Large,1.0,12.59437504201196,Object_Land_Solid_Small,0,0,0,10452714.0,10453460.0,746.0
135,choice,choice,3,1.0,Large,1.0,12.59437504201196,fixation,-1,1,0,10453481.0,10453956.0,475.0
135,choice,choice,3,1.0,Large,1.0,12.59437504201196,Object_Land_Solid_Small,0,0,0,10454160.0,10454463.0,303.0
135,choice,choice,3,1.0,Large,1.0,12.59437504201196,Animal_Land_Solid_Small,1,0,0,10454501.0,10455635.0,1134.0
135,choice,choice,3,1.0,Large,1.0,12.59437504201196,Object_Land_Pattern_Large,4,0,1,10456198.0,10456438.0,240.0
135,choice,choice,3,1.0,Large,1.0,12.59437504201196,Animal_Sea_Solid_Large,3,0,1,10456461.0,10457287.0,826.0
135,choice,choice,3,1.0,Large,1.0,12.59437504201196,Animal_Sea_Pattern_Large,5,0,1,10457500.0,10457712.0,212.0
135,choice,choice,3,1.0,Large,1.0,12.59437504201196,fixation,-1,1,0,10457735.0,10458802.0,1067.0
135,choice,choice,3,1.0,Large,1.0,12.59437504201196,Animal_Sea_Pattern_Large,5,0,1,10459922.0,10460361.0,439.0
135,choice,choice,3,1.0,Large,1.0,12.59437504201196,Object_Land_Pattern_Large,4,0,1,10461239.0,10461613.0,374.0
135,choice,choice,3,1.0,Large,1.0,12.59437504201196,fixation,-1,1,0,10461639.0,10462472.0,833.0
135,choice,choice,3,1.0,Large,1.0,12.59437504201196,Object_Land_Pattern_Large,4,0,1,10462734.0,10462834.0,100.0
135,choice,choice,3,1.0,Large,1.0,12.59437504201196,fixation,-1,1,0,10462860.0,10463141.0,281.0
135,choice,choice,4,1.0,Solid,2.0,12.93897712501348,Animal_Land_Solid_Small,1,0,1,10468443.0,10468604.0,161.0
135,choice,choice,4,1.0,Solid,2.0,12.93897712501348,Object_Land_Solid_Small,0,0,1,10469952.0,10470145.0,193.0
135,choice,choice,4,1.0,Solid,2.0,12.93897712501348,fixation,-1,1,0,10471282.0,10471496.0,214.0
135,choice,choice,4,1.0,Solid,2.0,12.93897712501348,Animal_Sea_Solid_Large,3,0,1,10471518.0,10471715.0,197.0
135,choice,choice,4,1.0,Solid,2.0,12.93897712501348,Animal_Land_Solid_Small,1,0,1,10472114.0,10472408.0,294.0
135,choice,choice,4,1.0,Solid,2.0,12.93897712501348,fixation,-1,1,0,10472657.0,10473196.0,539.0
135,choice,choice,4,1.0,Solid,2.0,12.93897712501348,Object_Land_Solid_Small,0,0,1,10473383.0,10473811.0,428.0
135,choice,choice,4,1.0,Solid,2.0,12.93897712501348,Animal_Land_Solid_Small,1,0,1,10473846.0,10474763.0,917.0
135,choice,choice,4,1.0,Solid,2.0,12.93897712501348,Object_Land_Solid_Small,0,0,1,10474800.0,10475249.0,449.0
135,choice,choice,4,1.0,Solid,2.0,12.93897712501348,Animal_Sea_Solid_Large,3,0,1,10475930.0,10476137.0,207.0
135,choice,choice,4,1.0,Solid,2.0,12.93897712501348,fixation,-1,1,0,10476149.0,10476611.0,462.0
135,choice,choice,4,1.0,Solid,2.0,12.93897712501348,Animal_Land_Solid_Small,1,0,1,10476756.0,10476909.0,153.0
135,choice,choice,4,1.0,Solid,2.0,12.93897712501348,fixation,-1,1,0,10476931.0,10477305.0,374.0
135,choice,choice,4,1.0,Solid,2.0,12.93897712501348,Animal_Land_Solid_Small,1,0,1,10477846.0,10478107.0,261.0
135,choice,choice,4,1.0,Solid,2.0,12.93897712501348,fixation,-1,1,0,10478130.0,10478883.0,753.0
135,choice,choice,5,1.0,Small,2.0,15.05699845799245,fixation,-1,1,0,10482280.0,10486768.0,4488.0
135,choice,choice,5,1.0,Small,2.0,15.05699845799245,Object_Land_Solid_Small,0,0,1,10487333.0,10487376.0,43.0
135,choice,choice,5,1.0,Small,2.0,15.05699845799245,Animal_Land_Solid_Small,1,0,1,10487666.0,10487727.0,61.0
135,choice,choice,5,1.0,Small,2.0,15.05699845799245,Animal_Sea_Solid_Large,3,0,0,10487740.0,10488009.0,269.0
135,choice,choice,5,1.0,Small,2.0,15.05699845799245,fixation,-1,1,0,10488034.0,10488162.0,128.0
135,choice,choice,5,1.0,Small,2.0,15.05699845799245,Animal_Land_Solid_Small,1,0,1,10488423.0,10488614.0,191.0
135,choice,choice,5,1.0,Small,2.0,15.05699845799245,fixation,-1,1,0,10488630.0,10488974.0,344.0
135,choice,choice,5,1.0,Small,2.0,15.05699845799245,Animal_Sea_Solid_Large,3,0,0,10489346.0,10489568.0,222.0
135,choice,choice,5,1.0,Small,2.0,15.05699845799245,fixation,-1,1,0,10489586.0,10490109.0,523.0
135,choice,choice,5,1.0,Small,2.0,15.05699845799245,Object_Land_Solid_Small,0,0,1,10490360.0,10490415.0,55.0
135,choice,choice,5,1.0,Small,2.0,15.05699845799245,Animal_Sea_Solid_Large,3,0,0,10490680.0,10490974.0,294.0
135,choice,choice,5,1.0,Small,2.0,15.05699845799245,Animal_Land_Solid_Small,1,0,1,10491303.0,10491955.0,652.0
135,choice,choice,5,1.0,Small,2.0,15.05699845799245,Object_Land_Solid_Small,0,0,1,10492104.0,10492402.0,298.0
135,choice,choice,5,1.0,Small,2.0,15.05699845799245,fixation,-1,1,0,10492445.0,10492816.0,371.0
135,choice,choice,5,1.0,Small,2.0,15.05699845799245,Animal_Land_Solid_Small,1,0,1,10493031.0,10493197.0,166.0
135,choice,choice,5,1.0,Small,2.0,15.05699845799245,fixation,-1,1,0,10493213.0,10494292.0,1079.0
135,choice,choice,5,1.0,Small,2.0,15.05699845799245,Animal_Land_Solid_Small,1,0,1,10494307.0,10494442.0,135.0
135,choice,choice,5,1.0,Small,2.0,15.05699845799245,Object_Land_Solid_Small,0,0,1,10494677.0,10494781.0,104.0
135,choice,choice,5,1.0,Small,2.0,15.05699845799245,fixation,-1,1,0,10494809.0,10495116.0,307.0
135,choice,choice,5,1.0,Small,2.0,15.05699845799245,Animal_Land_Solid_Small,1,0,1,10495149.0,10495735.0,586.0
135,choice,choice,5,1.0,Small,2.0,15.05699845799245,fixation,-1,1,0,10495766.0,10497239.0,1473.0
135,choice,choice,6,1.0,Land,1.0,9.69387554199784,fixation,-1,1,0,10501102.0,10502056.0,954.0
135,choice,choice,6,1.0,Land,1.0,9.69387554199784,Animal_Land_Solid_Small,1,0,1,10502065.0,10502504.0,439.0
135,choice,choice,6,1.0,Land,1.0,9.69387554199784,Object_Land_Solid_Small,0,0,1,10502659.0,10503264.0,605.0
135,choice,choice,6,1.0,Land,1.0,9.69387554199784,fixation,-1,1,0,10503302.0,10504077.0,775.0
135,choice,choice,6,1.0,Land,1.0,9.69387554199784,Animal_Land_Solid_Small,1,0,1,10504097.0,10505400.0,1303.0
135,choice,choice,6,1.0,Land,1.0,9.69387554199784,fixation,-1,1,0,10505680.0,10506116.0,436.0
135,choice,choice,6,1.0,Land,1.0,9.69387554199784,Animal_Sea_Solid_Large,3,0,0,10506151.0,10506942.0,791.0
135,choice,choice,6,1.0,Land,1.0,9.69387554199784,Object_Land_Pattern_Large,4,0,1,10507544.0,10508010.0,466.0
135,choice,choice,6,1.0,Land,1.0,9.69387554199784,Animal_Sea_Solid_Large,3,0,0,10509102.0,10509356.0,254.0
135,choice,choice,6,1.0,Land,1.0,9.69387554199784,fixation,-1,1,0,10509371.0,10509742.0,371.0
135,choice,choice,7,1.0,Animal,2.0,2.78623445800622,fixation,-1,1,0,10513385.0,10515325.0,1940.0
135,choice,choice,8,1.0,Object,1.0,9.059786708996398,fixation,-1,1,0,10519270.0,10521976.0,2706.0
135,choice,choice,8,1.0,Object,1.0,9.059786708996398,Animal_Land_Solid_Small,1,0,0,10522427.0,10522667.0,240.0
135,choice,choice,8,1.0,Object,1.0,9.059786708996398,fixation,-1,1,0,10522679.0,10523056.0,377.0
135,choice,choice,8,1.0,Object,1.0,9.059786708996398,Animal_Land_Solid_Small,1,0,0,10523326.0,10523479.0,153.0
135,choice,choice,8,1.0,Object,1.0,9.059786708996398,fixation,-1,1,0,10523491.0,10523811.0,320.0
135,choice,choice,8,1.0,Object,1.0,9.059786708996398,Animal_Land_Solid_Small,1,0,0,10524135.0,10524408.0,273.0
135,choice,choice,8,1.0,Object,1.0,9.059786708996398,fixation,-1,1,0,10525050.0,10525306.0,256.0
135,choice,choice,8,1.0,Object,1.0,9.059786708996398,Animal_Sea_Solid_Large,3,0,0,10525574.0,10525776.0,202.0
135,choice,choice,8,1.0,Object,1.0,9.059786708996398,fixation,-1,1,0,10525788.0,10526667.0,879.0
135,choice,choice,8,1.0,Object,1.0,9.059786708996398,Object_Land_Solid_Small,0,0,1,10526686.0,10527079.0,393.0
135,choice,choice,8,1.0,Object,1.0,9.059786708996398,fixation,-1,1,0,10527101.0,10527445.0,344.0
135,choice,choice,9,2.0,Pattern,2.0,11.916586666979128,fixation,-1,1,0,11145529.0,11146591.0,1062.0
135,choice,choice,9,2.0,Pattern,2.0,11.916586666979128,Animal_Land_Solid_Small,0,0,0,11146614.0,11147011.0,397.0
135,choice,choice,9,2.0,Pattern,2.0,11.916586666979128,Object_Sea_Solid_Large,1,0,0,11147350.0,11147469.0,119.0
135,choice,choice,9,2.0,Pattern,2.0,11.916586666979128,Animal_Land_Pattern_Large,2,0,1,11148508.0,11148785.0,277.0
135,choice,choice,9,2.0,Pattern,2.0,11.916586666979128,Animal_Land_Solid_Small,0,0,0,11148826.0,11149660.0,834.0
135,choice,choice,9,2.0,Pattern,2.0,11.916586666979128,Object_Sea_Pattern_Large,3,0,1,11149683.0,11150171.0,488.0
135,choice,choice,9,2.0,Pattern,2.0,11.916586666979128,fixation,-1,1,0,11150195.0,11151034.0,839.0
135,choice,choice,9,2.0,Pattern,2.0,11.916586666979128,Object_Sea_Pattern_Large,3,0,1,11151183.0,11151209.0,26.0
135,choice,choice,9,2.0,Pattern,2.0,11.916586666979128,fixation,-1,1,0,11151216.0,11151402.0,186.0
135,choice,choice,9,2.0,Pattern,2.0,11.916586666979128,Object_Sea_Solid_Large,1,0,0,11151719.0,11151924.0,205.0
135,choice,choice,9,2.0,Pattern,2.0,11.916586666979128,fixation,-1,1,0,11152075.0,11152224.0,149.0
135,choice,choice,9,2.0,Pattern,2.0,11.916586666979128,Object_Sea_Pattern_Large,3,0,1,11152389.0,11152842.0,453.0
135,choice,choice,9,2.0,Pattern,2.0,11.916586666979128,Animal_Land_Solid_Small,0,0,0,11152872.0,11153230.0,358.0
135,choice,choice,9,2.0,Pattern,2.0,11.916586666979128,Object_Sea_Pattern_Large,3,0,1,11153271.0,11153871.0,600.0
135,choice,choice,9,2.0,Pattern,2.0,11.916586666979128,fixation,-1,1,0,11153934.0,11154382.0,448.0
135,choice,choice,9,2.0,Pattern,2.0,11.916586666979128,Animal_Land_Solid_Small,0,0,0,11154529.0,11154883.0,354.0
135,choice,choice,9,2.0,Pattern,2.0,11.916586666979128,Object_Sea_Solid_Large,1,0,0,11155028.0,11156916.0,1888.0
135,choice,choice,10,2.0,Animal,2.0,4.947430333006196,Object_Sea_Solid_Large,1,0,0,11161357.0,11162112.0,755.0
135,choice,choice,10,2.0,Animal,2.0,4.947430333006196,fixation,-1,1,0,11163025.0,11163472.0,447.0
135,choice,choice,10,2.0,Animal,2.0,4.947430333006196,Object_Sea_Solid_Large,1,0,0,11163971.0,11164405.0,434.0
135,choice,choice,10,2.0,Animal,2.0,4.947430333006196,fixation,-1,1,0,11164457.0,11165191.0,734.0
135,choice,choice,11,2.0,Sea,1.0,8.34819275001064,Object_Sea_Solid_Large,1,0,1,11169367.0,11169385.0,18.0
135,choice,choice,11,2.0,Sea,1.0,8.34819275001064,Animal_Sea_Solid_Small,4,0,1,11169717.0,11169800.0,83.0
135,choice,choice,11,2.0,Sea,1.0,8.34819275001064,fixation,-1,1,0,11169970.0,11170376.0,406.0
135,choice,choice,11,2.0,Sea,1.0,8.34819275001064,Animal_Land_Pattern_Large,2,0,0,11171065.0,11171228.0,163.0
135,choice,choice,11,2.0,Sea,1.0,8.34819275001064,fixation,-1,1,0,11171245.0,11171754.0,509.0
135,choice,choice,11,2.0,Sea,1.0,8.34819275001064,Animal_Land_Solid_Small,0,0,0,11171761.0,11172193.0,432.0
135,choice,choice,11,2.0,Sea,1.0,8.34819275001064,Object_Sea_Pattern_Large,3,0,1,11172217.0,11172810.0,593.0
135,choice,choice,11,2.0,Sea,1.0,8.34819275001064,Animal_Land_Solid_Small,0,0,0,11172834.0,11173011.0,177.0
135,choice,choice,11,2.0,Sea,1.0,8.34819275001064,Animal_Land_Pattern_Large,2,0,0,11173161.0,11173303.0,142.0
135,choice,choice,11,2.0,Sea,1.0,8.34819275001064,Object_Sea_Solid_Large,1,0,1,11173495.0,11173767.0,272.0
135,choice,choice,11,2.0,Sea,1.0,8.34819275001064,fixation,-1,1,0,11173774.0,11174478.0,704.0
135,choice,choice,11,2.0,Sea,1.0,8.34819275001064,Animal_Land_Solid_Small,0,0,0,11174664.0,11175232.0,568.0
135,choice,choice,11,2.0,Sea,1.0,8.34819275001064,Object_Sea_Pattern_Large,3,0,1,11175461.0,11175942.0,481.0
135,choice,choice,11,2.0,Sea,1.0,8.34819275001064,Animal_Land_Solid_Small,0,0,0,11175978.0,11176158.0,180.0
135,choice,choice,11,2.0,Sea,1.0,8.34819275001064,Object_Sea_Solid_Large,1,0,1,11176170.0,11176589.0,419.0
135,choice,choice,12,2.0,Small,2.0,14.531720124999993,Object_Sea_Solid_Large,1,0,0,11180592.0,11181055.0,463.0
135,choice,choice,12,2.0,Small,2.0,14.531720124999993,fixation,-1,1,0,11181255.0,11181814.0,559.0
135,choice,choice,12,2.0,Small,2.0,14.531720124999993,Animal_Land_Solid_Small,0,0,1,11181823.0,11182056.0,233.0
135,choice,choice,12,2.0,Small,2.0,14.531720124999993,fixation,-1,1,0,11182282.0,11182832.0,550.0
135,choice,choice,12,2.0,Small,2.0,14.531720124999993,Object_Sea_Solid_Large,1,0,0,11182866.0,11183713.0,847.0
135,choice,choice,12,2.0,Small,2.0,14.531720124999993,fixation,-1,1,0,11183909.0,11183932.0,23.0
135,choice,choice,12,2.0,Small,2.0,14.531720124999993,Animal_Sea_Solid_Small,4,0,1,11183944.0,11184154.0,210.0
135,choice,choice,12,2.0,Small,2.0,14.531720124999993,Object_Sea_Solid_Large,1,0,0,11184166.0,11185704.0,1538.0
135,choice,choice,12,2.0,Small,2.0,14.531720124999993,fixation,-1,1,0,11186118.0,11186429.0,311.0
135,choice,choice,12,2.0,Small,2.0,14.531720124999993,Animal_Sea_Solid_Small,4,0,1,11186740.0,11187052.0,312.0
135,choice,choice,12,2.0,Small,2.0,14.531720124999993,Object_Sea_Solid_Large,1,0,0,11187232.0,11187682.0,450.0
135,choice,choice,12,2.0,Small,2.0,14.531720124999993,Animal_Sea_Solid_Small,4,0,1,11187704.0,11188438.0,734.0
135,choice,choice,12,2.0,Small,2.0,14.531720124999993,Object_Sea_Solid_Large,1,0,0,11188462.0,11189553.0,1091.0
135,choice,choice,12,2.0,Small,2.0,14.531720124999993,Animal_Land_Solid_Small,0,0,1,11189626.0,11189956.0,330.0
135,choice,choice,12,2.0,Small,2.0,14.531720124999993,Object_Sea_Solid_Large,1,0,0,11189991.0,11192412.0,2421.0
135,choice,choice,12,2.0,Small,2.0,14.531720124999993,Animal_Land_Solid_Small,0,0,1,11193263.0,11193581.0,318.0
135,choice,choice,12,2.0,Small,2.0,14.531720124999993,fixation,-1,1,0,11193591.0,11193875.0,284.0
135,choice,choice,12,2.0,Small,2.0,14.531720124999993,Object_Sea_Solid_Large,1,0,0,11193917.0,11194422.0,505.0
135,choice,choice,13,2.0,Large,1.0,1.526725624979008,Animal_Land_Solid_Small,0,0,0,11198274.0,11198489.0,215.0
135,choice,choice,13,2.0,Large,1.0,1.526725624979008,fixation,-1,1,0,11198499.0,11199001.0,502.0
135,choice,choice,14,2.0,Land,2.0,11.238421167014168,Object_Sea_Solid_Large,1,0,0,11202904.0,11202967.0,63.0
135,choice,choice,14,2.0,Land,2.0,11.238421167014168,Animal_Sea_Solid_Small,4,0,0,11203151.0,11203348.0,197.0
135,choice,choice,14,2.0,Land,2.0,11.238421167014168,fixation,-1,1,0,11203361.0,11205338.0,1977.0
135,choice,choice,14,2.0,Land,2.0,11.238421167014168,Object_Sea_Pattern_Large,3,0,0,11205353.0,11206597.0,1244.0
135,choice,choice,14,2.0,Land,2.0,11.238421167014168,Animal_Land_Solid_Small,0,0,1,11206839.0,11207004.0,165.0
135,choice,choice,14,2.0,Land,2.0,11.238421167014168,fixation,-1,1,0,11207021.0,11207763.0,742.0
135,choice,choice,14,2.0,Land,2.0,11.238421167014168,Object_Sea_Solid_Large,1,0,0,11208208.0,11208354.0,146.0
135,choice,choice,14,2.0,Land,2.0,11.238421167014168,fixation,-1,1,0,11208367.0,11208685.0,318.0
135,choice,choice,14,2.0,Land,2.0,11.238421167014168,Object_Sea_Solid_Large,1,0,0,11208732.0,11209268.0,536.0
135,choice,choice,14,2.0,Land,2.0,11.238421167014168,fixation,-1,1,0,11209437.0,11209773.0,336.0
135,choice,choice,14,2.0,Land,2.0,11.238421167014168,Animal_Land_Solid_Small,0,0,1,11209943.0,11210093.0,150.0
135,choice,choice,14,2.0,Land,2.0,11.238421167014168,fixation,-1,1,0,11210108.0,11211545.0,1437.0
135,choice,choice,14,2.0,Land,2.0,11.238421167014168,Object_Sea_Solid_Large,1,0,0,11211573.0,11212287.0,714.0
135,choice,choice,14,2.0,Land,2.0,11.238421167014168,Animal_Land_Pattern_Large,2,0,1,11212376.0,11212691.0,315.0
135,choice,choice,14,2.0,Land,2.0,11.238421167014168,fixation,-1,1,0,11212717.0,11213029.0,312.0
135,choice,choice,15,2.0,Object,1.0,4.840171624993673,fixation,-1,1,0,11216417.0,11217004.0,587.0
135,choice,choice,15,2.0,Object,1.0,4.840171624993673,Object_Sea_Solid_Large,1,0,1,11217026.0,11217584.0,558.0
135,choice,choice,15,2.0,Object,1.0,4.840171624993673,fixation,-1,1,0,11217609.0,11219192.0,1583.0
135,choice,choice,15,2.0,Object,1.0,4.840171624993673,Object_Sea_Pattern_Large,3,0,1,11219217.0,11219444.0,227.0
135,choice,choice,15,2.0,Object,1.0,4.840171624993673,Object_Sea_Solid_Large,1,0,1,11219879.0,11220195.0,316.0
135,choice,choice,15,2.0,Object,1.0,4.840171624993673,fixation,-1,1,0,11220220.0,11221186.0,966.0
135,choice,choice,16,2.0,Solid,2.0,8.541461750020972,Object_Sea_Solid_Large,1,0,1,11224818.0,11225139.0,321.0
135,choice,choice,16,2.0,Solid,2.0,8.541461750020972,fixation,-1,1,0,11225597.0,11226699.0,1102.0
135,choice,choice,16,2.0,Solid,2.0,8.541461750020972,Object_Sea_Solid_Large,1,0,1,11226941.0,11227269.0,328.0
135,choice,choice,16,2.0,Solid,2.0,8.541461750020972,Animal_Sea_Solid_Small,4,0,1,11227303.0,11228172.0,869.0
135,choice,choice,16,2.0,Solid,2.0,8.541461750020972,Object_Sea_Solid_Large,1,0,1,11228179.0,11228608.0,429.0
135,choice,choice,16,2.0,Solid,2.0,8.541461750020972,fixation,-1,1,0,11228619.0,11229697.0,1078.0
135,choice,choice,16,2.0,Solid,2.0,8.541461750020972,Object_Sea_Solid_Large,1,0,1,11229710.0,11230618.0,908.0
135,choice,choice,16,2.0,Solid,2.0,8.541461750020972,fixation,-1,1,0,11231324.0,11232168.0,844.0
135,choice,choice,17,3.0,Pattern,1.0,21.887606875010533,fixation,-1,1,0,11709429.0,11710014.0,585.0
135,choice,choice,17,3.0,Pattern,1.0,21.887606875010533,Animal_Land_Solid_Large,0,0,0,11710234.0,11710295.0,61.0
135,choice,choice,17,3.0,Pattern,1.0,21.887606875010533,Animal_Sea_Pattern_Small,1,0,1,11710533.0,11711521.0,988.0
135,choice,choice,17,3.0,Pattern,1.0,21.887606875010533,Animal_Land_Solid_Large,0,0,0,11711991.0,11713569.0,1578.0
135,choice,choice,17,3.0,Pattern,1.0,21.887606875010533,Animal_Sea_Pattern_Small,1,0,1,11713860.0,11714155.0,295.0
135,choice,choice,17,3.0,Pattern,1.0,21.887606875010533,Animal_Sea_Solid_Large,2,0,0,11714716.0,11714857.0,141.0
135,choice,choice,17,3.0,Pattern,1.0,21.887606875010533,fixation,-1,1,0,11714896.0,11715726.0,830.0
135,choice,choice,17,3.0,Pattern,1.0,21.887606875010533,Animal_Sea_Pattern_Small,1,0,1,11716098.0,11717443.0,1345.0
135,choice,choice,17,3.0,Pattern,1.0,21.887606875010533,Object_Land_Solid_Large,3,0,0,11717513.0,11717871.0,358.0
135,choice,choice,17,3.0,Pattern,1.0,21.887606875010533,fixation,-1,1,0,11718412.0,11719003.0,591.0
135,choice,choice,17,3.0,Pattern,1.0,21.887606875010533,Animal_Sea_Pattern_Small,1,0,1,11719213.0,11719574.0,361.0
135,choice,choice,17,3.0,Pattern,1.0,21.887606875010533,Animal_Sea_Solid_Large,2,0,0,11719625.0,11720902.0,1277.0
135,choice,choice,17,3.0,Pattern,1.0,21.887606875010533,Object_Land_Solid_Large,3,0,0,11720959.0,11721589.0,630.0
135,choice,choice,17,3.0,Pattern,1.0,21.887606875010533,Animal_Sea_Solid_Large,2,0,0,11721627.0,11722805.0,1178.0
135,choice,choice,17,3.0,Pattern,1.0,21.887606875010533,fixation,-1,1,0,11722860.0,11723124.0,264.0
135,choice,choice,17,3.0,Pattern,1.0,21.887606875010533,Animal_Sea_Pattern_Small,1,0,1,11723308.0,11723332.0,24.0
135,choice,choice,17,3.0,Pattern,1.0,21.887606875010533,Animal_Land_Solid_Large,0,0,0,11723339.0,11723566.0,227.0
135,choice,choice,17,3.0,Pattern,1.0,21.887606875010533,Animal_Sea_Pattern_Small,1,0,1,11723777.0,11724978.0,1201.0
135,choice,choice,17,3.0,Pattern,1.0,21.887606875010533,Animal_Land_Solid_Large,0,0,0,11725460.0,11725663.0,203.0
135,choice,choice,17,3.0,Pattern,1.0,21.887606875010533,Animal_Sea_Pattern_Small,1,0,1,11725695.0,11726185.0,490.0
135,choice,choice,17,3.0,Pattern,1.0,21.887606875010533,Animal_Land_Solid_Large,0,0,0,11726683.0,11726841.0,158.0
135,choice,choice,17,3.0,Pattern,1.0,21.887606875010533,Animal_Sea_Solid_Large,2,0,0,11726865.0,11727755.0,890.0
135,choice,choice,17,3.0,Pattern,1.0,21.887606875010533,Animal_Land_Solid_Large,0,0,0,11727766.0,11728255.0,489.0
135,choice,choice,17,3.0,Pattern,1.0,21.887606875010533,Animal_Sea_Solid_Large,2,0,0,11728548.0,11729516.0,968.0
135,choice,choice,17,3.0,Pattern,1.0,21.887606875010533,Animal_Land_Solid_Large,0,0,0,11729557.0,11729775.0,218.0
135,choice,choice,17,3.0,Pattern,1.0,21.887606875010533,Object_Sea_Pattern_Small,4,0,1,11729849.0,11730074.0,225.0
135,choice,choice,17,3.0,Pattern,1.0,21.887606875010533,Animal_Sea_Solid_Large,2,0,0,11730281.0,11730998.0,717.0
135,choice,choice,18,3.0,Animal,1.0,8.341083333012648,fixation,-1,1,0,11734243.0,11734925.0,682.0
135,choice,choice,18,3.0,Animal,1.0,8.341083333012648,Animal_Sea_Solid_Large,2,0,1,11734957.0,11735213.0,256.0
135,choice,choice,18,3.0,Animal,1.0,8.341083333012648,fixation,-1,1,0,11735243.0,11736200.0,957.0
135,choice,choice,18,3.0,Animal,1.0,8.341083333012648,Animal_Land_Solid_Large,0,0,1,11736897.0,11737360.0,463.0
135,choice,choice,18,3.0,Animal,1.0,8.341083333012648,fixation,-1,1,0,11737374.0,11737810.0,436.0
135,choice,choice,18,3.0,Animal,1.0,8.341083333012648,Animal_Sea_Pattern_Small,1,0,1,11738060.0,11738273.0,213.0
135,choice,choice,18,3.0,Animal,1.0,8.341083333012648,Object_Land_Pattern_Small,5,0,0,11738971.0,11739305.0,334.0
135,choice,choice,18,3.0,Animal,1.0,8.341083333012648,Object_Sea_Pattern_Small,4,0,0,11739552.0,11740278.0,726.0
135,choice,choice,18,3.0,Animal,1.0,8.341083333012648,Object_Land_Pattern_Small,5,0,0,11740311.0,11740775.0,464.0
135,choice,choice,18,3.0,Animal,1.0,8.341083333012648,fixation,-1,1,0,11740821.0,11741902.0,1081.0
135,choice,choice,18,3.0,Animal,1.0,8.341083333012648,Animal_Sea_Pattern_Small,1,0,1,11742108.0,11742131.0,23.0
135,choice,choice,18,3.0,Animal,1.0,8.341083333012648,Animal_Land_Solid_Large,0,0,1,11742138.0,11742451.0,313.0
135,choice,choice,19,3.0,Land,1.0,15.328010333003476,Animal_Land_Solid_Large,0,0,1,11746481.0,11747915.0,1434.0
135,choice,choice,19,3.0,Land,1.0,15.328010333003476,Animal_Sea_Solid_Large,2,0,0,11748187.0,11748437.0,250.0
135,choice,choice,19,3.0,Land,1.0,15.328010333003476,fixation,-1,1,0,11748692.0,11749576.0,884.0
135,choice,choice,19,3.0,Land,1.0,15.328010333003476,Animal_Sea_Solid_Large,2,0,0,11749844.0,11750090.0,246.0
135,choice,choice,19,3.0,Land,1.0,15.328010333003476,fixation,-1,1,0,11750101.0,11751042.0,941.0
135,choice,choice,19,3.0,Land,1.0,15.328010333003476,Animal_Land_Solid_Large,0,0,1,11751319.0,11751915.0,596.0
135,choice,choice,19,3.0,Land,1.0,15.328010333003476,fixation,-1,1,0,11752202.0,11753610.0,1408.0
135,choice,choice,19,3.0,Land,1.0,15.328010333003476,Animal_Sea_Pattern_Small,1,0,0,11753825.0,11754160.0,335.0
135,choice,choice,19,3.0,Land,1.0,15.328010333003476,fixation,-1,1,0,11754178.0,11754649.0,471.0
135,choice,choice,19,3.0,Land,1.0,15.328010333003476,Animal_Sea_Solid_Large,2,0,0,11754659.0,11755535.0,876.0
135,choice,choice,19,3.0,Land,1.0,15.328010333003476,Object_Land_Solid_Large,3,0,1,11755810.0,11756551.0,741.0
135,choice,choice,19,3.0,Land,1.0,15.328010333003476,fixation,-1,1,0,11756740.0,11757463.0,723.0
135,choice,choice,19,3.0,Land,1.0,15.328010333003476,Object_Sea_Pattern_Small,4,0,0,11757764.0,11758995.0,1231.0
135,choice,choice,19,3.0,Land,1.0,15.328010333003476,Animal_Land_Solid_Large,0,0,1,11759068.0,11760180.0,1112.0
135,choice,choice,19,3.0,Land,1.0,15.328010333003476,Object_Sea_Pattern_Small,4,0,0,11760222.0,11760705.0,483.0
135,choice,choice,20,3.0,Small,1.0,11.72288812501938,fixation,-1,1,0,11764712.0,11764895.0,183.0
135,choice,choice,20,3.0,Small,1.0,11.72288812501938,Animal_Land_Solid_Large,0,0,0,11765136.0,11765206.0,70.0
135,choice,choice,20,3.0,Small,1.0,11.72288812501938,fixation,-1,1,0,11765769.0,11767160.0,1391.0
135,choice,choice,20,3.0,Small,1.0,11.72288812501938,Animal_Sea_Pattern_Small,1,0,1,11767855.0,11768299.0,444.0
135,choice,choice,20,3.0,Small,1.0,11.72288812501938,Animal_Land_Solid_Large,0,0,0,11768320.0,11768492.0,172.0
135,choice,choice,20,3.0,Small,1.0,11.72288812501938,fixation,-1,1,0,11768506.0,11769063.0,557.0
135,choice,choice,20,3.0,Small,1.0,11.72288812501938,Animal_Sea_Solid_Large,2,0,0,11769598.0,11770548.0,950.0
135,choice,choice,20,3.0,Small,1.0,11.72288812501938,fixation,-1,1,0,11770845.0,11770885.0,40.0
135,choice,choice,20,3.0,Small,1.0,11.72288812501938,Object_Land_Solid_Large,3,0,0,11770901.0,11771069.0,168.0
135,choice,choice,20,3.0,Small,1.0,11.72288812501938,Animal_Sea_Solid_Large,2,0,0,11771078.0,11771585.0,507.0
135,choice,choice,20,3.0,Small,1.0,11.72288812501938,Animal_Sea_Pattern_Small,1,0,1,11771808.0,11771840.0,32.0
135,choice,choice,20,3.0,Small,1.0,11.72288812501938,fixation,-1,1,0,11771847.0,11772462.0,615.0
135,choice,choice,20,3.0,Small,1.0,11.72288812501938,Object_Sea_Pattern_Small,4,0,1,11772481.0,11773574.0,1093.0
135,choice,choice,20,3.0,Small,1.0,11.72288812501938,fixation,-1,1,0,11774484.0,11775964.0,1480.0
135,choice,choice,20,3.0,Small,1.0,11.72288812501938,Animal_Sea_Pattern_Small,1,0,1,11776201.0,11776229.0,28.0
135,choice,choice,21,3.0,Sea,2.0,6.8328924590023234,fixation,-1,1,0,11781023.0,11782239.0,1216.0
135,choice,choice,21,3.0,Sea,2.0,6.8328924590023234,Animal_Land_Solid_Large,0,0,0,11782980.0,11783764.0,784.0
135,choice,choice,21,3.0,Sea,2.0,6.8328924590023234,Animal_Sea_Pattern_Small,1,0,1,11784259.0,11784632.0,373.0
135,choice,choice,21,3.0,Sea,2.0,6.8328924590023234,fixation,-1,1,0,11784667.0,11785350.0,683.0
135,choice,choice,21,3.0,Sea,2.0,6.8328924590023234,Animal_Land_Solid_Large,0,0,0,11785547.0,11785721.0,174.0
135,choice,choice,21,3.0,Sea,2.0,6.8328924590023234,fixation,-1,1,0,11786170.0,11786720.0,550.0
135,choice,choice,22,3.0,Object,2.0,5.695176042005187,Animal_Land_Solid_Large,0,0,0,11790984.0,11791287.0,303.0
135,choice,choice,22,3.0,Object,2.0,5.695176042005187,fixation,-1,1,0,11791649.0,11792546.0,897.0
135,choice,choice,22,3.0,Object,2.0,5.695176042005187,Object_Land_Solid_Large,3,0,1,11792930.0,11793348.0,418.0
135,choice,choice,22,3.0,Object,2.0,5.695176042005187,fixation,-1,1,0,11793607.0,11793999.0,392.0
135,choice,choice,22,3.0,Object,2.0,5.695176042005187,Object_Sea_Pattern_Small,4,0,1,11794022.0,11794534.0,512.0
135,choice,choice,22,3.0,Object,2.0,5.695176042005187,fixation,-1,1,0,11795139.0,11795969.0,830.0
135,choice,choice,23,3.0,Solid,2.0,6.877719707990764,Animal_Sea_Pattern_Small,1,0,0,11799736.0,11800335.0,599.0
135,choice,choice,23,3.0,Solid,2.0,6.877719707990764,fixation,-1,1,0,11800798.0,11802883.0,2085.0
135,choice,choice,23,3.0,Solid,2.0,6.877719707990764,Animal_Sea_Pattern_Small,1,0,0,11803494.0,11803688.0,194.0
135,choice,choice,23,3.0,Solid,2.0,6.877719707990764,fixation,-1,1,0,11803704.0,11804006.0,302.0
135,choice,choice,23,3.0,Solid,2.0,6.877719707990764,Animal_Land_Solid_Large,0,0,1,11804031.0,11804381.0,350.0
135,choice,choice,23,3.0,Solid,2.0,6.877719707990764,fixation,-1,1,0,11804406.0,11804753.0,347.0
135,choice,choice,23,3.0,Solid,2.0,6.877719707990764,Animal_Land_Solid_Large,0,0,1,11804995.0,11805512.0,517.0
135,choice,choice,23,3.0,Solid,2.0,6.877719707990764,Animal_Sea_Solid_Large,2,0,1,11805548.0,11805669.0,121.0
135,choice,choice,24,3.0,Large,1.0,13.0692558340088,fixation,-1,1,0,11808964.0,11810173.0,1209.0
135,choice,choice,24,3.0,Large,1.0,13.0692558340088,Animal_Land_Solid_Large,0,0,1,11810668.0,11811363.0,695.0
135,choice,choice,24,3.0,Large,1.0,13.0692558340088,fixation,-1,1,0,11811594.0,11812133.0,539.0
135,choice,choice,24,3.0,Large,1.0,13.0692558340088,Animal_Sea_Solid_Large,2,0,1,11812382.0,11812687.0,305.0
135,choice,choice,24,3.0,Large,1.0,13.0692558340088,Object_Sea_Pattern_Small,4,0,0,11812941.0,11813163.0,222.0
135,choice,choice,24,3.0,Large,1.0,13.0692558340088,Animal_Sea_Solid_Large,2,0,1,11813199.0,11813825.0,626.0
135,choice,choice,24,3.0,Large,1.0,13.0692558340088,Animal_Land_Solid_Large,0,0,1,11813860.0,11814450.0,590.0
135,choice,choice,24,3.0,Large,1.0,13.0692558340088,Animal_Sea_Pattern_Small,1,0,0,11814502.0,11815035.0,533.0
135,choice,choice,24,3.0,Large,1.0,13.0692558340088,Animal_Land_Solid_Large,0,0,1,11815059.0,11816385.0,1326.0
135,choice,choice,24,3.0,Large,1.0,13.0692558340088,Animal_Sea_Solid_Large,2,0,1,11816412.0,11817382.0,970.0
135,choice,choice,24,3.0,Large,1.0,13.0692558340088,Object_Land_Solid_Large,3,0,1,11818200.0,11818346.0,146.0
135,choice,choice,24,3.0,Large,1.0,13.0692558340088,Animal_Sea_Solid_Large,2,0,1,11818359.0,11818770.0,411.0
135,choice,choice,24,3.0,Large,1.0,13.0692558340088,Animal_Sea_Pattern_Small,1,0,0,11818947.0,11819233.0,286.0
135,choice,choice,24,3.0,Large,1.0,13.0692558340088,Animal_Sea_Solid_Large,2,0,1,11819251.0,11821080.0,1829.0
135,choice,choice,25,4.0,Small,2.0,16.053371749992948,Animal_Sea_Pattern_Small,0,0,1,12146847.0,12146987.0,140.0
135,choice,choice,25,4.0,Small,2.0,16.053371749992948,fixation,-1,1,0,12147012.0,12147785.0,773.0
135,choice,choice,25,4.0,Small,2.0,16.053371749992948,Animal_Land_Solid_Large,1,0,0,12148018.0,12149209.0,1191.0
135,choice,choice,25,4.0,Small,2.0,16.053371749992948,Object_Sea_Solid_Large,2,0,0,12150050.0,12150445.0,395.0
135,choice,choice,25,4.0,Small,2.0,16.053371749992948,fixation,-1,1,0,12150489.0,12151732.0,1243.0
135,choice,choice,25,4.0,Small,2.0,16.053371749992948,Object_Sea_Solid_Large,2,0,0,12151779.0,12152243.0,464.0
135,choice,choice,25,4.0,Small,2.0,16.053371749992948,fixation,-1,1,0,12152502.0,12153250.0,748.0
135,choice,choice,25,4.0,Small,2.0,16.053371749992948,Animal_Land_Solid_Large,1,0,0,12153281.0,12153545.0,264.0
135,choice,choice,25,4.0,Small,2.0,16.053371749992948,Animal_Sea_Pattern_Small,0,0,1,12153560.0,12153686.0,126.0
135,choice,choice,25,4.0,Small,2.0,16.053371749992948,Animal_Land_Solid_Large,1,0,0,12153925.0,12154506.0,581.0
135,choice,choice,25,4.0,Small,2.0,16.053371749992948,Animal_Sea_Pattern_Small,0,0,1,12155010.0,12155256.0,246.0
135,choice,choice,25,4.0,Small,2.0,16.053371749992948,fixation,-1,1,0,12155280.0,12157157.0,1877.0
135,choice,choice,25,4.0,Small,2.0,16.053371749992948,Animal_Land_Pattern_Small,3,0,1,12157210.0,12157601.0,391.0
135,choice,choice,25,4.0,Small,2.0,16.053371749992948,Object_Sea_Solid_Small,4,0,1,12157846.0,12157942.0,96.0
135,choice,choice,25,4.0,Small,2.0,16.053371749992948,fixation,-1,1,0,12157965.0,12158863.0,898.0
135,choice,choice,25,4.0,Small,2.0,16.053371749992948,Object_Sea_Solid_Small,4,0,1,12158899.0,12159150.0,251.0
135,choice,choice,25,4.0,Small,2.0,16.053371749992948,fixation,-1,1,0,12159190.0,12162326.0,3136.0
135,choice,choice,26,4.0,Solid,2.0,7.7679578329843935,Animal_Land_Pattern_Small,3,0,0,12168158.0,12168345.0,187.0
135,choice,choice,26,4.0,Solid,2.0,7.7679578329843935,fixation,-1,1,0,12168359.0,12168950.0,591.0
135,choice,choice,26,4.0,Solid,2.0,7.7679578329843935,Animal_Land_Solid_Large,1,0,1,12169393.0,12169674.0,281.0
135,choice,choice,26,4.0,Solid,2.0,7.7679578329843935,fixation,-1,1,0,12169682.0,12170008.0,326.0
135,choice,choice,26,4.0,Solid,2.0,7.7679578329843935,Animal_Land_Solid_Large,1,0,1,12170031.0,12170756.0,725.0
135,choice,choice,26,4.0,Solid,2.0,7.7679578329843935,Object_Land_Pattern_Large,5,0,0,12171764.0,12171898.0,134.0
135,choice,choice,26,4.0,Solid,2.0,7.7679578329843935,fixation,-1,1,0,12171935.0,12172805.0,870.0
135,choice,choice,26,4.0,Solid,2.0,7.7679578329843935,Object_Land_Pattern_Large,5,0,0,12172837.0,12172992.0,155.0
135,choice,choice,26,4.0,Solid,2.0,7.7679578329843935,Object_Sea_Solid_Large,2,0,1,12173185.0,12173394.0,209.0
135,choice,choice,26,4.0,Solid,2.0,7.7679578329843935,fixation,-1,1,0,12173410.0,12174100.0,690.0
135,choice,choice,27,4.0,Object,2.0,9.956096458015963,fixation,-1,1,0,12178160.0,12178412.0,252.0
135,choice,choice,27,4.0,Object,2.0,9.956096458015963,Animal_Land_Solid_Large,1,0,0,12178681.0,12179454.0,773.0
135,choice,choice,27,4.0,Object,2.0,9.956096458015963,Animal_Sea_Pattern_Small,0,0,0,12179738.0,12179779.0,41.0
135,choice,choice,27,4.0,Object,2.0,9.956096458015963,fixation,-1,1,0,12179787.0,12180277.0,490.0
135,choice,choice,27,4.0,Object,2.0,9.956096458015963,Animal_Land_Pattern_Small,3,0,0,12180538.0,12181272.0,734.0
135,choice,choice,27,4.0,Object,2.0,9.956096458015963,fixation,-1,1,0,12182437.0,12183028.0,591.0
135,choice,choice,27,4.0,Object,2.0,9.956096458015963,Animal_Land_Pattern_Small,3,0,0,12183243.0,12183353.0,110.0
135,choice,choice,27,4.0,Object,2.0,9.956096458015963,Object_Sea_Solid_Large,2,0,1,12183577.0,12183804.0,227.0
135,choice,choice,27,4.0,Object,2.0,9.956096458015963,fixation,-1,1,0,12183824.0,12184327.0,503.0
135,choice,choice,27,4.0,Object,2.0,9.956096458015963,Animal_Land_Pattern_Small,3,0,0,12184536.0,12184560.0,24.0
135,choice,choice,27,4.0,Object,2.0,9.956096458015963,Object_Sea_Solid_Small,4,0,1,12184580.0,12184694.0,114.0
135,choice,choice,27,4.0,Object,2.0,9.956096458015963,fixation,-1,1,0,12184718.0,12187092.0,2374.0
135,choice,choice,28,4.0,Pattern,1.0,2.565892957994947,Object_Land_Pattern_Large,5,0,1,12191547.0,12191744.0,197.0
135,choice,choice,28,4.0,Pattern,1.0,2.565892957994947,fixation,-1,1,0,12191759.0,12192003.0,244.0
135,choice,choice,29,4.0,Land,1.0,10.392891875002531,Animal_Sea_Pattern_Small,0,0,0,12197018.0,12197214.0,196.0
135,choice,choice,29,4.0,Land,1.0,10.392891875002531,fixation,-1,1,0,12197427.0,12197991.0,564.0
135,choice,choice,29,4.0,Land,1.0,10.392891875002531,Object_Land_Pattern_Large,5,0,1,12198033.0,12198355.0,322.0
135,choice,choice,29,4.0,Land,1.0,10.392891875002531,Animal_Land_Solid_Large,1,0,1,12198586.0,12199355.0,769.0
135,choice,choice,29,4.0,Land,1.0,10.392891875002531,Animal_Sea_Pattern_Small,0,0,0,12199554.0,12199851.0,297.0
135,choice,choice,29,4.0,Land,1.0,10.392891875002531,Object_Sea_Solid_Large,2,0,0,12199889.0,12200689.0,800.0
135,choice,choice,29,4.0,Land,1.0,10.392891875002531,fixation,-1,1,0,12201001.0,12201365.0,364.0
135,choice,choice,29,4.0,Land,1.0,10.392891875002531,Animal_Land_Solid_Large,1,0,1,12201381.0,12202401.0,1020.0
135,choice,choice,29,4.0,Land,1.0,10.392891875002531,Animal_Sea_Pattern_Small,0,0,0,12202494.0,12203360.0,866.0
135,choice,choice,29,4.0,Land,1.0,10.392891875002531,Animal_Land_Solid_Large,1,0,1,12203575.0,12204542.0,967.0
135,choice,choice,29,4.0,Land,1.0,10.392891875002531,fixation,-1,1,0,12204552.0,12205913.0,1361.0
135,choice,choice,30,4.0,Animal,1.0,7.355071375000989,fixation,-1,1,0,12209294.0,12209729.0,435.0
135,choice,choice,30,4.0,Animal,1.0,7.355071375000989,Animal_Land_Solid_Large,1,0,1,12209768.0,12209937.0,169.0
135,choice,choice,30,4.0,Animal,1.0,7.355071375000989,Animal_Sea_Pattern_Small,0,0,1,12210083.0,12211726.0,1643.0
135,choice,choice,30,4.0,Animal,1.0,7.355071375000989,Animal_Land_Solid_Large,1,0,1,12212020.0,12212318.0,298.0
135,choice,choice,30,4.0,Animal,1.0,7.355071375000989,Animal_Sea_Pattern_Small,0,0,1,12212334.0,12212734.0,400.0
135,choice,choice,30,4.0,Animal,1.0,7.355071375000989,fixation,-1,1,0,12212745.0,12214589.0,1844.0
135,choice,choice,30,4.0,Animal,1.0,7.355071375000989,Object_Sea_Solid_Large,2,0,0,12214795.0,12215022.0,227.0
135,choice,choice,31,4.0,Large,1.0,9.328316375002032,Animal_Land_Solid_Large,1,0,1,12220853.0,12222455.0,1602.0
135,choice,choice,31,4.0,Large,1.0,9.328316375002032,Animal_Land_Pattern_Small,3,0,0,12222768.0,12222965.0,197.0
135,choice,choice,31,4.0,Large,1.0,9.328316375002032,Animal_Sea_Pattern_Small,0,0,0,12224150.0,12224429.0,279.0
135,choice,choice,31,4.0,Large,1.0,9.328316375002032,fixation,-1,1,0,12224445.0,12227140.0,2695.0
135,choice,choice,31,4.0,Large,1.0,9.328316375002032,Object_Sea_Solid_Large,2,0,1,12228528.0,12228710.0,182.0
135,choice,choice,32,4.0,Sea,1.0,3.2463793749921024,fixation,-1,1,0,12232290.0,12233352.0,1062.0
135,choice,choice,32,4.0,Sea,1.0,3.2463793749921024,Animal_Land_Solid_Large,1,0,0,12233605.0,12234155.0,550.0
135,choice,choice,32,4.0,Sea,1.0,3.2463793749921024,Animal_Sea_Pattern_Small,0,0,1,12234229.0,12234475.0,246.0
135,choice,choice,32,4.0,Sea,1.0,3.2463793749921024,Animal_Land_Solid_Large,1,0,0,12234493.0,12234748.0,255.0
135,choice,choice,32,4.0,Sea,1.0,3.2463793749921024,Object_Sea_Solid_Large,2,0,1,12234926.0,12234963.0,37.0
135,choice,choice,33,5.0,Object,2.0,43.53842737499508,Object_Sea_Pattern_Large,0,0,1,12594973.0,12594998.0,25.0
135,choice,choice,33,5.0,Object,2.0,43.53842737499508,Animal_Land_Solid_Small,1,0,0,12595006.0,12596204.0,1198.0
135,choice,choice,33,5.0,Object,2.0,43.53842737499508,fixation,-1,1,0,12596493.0,12596868.0,375.0
135,choice,choice,33,5.0,Object,2.0,43.53842737499508,Object_Sea_Solid_Large,2,0,1,12597355.0,12597965.0,610.0
135,choice,choice,33,5.0,Object,2.0,43.53842737499508,fixation,-1,1,0,12598004.0,12598551.0,547.0
135,choice,choice,33,5.0,Object,2.0,43.53842737499508,Object_Sea_Solid_Large,2,0,1,12599063.0,12599967.0,904.0
135,choice,choice,33,5.0,Object,2.0,43.53842737499508,fixation,-1,1,0,12600549.0,12601183.0,634.0
135,choice,choice,33,5.0,Object,2.0,43.53842737499508,Animal_Land_Solid_Small,1,0,0,12601410.0,12601446.0,36.0
135,choice,choice,33,5.0,Object,2.0,43.53842737499508,fixation,-1,1,0,12601464.0,12601721.0,257.0
135,choice,choice,33,5.0,Object,2.0,43.53842737499508,Object_Sea_Pattern_Large,0,0,1,12606033.0,12606426.0,393.0
135,choice,choice,33,5.0,Object,2.0,43.53842737499508,fixation,-1,1,0,12606665.0,12606926.0,261.0
135,choice,choice,33,5.0,Object,2.0,43.53842737499508,Animal_Land_Solid_Small,1,0,0,12607152.0,12608128.0,976.0
135,choice,choice,33,5.0,Object,2.0,43.53842737499508,Object_Sea_Pattern_Large,0,0,1,12609412.0,12609467.0,55.0
135,choice,choice,33,5.0,Object,2.0,43.53842737499508,Animal_Land_Solid_Small,1,0,0,12609534.0,12610725.0,1191.0
135,choice,choice,33,5.0,Object,2.0,43.53842737499508,Object_Sea_Pattern_Large,0,0,1,12611594.0,12613186.0,1592.0
135,choice,choice,33,5.0,Object,2.0,43.53842737499508,Animal_Land_Solid_Small,1,0,0,12613994.0,12615147.0,1153.0
135,choice,choice,33,5.0,Object,2.0,43.53842737499508,Animal_Sea_Solid_Small,3,0,0,12619040.0,12619434.0,394.0
135,choice,choice,33,5.0,Object,2.0,43.53842737499508,Animal_Land_Solid_Small,1,0,0,12619678.0,12620600.0,922.0
135,choice,choice,33,5.0,Object,2.0,43.53842737499508,Animal_Land_Pattern_Large,4,0,0,12621032.0,12621240.0,208.0
135,choice,choice,33,5.0,Object,2.0,43.53842737499508,fixation,-1,1,0,12621261.0,12621507.0,246.0
135,choice,choice,33,5.0,Object,2.0,43.53842737499508,Animal_Land_Pattern_Large,4,0,0,12623981.0,12624010.0,29.0
135,choice,choice,33,5.0,Object,2.0,43.53842737499508,fixation,-1,1,0,12624022.0,12624170.0,148.0
135,choice,choice,33,5.0,Object,2.0,43.53842737499508,Object_Sea_Pattern_Large,0,0,1,12624529.0,12624940.0,411.0
135,choice,choice,33,5.0,Object,2.0,43.53842737499508,fixation,-1,1,0,12624963.0,12625592.0,629.0
135,choice,choice,33,5.0,Object,2.0,43.53842737499508,Animal_Land_Solid_Small,1,0,0,12625827.0,12625872.0,45.0
135,choice,choice,33,5.0,Object,2.0,43.53842737499508,Object_Sea_Solid_Large,2,0,1,12625889.0,12626045.0,156.0
135,choice,choice,33,5.0,Object,2.0,43.53842737499508,fixation,-1,1,0,12626055.0,12626770.0,715.0
135,choice,choice,33,5.0,Object,2.0,43.53842737499508,Object_Sea_Solid_Large,2,0,1,12626796.0,12627495.0,699.0
135,choice,choice,33,5.0,Object,2.0,43.53842737499508,fixation,-1,1,0,12627701.0,12628977.0,1276.0
135,choice,choice,33,5.0,Object,2.0,43.53842737499508,Animal_Land_Pattern_Large,4,0,0,12629502.0,12629529.0,27.0
135,choice,choice,33,5.0,Object,2.0,43.53842737499508,fixation,-1,1,0,12629542.0,12631409.0,1867.0
135,choice,choice,33,5.0,Object,2.0,43.53842737499508,Animal_Sea_Solid_Small,3,0,0,12632473.0,12632707.0,234.0
135,choice,choice,33,5.0,Object,2.0,43.53842737499508,fixation,-1,1,0,12632894.0,12632926.0,32.0
135,choice,choice,33,5.0,Object,2.0,43.53842737499508,Animal_Sea_Solid_Small,3,0,0,12632939.0,12633225.0,286.0
135,choice,choice,33,5.0,Object,2.0,43.53842737499508,fixation,-1,1,0,12633238.0,12633702.0,464.0
135,choice,choice,33,5.0,Object,2.0,43.53842737499508,Object_Land_Pattern_Small,5,0,1,12633902.0,12634268.0,366.0
135,choice,choice,33,5.0,Object,2.0,43.53842737499508,fixation,-1,1,0,12634496.0,12635743.0,1247.0
135,choice,choice,33,5.0,Object,2.0,43.53842737499508,Object_Sea_Pattern_Large,0,0,1,12635939.0,12635975.0,36.0
135,choice,choice,33,5.0,Object,2.0,43.53842737499508,Animal_Land_Pattern_Large,4,0,0,12635981.0,12636209.0,228.0
135,choice,choice,33,5.0,Object,2.0,43.53842737499508,fixation,-1,1,0,12636226.0,12636776.0,550.0
135,choice,choice,33,5.0,Object,2.0,43.53842737499508,Object_Land_Pattern_Small,5,0,1,12636802.0,12637051.0,249.0
135,choice,choice,33,5.0,Object,2.0,43.53842737499508,fixation,-1,1,0,12637073.0,12637736.0,663.0
135,choice,choice,33,5.0,Object,2.0,43.53842737499508,Object_Sea_Pattern_Large,0,0,1,12637964.0,12638256.0,292.0
135,choice,choice,33,5.0,Object,2.0,43.53842737499508,Object_Sea_Solid_Large,2,0,1,12638297.0,12638344.0,47.0
135,choice,choice,34,5.0,Sea,1.0,7.8989504580094945,Object_Sea_Pattern_Large,0,0,1,12642457.0,12643113.0,656.0
135,choice,choice,34,5.0,Sea,1.0,7.8989504580094945,fixation,-1,1,0,12643446.0,12644890.0,1444.0
135,choice,choice,34,5.0,Sea,1.0,7.8989504580094945,Object_Sea_Pattern_Large,0,0,1,12645601.0,12645686.0,85.0
135,choice,choice,34,5.0,Sea,1.0,7.8989504580094945,fixation,-1,1,0,12645695.0,12645878.0,183.0
135,choice,choice,34,5.0,Sea,1.0,7.8989504580094945,Object_Sea_Pattern_Large,0,0,1,12646182.0,12646757.0,575.0
135,choice,choice,34,5.0,Sea,1.0,7.8989504580094945,Object_Sea_Solid_Large,2,0,1,12646797.0,12647115.0,318.0
135,choice,choice,34,5.0,Sea,1.0,7.8989504580094945,Animal_Land_Solid_Small,1,0,0,12647352.0,12647670.0,318.0
135,choice,choice,34,5.0,Sea,1.0,7.8989504580094945,Animal_Land_Pattern_Large,4,0,0,12647728.0,12648694.0,966.0
135,choice,choice,35,5.0,Large,1.0,41.59524908399908,fixation,-1,1,0,12653555.0,12654336.0,781.0
135,choice,choice,35,5.0,Large,1.0,41.59524908399908,Animal_Land_Solid_Small,1,0,0,12654855.0,12655897.0,1042.0
135,choice,choice,35,5.0,Large,1.0,41.59524908399908,Object_Sea_Solid_Large,2,0,1,12655914.0,12656173.0,259.0
135,choice,choice,35,5.0,Large,1.0,41.59524908399908,Animal_Land_Solid_Small,1,0,0,12656325.0,12656486.0,161.0
135,choice,choice,35,5.0,Large,1.0,41.59524908399908,fixation,-1,1,0,12656511.0,12656757.0,246.0
135,choice,choice,35,5.0,Large,1.0,41.59524908399908,Animal_Land_Pattern_Large,4,0,1,12656985.0,12657147.0,162.0
135,choice,choice,35,5.0,Large,1.0,41.59524908399908,fixation,-1,1,0,12657162.0,12657867.0,705.0
135,choice,choice,35,5.0,Large,1.0,41.59524908399908,Animal_Land_Solid_Small,1,0,0,12658114.0,12658301.0,187.0
135,choice,choice,35,5.0,Large,1.0,41.59524908399908,fixation,-1,1,0,12658321.0,12658860.0,539.0
135,choice,choice,35,5.0,Large,1.0,41.59524908399908,Animal_Sea_Solid_Small,3,0,0,12658875.0,12659138.0,263.0
135,choice,choice,35,5.0,Large,1.0,41.59524908399908,Object_Sea_Solid_Large,2,0,1,12659158.0,12659449.0,291.0
135,choice,choice,35,5.0,Large,1.0,41.59524908399908,Animal_Sea_Solid_Small,3,0,0,12659470.0,12659669.0,199.0
135,choice,choice,35,5.0,Large,1.0,41.59524908399908,fixation,-1,1,0,12659845.0,12660344.0,499.0
135,choice,choice,35,5.0,Large,1.0,41.59524908399908,Object_Sea_Pattern_Large,0,0,1,12660570.0,12661148.0,578.0
135,choice,choice,35,5.0,Large,1.0,41.59524908399908,Object_Sea_Solid_Large,2,0,1,12661180.0,12661561.0,381.0
135,choice,choice,35,5.0,Large,1.0,41.59524908399908,Animal_Sea_Solid_Small,3,0,0,12661573.0,12662187.0,614.0
135,choice,choice,35,5.0,Large,1.0,41.59524908399908,fixation,-1,1,0,12662267.0,12662963.0,696.0
135,choice,choice,35,5.0,Large,1.0,41.59524908399908,Animal_Land_Pattern_Large,4,0,1,12663163.0,12663230.0,67.0
135,choice,choice,35,5.0,Large,1.0,41.59524908399908,fixation,-1,1,0,12663465.0,12664354.0,889.0
135,choice,choice,35,5.0,Large,1.0,41.59524908399908,Animal_Land_Pattern_Large,4,0,1,12664395.0,12664911.0,516.0
135,choice,choice,35,5.0,Large,1.0,41.59524908399908,Object_Land_Pattern_Small,5,0,0,12665275.0,12665437.0,162.0
135,choice,choice,35,5.0,Large,1.0,41.59524908399908,Animal_Land_Pattern_Large,4,0,1,12665647.0,12667028.0,1381.0
135,choice,choice,35,5.0,Large,1.0,41.59524908399908,Object_Sea_Pattern_Large,0,0,1,12667293.0,12667688.0,395.0
135,choice,choice,35,5.0,Large,1.0,41.59524908399908,fixation,-1,1,0,12667702.0,12668224.0,522.0
135,choice,choice,35,5.0,Large,1.0,41.59524908399908,Animal_Land_Pattern_Large,4,0,1,12668398.0,12669848.0,1450.0
135,choice,choice,35,5.0,Large,1.0,41.59524908399908,Object_Sea_Pattern_Large,0,0,1,12670139.0,12670349.0,210.0
135,choice,choice,35,5.0,Large,1.0,41.59524908399908,fixation,-1,1,0,12670368.0,12670653.0,285.0
135,choice,choice,35,5.0,Large,1.0,41.59524908399908,Animal_Land_Pattern_Large,4,0,1,12670884.0,12671882.0,998.0
135,choice,choice,35,5.0,Large,1.0,41.59524908399908,Object_Sea_Solid_Large,2,0,1,12672210.0,12672368.0,158.0
135,choice,choice,35,5.0,Large,1.0,41.59524908399908,fixation,-1,1,0,12672402.0,12673246.0,844.0
135,choice,choice,35,5.0,Large,1.0,41.59524908399908,Animal_Land_Pattern_Large,4,0,1,12673845.0,12675189.0,1344.0
135,choice,choice,35,5.0,Large,1.0,41.59524908399908,fixation,-1,1,0,12676560.0,12677312.0,752.0
135,choice,choice,35,5.0,Large,1.0,41.59524908399908,Object_Sea_Solid_Large,2,0,1,12678176.0,12678412.0,236.0
135,choice,choice,35,5.0,Large,1.0,41.59524908399908,fixation,-1,1,0,12678433.0,12678966.0,533.0
135,choice,choice,35,5.0,Large,1.0,41.59524908399908,Animal_Land_Pattern_Large,4,0,1,12679197.0,12681347.0,2150.0
135,choice,choice,35,5.0,Large,1.0,41.59524908399908,fixation,-1,1,0,12683967.0,12684962.0,995.0
135,choice,choice,35,5.0,Large,1.0,41.59524908399908,Object_Sea_Pattern_Large,0,0,1,12685408.0,12686014.0,606.0
135,choice,choice,35,5.0,Large,1.0,41.59524908399908,Animal_Land_Pattern_Large,4,0,1,12686047.0,12686707.0,660.0
135,choice,choice,35,5.0,Large,1.0,41.59524908399908,Object_Sea_Pattern_Large,0,0,1,12686723.0,12687245.0,522.0
135,choice,choice,35,5.0,Large,1.0,41.59524908399908,Animal_Land_Pattern_Large,4,0,1,12687263.0,12688965.0,1702.0
135,choice,choice,35,5.0,Large,1.0,41.59524908399908,fixation,-1,1,0,12689282.0,12689502.0,220.0
135,choice,choice,35,5.0,Large,1.0,41.59524908399908,Object_Sea_Solid_Large,2,0,1,12689512.0,12690058.0,546.0
135,choice,choice,35,5.0,Large,1.0,41.59524908399908,Object_Sea_Pattern_Large,0,0,1,12690253.0,12690275.0,22.0
135,choice,choice,35,5.0,Large,1.0,41.59524908399908,fixation,-1,1,0,12690291.0,12690607.0,316.0
135,choice,choice,35,5.0,Large,1.0,41.59524908399908,Animal_Land_Pattern_Large,4,0,1,12691501.0,12691786.0,285.0
135,choice,choice,35,5.0,Large,1.0,41.59524908399908,Object_Sea_Pattern_Large,0,0,1,12691976.0,12692254.0,278.0
135,choice,choice,35,5.0,Large,1.0,41.59524908399908,Animal_Sea_Solid_Small,3,0,0,12692294.0,12692816.0,522.0
135,choice,choice,35,5.0,Large,1.0,41.59524908399908,Animal_Land_Solid_Small,1,0,0,12693515.0,12693826.0,311.0
135,choice,choice,35,5.0,Large,1.0,41.59524908399908,Animal_Sea_Solid_Small,3,0,0,12693864.0,12694196.0,332.0
135,choice,choice,36,5.0,Small,2.0,5.013592833012808,fixation,-1,1,0,12699488.0,12699917.0,429.0
135,choice,choice,36,5.0,Small,2.0,5.013592833012808,Object_Sea_Pattern_Large,0,0,0,12701557.0,12701964.0,407.0
135,choice,choice,36,5.0,Small,2.0,5.013592833012808,Animal_Land_Pattern_Large,4,0,0,12701991.0,12702289.0,298.0
135,choice,choice,36,5.0,Small,2.0,5.013592833012808,Object_Sea_Solid_Large,2,0,0,12702693.0,12702887.0,194.0
135,choice,choice,36,5.0,Small,2.0,5.013592833012808,fixation,-1,1,0,12702897.0,12703293.0,396.0
135,choice,choice,37,5.0,Animal,1.0,16.912446917005582,fixation,-1,1,0,12707496.0,12707826.0,330.0
135,choice,choice,37,5.0,Animal,1.0,16.912446917005582,Animal_Land_Solid_Small,1,0,1,12708025.0,12709112.0,1087.0
135,choice,choice,37,5.0,Animal,1.0,16.912446917005582,Animal_Land_Pattern_Large,4,0,1,12709338.0,12709716.0,378.0
135,choice,choice,37,5.0,Animal,1.0,16.912446917005582,fixation,-1,1,0,12709737.0,12710851.0,1114.0
135,choice,choice,37,5.0,Animal,1.0,16.912446917005582,Animal_Land_Pattern_Large,4,0,1,12711060.0,12714950.0,3890.0
135,choice,choice,37,5.0,Animal,1.0,16.912446917005582,Animal_Land_Solid_Small,1,0,1,12716158.0,12718645.0,2487.0
135,choice,choice,37,5.0,Animal,1.0,16.912446917005582,Object_Sea_Pattern_Large,0,0,0,12718758.0,12719053.0,295.0
135,choice,choice,37,5.0,Animal,1.0,16.912446917005582,fixation,-1,1,0,12719078.0,12719346.0,268.0
135,choice,choice,37,5.0,Animal,1.0,16.912446917005582,Animal_Land_Solid_Small,1,0,1,12719514.0,12719553.0,39.0
135,choice,choice,37,5.0,Animal,1.0,16.912446917005582,Object_Sea_Solid_Large,2,0,0,12719561.0,12719583.0,22.0
135,choice,choice,37,5.0,Animal,1.0,16.912446917005582,Animal_Land_Solid_Small,1,0,1,12719864.0,12721161.0,1297.0
135,choice,choice,37,5.0,Animal,1.0,16.912446917005582,Object_Sea_Pattern_Large,0,0,0,12721205.0,12721908.0,703.0
135,choice,choice,37,5.0,Animal,1.0,16.912446917005582,Animal_Land_Solid_Small,1,0,1,12722422.0,12722883.0,461.0
135,choice,choice,38,5.0,Land,2.0,20.592008166015148,Animal_Land_Solid_Small,1,0,1,12727936.0,12728428.0,492.0
135,choice,choice,38,5.0,Land,2.0,20.592008166015148,fixation,-1,1,0,12728740.0,12729007.0,267.0
135,choice,choice,38,5.0,Land,2.0,20.592008166015148,Object_Sea_Solid_Large,2,0,0,12729505.0,12729980.0,475.0
135,choice,choice,38,5.0,Land,2.0,20.592008166015148,Object_Sea_Pattern_Large,0,0,0,12730016.0,12730476.0,460.0
135,choice,choice,38,5.0,Land,2.0,20.592008166015148,Object_Land_Pattern_Small,5,0,1,12730501.0,12730797.0,296.0
135,choice,choice,38,5.0,Land,2.0,20.592008166015148,Animal_Land_Pattern_Large,4,0,1,12731172.0,12731747.0,575.0
135,choice,choice,38,5.0,Land,2.0,20.592008166015148,Object_Sea_Pattern_Large,0,0,0,12732228.0,12732262.0,34.0
135,choice,choice,38,5.0,Land,2.0,20.592008166015148,fixation,-1,1,0,12732270.0,12734065.0,1795.0
135,choice,choice,38,5.0,Land,2.0,20.592008166015148,Object_Sea_Solid_Large,2,0,0,12734928.0,12737609.0,2681.0
135,choice,choice,38,5.0,Land,2.0,20.592008166015148,Animal_Land_Solid_Small,1,0,1,12737891.0,12738401.0,510.0
135,choice,choice,38,5.0,Land,2.0,20.592008166015148,fixation,-1,1,0,12738419.0,12739279.0,860.0
135,choice,choice,38,5.0,Land,2.0,20.592008166015148,Object_Sea_Pattern_Large,0,0,0,12739302.0,12740036.0,734.0
135,choice,choice,38,5.0,Land,2.0,20.592008166015148,Animal_Land_Solid_Small,1,0,1,12740294.0,12742514.0,2220.0
135,choice,choice,38,5.0,Land,2.0,20.592008166015148,fixation,-1,1,0,12743005.0,12743263.0,258.0
135,choice,choice,38,5.0,Land,2.0,20.592008166015148,Object_Sea_Solid_Large,2,0,0,12743274.0,12744105.0,831.0
135,choice,choice,38,5.0,Land,2.0,20.592008166015148,fixation,-1,1,0,12745176.0,12745452.0,276.0
135,choice,choice,38,5.0,Land,2.0,20.592008166015148,Object_Land_Pattern_Small,5,0,1,12745622.0,12745847.0,225.0
135,choice,choice,38,5.0,Land,2.0,20.592008166015148,fixation,-1,1,0,12745885.0,12746292.0,407.0
135,choice,choice,38,5.0,Land,2.0,20.592008166015148,Animal_Land_Pattern_Large,4,0,1,12746318.0,12747816.0,1498.0
135,choice,choice,39,5.0,Pattern,2.0,2.768592250009533,Object_Sea_Solid_Large,2,0,0,12750535.0,12750774.0,239.0
135,choice,choice,39,5.0,Pattern,2.0,2.768592250009533,fixation,-1,1,0,12750781.0,12751078.0,297.0
135,choice,choice,39,5.0,Pattern,2.0,2.768592250009533,Object_Sea_Pattern_Large,0,0,1,12751299.0,12751523.0,224.0
135,choice,choice,39,5.0,Pattern,2.0,2.768592250009533,fixation,-1,1,0,12751542.0,12752378.0,836.0
135,choice,choice,41,6.0,Small,1.0,22.18577425001422,fixation,-1,1,0,13069407.0,13070536.0,1129.0
135,choice,choice,41,6.0,Small,1.0,22.18577425001422,Object_Land_Solid_Large,0,0,0,13071493.0,13071619.0,126.0
135,choice,choice,41,6.0,Small,1.0,22.18577425001422,fixation,-1,1,0,13071632.0,13071771.0,139.0
135,choice,choice,41,6.0,Small,1.0,22.18577425001422,Animal_Land_Solid_Large,1,0,0,13072057.0,13072384.0,327.0
135,choice,choice,41,6.0,Small,1.0,22.18577425001422,Animal_Sea_Pattern_Small,2,0,1,13073500.0,13073537.0,37.0
135,choice,choice,41,6.0,Small,1.0,22.18577425001422,fixation,-1,1,0,13073549.0,13074496.0,947.0
135,choice,choice,41,6.0,Small,1.0,22.18577425001422,Animal_Sea_Pattern_Small,2,0,1,13074739.0,13074782.0,43.0
135,choice,choice,41,6.0,Small,1.0,22.18577425001422,Animal_Land_Solid_Large,1,0,0,13075368.0,13075734.0,366.0
135,choice,choice,41,6.0,Small,1.0,22.18577425001422,fixation,-1,1,0,13076634.0,13076791.0,157.0
135,choice,choice,41,6.0,Small,1.0,22.18577425001422,Animal_Sea_Solid_Large,3,0,0,13076803.0,13077263.0,460.0
135,choice,choice,41,6.0,Small,1.0,22.18577425001422,fixation,-1,1,0,13077277.0,13077599.0,322.0
135,choice,choice,41,6.0,Small,1.0,22.18577425001422,Object_Land_Pattern_Small,4,0,1,13077819.0,13078301.0,482.0
135,choice,choice,41,6.0,Small,1.0,22.18577425001422,Object_Land_Solid_Large,0,0,0,13079372.0,13079548.0,176.0
135,choice,choice,41,6.0,Small,1.0,22.18577425001422,Animal_Sea_Solid_Large,3,0,0,13079811.0,13080337.0,526.0
135,choice,choice,41,6.0,Small,1.0,22.18577425001422,Animal_Land_Solid_Large,1,0,0,13080559.0,13081585.0,1026.0
135,choice,choice,41,6.0,Small,1.0,22.18577425001422,fixation,-1,1,0,13081962.0,13082258.0,296.0
135,choice,choice,41,6.0,Small,1.0,22.18577425001422,Animal_Sea_Solid_Large,3,0,0,13082305.0,13082841.0,536.0
135,choice,choice,41,6.0,Small,1.0,22.18577425001422,Animal_Sea_Pattern_Small,2,0,1,13082891.0,13083836.0,945.0
135,choice,choice,41,6.0,Small,1.0,22.18577425001422,Animal_Land_Solid_Large,1,0,0,13084091.0,13084397.0,306.0
135,choice,choice,41,6.0,Small,1.0,22.18577425001422,Animal_Sea_Solid_Large,3,0,0,13084461.0,13084630.0,169.0
135,choice,choice,41,6.0,Small,1.0,22.18577425001422,Animal_Land_Solid_Large,1,0,0,13084648.0,13084681.0,33.0
135,choice,choice,41,6.0,Small,1.0,22.18577425001422,Animal_Sea_Pattern_Small,2,0,1,13084887.0,13085304.0,417.0
135,choice,choice,41,6.0,Small,1.0,22.18577425001422,Animal_Land_Solid_Large,1,0,0,13085322.0,13085871.0,549.0
135,choice,choice,41,6.0,Small,1.0,22.18577425001422,Animal_Sea_Solid_Large,3,0,0,13085916.0,13086041.0,125.0
135,choice,choice,41,6.0,Small,1.0,22.18577425001422,fixation,-1,1,0,13086212.0,13086252.0,40.0
135,choice,choice,41,6.0,Small,1.0,22.18577425001422,Animal_Sea_Solid_Large,3,0,0,13086307.0,13087535.0,1228.0
135,choice,choice,41,6.0,Small,1.0,22.18577425001422,Animal_Land_Solid_Large,1,0,0,13087778.0,13087884.0,106.0
135,choice,choice,41,6.0,Small,1.0,22.18577425001422,Animal_Sea_Solid_Large,3,0,0,13087944.0,13088494.0,550.0
135,choice,choice,41,6.0,Small,1.0,22.18577425001422,Object_Land_Solid_Large,0,0,0,13088829.0,13089295.0,466.0
135,choice,choice,41,6.0,Small,1.0,22.18577425001422,Animal_Sea_Solid_Large,3,0,0,13089312.0,13089478.0,166.0
135,choice,choice,41,6.0,Small,1.0,22.18577425001422,fixation,-1,1,0,13090803.0,13090913.0,110.0
135,choice,choice,41,6.0,Small,1.0,22.18577425001422,Animal_Sea_Solid_Large,3,0,0,13090926.0,13091558.0,632.0
135,choice,choice,42,6.0,Sea,1.0,7.332915750012035,Object_Land_Solid_Large,0,0,0,13097800.0,13098323.0,523.0
135,choice,choice,42,6.0,Sea,1.0,7.332915750012035,Object_Sea_Pattern_Small,5,0,1,13098449.0,13098759.0,310.0
135,choice,choice,42,6.0,Sea,1.0,7.332915750012035,fixation,-1,1,0,13099203.0,13099834.0,631.0
135,choice,choice,42,6.0,Sea,1.0,7.332915750012035,Animal_Sea_Solid_Large,3,0,1,13099848.0,13100185.0,337.0
135,choice,choice,42,6.0,Sea,1.0,7.332915750012035,fixation,-1,1,0,13100196.0,13100831.0,635.0
135,choice,choice,42,6.0,Sea,1.0,7.332915750012035,Animal_Sea_Solid_Large,3,0,1,13100855.0,13101019.0,164.0
135,choice,choice,42,6.0,Sea,1.0,7.332915750012035,fixation,-1,1,0,13101579.0,13101601.0,22.0
135,choice,choice,42,6.0,Sea,1.0,7.332915750012035,Object_Land_Solid_Large,0,0,0,13101616.0,13101930.0,314.0
135,choice,choice,43,6.0,Animal,2.0,2.1358035000157543,Animal_Sea_Solid_Large,3,0,1,13104728.0,13104907.0,179.0
135,choice,choice,43,6.0,Animal,2.0,2.1358035000157543,Object_Land_Solid_Large,0,0,0,13104914.0,13105347.0,433.0
135,choice,choice,44,6.0,Large,2.0,8.692778291995637,Animal_Sea_Solid_Large,3,0,1,13110529.0,13110784.0,255.0
135,choice,choice,44,6.0,Large,2.0,8.692778291995637,fixation,-1,1,0,13110829.0,13111136.0,307.0
135,choice,choice,44,6.0,Large,2.0,8.692778291995637,Animal_Sea_Pattern_Small,2,0,0,13111327.0,13111354.0,27.0
135,choice,choice,44,6.0,Large,2.0,8.692778291995637,fixation,-1,1,0,13111372.0,13111986.0,614.0
135,choice,choice,44,6.0,Large,2.0,8.692778291995637,Animal_Land_Solid_Large,1,0,1,13112641.0,13112868.0,227.0
135,choice,choice,44,6.0,Large,2.0,8.692778291995637,fixation,-1,1,0,13112888.0,13113420.0,532.0
135,choice,choice,44,6.0,Large,2.0,8.692778291995637,Object_Sea_Pattern_Small,5,0,0,13113468.0,13113752.0,284.0
135,choice,choice,44,6.0,Large,2.0,8.692778291995637,Object_Land_Solid_Large,0,0,1,13114440.0,13114664.0,224.0
135,choice,choice,44,6.0,Large,2.0,8.692778291995637,Animal_Sea_Solid_Large,3,0,1,13114674.0,13114821.0,147.0
135,choice,choice,44,6.0,Large,2.0,8.692778291995637,fixation,-1,1,0,13115341.0,13115606.0,265.0
135,choice,choice,44,6.0,Large,2.0,8.692778291995637,Object_Land_Pattern_Small,4,0,0,13117359.0,13117523.0,164.0
135,choice,choice,44,6.0,Large,2.0,8.692778291995637,fixation,-1,1,0,13117543.0,13118553.0,1010.0
135,choice,choice,45,6.0,Land,2.0,1.837958541000262,fixation,-1,1,0,13122275.0,13123216.0,941.0
135,choice,choice,46,6.0,Pattern,2.0,3.1339952499838546,Animal_Sea_Solid_Large,3,0,0,13129410.0,13129569.0,159.0
135,choice,choice,46,6.0,Pattern,2.0,3.1339952499838546,fixation,-1,1,0,13129580.0,13129950.0,370.0
135,choice,choice,47,6.0,Object,1.0,1.791303500009235,Animal_Sea_Solid_Large,3,0,0,13133505.0,13133640.0,135.0
135,choice,choice,47,6.0,Object,1.0,1.791303500009235,fixation,-1,1,0,13133656.0,13134356.0,700.0
135,choice,choice,48,6.0,Solid,1.0,1.665146541025024,fixation,-1,1,0,13138236.0,13138398.0,162.0
135,choice,choice,48,6.0,Solid,1.0,1.665146541025024,Object_Land_Solid_Large,0,0,1,13138892.0,13139038.0,146.0
135,choice,choice,48,6.0,Solid,1.0,1.665146541025024,fixation,-1,1,0,13139050.0,13139303.0,253.0
135,choice,choice,49,7.0,Small,2.0,22.504791917017428,Animal_Land_Solid_Small,0,0,1,13442880.0,13443038.0,158.0
135,choice,choice,49,7.0,Small,2.0,22.504791917017428,Animal_Sea_Solid_Large,1,0,0,13443083.0,13443357.0,274.0
135,choice,choice,49,7.0,Small,2.0,22.504791917017428,Object_Land_Solid_Small,2,0,1,13443623.0,13443658.0,35.0
135,choice,choice,49,7.0,Small,2.0,22.504791917017428,fixation,-1,1,0,13443667.0,13443798.0,131.0
135,choice,choice,49,7.0,Small,2.0,22.504791917017428,Animal_Land_Solid_Small,0,0,1,13445134.0,13445622.0,488.0
135,choice,choice,49,7.0,Small,2.0,22.504791917017428,Object_Land_Solid_Small,2,0,1,13445674.0,13446407.0,733.0
135,choice,choice,49,7.0,Small,2.0,22.504791917017428,Animal_Land_Solid_Small,0,0,1,13446623.0,13447095.0,472.0
135,choice,choice,49,7.0,Small,2.0,22.504791917017428,fixation,-1,1,0,13447135.0,13447531.0,396.0
135,choice,choice,49,7.0,Small,2.0,22.504791917017428,Object_Land_Pattern_Large,3,0,0,13447555.0,13447705.0,150.0
135,choice,choice,49,7.0,Small,2.0,22.504791917017428,Animal_Sea_Solid_Large,1,0,0,13447974.0,13448225.0,251.0
135,choice,choice,49,7.0,Small,2.0,22.504791917017428,Animal_Sea_Pattern_Large,4,0,0,13448265.0,13448917.0,652.0
135,choice,choice,49,7.0,Small,2.0,22.504791917017428,fixation,-1,1,0,13449323.0,13450367.0,1044.0
135,choice,choice,49,7.0,Small,2.0,22.504791917017428,Animal_Sea_Pattern_Large,4,0,0,13450582.0,13450844.0,262.0
135,choice,choice,49,7.0,Small,2.0,22.504791917017428,Object_Land_Pattern_Large,3,0,0,13451059.0,13451169.0,110.0
135,choice,choice,49,7.0,Small,2.0,22.504791917017428,Animal_Land_Solid_Small,0,0,1,13451505.0,13452504.0,999.0
135,choice,choice,49,7.0,Small,2.0,22.504791917017428,Object_Land_Solid_Small,2,0,1,13452734.0,13453075.0,341.0
135,choice,choice,49,7.0,Small,2.0,22.504791917017428,Animal_Land_Solid_Small,0,0,1,13453117.0,13453616.0,499.0
135,choice,choice,49,7.0,Small,2.0,22.504791917017428,Object_Sea_Pattern_Small,5,0,1,13453991.0,13454452.0,461.0
135,choice,choice,49,7.0,Small,2.0,22.504791917017428,Object_Land_Solid_Small,2,0,1,13455356.0,13455941.0,585.0
135,choice,choice,49,7.0,Small,2.0,22.504791917017428,Animal_Land_Solid_Small,0,0,1,13456180.0,13456364.0,184.0
135,choice,choice,49,7.0,Small,2.0,22.504791917017428,fixation,-1,1,0,13456372.0,13458572.0,2200.0
135,choice,choice,49,7.0,Small,2.0,22.504791917017428,Object_Sea_Pattern_Small,5,0,1,13458789.0,13459089.0,300.0
135,choice,choice,49,7.0,Small,2.0,22.504791917017428,Animal_Sea_Solid_Large,1,0,0,13459131.0,13459869.0,738.0
135,choice,choice,49,7.0,Small,2.0,22.504791917017428,Object_Sea_Pattern_Small,5,0,1,13460406.0,13460808.0,402.0
135,choice,choice,49,7.0,Small,2.0,22.504791917017428,Object_Land_Solid_Small,2,0,1,13461076.0,13461118.0,42.0
135,choice,choice,49,7.0,Small,2.0,22.504791917017428,Object_Sea_Pattern_Small,5,0,1,13461125.0,13463063.0,1938.0
135,choice,choice,49,7.0,Small,2.0,22.504791917017428,fixation,-1,1,0,13463147.0,13463599.0,452.0
135,choice,choice,49,7.0,Small,2.0,22.504791917017428,Object_Sea_Pattern_Small,5,0,1,13463768.0,13464565.0,797.0
135,choice,choice,49,7.0,Small,2.0,22.504791917017428,Animal_Sea_Solid_Large,1,0,0,13464619.0,13464879.0,260.0
135,choice,choice,50,7.0,Solid,1.0,3.781021583999973,Animal_Sea_Solid_Large,1,0,1,13467685.0,13468709.0,1024.0
135,choice,choice,50,7.0,Solid,1.0,3.781021583999973,Animal_Land_Solid_Small,0,0,1,13468755.0,13469031.0,276.0
135,choice,choice,50,7.0,Solid,1.0,3.781021583999973,Object_Land_Solid_Small,2,0,1,13469256.0,13469295.0,39.0
135,choice,choice,50,7.0,Solid,1.0,3.781021583999973,Animal_Land_Solid_Small,0,0,1,13469306.0,13469909.0,603.0
135,choice,choice,50,7.0,Solid,1.0,3.781021583999973,fixation,-1,1,0,13469928.0,13470865.0,937.0
135,choice,choice,50,7.0,Solid,1.0,3.781021583999973,Animal_Sea_Solid_Large,1,0,1,13471094.0,13471198.0,104.0
135,choice,choice,51,7.0,Land,1.0,3.561256457993295,Animal_Sea_Solid_Large,1,0,0,13474772.0,13475371.0,599.0
135,choice,choice,51,7.0,Land,1.0,3.561256457993295,Animal_Land_Solid_Small,0,0,1,13475402.0,13475686.0,284.0
135,choice,choice,51,7.0,Land,1.0,3.561256457993295,Animal_Sea_Solid_Large,1,0,0,13475717.0,13476361.0,644.0
135,choice,choice,51,7.0,Land,1.0,3.561256457993295,Animal_Land_Solid_Small,0,0,1,13476596.0,13477075.0,479.0
135,choice,choice,51,7.0,Land,1.0,3.561256457993295,Object_Land_Pattern_Large,3,0,1,13477595.0,13478121.0,526.0
135,choice,choice,52,7.0,Animal,2.0,5.292233083979227,Object_Land_Solid_Small,2,0,0,13482147.0,13482386.0,239.0
135,choice,choice,52,7.0,Animal,2.0,5.292233083979227,Animal_Land_Solid_Small,0,0,1,13482403.0,13482916.0,513.0
135,choice,choice,52,7.0,Animal,2.0,5.292233083979227,fixation,-1,1,0,13482987.0,13483350.0,363.0
135,choice,choice,52,7.0,Animal,2.0,5.292233083979227,Object_Sea_Pattern_Small,5,0,0,13483373.0,13483627.0,254.0
135,choice,choice,52,7.0,Animal,2.0,5.292233083979227,fixation,-1,1,0,13483834.0,13484802.0,968.0
135,choice,choice,52,7.0,Animal,2.0,5.292233083979227,Animal_Sea_Solid_Large,1,0,1,13484814.0,13485258.0,444.0
135,choice,choice,52,7.0,Animal,2.0,5.292233083979227,Animal_Land_Solid_Small,0,0,1,13485277.0,13485617.0,340.0
135,choice,choice,52,7.0,Animal,2.0,5.292233083979227,Object_Land_Solid_Small,2,0,0,13485636.0,13485991.0,355.0
135,choice,choice,53,7.0,Object,1.0,2.0761094999907073,fixation,-1,1,0,13490456.0,13490552.0,96.0
135,choice,choice,53,7.0,Object,1.0,2.0761094999907073,Animal_Sea_Solid_Large,1,0,0,13490567.0,13491062.0,495.0
135,choice,choice,53,7.0,Object,1.0,2.0761094999907073,Animal_Land_Solid_Small,0,0,0,13491086.0,13491595.0,509.0
135,choice,choice,53,7.0,Object,1.0,2.0761094999907073,Object_Land_Solid_Small,2,0,1,13491613.0,13492310.0,697.0
135,choice,choice,54,7.0,Pattern,2.0,10.630936708010267,fixation,-1,1,0,13495659.0,13495966.0,307.0
135,choice,choice,54,7.0,Pattern,2.0,10.630936708010267,Animal_Land_Solid_Small,0,0,0,13496274.0,13496621.0,347.0
135,choice,choice,54,7.0,Pattern,2.0,10.630936708010267,fixation,-1,1,0,13496634.0,13497457.0,823.0
135,choice,choice,54,7.0,Pattern,2.0,10.630936708010267,Object_Land_Solid_Small,2,0,0,13497652.0,13497684.0,32.0
135,choice,choice,54,7.0,Pattern,2.0,10.630936708010267,fixation,-1,1,0,13497691.0,13499117.0,1426.0
135,choice,choice,54,7.0,Pattern,2.0,10.630936708010267,Object_Sea_Pattern_Small,5,0,1,13499334.0,13499911.0,577.0
135,choice,choice,54,7.0,Pattern,2.0,10.630936708010267,fixation,-1,1,0,13499935.0,13500499.0,564.0
135,choice,choice,54,7.0,Pattern,2.0,10.630936708010267,Object_Sea_Pattern_Small,5,0,1,13500784.0,13501267.0,483.0
135,choice,choice,54,7.0,Pattern,2.0,10.630936708010267,fixation,-1,1,0,13501282.0,13501711.0,429.0
135,choice,choice,54,7.0,Pattern,2.0,10.630936708010267,Animal_Sea_Solid_Large,1,0,0,13501722.0,13502670.0,948.0
135,choice,choice,54,7.0,Pattern,2.0,10.630936708010267,Object_Land_Pattern_Large,3,0,1,13503977.0,13504236.0,259.0
135,choice,choice,54,7.0,Pattern,2.0,10.630936708010267,Animal_Sea_Solid_Large,1,0,0,13504469.0,13505264.0,795.0
135,choice,choice,54,7.0,Pattern,2.0,10.630936708010267,Animal_Land_Solid_Small,0,0,0,13505357.0,13505601.0,244.0
135,choice,choice,55,7.0,Sea,2.0,17.12008787499508,Object_Land_Solid_Small,2,0,0,13509737.0,13509758.0,21.0
135,choice,choice,55,7.0,Sea,2.0,17.12008787499508,fixation,-1,1,0,13509773.0,13510499.0,726.0
135,choice,choice,55,7.0,Sea,2.0,17.12008787499508,Animal_Sea_Solid_Large,1,0,1,13510528.0,13511682.0,1154.0
135,choice,choice,55,7.0,Sea,2.0,17.12008787499508,fixation,-1,1,0,13512088.0,13512278.0,190.0
135,choice,choice,55,7.0,Sea,2.0,17.12008787499508,Object_Land_Solid_Small,2,0,0,13512427.0,13512847.0,420.0
135,choice,choice,55,7.0,Sea,2.0,17.12008787499508,Animal_Land_Solid_Small,0,0,0,13512870.0,13513299.0,429.0
135,choice,choice,55,7.0,Sea,2.0,17.12008787499508,Object_Land_Solid_Small,2,0,0,13513335.0,13513671.0,336.0
135,choice,choice,55,7.0,Sea,2.0,17.12008787499508,Animal_Land_Solid_Small,0,0,0,13513892.0,13514460.0,568.0
135,choice,choice,55,7.0,Sea,2.0,17.12008787499508,Object_Land_Pattern_Large,3,0,0,13514489.0,13514744.0,255.0
135,choice,choice,55,7.0,Sea,2.0,17.12008787499508,Animal_Sea_Solid_Large,1,0,1,13514755.0,13515051.0,296.0
135,choice,choice,55,7.0,Sea,2.0,17.12008787499508,fixation,-1,1,0,13515058.0,13516054.0,996.0
135,choice,choice,55,7.0,Sea,2.0,17.12008787499508,Object_Land_Solid_Small,2,0,0,13516221.0,13516545.0,324.0
135,choice,choice,55,7.0,Sea,2.0,17.12008787499508,fixation,-1,1,0,13516779.0,13517569.0,790.0
135,choice,choice,55,7.0,Sea,2.0,17.12008787499508,Object_Sea_Pattern_Small,5,0,1,13517604.0,13519641.0,2037.0
135,choice,choice,55,7.0,Sea,2.0,17.12008787499508,fixation,-1,1,0,13520173.0,13522899.0,2726.0
135,choice,choice,55,7.0,Sea,2.0,17.12008787499508,Animal_Land_Solid_Small,0,0,0,13523085.0,13523106.0,21.0
135,choice,choice,55,7.0,Sea,2.0,17.12008787499508,fixation,-1,1,0,13523122.0,13524295.0,1173.0
135,choice,choice,55,7.0,Sea,2.0,17.12008787499508,Animal_Sea_Pattern_Large,4,0,1,13525334.0,13525587.0,253.0
135,choice,choice,55,7.0,Sea,2.0,17.12008787499508,Animal_Sea_Solid_Large,1,0,1,13525606.0,13526200.0,594.0
135,choice,choice,56,7.0,Large,1.0,1.3760332080128137,fixation,-1,1,0,13529674.0,13529916.0,242.0
135,choice,choice,56,7.0,Large,1.0,1.3760332080128137,Animal_Sea_Solid_Large,1,0,1,13530154.0,13530471.0,317.0
135,choice,choice,56,7.0,Large,1.0,1.3760332080128137,fixation,-1,1,0,13530482.0,13530842.0,360.0
