phase,event,trial_number,eyetracker_onset,eyetracker_offset,fix_start,fix_end,fix_duration_full,fix_duration_bounded,fix_x,fix_y,roi_x,roi_y,roi_content,onset,offset,game,image,outcome,choice,correct,rt,letter,match,response,option,true_value,true_position,recalled_position,Unnamed: 18
encoding,fixation,1,10269082,10269847,10269163.0,10269411.0,249.0,249.0,1750.3,1108.6,1591.0,891.0,Animal_Land_Solid_Small,23.520758583996212,24.28568850000738,1.0,Animal_Sea_Solid_Large,-2.0,,,,,,,,,,,
encoding,fixation,1,10269082,10269847,10269423.0,10270157.0,735.0,424.0,1849.7,1092.8,1591.0,891.0,Animal_Land_Solid_Small,23.520758583996212,24.28568850000738,1.0,Animal_Sea_Solid_Large,-2.0,,,,,,,,,,,
encoding,image,1,10269847,10270867,10270196.0,10271227.0,1032.0,671.0,1541.6,931.4000000000001,1591.0,1269.0,Animal_Sea_Solid_Large,24.2858399169927,25.305787999997847,1.0,Animal_Sea_Solid_Large,-2.0,,,,,,,,,,,
encoding,value,1,10270867,10276884,10271243.0,10271721.0,479.0,479.0,1538.0,842.8,1591.0,1269.0,Animal_Sea_Solid_Large,25.305934917007107,31.322343917010585,1.0,Animal_Sea_Solid_Large,-2.0,,,,,,,,,,,
encoding,value,1,10270867,10276884,10271740.0,10272741.0,1002.0,1002.0,1536.7,935.4000000000001,1591.0,1269.0,Animal_Sea_Solid_Large,25.305934917007107,31.322343917010585,1.0,Animal_Sea_Solid_Large,-2.0,,,,,,,,,,,
encoding,value,1,10270867,10276884,10272758.0,10272999.0,242.0,242.0,1544.9,828.8,1591.0,1269.0,Animal_Sea_Solid_Large,25.305934917007107,31.322343917010585,1.0,Animal_Sea_Solid_Large,-2.0,,,,,,,,,,,
encoding,value,1,10270867,10276884,10273038.0,10273413.0,376.0,376.0,1879.9,1098.1,1920.0,1080.0,fixation,25.305934917007107,31.322343917010585,1.0,Animal_Sea_Solid_Large,-2.0,,,,,,,,,,,
encoding,value,1,10270867,10276884,10273461.0,10274104.0,644.0,644.0,1551.4,902.3,1591.0,1269.0,Animal_Sea_Solid_Large,25.305934917007107,31.322343917010585,1.0,Animal_Sea_Solid_Large,-2.0,,,,,,,,,,,
encoding,value,1,10270867,10276884,10274290.0,10274449.0,160.0,160.0,1553.6,926.0999999999999,1591.0,1269.0,Animal_Sea_Solid_Large,25.305934917007107,31.322343917010585,1.0,Animal_Sea_Solid_Large,-2.0,,,,,,,,,,,
encoding,value,1,10270867,10276884,10274667.0,10275099.0,433.0,433.0,1538.0,906.2,1591.0,1269.0,Animal_Sea_Solid_Large,25.305934917007107,31.322343917010585,1.0,Animal_Sea_Solid_Large,-2.0,,,,,,,,,,,
encoding,value,1,10270867,10276884,10275321.0,10275616.0,296.0,296.0,1550.2,908.9000000000001,1591.0,1269.0,Animal_Sea_Solid_Large,25.305934917007107,31.322343917010585,1.0,Animal_Sea_Solid_Large,-2.0,,,,,,,,,,,
encoding,value,1,10270867,10276884,10275855.0,10276753.0,899.0,899.0,1555.5,962.5999999999999,1591.0,1269.0,Animal_Sea_Solid_Large,25.305934917007107,31.322343917010585,1.0,Animal_Sea_Solid_Large,-2.0,,,,,,,,,,,
encoding,value,1,10270867,10276884,10276797.0,10277052.0,256.0,87.0,1893.7,1127.6,1920.0,1080.0,fixation,25.305934917007107,31.322343917010585,1.0,Animal_Sea_Solid_Large,-2.0,,,,,,,,,,,
encoding,attention,1,10276884,10279905,10277094.0,10277277.0,184.0,184.0,1570.0,825.0999999999999,1591.0,1269.0,Animal_Sea_Solid_Large,31.322469250008,34.342830084002344,1.0,Animal_Sea_Solid_Large,-2.0,-2.0,1.0,1.832426334003685,,,,,,,,
encoding,attention,1,10276884,10279905,10277286.0,10277693.0,408.0,408.0,1525.4,813.2,1591.0,1269.0,Animal_Sea_Solid_Large,31.322469250008,34.342830084002344,1.0,Animal_Sea_Solid_Large,-2.0,-2.0,1.0,1.832426334003685,,,,,,,,
encoding,attention,1,10276884,10279905,10277703.0,10277871.0,169.0,169.0,1590.7,809.7,1591.0,1269.0,Animal_Sea_Solid_Large,31.322469250008,34.342830084002344,1.0,Animal_Sea_Solid_Large,-2.0,-2.0,1.0,1.832426334003685,,,,,,,,
encoding,attention,1,10276884,10279905,10278079.0,10278509.0,431.0,431.0,1596.0,853.2,1591.0,1269.0,Animal_Sea_Solid_Large,31.322469250008,34.342830084002344,1.0,Animal_Sea_Solid_Large,-2.0,-2.0,1.0,1.832426334003685,,,,,,,,
encoding,attention,1,10276884,10279905,10278519.0,10279191.0,673.0,673.0,1597.1,809.5,1591.0,1269.0,Animal_Sea_Solid_Large,31.322469250008,34.342830084002344,1.0,Animal_Sea_Solid_Large,-2.0,-2.0,1.0,1.832426334003685,,,,,,,,
encoding,fixation,2,10279905,10280411,10280137.0,10280378.0,242.0,242.0,1866.8,1087.2,1920.0,1080.0,fixation,34.343004209018545,34.84872291699867,1.0,Animal_Sea_Pattern_Large,-1.0,,,,,,,,,,,
encoding,fixation,2,10279905,10280411,10280385.0,10280688.0,304.0,26.0,1897.4,1098.3,1920.0,1080.0,fixation,34.343004209018545,34.84872291699867,1.0,Animal_Sea_Pattern_Large,-1.0,,,,,,,,,,,
encoding,image,2,10280411,10281422,10280725.0,10280947.0,223.0,223.0,2144.8,945.5,2249.0,1269.0,Animal_Sea_Pattern_Large,34.84882949999883,35.859937417000765,1.0,Animal_Sea_Pattern_Large,-1.0,,,,,,,,,,,
encoding,image,2,10280411,10281422,10280957.0,10281806.0,850.0,465.0,2188.3,927.0999999999999,2249.0,1269.0,Animal_Sea_Pattern_Large,34.84882949999883,35.859937417000765,1.0,Animal_Sea_Pattern_Large,-1.0,,,,,,,,,,,
encoding,value,2,10281422,10287435,10282007.0,10282040.0,34.0,34.0,2214.1,999.5,2249.0,1269.0,Animal_Sea_Pattern_Large,35.860054292017594,41.87218412500806,1.0,Animal_Sea_Pattern_Large,-1.0,,,,,,,,,,,
encoding,value,2,10281422,10287435,10282051.0,10282218.0,168.0,168.0,2205.2,947.5,2249.0,1269.0,Animal_Sea_Pattern_Large,35.860054292017594,41.87218412500806,1.0,Animal_Sea_Pattern_Large,-1.0,,,,,,,,,,,
encoding,value,2,10281422,10287435,10282240.0,10283577.0,1338.0,1338.0,2201.4,912.0,2249.0,1269.0,Animal_Sea_Pattern_Large,35.860054292017594,41.87218412500806,1.0,Animal_Sea_Pattern_Large,-1.0,,,,,,,,,,,
encoding,value,2,10281422,10287435,10283586.0,10283991.0,406.0,406.0,2206.3,884.8,2249.0,1269.0,Animal_Sea_Pattern_Large,35.860054292017594,41.87218412500806,1.0,Animal_Sea_Pattern_Large,-1.0,,,,,,,,,,,
encoding,value,2,10281422,10287435,10284008.0,10284661.0,654.0,654.0,2211.0,811.3,2249.0,1269.0,Animal_Sea_Pattern_Large,35.860054292017594,41.87218412500806,1.0,Animal_Sea_Pattern_Large,-1.0,,,,,,,,,,,
encoding,value,2,10281422,10287435,10284866.0,10284898.0,33.0,33.0,1995.6,1093.0,2249.0,891.0,Object_Sea_Pattern_Small,35.860054292017594,41.87218412500806,1.0,Animal_Sea_Pattern_Large,-1.0,,,,,,,,,,,
encoding,value,2,10281422,10287435,10284907.0,10284993.0,87.0,87.0,1985.7,1036.0,2249.0,1269.0,Animal_Sea_Pattern_Large,35.860054292017594,41.87218412500806,1.0,Animal_Sea_Pattern_Large,-1.0,,,,,,,,,,,
encoding,value,2,10281422,10287435,10285008.0,10285301.0,294.0,294.0,1911.0,1097.2,1920.0,1080.0,fixation,35.860054292017594,41.87218412500806,1.0,Animal_Sea_Pattern_Large,-1.0,,,,,,,,,,,
encoding,value,2,10281422,10287435,10285343.0,10285924.0,582.0,582.0,2229.5,826.5,2249.0,1269.0,Animal_Sea_Pattern_Large,35.860054292017594,41.87218412500806,1.0,Animal_Sea_Pattern_Large,-1.0,,,,,,,,,,,
encoding,value,2,10281422,10287435,10285933.0,10286252.0,320.0,320.0,2183.6,824.8,2249.0,1269.0,Animal_Sea_Pattern_Large,35.860054292017594,41.87218412500806,1.0,Animal_Sea_Pattern_Large,-1.0,,,,,,,,,,,
encoding,value,2,10281422,10287435,10286260.0,10287476.0,1217.0,1175.0,2220.4,808.0999999999999,2249.0,1269.0,Animal_Sea_Pattern_Large,35.860054292017594,41.87218412500806,1.0,Animal_Sea_Pattern_Large,-1.0,,,,,,,,,,,
encoding,attention,2,10287435,10290452,10287496.0,10287848.0,353.0,353.0,2187.2,893.0,2249.0,1269.0,Animal_Sea_Pattern_Large,41.872324958996614,44.889280292001786,1.0,Animal_Sea_Pattern_Large,-1.0,-1.0,1.0,2.000630791997537,,,,,,,,
encoding,attention,2,10287435,10290452,10287863.0,10288574.0,712.0,712.0,2193.8,820.8,2249.0,1269.0,Animal_Sea_Pattern_Large,41.872324958996614,44.889280292001786,1.0,Animal_Sea_Pattern_Large,-1.0,-1.0,1.0,2.000630791997537,,,,,,,,
encoding,attention,2,10287435,10290452,10288585.0,10289749.0,1165.0,1165.0,2240.9,818.5999999999999,2249.0,1269.0,Animal_Sea_Pattern_Large,41.872324958996614,44.889280292001786,1.0,Animal_Sea_Pattern_Large,-1.0,-1.0,1.0,2.000630791997537,,,,,,,,
encoding,attention,2,10287435,10290452,10289784.0,10289923.0,140.0,140.0,1951.0,1045.3,1920.0,1080.0,fixation,41.872324958996614,44.889280292001786,1.0,Animal_Sea_Pattern_Large,-1.0,-1.0,1.0,2.000630791997537,,,,,,,,
encoding,fixation,3,10290452,10291207,,,,,,,,,none,44.889470791997155,45.64433275000192,1.0,Animal_Land_Solid_Small,4.0,,,,,,,,,,,
encoding,image,3,10291207,10292218,10291937.0,10292218.0,282.0,282.0,1562.4,1277.7,1591.0,891.0,Animal_Land_Solid_Small,45.64445424999576,46.655209334014216,1.0,Animal_Land_Solid_Small,4.0,,,,,,,,,,,
encoding,value,3,10292218,10298229,10292226.0,10292366.0,141.0,141.0,1584.8,1305.0,1591.0,891.0,Animal_Land_Solid_Small,46.65536500001326,52.66635345900431,1.0,Animal_Land_Solid_Small,4.0,,,,,,,,,,,
encoding,value,3,10292218,10298229,10292726.0,10292867.0,142.0,142.0,1580.7,1257.2,1591.0,891.0,Animal_Land_Solid_Small,46.65536500001326,52.66635345900431,1.0,Animal_Land_Solid_Small,4.0,,,,,,,,,,,
encoding,value,3,10292218,10298229,10293090.0,10293269.0,180.0,180.0,1555.7,1256.3,1591.0,891.0,Animal_Land_Solid_Small,46.65536500001326,52.66635345900431,1.0,Animal_Land_Solid_Small,4.0,,,,,,,,,,,
encoding,value,3,10292218,10298229,10293279.0,10294404.0,1126.0,1126.0,1574.9,1196.6,1591.0,891.0,Animal_Land_Solid_Small,46.65536500001326,52.66635345900431,1.0,Animal_Land_Solid_Small,4.0,,,,,,,,,,,
encoding,value,3,10292218,10298229,10294416.0,10295002.0,587.0,587.0,1568.6,1252.6,1591.0,891.0,Animal_Land_Solid_Small,46.65536500001326,52.66635345900431,1.0,Animal_Land_Solid_Small,4.0,,,,,,,,,,,
encoding,value,3,10292218,10298229,10295013.0,10296427.0,1415.0,1415.0,1580.2,1192.4,1591.0,891.0,Animal_Land_Solid_Small,46.65536500001326,52.66635345900431,1.0,Animal_Land_Solid_Small,4.0,,,,,,,,,,,
encoding,value,3,10292218,10298229,10296435.0,10298758.0,2324.0,1794.0,1574.8,1183.3,1591.0,891.0,Animal_Land_Solid_Small,46.65536500001326,52.66635345900431,1.0,Animal_Land_Solid_Small,4.0,,,,,,,,,,,
encoding,attention,3,10298229,10301247,10298769.0,10299076.0,308.0,308.0,1591.4,1182.4,1591.0,891.0,Animal_Land_Solid_Small,52.66645179199986,55.68410850001965,1.0,Animal_Land_Solid_Small,4.0,4.0,1.0,1.808630749990698,,,,,,,,
encoding,attention,3,10298229,10301247,10299330.0,10299417.0,88.0,88.0,1608.0,1247.4,1591.0,891.0,Animal_Land_Solid_Small,52.66645179199986,55.68410850001965,1.0,Animal_Land_Solid_Small,4.0,4.0,1.0,1.808630749990698,,,,,,,,
encoding,attention,3,10298229,10301247,10299726.0,10300496.0,771.0,771.0,1590.2,1183.2,1591.0,891.0,Animal_Land_Solid_Small,52.66645179199986,55.68410850001965,1.0,Animal_Land_Solid_Small,4.0,4.0,1.0,1.808630749990698,,,,,,,,
encoding,fixation,4,10301247,10302252,10301485.0,10301988.0,504.0,504.0,1884.2,1088.6,1920.0,1080.0,fixation,55.68426000000909,56.68934833400999,1.0,Object_Land_Solid_Small,-7.0,,,,,,,,,,,
encoding,fixation,4,10301247,10302252,10302225.0,10302245.0,21.0,21.0,1894.5,1180.6,1920.0,700.0,Object_Land_Solid_Small,55.68426000000909,56.68934833400999,1.0,Object_Land_Solid_Small,-7.0,,,,,,,,,,,
encoding,image,4,10302252,10303264,10302254.0,10302495.0,242.0,242.0,1877.0,1107.8,1920.0,1080.0,fixation,56.68945525001618,57.70098154200241,1.0,Object_Land_Solid_Small,-7.0,,,,,,,,,,,
encoding,image,4,10302252,10303264,10302541.0,10302796.0,256.0,256.0,1897.8,1429.0,1920.0,700.0,Object_Land_Solid_Small,56.68945525001618,57.70098154200241,1.0,Object_Land_Solid_Small,-7.0,,,,,,,,,,,
encoding,image,4,10302252,10303264,10302805.0,10303521.0,717.0,459.0,1898.7,1457.4,1920.0,700.0,Object_Land_Solid_Small,56.68945525001618,57.70098154200241,1.0,Object_Land_Solid_Small,-7.0,,,,,,,,,,,
encoding,value,4,10303264,10309277,10303536.0,10304172.0,637.0,637.0,1902.5,1374.7,1920.0,700.0,Object_Land_Solid_Small,57.701106374996016,63.7134205000184,1.0,Object_Land_Solid_Small,-7.0,,,,,,,,,,,
encoding,value,4,10303264,10309277,10304386.0,10304603.0,218.0,218.0,1870.0,1397.5,1920.0,700.0,Object_Land_Solid_Small,57.701106374996016,63.7134205000184,1.0,Object_Land_Solid_Small,-7.0,,,,,,,,,,,
encoding,value,4,10303264,10309277,10304613.0,10305293.0,681.0,681.0,1851.4,1431.4,1920.0,700.0,Object_Land_Solid_Small,57.701106374996016,63.7134205000184,1.0,Object_Land_Solid_Small,-7.0,,,,,,,,,,,
encoding,value,4,10303264,10309277,10305574.0,10306032.0,459.0,459.0,1871.1,1375.6,1920.0,700.0,Object_Land_Solid_Small,57.701106374996016,63.7134205000184,1.0,Object_Land_Solid_Small,-7.0,,,,,,,,,,,
encoding,value,4,10303264,10309277,10306049.0,10307174.0,1126.0,1126.0,1887.1,1444.9,1920.0,700.0,Object_Land_Solid_Small,57.701106374996016,63.7134205000184,1.0,Object_Land_Solid_Small,-7.0,,,,,,,,,,,
encoding,value,4,10303264,10309277,10307187.0,10309627.0,2441.0,2090.0,1891.5,1338.9,1920.0,700.0,Object_Land_Solid_Small,57.701106374996016,63.7134205000184,1.0,Object_Land_Solid_Small,-7.0,,,,,,,,,,,
encoding,attention,4,10309277,10312293,10309636.0,10309953.0,318.0,318.0,1923.1,1347.7,1920.0,700.0,Object_Land_Solid_Small,63.71353854201152,66.72963570899446,1.0,Object_Land_Solid_Small,-7.0,-7.0,1.0,1.4833260000159498,,,,,,,,
encoding,attention,4,10309277,10312293,10309963.0,10310129.0,167.0,167.0,1855.5,1349.8,1920.0,700.0,Object_Land_Solid_Small,63.71353854201152,66.72963570899446,1.0,Object_Land_Solid_Small,-7.0,-7.0,1.0,1.4833260000159498,,,,,,,,
encoding,attention,4,10309277,10312293,10310395.0,10310493.0,99.0,99.0,1869.0,1303.7,1920.0,700.0,Object_Land_Solid_Small,63.71353854201152,66.72963570899446,1.0,Object_Land_Solid_Small,-7.0,-7.0,1.0,1.4833260000159498,,,,,,,,
encoding,fixation,5,10312293,10313798,,,,,,,,,none,66.72977970901411,68.23470537501271,1.0,Object_Sea_Pattern_Small,2.0,,,,,,,,,,,
encoding,image,5,10313798,10314809,10314130.0,10315241.0,1112.0,679.0,2231.7,1287.8,2249.0,891.0,Object_Sea_Pattern_Small,68.23482199999853,69.24568333401112,1.0,Object_Sea_Pattern_Small,2.0,,,,,,,,,,,
encoding,value,5,10314809,10320820,10315428.0,10315454.0,27.0,27.0,2270.0,1367.0,2249.0,891.0,Object_Sea_Pattern_Small,69.24578512500739,75.25659508400713,1.0,Object_Sea_Pattern_Small,2.0,,,,,,,,,,,
encoding,value,5,10314809,10320820,10315460.0,10315660.0,201.0,201.0,2251.2,1311.5,2249.0,891.0,Object_Sea_Pattern_Small,69.24578512500739,75.25659508400713,1.0,Object_Sea_Pattern_Small,2.0,,,,,,,,,,,
encoding,value,5,10314809,10320820,10315938.0,10317740.0,1803.0,1803.0,2217.2,1280.4,2249.0,891.0,Object_Sea_Pattern_Small,69.24578512500739,75.25659508400713,1.0,Object_Sea_Pattern_Small,2.0,,,,,,,,,,,
encoding,value,5,10314809,10320820,10317913.0,10317938.0,26.0,26.0,2220.2,1349.3,2249.0,891.0,Object_Sea_Pattern_Small,69.24578512500739,75.25659508400713,1.0,Object_Sea_Pattern_Small,2.0,,,,,,,,,,,
encoding,value,5,10314809,10320820,10317944.0,10318531.0,588.0,588.0,2201.9,1293.5,2249.0,891.0,Object_Sea_Pattern_Small,69.24578512500739,75.25659508400713,1.0,Object_Sea_Pattern_Small,2.0,,,,,,,,,,,
encoding,value,5,10314809,10320820,10318781.0,10318907.0,127.0,127.0,2193.7,1248.7,2249.0,891.0,Object_Sea_Pattern_Small,69.24578512500739,75.25659508400713,1.0,Object_Sea_Pattern_Small,2.0,,,,,,,,,,,
encoding,value,5,10314809,10320820,10319125.0,10319160.0,36.0,36.0,2158.7,1214.8,2249.0,891.0,Object_Sea_Pattern_Small,69.24578512500739,75.25659508400713,1.0,Object_Sea_Pattern_Small,2.0,,,,,,,,,,,
encoding,value,5,10314809,10320820,10319170.0,10320024.0,855.0,855.0,2146.2,1142.6,2249.0,891.0,Object_Sea_Pattern_Small,69.24578512500739,75.25659508400713,1.0,Object_Sea_Pattern_Small,2.0,,,,,,,,,,,
encoding,value,5,10314809,10320820,10320041.0,10320502.0,462.0,462.0,2205.2,1248.5,2249.0,891.0,Object_Sea_Pattern_Small,69.24578512500739,75.25659508400713,1.0,Object_Sea_Pattern_Small,2.0,,,,,,,,,,,
encoding,value,5,10314809,10320820,10320783.0,10320805.0,23.0,23.0,2259.6,1361.3,2249.0,891.0,Object_Sea_Pattern_Small,69.24578512500739,75.25659508400713,1.0,Object_Sea_Pattern_Small,2.0,,,,,,,,,,,
encoding,value,5,10314809,10320820,10320816.0,10321237.0,422.0,4.0,2246.1,1296.7,2249.0,891.0,Object_Sea_Pattern_Small,69.24578512500739,75.25659508400713,1.0,Object_Sea_Pattern_Small,2.0,,,,,,,,,,,
encoding,attention,5,10320820,10323884,10321252.0,10321453.0,202.0,202.0,2214.9,1211.4,2249.0,891.0,Object_Sea_Pattern_Small,75.2567080000008,78.32011645901366,1.0,Object_Sea_Pattern_Small,2.0,2.0,1.0,1.8448516660137104,,,,,,,,
encoding,attention,5,10320820,10323884,10321461.0,10321640.0,180.0,180.0,2175.6,1182.1,2249.0,891.0,Object_Sea_Pattern_Small,75.2567080000008,78.32011645901366,1.0,Object_Sea_Pattern_Small,2.0,2.0,1.0,1.8448516660137104,,,,,,,,
encoding,attention,5,10320820,10323884,10321898.0,10321940.0,43.0,43.0,2238.8,1289.5,2249.0,891.0,Object_Sea_Pattern_Small,75.2567080000008,78.32011645901366,1.0,Object_Sea_Pattern_Small,2.0,2.0,1.0,1.8448516660137104,,,,,,,,
encoding,attention,5,10320820,10323884,10322166.0,10322195.0,30.0,30.0,2207.2,1351.2,2249.0,891.0,Object_Sea_Pattern_Small,75.2567080000008,78.32011645901366,1.0,Object_Sea_Pattern_Small,2.0,2.0,1.0,1.8448516660137104,,,,,,,,
encoding,attention,5,10320820,10323884,10322204.0,10322622.0,419.0,419.0,2203.7,1295.4,2249.0,891.0,Object_Sea_Pattern_Small,75.2567080000008,78.32011645901366,1.0,Object_Sea_Pattern_Small,2.0,2.0,1.0,1.8448516660137104,,,,,,,,
encoding,attention,5,10320820,10323884,10322638.0,10323172.0,535.0,535.0,2191.6,1202.4,2249.0,891.0,Object_Sea_Pattern_Small,75.2567080000008,78.32011645901366,1.0,Object_Sea_Pattern_Small,2.0,2.0,1.0,1.8448516660137104,,,,,,,,
encoding,fixation,6,10323884,10324389,10324101.0,10324392.0,292.0,288.0,1861.9,1110.5,1920.0,1080.0,fixation,78.32026866701199,78.82523554199724,1.0,Object_Land_Pattern_Large,7.0,,,,,,,,,,,
encoding,image,6,10324389,10325401,10324644.0,10324818.0,175.0,175.0,1880.5,1141.5,1591.0,891.0,Animal_Land_Solid_Small,78.82535337499576,79.83737350002048,1.0,Object_Land_Pattern_Large,7.0,,,,,,,,,,,
encoding,image,6,10324389,10325401,10324864.0,10326250.0,1387.0,537.0,1861.2,704.8,1920.0,1460.0,Object_Land_Pattern_Large,78.82535337499576,79.83737350002048,1.0,Object_Land_Pattern_Large,7.0,,,,,,,,,,,
encoding,value,6,10325401,10331415,10326499.0,10326550.0,52.0,52.0,1891.6,799.5,1920.0,1460.0,Object_Land_Pattern_Large,79.83747733401833,85.8503875840106,1.0,Object_Land_Pattern_Large,7.0,,,,,,,,,,,
encoding,value,6,10325401,10331415,10326558.0,10327521.0,964.0,964.0,1874.8,700.4000000000001,1920.0,1460.0,Object_Land_Pattern_Large,79.83747733401833,85.8503875840106,1.0,Object_Land_Pattern_Large,7.0,,,,,,,,,,,
encoding,value,6,10325401,10331415,10327532.0,10327742.0,211.0,211.0,1861.0,749.5999999999999,1920.0,1460.0,Object_Land_Pattern_Large,79.83747733401833,85.8503875840106,1.0,Object_Land_Pattern_Large,7.0,,,,,,,,,,,
encoding,value,6,10325401,10331415,10327753.0,10328788.0,1036.0,1036.0,1868.3,699.8,1920.0,1460.0,Object_Land_Pattern_Large,79.83747733401833,85.8503875840106,1.0,Object_Land_Pattern_Large,7.0,,,,,,,,,,,
encoding,value,6,10325401,10331415,10328801.0,10329582.0,782.0,782.0,1901.8,617.2,1920.0,1460.0,Object_Land_Pattern_Large,79.83747733401833,85.8503875840106,1.0,Object_Land_Pattern_Large,7.0,,,,,,,,,,,
encoding,value,6,10325401,10331415,10329592.0,10330544.0,953.0,953.0,1873.7,688.8,1920.0,1460.0,Object_Land_Pattern_Large,79.83747733401833,85.8503875840106,1.0,Object_Land_Pattern_Large,7.0,,,,,,,,,,,
encoding,value,6,10325401,10331415,10330789.0,10331031.0,243.0,243.0,1860.9,754.9000000000001,1920.0,1460.0,Object_Land_Pattern_Large,79.83747733401833,85.8503875840106,1.0,Object_Land_Pattern_Large,7.0,,,,,,,,,,,
encoding,value,6,10325401,10331415,10331313.0,10331400.0,88.0,88.0,1890.5,783.5,1920.0,1460.0,Object_Land_Pattern_Large,79.83747733401833,85.8503875840106,1.0,Object_Land_Pattern_Large,7.0,,,,,,,,,,,
encoding,attention,6,10331415,10334434,10331646.0,10332424.0,779.0,779.0,1864.1,734.0,1920.0,1460.0,Object_Land_Pattern_Large,85.85062516701873,88.86905925002065,1.0,Object_Land_Pattern_Large,7.0,7.0,1.0,2.5076604999776464,,,,,,,,
encoding,attention,6,10331415,10334434,10332437.0,10332835.0,399.0,399.0,1920.4,658.8,1920.0,1460.0,Object_Land_Pattern_Large,85.85062516701873,88.86905925002065,1.0,Object_Land_Pattern_Large,7.0,7.0,1.0,2.5076604999776464,,,,,,,,
encoding,attention,6,10331415,10334434,10332846.0,10333061.0,216.0,216.0,1882.3,694.5,1920.0,1460.0,Object_Land_Pattern_Large,85.85062516701873,88.86905925002065,1.0,Object_Land_Pattern_Large,7.0,7.0,1.0,2.5076604999776464,,,,,,,,
encoding,attention,6,10331415,10334434,10333363.0,10333426.0,64.0,64.0,1868.4,735.3,1920.0,1460.0,Object_Land_Pattern_Large,85.85062516701873,88.86905925002065,1.0,Object_Land_Pattern_Large,7.0,7.0,1.0,2.5076604999776464,,,,,,,,
encoding,attention,6,10331415,10334434,10333712.0,10333869.0,158.0,158.0,1838.4,694.2,1920.0,1460.0,Object_Land_Pattern_Large,85.85062516701873,88.86905925002065,1.0,Object_Land_Pattern_Large,7.0,7.0,1.0,2.5076604999776464,,,,,,,,
encoding,attention,6,10331415,10334434,10333877.0,10334244.0,368.0,368.0,1870.8,703.5,1920.0,1460.0,Object_Land_Pattern_Large,85.85062516701873,88.86905925002065,1.0,Object_Land_Pattern_Large,7.0,7.0,1.0,2.5076604999776464,,,,,,,,
encoding,fixation,7,10965919,10967176,10966161.0,10966378.0,218.0,218.0,1880.2,1140.7,1591.0,891.0,Animal_Land_Solid_Small,31.054993915982777,32.31136733299354,2.0,Animal_Land_Pattern_Large,-5.0,,,,,,,,,,,
encoding,fixation,7,10965919,10967176,10966390.0,10966669.0,280.0,280.0,1886.3,1077.4,1920.0,1080.0,fixation,31.054993915982777,32.31136733299354,2.0,Animal_Land_Pattern_Large,-5.0,,,,,,,,,,,
encoding,fixation,7,10965919,10967176,10966677.0,10967034.0,358.0,358.0,1871.8,1049.7,1920.0,1080.0,fixation,31.054993915982777,32.31136733299354,2.0,Animal_Land_Pattern_Large,-5.0,,,,,,,,,,,
encoding,fixation,7,10965919,10967176,10967156.0,10967509.0,354.0,20.0,1876.1,1061.9,1920.0,1080.0,fixation,31.054993915982777,32.31136733299354,2.0,Animal_Land_Pattern_Large,-5.0,,,,,,,,,,,
encoding,image,7,10967176,10968189,10967557.0,10968345.0,789.0,632.0,2226.4,1266.2,2249.0,891.0,Animal_Land_Pattern_Large,32.31149654099136,33.32501683299779,2.0,Animal_Land_Pattern_Large,-5.0,,,,,,,,,,,
encoding,value,7,10968189,10974203,10968359.0,10968877.0,519.0,519.0,2227.8,1193.1,2249.0,891.0,Animal_Land_Pattern_Large,33.32513895799639,39.338061791000655,2.0,Animal_Land_Pattern_Large,-5.0,,,,,,,,,,,
encoding,value,7,10968189,10974203,10968896.0,10969656.0,761.0,761.0,2231.9,1305.9,2249.0,891.0,Animal_Land_Pattern_Large,33.32513895799639,39.338061791000655,2.0,Animal_Land_Pattern_Large,-5.0,,,,,,,,,,,
encoding,value,7,10968189,10974203,10969824.0,10970252.0,429.0,429.0,2185.6,1281.3,2249.0,891.0,Animal_Land_Pattern_Large,33.32513895799639,39.338061791000655,2.0,Animal_Land_Pattern_Large,-5.0,,,,,,,,,,,
encoding,value,7,10968189,10974203,10970260.0,10970901.0,642.0,642.0,2169.7,1309.6,2249.0,891.0,Animal_Land_Pattern_Large,33.32513895799639,39.338061791000655,2.0,Animal_Land_Pattern_Large,-5.0,,,,,,,,,,,
encoding,value,7,10968189,10974203,10970921.0,10971314.0,394.0,394.0,2214.9,1186.0,2249.0,891.0,Animal_Land_Pattern_Large,33.32513895799639,39.338061791000655,2.0,Animal_Land_Pattern_Large,-5.0,,,,,,,,,,,
encoding,value,7,10968189,10974203,10971333.0,10971480.0,148.0,148.0,2182.0,1293.3,2249.0,891.0,Animal_Land_Pattern_Large,33.32513895799639,39.338061791000655,2.0,Animal_Land_Pattern_Large,-5.0,,,,,,,,,,,
encoding,value,7,10968189,10974203,10971640.0,10972781.0,1142.0,1142.0,2173.4,1303.6,2249.0,891.0,Animal_Land_Pattern_Large,33.32513895799639,39.338061791000655,2.0,Animal_Land_Pattern_Large,-5.0,,,,,,,,,,,
encoding,value,7,10968189,10974203,10972797.0,10973029.0,233.0,233.0,2212.9,1207.0,2249.0,891.0,Animal_Land_Pattern_Large,33.32513895799639,39.338061791000655,2.0,Animal_Land_Pattern_Large,-5.0,,,,,,,,,,,
encoding,value,7,10968189,10974203,10973043.0,10973245.0,203.0,203.0,2195.7,1279.0,2249.0,891.0,Animal_Land_Pattern_Large,33.32513895799639,39.338061791000655,2.0,Animal_Land_Pattern_Large,-5.0,,,,,,,,,,,
encoding,value,7,10968189,10974203,10973384.0,10973835.0,452.0,452.0,2189.9,1308.1,2249.0,891.0,Animal_Land_Pattern_Large,33.32513895799639,39.338061791000655,2.0,Animal_Land_Pattern_Large,-5.0,,,,,,,,,,,
encoding,value,7,10968189,10974203,10973854.0,10974883.0,1030.0,349.0,2213.3,1187.5,2249.0,891.0,Animal_Land_Pattern_Large,33.32513895799639,39.338061791000655,2.0,Animal_Land_Pattern_Large,-5.0,,,,,,,,,,,
encoding,attention,7,10974203,10977221,10975027.0,10975626.0,600.0,600.0,2180.1,1187.3,2249.0,891.0,Animal_Land_Pattern_Large,39.33818424999481,42.35677787498571,2.0,Animal_Land_Pattern_Large,-5.0,-5.0,1.0,1.7433439580199774,,,,,,,,
encoding,attention,7,10974203,10977221,10975824.0,10976225.0,402.0,402.0,2193.9,1246.1,2249.0,891.0,Animal_Land_Pattern_Large,39.33818424999481,42.35677787498571,2.0,Animal_Land_Pattern_Large,-5.0,-5.0,1.0,1.7433439580199774,,,,,,,,
encoding,attention,7,10974203,10977221,10976240.0,10977084.0,845.0,845.0,2174.8,1158.8,2249.0,891.0,Animal_Land_Pattern_Large,39.33818424999481,42.35677787498571,2.0,Animal_Land_Pattern_Large,-5.0,-5.0,1.0,1.7433439580199774,,,,,,,,
encoding,fixation,8,10977222,10977977,10977461.0,10977672.0,212.0,212.0,1890.8,1094.6,1920.0,1080.0,fixation,42.35692220798228,43.112060540996026,2.0,Animal_Sea_Solid_Small,1.0,,,,,,,,,,,
encoding,fixation,8,10977222,10977977,10977683.0,10978241.0,559.0,294.0,1863.9,1058.6,1920.0,1080.0,fixation,42.35692220798228,43.112060540996026,2.0,Animal_Sea_Solid_Small,1.0,,,,,,,,,,,
encoding,image,8,10977977,10978988,10978280.0,10979194.0,915.0,708.0,1842.2,687.4000000000001,1920.0,1460.0,Animal_Sea_Solid_Small,43.11216270798468,44.12327137499233,2.0,Animal_Sea_Solid_Small,1.0,,,,,,,,,,,
encoding,value,8,10978988,10985000,10979213.0,10979581.0,369.0,369.0,1877.1,569.4000000000001,1920.0,1460.0,Animal_Sea_Solid_Small,44.123374999995576,50.13520799999242,2.0,Animal_Sea_Solid_Small,1.0,,,,,,,,,,,
encoding,value,8,10978988,10985000,10979598.0,10979620.0,23.0,23.0,1862.4,659.0999999999999,1920.0,1460.0,Animal_Sea_Solid_Small,44.123374999995576,50.13520799999242,2.0,Animal_Sea_Solid_Small,1.0,,,,,,,,,,,
encoding,value,8,10978988,10985000,10979806.0,10981074.0,1269.0,1269.0,1868.5,688.5,1920.0,1460.0,Animal_Sea_Solid_Small,44.123374999995576,50.13520799999242,2.0,Animal_Sea_Solid_Small,1.0,,,,,,,,,,,
encoding,value,8,10978988,10985000,10981254.0,10981645.0,392.0,392.0,1862.2,672.4000000000001,1920.0,1460.0,Animal_Sea_Solid_Small,44.123374999995576,50.13520799999242,2.0,Animal_Sea_Solid_Small,1.0,,,,,,,,,,,
encoding,value,8,10978988,10985000,10981660.0,10981906.0,247.0,247.0,1857.1,736.9000000000001,1920.0,1460.0,Animal_Sea_Solid_Small,44.123374999995576,50.13520799999242,2.0,Animal_Sea_Solid_Small,1.0,,,,,,,,,,,
encoding,value,8,10978988,10985000,10981915.0,10983132.0,1218.0,1218.0,1850.4,670.2,1920.0,1460.0,Animal_Sea_Solid_Small,44.123374999995576,50.13520799999242,2.0,Animal_Sea_Solid_Small,1.0,,,,,,,,,,,
encoding,value,8,10978988,10985000,10983140.0,10984644.0,1505.0,1505.0,1855.2,680.9000000000001,1920.0,1460.0,Animal_Sea_Solid_Small,44.123374999995576,50.13520799999242,2.0,Animal_Sea_Solid_Small,1.0,,,,,,,,,,,
encoding,value,8,10978988,10985000,10984650.0,10985051.0,402.0,350.0,1868.6,739.4000000000001,1920.0,1460.0,Animal_Sea_Solid_Small,44.123374999995576,50.13520799999242,2.0,Animal_Sea_Solid_Small,1.0,,,,,,,,,,,
encoding,attention,8,10985000,10988019,10985070.0,10985539.0,470.0,470.0,1873.3,598.2,1920.0,1460.0,Animal_Sea_Solid_Small,50.13533712498611,53.15337975000148,2.0,Animal_Sea_Solid_Small,1.0,1.0,1.0,2.811122208018787,,,,,,,,
encoding,attention,8,10985000,10988019,10985550.0,10985954.0,405.0,405.0,1930.9,577.0,1920.0,1460.0,Animal_Sea_Solid_Small,50.13533712498611,53.15337975000148,2.0,Animal_Sea_Solid_Small,1.0,1.0,1.0,2.811122208018787,,,,,,,,
encoding,attention,8,10985000,10988019,10986146.0,10986176.0,31.0,31.0,1894.3,750.0,1920.0,1460.0,Animal_Sea_Solid_Small,50.13533712498611,53.15337975000148,2.0,Animal_Sea_Solid_Small,1.0,1.0,1.0,2.811122208018787,,,,,,,,
encoding,attention,8,10985000,10988019,10986192.0,10987378.0,1187.0,1187.0,1861.5,676.9000000000001,1920.0,1460.0,Animal_Sea_Solid_Small,50.13533712498611,53.15337975000148,2.0,Animal_Sea_Solid_Small,1.0,1.0,1.0,2.811122208018787,,,,,,,,
encoding,attention,8,10985000,10988019,10987394.0,10987656.0,263.0,263.0,1918.1,604.8,1920.0,1460.0,Animal_Sea_Solid_Small,50.13533712498611,53.15337975000148,2.0,Animal_Sea_Solid_Small,1.0,1.0,1.0,2.811122208018787,,,,,,,,
encoding,attention,8,10985000,10988019,10987673.0,10987790.0,118.0,118.0,1845.3,675.0999999999999,1920.0,1460.0,Animal_Sea_Solid_Small,50.13533712498611,53.15337975000148,2.0,Animal_Sea_Solid_Small,1.0,1.0,1.0,2.811122208018787,,,,,,,,
encoding,fixation,9,10988019,10988523,10988296.0,10988852.0,557.0,227.0,1867.0,1059.2,1920.0,1080.0,fixation,53.15351441598614,53.65815816598479,2.0,Animal_Land_Solid_Small,3.0,,,,,,,,,,,
encoding,image,9,10988523,10989533,10988893.0,10989189.0,297.0,297.0,1600.4,1267.1,1591.0,891.0,Animal_Land_Solid_Small,53.658266165992245,54.6676950409892,2.0,Animal_Land_Solid_Small,3.0,,,,,,,,,,,
encoding,image,9,10988523,10989533,10989199.0,10989709.0,511.0,334.0,1583.4,1215.3,1591.0,891.0,Animal_Land_Solid_Small,53.658266165992245,54.6676950409892,2.0,Animal_Land_Solid_Small,3.0,,,,,,,,,,,
encoding,value,9,10989533,10995546,10989717.0,10990206.0,490.0,490.0,1561.9,1170.7,1591.0,891.0,Animal_Land_Solid_Small,54.66792008298216,60.680110040993895,2.0,Animal_Land_Solid_Small,3.0,,,,,,,,,,,
encoding,value,9,10989533,10995546,10990230.0,10991196.0,967.0,967.0,1600.4,1306.0,1591.0,891.0,Animal_Land_Solid_Small,54.66792008298216,60.680110040993895,2.0,Animal_Land_Solid_Small,3.0,,,,,,,,,,,
encoding,value,9,10989533,10995546,10991216.0,10991504.0,289.0,289.0,1577.5,1200.6,1591.0,891.0,Animal_Land_Solid_Small,54.66792008298216,60.680110040993895,2.0,Animal_Land_Solid_Small,3.0,,,,,,,,,,,
encoding,value,9,10989533,10995546,10991699.0,10991966.0,268.0,268.0,1600.9,1293.9,1591.0,891.0,Animal_Land_Solid_Small,54.66792008298216,60.680110040993895,2.0,Animal_Land_Solid_Small,3.0,,,,,,,,,,,
encoding,value,9,10989533,10995546,10992178.0,10992801.0,624.0,624.0,1617.2,1308.5,1591.0,891.0,Animal_Land_Solid_Small,54.66792008298216,60.680110040993895,2.0,Animal_Land_Solid_Small,3.0,,,,,,,,,,,
encoding,value,9,10989533,10995546,10992820.0,10993473.0,654.0,654.0,1583.4,1172.8,1591.0,891.0,Animal_Land_Solid_Small,54.66792008298216,60.680110040993895,2.0,Animal_Land_Solid_Small,3.0,,,,,,,,,,,
encoding,value,9,10989533,10995546,10993490.0,10993832.0,343.0,343.0,1577.9,1269.2,1591.0,891.0,Animal_Land_Solid_Small,54.66792008298216,60.680110040993895,2.0,Animal_Land_Solid_Small,3.0,,,,,,,,,,,
encoding,value,9,10989533,10995546,10994060.0,10994239.0,180.0,180.0,1616.8,1209.5,1591.0,891.0,Animal_Land_Solid_Small,54.66792008298216,60.680110040993895,2.0,Animal_Land_Solid_Small,3.0,,,,,,,,,,,
encoding,value,9,10989533,10995546,10994246.0,10994513.0,268.0,268.0,1562.8,1177.0,1591.0,891.0,Animal_Land_Solid_Small,54.66792008298216,60.680110040993895,2.0,Animal_Land_Solid_Small,3.0,,,,,,,,,,,
encoding,value,9,10989533,10995546,10994543.0,10995185.0,643.0,643.0,1869.6,1068.6,1920.0,1080.0,fixation,54.66792008298216,60.680110040993895,2.0,Animal_Land_Solid_Small,3.0,,,,,,,,,,,
encoding,value,9,10989533,10995546,10995215.0,10995911.0,697.0,331.0,1573.6,1149.2,1591.0,891.0,Animal_Land_Solid_Small,54.66792008298216,60.680110040993895,2.0,Animal_Land_Solid_Small,3.0,,,,,,,,,,,
encoding,attention,9,10995546,10998558,10995920.0,10996489.0,570.0,570.0,1530.2,1147.4,1591.0,891.0,Animal_Land_Solid_Small,60.68022062498494,63.69197975000134,2.0,Animal_Land_Solid_Small,3.0,,,,,,,,,,,
encoding,attention,9,10995546,10998558,10996706.0,10997007.0,302.0,302.0,1560.6,1158.1,1591.0,891.0,Animal_Land_Solid_Small,60.68022062498494,63.69197975000134,2.0,Animal_Land_Solid_Small,3.0,,,,,,,,,,,
encoding,attention,9,10995546,10998558,10997014.0,10997377.0,364.0,364.0,1516.0,1144.2,1591.0,891.0,Animal_Land_Solid_Small,60.68022062498494,63.69197975000134,2.0,Animal_Land_Solid_Small,3.0,,,,,,,,,,,
encoding,attention,9,10995546,10998558,10997390.0,10997718.0,329.0,329.0,1602.3,1155.7,1591.0,891.0,Animal_Land_Solid_Small,60.68022062498494,63.69197975000134,2.0,Animal_Land_Solid_Small,3.0,,,,,,,,,,,
encoding,fixation,10,10998558,10999066,,,,,,,,,none,63.69211820798227,64.19996041597915,2.0,Object_Land_Pattern_Small,-7.0,,,,,,,,,,,
encoding,image,10,10999066,11000077,10999142.0,10999361.0,220.0,220.0,1769.2,1093.8,1591.0,891.0,Animal_Land_Solid_Small,64.20006133298739,65.21099370799493,2.0,Object_Land_Pattern_Small,-7.0,,,,,,,,,,,
encoding,image,10,10999066,11000077,10999403.0,10999833.0,431.0,431.0,2126.9,881.8,2249.0,1269.0,Object_Land_Pattern_Small,64.20006133298739,65.21099370799493,2.0,Object_Land_Pattern_Small,-7.0,,,,,,,,,,,
encoding,image,10,10999066,11000077,10999861.0,11000331.0,471.0,216.0,1861.3,1008.0,1591.0,1269.0,Object_Sea_Solid_Large,64.20006133298739,65.21099370799493,2.0,Object_Land_Pattern_Small,-7.0,,,,,,,,,,,
encoding,value,10,11000077,11006089,11000373.0,11001080.0,708.0,708.0,2168.5,724.5999999999999,2249.0,1269.0,Object_Land_Pattern_Small,65.2111068329832,71.22304724997957,2.0,Object_Land_Pattern_Small,-7.0,,,,,,,,,,,
encoding,value,10,11000077,11006089,11001103.0,11001592.0,490.0,490.0,2187.1,847.0999999999999,2249.0,1269.0,Object_Land_Pattern_Small,65.2111068329832,71.22304724997957,2.0,Object_Land_Pattern_Small,-7.0,,,,,,,,,,,
encoding,value,10,11000077,11006089,11001601.0,11001985.0,385.0,385.0,2154.3,875.5999999999999,2249.0,1269.0,Object_Land_Pattern_Small,65.2111068329832,71.22304724997957,2.0,Object_Land_Pattern_Small,-7.0,,,,,,,,,,,
encoding,value,10,11000077,11006089,11002003.0,11002439.0,437.0,437.0,2188.9,776.3,2249.0,1269.0,Object_Land_Pattern_Small,65.2111068329832,71.22304724997957,2.0,Object_Land_Pattern_Small,-7.0,,,,,,,,,,,
encoding,value,10,11000077,11006089,11002462.0,11003480.0,1019.0,1019.0,2202.2,879.0999999999999,2249.0,1269.0,Object_Land_Pattern_Small,65.2111068329832,71.22304724997957,2.0,Object_Land_Pattern_Small,-7.0,,,,,,,,,,,
encoding,value,10,11000077,11006089,11003497.0,11003784.0,288.0,288.0,2216.7,780.8,2249.0,1269.0,Object_Land_Pattern_Small,65.2111068329832,71.22304724997957,2.0,Object_Land_Pattern_Small,-7.0,,,,,,,,,,,
encoding,value,10,11000077,11006089,11003797.0,11004553.0,757.0,757.0,2223.8,887.0999999999999,2249.0,1269.0,Object_Land_Pattern_Small,65.2111068329832,71.22304724997957,2.0,Object_Land_Pattern_Small,-7.0,,,,,,,,,,,
encoding,value,10,11000077,11006089,11004572.0,11005687.0,1116.0,1116.0,2222.5,796.3,2249.0,1269.0,Object_Land_Pattern_Small,65.2111068329832,71.22304724997957,2.0,Object_Land_Pattern_Small,-7.0,,,,,,,,,,,
encoding,value,10,11000077,11006089,11005851.0,11006018.0,168.0,168.0,2253.6,839.4000000000001,2249.0,1269.0,Object_Land_Pattern_Small,65.2111068329832,71.22304724997957,2.0,Object_Land_Pattern_Small,-7.0,,,,,,,,,,,
encoding,attention,10,11006089,11009107,11006208.0,11006420.0,213.0,213.0,2127.8,923.5999999999999,2249.0,1269.0,Object_Land_Pattern_Small,71.22317404099158,74.24037495799712,2.0,Object_Land_Pattern_Small,-7.0,-7.0,1.0,1.4937200830026995,,,,,,,,
encoding,attention,10,11006089,11009107,11006440.0,11006650.0,211.0,211.0,2238.2,816.0,2249.0,1269.0,Object_Land_Pattern_Small,71.22317404099158,74.24037495799712,2.0,Object_Land_Pattern_Small,-7.0,-7.0,1.0,1.4937200830026995,,,,,,,,
encoding,attention,10,11006089,11009107,11006855.0,11007909.0,1055.0,1055.0,2132.3,806.8,2249.0,1269.0,Object_Land_Pattern_Small,71.22317404099158,74.24037495799712,2.0,Object_Land_Pattern_Small,-7.0,-7.0,1.0,1.4937200830026995,,,,,,,,
encoding,attention,10,11006089,11009107,11008169.0,11008458.0,290.0,290.0,2179.3,947.3,2249.0,1269.0,Object_Land_Pattern_Small,71.22317404099158,74.24037495799712,2.0,Object_Land_Pattern_Small,-7.0,-7.0,1.0,1.4937200830026995,,,,,,,,
encoding,attention,10,11006089,11009107,11008477.0,11009068.0,592.0,592.0,2149.4,810.5999999999999,2249.0,1269.0,Object_Land_Pattern_Small,71.22317404099158,74.24037495799712,2.0,Object_Land_Pattern_Small,-7.0,-7.0,1.0,1.4937200830026995,,,,,,,,
encoding,fixation,11,11009107,11010363,11009340.0,11009516.0,177.0,177.0,1908.1,1025.8,1920.0,1080.0,fixation,74.24052720799227,75.49724220798817,2.0,Object_Sea_Solid_Large,-7.0,,,,,,,,,,,
encoding,fixation,11,11009107,11010363,11009527.0,11010653.0,1127.0,836.0,1879.7,1057.6,1920.0,1080.0,fixation,74.24052720799227,75.49724220798817,2.0,Object_Sea_Solid_Large,-7.0,,,,,,,,,,,
encoding,image,11,11010364,11011375,11010696.0,11010947.0,252.0,252.0,1520.2,896.5999999999999,1591.0,1269.0,Object_Sea_Solid_Large,75.49735654098913,76.50878837498021,2.0,Object_Sea_Solid_Large,-7.0,,,,,,,,,,,
encoding,image,11,11010364,11011375,11011134.0,11011426.0,293.0,241.0,1624.5,931.5,1591.0,1269.0,Object_Sea_Solid_Large,75.49735654098913,76.50878837498021,2.0,Object_Sea_Solid_Large,-7.0,,,,,,,,,,,
encoding,value,11,11011375,11017387,11011438.0,11011684.0,247.0,247.0,1544.3,885.9000000000001,1591.0,1269.0,Object_Sea_Solid_Large,76.50893362498027,82.52084483299404,2.0,Object_Sea_Solid_Large,-7.0,,,,,,,,,,,
encoding,value,11,11011375,11017387,11011919.0,11012437.0,519.0,519.0,1515.5,825.2,1591.0,1269.0,Object_Sea_Solid_Large,76.50893362498027,82.52084483299404,2.0,Object_Sea_Solid_Large,-7.0,,,,,,,,,,,
encoding,value,11,11011375,11017387,11012448.0,11012810.0,363.0,363.0,1522.5,875.2,1591.0,1269.0,Object_Sea_Solid_Large,76.50893362498027,82.52084483299404,2.0,Object_Sea_Solid_Large,-7.0,,,,,,,,,,,
encoding,value,11,11011375,11017387,11012822.0,11013012.0,191.0,191.0,1520.5,821.2,1591.0,1269.0,Object_Sea_Solid_Large,76.50893362498027,82.52084483299404,2.0,Object_Sea_Solid_Large,-7.0,,,,,,,,,,,
encoding,value,11,11011375,11017387,11013024.0,11014760.0,1737.0,1737.0,1519.4,854.8,1591.0,1269.0,Object_Sea_Solid_Large,76.50893362498027,82.52084483299404,2.0,Object_Sea_Solid_Large,-7.0,,,,,,,,,,,
encoding,value,11,11011375,11017387,11014771.0,11015017.0,247.0,247.0,1556.2,806.8,1591.0,1269.0,Object_Sea_Solid_Large,76.50893362498027,82.52084483299404,2.0,Object_Sea_Solid_Large,-7.0,,,,,,,,,,,
encoding,value,11,11011375,11017387,11015227.0,11017657.0,2431.0,2160.0,1555.9,792.7,1591.0,1269.0,Object_Sea_Solid_Large,76.50893362498027,82.52084483299404,2.0,Object_Sea_Solid_Large,-7.0,,,,,,,,,,,
encoding,attention,11,11017388,11020405,11017664.0,11018083.0,420.0,420.0,1515.6,787.3,1591.0,1269.0,Object_Sea_Solid_Large,82.52095133299008,85.53802279097727,2.0,Object_Sea_Solid_Large,-7.0,-7.0,1.0,1.4690544999903068,,,,,,,,
encoding,attention,11,11017388,11020405,11018094.0,11019843.0,1750.0,1750.0,1594.7,788.3,1591.0,1269.0,Object_Sea_Solid_Large,82.52095133299008,85.53802279097727,2.0,Object_Sea_Solid_Large,-7.0,-7.0,1.0,1.4690544999903068,,,,,,,,
encoding,fixation,12,11020405,11021661,11020649.0,11020788.0,140.0,140.0,1909.2,1069.8,1920.0,1080.0,fixation,85.53817666598479,86.7941380830016,2.0,Object_Sea_Pattern_Large,8.0,,,,,,,,,,,
encoding,fixation,12,11020405,11021661,11020972.0,11021853.0,882.0,689.0,1890.5,1087.1,1920.0,1080.0,fixation,85.53817666598479,86.7941380830016,2.0,Object_Sea_Pattern_Large,8.0,,,,,,,,,,,
encoding,image,12,11021661,11022672,11021892.0,11022104.0,213.0,213.0,1928.6,1388.2,1920.0,700.0,Object_Sea_Pattern_Large,86.79426879098173,87.80491891599377,2.0,Object_Sea_Pattern_Large,8.0,,,,,,,,,,,
encoding,image,12,11021661,11022672,11022318.0,11022867.0,550.0,354.0,1917.1,1428.1,1920.0,700.0,Object_Sea_Pattern_Large,86.79426879098173,87.80491891599377,2.0,Object_Sea_Pattern_Large,8.0,,,,,,,,,,,
encoding,value,12,11022672,11028684,11022878.0,11024185.0,1308.0,1308.0,1924.7,1353.5,1920.0,700.0,Object_Sea_Pattern_Large,87.80501929100137,93.81650741599152,2.0,Object_Sea_Pattern_Large,8.0,,,,,,,,,,,
encoding,value,12,11022672,11028684,11024207.0,11024408.0,202.0,202.0,2059.4,1386.8,1920.0,700.0,Object_Sea_Pattern_Large,87.80501929100137,93.81650741599152,2.0,Object_Sea_Pattern_Large,8.0,,,,,,,,,,,
encoding,value,12,11022672,11028684,11024427.0,11024685.0,259.0,259.0,1922.3,1353.4,1920.0,700.0,Object_Sea_Pattern_Large,87.80501929100137,93.81650741599152,2.0,Object_Sea_Pattern_Large,8.0,,,,,,,,,,,
encoding,value,12,11022672,11028684,11024696.0,11024935.0,240.0,240.0,1923.8,1402.6,1920.0,700.0,Object_Sea_Pattern_Large,87.80501929100137,93.81650741599152,2.0,Object_Sea_Pattern_Large,8.0,,,,,,,,,,,
encoding,value,12,11022672,11028684,11025120.0,11025793.0,674.0,674.0,1915.4,1351.2,1920.0,700.0,Object_Sea_Pattern_Large,87.80501929100137,93.81650741599152,2.0,Object_Sea_Pattern_Large,8.0,,,,,,,,,,,
encoding,value,12,11022672,11028684,11025808.0,11026858.0,1051.0,1051.0,1908.9,1414.3,1920.0,700.0,Object_Sea_Pattern_Large,87.80501929100137,93.81650741599152,2.0,Object_Sea_Pattern_Large,8.0,,,,,,,,,,,
encoding,value,12,11022672,11028684,11026875.0,11027443.0,569.0,569.0,1938.5,1337.6,1920.0,700.0,Object_Sea_Pattern_Large,87.80501929100137,93.81650741599152,2.0,Object_Sea_Pattern_Large,8.0,,,,,,,,,,,
encoding,value,12,11022672,11028684,11027460.0,11027676.0,217.0,217.0,1912.1,1252.5,1920.0,700.0,Object_Sea_Pattern_Large,87.80501929100137,93.81650741599152,2.0,Object_Sea_Pattern_Large,8.0,,,,,,,,,,,
encoding,value,12,11022672,11028684,11027693.0,11029429.0,1737.0,991.0,1917.7,1336.0,1920.0,700.0,Object_Sea_Pattern_Large,87.80501929100137,93.81650741599152,2.0,Object_Sea_Pattern_Large,8.0,,,,,,,,,,,
encoding,attention,12,11028684,11031701,11029444.0,11029510.0,67.0,67.0,1948.2,1396.6,1920.0,700.0,Object_Sea_Pattern_Large,93.81662145798327,96.83392741598072,2.0,Object_Sea_Pattern_Large,8.0,8.0,1.0,1.2692758750054054,,,,,,,,
encoding,attention,12,11028684,11031701,11029527.0,11029719.0,193.0,193.0,1933.8,1315.8,1920.0,700.0,Object_Sea_Pattern_Large,93.81662145798327,96.83392741598072,2.0,Object_Sea_Pattern_Large,8.0,8.0,1.0,1.2692758750054054,,,,,,,,
encoding,fixation,13,11562707,11563713,11562969.0,11563815.0,847.0,744.0,1889.6,1058.5,1920.0,1080.0,fixation,11.759552917006658,12.765436541987585,3.0,Animal_Sea_Pattern_Small,9.0,,,,,,,,,,,
encoding,image,13,11563713,11564725,11563840.0,11563920.0,81.0,81.0,1892.1,1242.3,1920.0,700.0,Animal_Sea_Pattern_Small,12.765552333992671,13.777260375005426,3.0,Animal_Sea_Pattern_Small,9.0,,,,,,,,,,,
encoding,image,13,11563713,11564725,11563939.0,11564031.0,93.0,93.0,1900.2,1356.4,1920.0,700.0,Animal_Sea_Pattern_Small,12.765552333992671,13.777260375005426,3.0,Animal_Sea_Pattern_Small,9.0,,,,,,,,,,,
encoding,image,13,11563713,11564725,11564038.0,11564509.0,472.0,472.0,1912.5,1378.6,1920.0,700.0,Animal_Sea_Pattern_Small,12.765552333992671,13.777260375005426,3.0,Animal_Sea_Pattern_Small,9.0,,,,,,,,,,,
encoding,image,13,11563713,11564725,11564530.0,11565204.0,675.0,195.0,1945.0,1281.3,1920.0,700.0,Animal_Sea_Pattern_Small,12.765552333992671,13.777260375005426,3.0,Animal_Sea_Pattern_Small,9.0,,,,,,,,,,,
encoding,value,13,11564725,11570740,11565374.0,11566004.0,631.0,631.0,1930.7,1341.9,1920.0,700.0,Animal_Sea_Pattern_Small,13.7773548749974,19.792185792000964,3.0,Animal_Sea_Pattern_Small,9.0,,,,,,,,,,,
encoding,value,13,11564725,11570740,11566022.0,11566332.0,311.0,311.0,1924.3,1429.2,1920.0,700.0,Animal_Sea_Pattern_Small,13.7773548749974,19.792185792000964,3.0,Animal_Sea_Pattern_Small,9.0,,,,,,,,,,,
encoding,value,13,11564725,11570740,11566346.0,11569010.0,2665.0,2665.0,1923.8,1306.4,1920.0,700.0,Animal_Sea_Pattern_Small,13.7773548749974,19.792185792000964,3.0,Animal_Sea_Pattern_Small,9.0,,,,,,,,,,,
encoding,value,13,11564725,11570740,11569021.0,11569610.0,590.0,590.0,1920.4,1362.0,1920.0,700.0,Animal_Sea_Pattern_Small,13.7773548749974,19.792185792000964,3.0,Animal_Sea_Pattern_Small,9.0,,,,,,,,,,,
encoding,value,13,11564725,11570740,11569629.0,11571556.0,1928.0,1111.0,1902.2,1271.1,1920.0,700.0,Animal_Sea_Pattern_Small,13.7773548749974,19.792185792000964,3.0,Animal_Sea_Pattern_Small,9.0,,,,,,,,,,,
encoding,attention,13,11570740,11573758,11571619.0,11571654.0,36.0,36.0,1885.3,1321.2,1920.0,700.0,Animal_Sea_Pattern_Small,19.79230516700773,22.809848125005377,3.0,Animal_Sea_Pattern_Small,9.0,9.0,1.0,0.978973874996882,,,,,,,,
encoding,attention,13,11570740,11573758,11571701.0,11571729.0,29.0,29.0,1874.8,1305.0,1920.0,700.0,Animal_Sea_Pattern_Small,19.79230516700773,22.809848125005377,3.0,Animal_Sea_Pattern_Small,9.0,9.0,1.0,0.978973874996882,,,,,,,,
encoding,attention,13,11570740,11573758,11571762.0,11571950.0,189.0,189.0,1864.2,1267.1,1920.0,700.0,Animal_Sea_Pattern_Small,19.79230516700773,22.809848125005377,3.0,Animal_Sea_Pattern_Small,9.0,9.0,1.0,0.978973874996882,,,,,,,,
encoding,attention,13,11570740,11573758,11572186.0,11572353.0,168.0,168.0,1915.3,1432.5,1920.0,700.0,Animal_Sea_Pattern_Small,19.79230516700773,22.809848125005377,3.0,Animal_Sea_Pattern_Small,9.0,9.0,1.0,0.978973874996882,,,,,,,,
encoding,attention,13,11570740,11573758,11572550.0,11573005.0,456.0,456.0,1927.6,1424.1,1920.0,700.0,Animal_Sea_Pattern_Small,19.79230516700773,22.809848125005377,3.0,Animal_Sea_Pattern_Small,9.0,9.0,1.0,0.978973874996882,,,,,,,,
encoding,fixation,14,11573758,11574513,11574068.0,11574275.0,208.0,208.0,1889.4,1115.6,1920.0,1080.0,fixation,22.810021541983588,23.56523070900585,3.0,Animal_Land_Solid_Large,9.0,,,,,,,,,,,
encoding,fixation,14,11573758,11574513,11574286.0,11574508.0,223.0,223.0,1883.1,1060.0,1920.0,1080.0,fixation,22.810021541983588,23.56523070900585,3.0,Animal_Land_Solid_Large,9.0,,,,,,,,,,,
encoding,image,14,11574513,11575524,11574695.0,11574843.0,149.0,149.0,1876.5,1055.6,1920.0,1080.0,fixation,23.565349624986993,24.57642445899546,3.0,Animal_Land_Solid_Large,9.0,,,,,,,,,,,
encoding,image,14,11574513,11575524,11574878.0,11575713.0,836.0,646.0,1590.8,1231.0,1591.0,891.0,Animal_Land_Solid_Large,23.565349624986993,24.57642445899546,3.0,Animal_Land_Solid_Large,9.0,,,,,,,,,,,
encoding,value,14,11575524,11581537,11575731.0,11576041.0,311.0,311.0,1574.0,1151.0,1591.0,891.0,Animal_Land_Solid_Large,24.576533958985237,30.58821570899454,3.0,Animal_Land_Solid_Large,9.0,,,,,,,,,,,
encoding,value,14,11575524,11581537,11576054.0,11576169.0,116.0,116.0,1592.6,1217.4,1591.0,891.0,Animal_Land_Solid_Large,24.576533958985237,30.58821570899454,3.0,Animal_Land_Solid_Large,9.0,,,,,,,,,,,
encoding,value,14,11575524,11581537,11576346.0,11577316.0,971.0,971.0,1587.2,1236.2,1591.0,891.0,Animal_Land_Solid_Large,24.576533958985237,30.58821570899454,3.0,Animal_Land_Solid_Large,9.0,,,,,,,,,,,
encoding,value,14,11575524,11581537,11577333.0,11577843.0,511.0,511.0,1566.9,1126.7,1591.0,891.0,Animal_Land_Solid_Large,24.576533958985237,30.58821570899454,3.0,Animal_Land_Solid_Large,9.0,,,,,,,,,,,
encoding,value,14,11575524,11581537,11578024.0,11578441.0,418.0,418.0,1552.4,1121.3,1591.0,891.0,Animal_Land_Solid_Large,24.576533958985237,30.58821570899454,3.0,Animal_Land_Solid_Large,9.0,,,,,,,,,,,
encoding,value,14,11575524,11581537,11578707.0,11580208.0,1502.0,1502.0,1565.5,1098.3,1591.0,891.0,Animal_Land_Solid_Large,24.576533958985237,30.58821570899454,3.0,Animal_Land_Solid_Large,9.0,,,,,,,,,,,
encoding,value,14,11575524,11581537,11580216.0,11580564.0,349.0,349.0,1565.0,1135.8,1591.0,891.0,Animal_Land_Solid_Large,24.576533958985237,30.58821570899454,3.0,Animal_Land_Solid_Large,9.0,,,,,,,,,,,
encoding,value,14,11575524,11581537,11580574.0,11583343.0,2770.0,963.0,1538.6,1097.4,1591.0,891.0,Animal_Land_Solid_Large,24.576533958985237,30.58821570899454,3.0,Animal_Land_Solid_Large,9.0,,,,,,,,,,,
encoding,attention,14,11581537,11584554,,,,,,,,,none,30.58832529198844,33.60606020898558,3.0,Animal_Land_Solid_Large,9.0,9.0,1.0,1.397691999998642,,,,,,,,
encoding,fixation,15,11584555,11585560,11584834.0,11584970.0,137.0,137.0,1897.9,1104.7,1920.0,1080.0,fixation,33.60621312499279,34.61143774999073,3.0,Animal_Sea_Solid_Large,-9.0,,,,,,,,,,,
encoding,fixation,15,11584555,11585560,11585215.0,11585615.0,401.0,345.0,1897.6,1213.3,1920.0,700.0,Animal_Sea_Pattern_Small,33.60621312499279,34.61143774999073,3.0,Animal_Sea_Solid_Large,-9.0,,,,,,,,,,,
encoding,image,15,11585560,11586571,11585845.0,11585919.0,75.0,75.0,1650.6,989.8,1591.0,1269.0,Animal_Sea_Solid_Large,34.61163887500879,35.62263566700858,3.0,Animal_Sea_Solid_Large,-9.0,,,,,,,,,,,
encoding,image,15,11585560,11586571,11585939.0,11586514.0,576.0,576.0,1551.1,868.0999999999999,1591.0,1269.0,Animal_Sea_Solid_Large,34.61163887500879,35.62263566700858,3.0,Animal_Sea_Solid_Large,-9.0,,,,,,,,,,,
encoding,image,15,11585560,11586571,11586522.0,11586772.0,251.0,49.0,1543.0,821.8,1591.0,1269.0,Animal_Sea_Solid_Large,34.61163887500879,35.62263566700858,3.0,Animal_Sea_Solid_Large,-9.0,,,,,,,,,,,
encoding,value,15,11586571,11592585,11586782.0,11587452.0,671.0,671.0,1562.8,770.7,1591.0,1269.0,Animal_Sea_Solid_Large,35.62278587499168,41.635974584001815,3.0,Animal_Sea_Solid_Large,-9.0,,,,,,,,,,,
encoding,value,15,11586571,11592585,11587658.0,11588603.0,946.0,946.0,1549.0,895.9000000000001,1591.0,1269.0,Animal_Sea_Solid_Large,35.62278587499168,41.635974584001815,3.0,Animal_Sea_Solid_Large,-9.0,,,,,,,,,,,
encoding,value,15,11586571,11592585,11588819.0,11589122.0,304.0,304.0,1528.6,842.9000000000001,1591.0,1269.0,Animal_Sea_Solid_Large,35.62278587499168,41.635974584001815,3.0,Animal_Sea_Solid_Large,-9.0,,,,,,,,,,,
encoding,value,15,11586571,11592585,11589138.0,11589591.0,454.0,454.0,1559.2,765.5,1591.0,1269.0,Animal_Sea_Solid_Large,35.62278587499168,41.635974584001815,3.0,Animal_Sea_Solid_Large,-9.0,,,,,,,,,,,
encoding,value,15,11586571,11592585,11589610.0,11589932.0,323.0,323.0,1546.7,861.4000000000001,1591.0,1269.0,Animal_Sea_Solid_Large,35.62278587499168,41.635974584001815,3.0,Animal_Sea_Solid_Large,-9.0,,,,,,,,,,,
encoding,value,15,11586571,11592585,11589944.0,11591759.0,1816.0,1816.0,1562.6,765.2,1591.0,1269.0,Animal_Sea_Solid_Large,35.62278587499168,41.635974584001815,3.0,Animal_Sea_Solid_Large,-9.0,,,,,,,,,,,
encoding,value,15,11586571,11592585,11591781.0,11592049.0,269.0,269.0,1541.7,888.8,1591.0,1269.0,Animal_Sea_Solid_Large,35.62278587499168,41.635974584001815,3.0,Animal_Sea_Solid_Large,-9.0,,,,,,,,,,,
encoding,value,15,11586571,11592585,11592178.0,11592690.0,513.0,407.0,1560.8,909.2,1591.0,1269.0,Animal_Sea_Solid_Large,35.62278587499168,41.635974584001815,3.0,Animal_Sea_Solid_Large,-9.0,,,,,,,,,,,
encoding,attention,15,11592585,11595603,11592859.0,11593031.0,173.0,173.0,1564.6,797.0999999999999,1591.0,1269.0,Animal_Sea_Solid_Large,41.63607908398262,44.65369883400854,3.0,Animal_Sea_Solid_Large,-9.0,-9.0,1.0,1.8855325829936191,,,,,,,,
encoding,attention,15,11592585,11595603,11593285.0,11594335.0,1051.0,1051.0,1562.0,897.8,1591.0,1269.0,Animal_Sea_Solid_Large,41.63607908398262,44.65369883400854,3.0,Animal_Sea_Solid_Large,-9.0,-9.0,1.0,1.8855325829936191,,,,,,,,
encoding,attention,15,11592585,11595603,11594357.0,11594741.0,385.0,385.0,1592.6,776.0999999999999,1591.0,1269.0,Animal_Sea_Solid_Large,41.63607908398262,44.65369883400854,3.0,Animal_Sea_Solid_Large,-9.0,-9.0,1.0,1.8855325829936191,,,,,,,,
encoding,attention,15,11592585,11595603,11594751.0,11595165.0,415.0,415.0,1521.4,769.5999999999999,1591.0,1269.0,Animal_Sea_Solid_Large,41.63607908398262,44.65369883400854,3.0,Animal_Sea_Solid_Large,-9.0,-9.0,1.0,1.8855325829936191,,,,,,,,
encoding,attention,15,11592585,11595603,11595185.0,11595448.0,264.0,264.0,1554.4,880.2,1591.0,1269.0,Animal_Sea_Solid_Large,41.63607908398262,44.65369883400854,3.0,Animal_Sea_Solid_Large,-9.0,-9.0,1.0,1.8855325829936191,,,,,,,,
encoding,fixation,16,11595603,11597108,11595666.0,11595766.0,101.0,101.0,1565.6,885.5,1591.0,1269.0,Animal_Sea_Solid_Large,44.65385112501099,46.15893750000396,3.0,Object_Land_Solid_Large,8.0,,,,,,,,,,,
encoding,fixation,16,11595603,11597108,11595990.0,11596144.0,155.0,155.0,1826.8,1088.3,1591.0,891.0,Animal_Land_Solid_Large,44.65385112501099,46.15893750000396,3.0,Object_Land_Solid_Large,8.0,,,,,,,,,,,
encoding,fixation,16,11595603,11597108,11596154.0,11597105.0,952.0,952.0,1878.9,1073.4,1920.0,1080.0,fixation,44.65385112501099,46.15893750000396,3.0,Object_Land_Solid_Large,8.0,,,,,,,,,,,
encoding,image,16,11597108,11598118,11597315.0,11597911.0,597.0,597.0,1852.3,1052.3,1591.0,1269.0,Animal_Sea_Solid_Large,46.159070749999955,47.16930612499709,3.0,Object_Land_Solid_Large,8.0,,,,,,,,,,,
encoding,image,16,11597108,11598118,11597918.0,11598332.0,415.0,200.0,1880.9,1047.5,1920.0,1080.0,fixation,46.159070749999955,47.16930612499709,3.0,Object_Land_Solid_Large,8.0,,,,,,,,,,,
encoding,value,16,11598118,11604130,11598379.0,11598856.0,478.0,478.0,1864.2,606.0999999999999,1920.0,1460.0,Object_Land_Solid_Large,47.169409249996534,53.1803252499958,3.0,Object_Land_Solid_Large,8.0,,,,,,,,,,,
encoding,value,16,11598118,11604130,11598876.0,11599050.0,175.0,175.0,1857.7,693.2,1920.0,1460.0,Object_Land_Solid_Large,47.169409249996534,53.1803252499958,3.0,Object_Land_Solid_Large,8.0,,,,,,,,,,,
encoding,value,16,11598118,11604130,11599297.0,11599368.0,72.0,72.0,1831.4,718.5999999999999,1920.0,1460.0,Object_Land_Solid_Large,47.169409249996534,53.1803252499958,3.0,Object_Land_Solid_Large,8.0,,,,,,,,,,,
encoding,value,16,11598118,11604130,11599491.0,11599530.0,40.0,40.0,1824.0,796.8,1920.0,1460.0,Object_Land_Solid_Large,47.169409249996534,53.1803252499958,3.0,Object_Land_Solid_Large,8.0,,,,,,,,,,,
encoding,value,16,11598118,11604130,11600193.0,11600478.0,286.0,286.0,1831.9,658.0999999999999,1920.0,1460.0,Object_Land_Solid_Large,47.169409249996534,53.1803252499958,3.0,Object_Land_Solid_Large,8.0,,,,,,,,,,,
encoding,value,16,11598118,11604130,11600488.0,11600755.0,268.0,268.0,1881.4,606.0999999999999,1920.0,1460.0,Object_Land_Solid_Large,47.169409249996534,53.1803252499958,3.0,Object_Land_Solid_Large,8.0,,,,,,,,,,,
encoding,value,16,11598118,11604130,11600766.0,11601040.0,275.0,275.0,1846.4,654.0,1920.0,1460.0,Object_Land_Solid_Large,47.169409249996534,53.1803252499958,3.0,Object_Land_Solid_Large,8.0,,,,,,,,,,,
encoding,value,16,11598118,11604130,11601053.0,11601449.0,397.0,397.0,1877.6,586.0,1920.0,1460.0,Object_Land_Solid_Large,47.169409249996534,53.1803252499958,3.0,Object_Land_Solid_Large,8.0,,,,,,,,,,,
encoding,value,16,11598118,11604130,11601737.0,11603170.0,1434.0,1434.0,1849.0,680.0,1920.0,1460.0,Object_Land_Solid_Large,47.169409249996534,53.1803252499958,3.0,Object_Land_Solid_Large,8.0,,,,,,,,,,,
encoding,value,16,11598118,11604130,11603411.0,11604253.0,843.0,719.0,1848.1,683.4000000000001,1920.0,1460.0,Object_Land_Solid_Large,47.169409249996534,53.1803252499958,3.0,Object_Land_Solid_Large,8.0,,,,,,,,,,,
encoding,attention,16,11604130,11607150,11604270.0,11604434.0,165.0,165.0,1845.3,762.8,1920.0,1460.0,Object_Land_Solid_Large,53.18045158399036,56.20031433398253,3.0,Object_Land_Solid_Large,8.0,8.0,1.0,1.0928735409979708,,,,,,,,
encoding,attention,16,11604130,11607150,11604456.0,11606061.0,1606.0,1606.0,1838.7,600.2,1920.0,1460.0,Object_Land_Solid_Large,53.18045158399036,56.20031433398253,3.0,Object_Land_Solid_Large,8.0,8.0,1.0,1.0928735409979708,,,,,,,,
encoding,attention,16,11604130,11607150,11606322.0,11606345.0,24.0,24.0,1838.8,727.9000000000001,1920.0,1460.0,Object_Land_Solid_Large,53.18045158399036,56.20031433398253,3.0,Object_Land_Solid_Large,8.0,8.0,1.0,1.0928735409979708,,,,,,,,
encoding,attention,16,11604130,11607150,11606379.0,11606458.0,80.0,80.0,1839.2,687.0,1920.0,1460.0,Object_Land_Solid_Large,53.18045158399036,56.20031433398253,3.0,Object_Land_Solid_Large,8.0,8.0,1.0,1.0928735409979708,,,,,,,,
encoding,attention,16,11604130,11607150,11606496.0,11606871.0,376.0,376.0,1852.4,663.4000000000001,1920.0,1460.0,Object_Land_Solid_Large,53.18045158399036,56.20031433398253,3.0,Object_Land_Solid_Large,8.0,8.0,1.0,1.0928735409979708,,,,,,,,
encoding,fixation,17,11607150,11608155,11607408.0,11608333.0,926.0,747.0,1864.0,1039.7,1920.0,1080.0,fixation,56.20046670900774,57.205436958989594,3.0,Object_Sea_Pattern_Small,-2.0,,,,,,,,,,,
encoding,image,17,11608155,11609166,11608373.0,11608673.0,301.0,301.0,2192.3,1245.4,2249.0,891.0,Object_Sea_Pattern_Small,57.20563341700472,58.21671079201042,3.0,Object_Sea_Pattern_Small,-2.0,,,,,,,,,,,
encoding,image,17,11608155,11609166,11608682.0,11609332.0,651.0,484.0,2223.9,1268.7,2249.0,891.0,Object_Sea_Pattern_Small,57.20563341700472,58.21671079201042,3.0,Object_Sea_Pattern_Small,-2.0,,,,,,,,,,,
encoding,value,17,11609166,11615178,11609350.0,11609988.0,639.0,639.0,2244.9,1173.7,2249.0,891.0,Object_Sea_Pattern_Small,58.216835125000216,64.22856912499992,3.0,Object_Sea_Pattern_Small,-2.0,,,,,,,,,,,
encoding,value,17,11609166,11615178,11610012.0,11610291.0,280.0,280.0,2248.5,1264.8,2249.0,891.0,Object_Sea_Pattern_Small,58.216835125000216,64.22856912499992,3.0,Object_Sea_Pattern_Small,-2.0,,,,,,,,,,,
encoding,value,17,11609166,11615178,11610506.0,11611661.0,1156.0,1156.0,2231.2,1247.8,2249.0,891.0,Object_Sea_Pattern_Small,58.216835125000216,64.22856912499992,3.0,Object_Sea_Pattern_Small,-2.0,,,,,,,,,,,
encoding,value,17,11609166,11615178,11611675.0,11612218.0,544.0,544.0,2237.2,1195.9,2249.0,891.0,Object_Sea_Pattern_Small,58.216835125000216,64.22856912499992,3.0,Object_Sea_Pattern_Small,-2.0,,,,,,,,,,,
encoding,value,17,11609166,11615178,11612227.0,11613230.0,1004.0,1004.0,2204.9,1242.4,2249.0,891.0,Object_Sea_Pattern_Small,58.216835125000216,64.22856912499992,3.0,Object_Sea_Pattern_Small,-2.0,,,,,,,,,,,
encoding,value,17,11609166,11615178,11613238.0,11615411.0,2174.0,1940.0,2243.1,1244.6,2249.0,891.0,Object_Sea_Pattern_Small,58.216835125000216,64.22856912499992,3.0,Object_Sea_Pattern_Small,-2.0,,,,,,,,,,,
encoding,attention,17,11615178,11618198,11615427.0,11615822.0,396.0,396.0,2229.1,1166.1,2249.0,891.0,Object_Sea_Pattern_Small,64.22868624998955,67.24858487499296,3.0,Object_Sea_Pattern_Small,-2.0,-2.0,1.0,1.6827749589865562,,,,,,,,
encoding,attention,17,11615178,11618198,11616059.0,11616176.0,118.0,118.0,2284.7,1186.8,2249.0,891.0,Object_Sea_Pattern_Small,64.22868624998955,67.24858487499296,3.0,Object_Sea_Pattern_Small,-2.0,-2.0,1.0,1.6827749589865562,,,,,,,,
encoding,attention,17,11615178,11618198,11616459.0,11617194.0,736.0,736.0,2243.7,1267.8,2249.0,891.0,Object_Sea_Pattern_Small,64.22868624998955,67.24858487499296,3.0,Object_Sea_Pattern_Small,-2.0,-2.0,1.0,1.6827749589865562,,,,,,,,
encoding,attention,17,11615178,11618198,11617202.0,11617836.0,635.0,635.0,2240.0,1287.7,2249.0,891.0,Object_Sea_Pattern_Small,64.22868624998955,67.24858487499296,3.0,Object_Sea_Pattern_Small,-2.0,-2.0,1.0,1.6827749589865562,,,,,,,,
encoding,fixation,18,11618199,11619704,11618435.0,11618627.0,193.0,193.0,1933.2,1093.8,1920.0,1080.0,fixation,67.24874791700859,68.7536500839924,3.0,Object_Land_Pattern_Small,-2.0,,,,,,,,,,,
encoding,fixation,18,11618199,11619704,11618636.0,11619916.0,1281.0,1068.0,1893.1,1061.0,1920.0,1080.0,fixation,67.24874791700859,68.7536500839924,3.0,Object_Land_Pattern_Small,-2.0,,,,,,,,,,,
encoding,image,18,11619704,11620715,11619954.0,11620134.0,181.0,181.0,2178.0,872.0999999999999,2249.0,1269.0,Object_Land_Pattern_Small,68.7537540839985,69.7649577499833,3.0,Object_Land_Pattern_Small,-2.0,,,,,,,,,,,
encoding,image,18,11619704,11620715,11620393.0,11622128.0,1736.0,322.0,2199.5,891.0999999999999,2249.0,1269.0,Object_Land_Pattern_Small,68.7537540839985,69.7649577499833,3.0,Object_Land_Pattern_Small,-2.0,,,,,,,,,,,
encoding,value,18,11620715,11626727,11622139.0,11622726.0,588.0,588.0,2168.5,835.5999999999999,2249.0,1269.0,Object_Land_Pattern_Small,69.76506804200471,75.77638366699102,3.0,Object_Land_Pattern_Small,-2.0,,,,,,,,,,,
encoding,value,18,11620715,11626727,11622735.0,11623453.0,719.0,719.0,2198.2,892.4000000000001,2249.0,1269.0,Object_Land_Pattern_Small,69.76506804200471,75.77638366699102,3.0,Object_Land_Pattern_Small,-2.0,,,,,,,,,,,
encoding,value,18,11620715,11626727,11623469.0,11623873.0,405.0,405.0,2194.0,818.2,2249.0,1269.0,Object_Land_Pattern_Small,69.76506804200471,75.77638366699102,3.0,Object_Land_Pattern_Small,-2.0,,,,,,,,,,,
encoding,value,18,11620715,11626727,11624096.0,11624639.0,544.0,544.0,2191.5,891.3,2249.0,1269.0,Object_Land_Pattern_Small,69.76506804200471,75.77638366699102,3.0,Object_Land_Pattern_Small,-2.0,,,,,,,,,,,
encoding,value,18,11620715,11626727,11624656.0,11625111.0,456.0,456.0,2224.7,783.8,2249.0,1269.0,Object_Land_Pattern_Small,69.76506804200471,75.77638366699102,3.0,Object_Land_Pattern_Small,-2.0,,,,,,,,,,,
encoding,value,18,11620715,11626727,11625135.0,11626676.0,1542.0,1542.0,2205.1,911.9000000000001,2249.0,1269.0,Object_Land_Pattern_Small,69.76506804200471,75.77638366699102,3.0,Object_Land_Pattern_Small,-2.0,,,,,,,,,,,
encoding,value,18,11620715,11626727,11626686.0,11626980.0,295.0,41.0,2202.4,845.4000000000001,2249.0,1269.0,Object_Land_Pattern_Small,69.76506804200471,75.77638366699102,3.0,Object_Land_Pattern_Small,-2.0,,,,,,,,,,,
encoding,attention,18,11626727,11629743,11626992.0,11627280.0,289.0,289.0,2168.2,790.9000000000001,2249.0,1269.0,Object_Land_Pattern_Small,75.77650104198256,78.79281404198264,3.0,Object_Land_Pattern_Small,-2.0,-2.0,1.0,1.5064843329892028,,,,,,,,
encoding,attention,18,11626727,11629743,11627290.0,11627510.0,221.0,221.0,2220.7,784.9000000000001,2249.0,1269.0,Object_Land_Pattern_Small,75.77650104198256,78.79281404198264,3.0,Object_Land_Pattern_Small,-2.0,-2.0,1.0,1.5064843329892028,,,,,,,,
encoding,attention,18,11626727,11629743,11627808.0,11627852.0,45.0,45.0,2098.7,918.5,2249.0,1269.0,Object_Land_Pattern_Small,75.77650104198256,78.79281404198264,3.0,Object_Land_Pattern_Small,-2.0,-2.0,1.0,1.5064843329892028,,,,,,,,
encoding,attention,18,11626727,11629743,11627950.0,11628550.0,601.0,601.0,2140.1,789.2,2249.0,1269.0,Object_Land_Pattern_Small,75.77650104198256,78.79281404198264,3.0,Object_Land_Pattern_Small,-2.0,-2.0,1.0,1.5064843329892028,,,,,,,,
encoding,attention,18,11626727,11629743,11628591.0,11628841.0,251.0,251.0,1969.2,996.5,2249.0,1269.0,Object_Land_Pattern_Small,75.77650104198256,78.79281404198264,3.0,Object_Land_Pattern_Small,-2.0,-2.0,1.0,1.5064843329892028,,,,,,,,
encoding,attention,18,11626727,11629743,11628855.0,11629167.0,313.0,313.0,1901.6,1059.2,1920.0,1080.0,fixation,75.77650104198256,78.79281404198264,3.0,Object_Land_Pattern_Small,-2.0,-2.0,1.0,1.5064843329892028,,,,,,,,
encoding,attention,18,11626727,11629743,11629207.0,11629421.0,215.0,215.0,2233.1,831.7,2249.0,1269.0,Object_Land_Pattern_Small,75.77650104198256,78.79281404198264,3.0,Object_Land_Pattern_Small,-2.0,-2.0,1.0,1.5064843329892028,,,,,,,,
encoding,fixation,19,12002253,12003259,12002518.0,12003412.0,895.0,741.0,1886.5,1091.5,1920.0,1080.0,fixation,4.352733457984868,5.358471291983733,4.0,Animal_Sea_Pattern_Small,2.0,,,,,,,,,,,
encoding,image,19,12003259,12004271,12003456.0,12003566.0,111.0,111.0,1893.8,1412.6,1920.0,700.0,Animal_Sea_Pattern_Small,5.3585962079814635,6.369842832995346,4.0,Animal_Sea_Pattern_Small,2.0,,,,,,,,,,,
encoding,image,19,12003259,12004271,12003574.0,12003766.0,193.0,193.0,1900.4,1428.7,1920.0,700.0,Animal_Sea_Pattern_Small,5.3585962079814635,6.369842832995346,4.0,Animal_Sea_Pattern_Small,2.0,,,,,,,,,,,
encoding,image,19,12003259,12004271,12003777.0,12004464.0,688.0,494.0,1946.1,1444.3,1920.0,700.0,Animal_Sea_Pattern_Small,5.3585962079814635,6.369842832995346,4.0,Animal_Sea_Pattern_Small,2.0,,,,,,,,,,,
encoding,value,19,12004271,12010285,12004478.0,12005014.0,537.0,537.0,1924.0,1372.8,1920.0,700.0,Animal_Sea_Pattern_Small,6.3699628329777624,12.383582791982915,4.0,Animal_Sea_Pattern_Small,2.0,,,,,,,,,,,
encoding,value,19,12004271,12010285,12005187.0,12005653.0,467.0,467.0,1936.2,1382.9,1920.0,700.0,Animal_Sea_Pattern_Small,6.3699628329777624,12.383582791982915,4.0,Animal_Sea_Pattern_Small,2.0,,,,,,,,,,,
encoding,value,19,12004271,12010285,12005859.0,12006617.0,759.0,759.0,1912.7,1453.3,1920.0,700.0,Animal_Sea_Pattern_Small,6.3699628329777624,12.383582791982915,4.0,Animal_Sea_Pattern_Small,2.0,,,,,,,,,,,
encoding,value,19,12004271,12010285,12006634.0,12008842.0,2209.0,2209.0,1921.4,1359.4,1920.0,700.0,Animal_Sea_Pattern_Small,6.3699628329777624,12.383582791982915,4.0,Animal_Sea_Pattern_Small,2.0,,,,,,,,,,,
encoding,value,19,12004271,12010285,12008858.0,12009435.0,578.0,578.0,1902.1,1446.5,1920.0,700.0,Animal_Sea_Pattern_Small,6.3699628329777624,12.383582791982915,4.0,Animal_Sea_Pattern_Small,2.0,,,,,,,,,,,
encoding,value,19,12004271,12010285,12009454.0,12010768.0,1315.0,831.0,1924.6,1359.9,1920.0,700.0,Animal_Sea_Pattern_Small,6.3699628329777624,12.383582791982915,4.0,Animal_Sea_Pattern_Small,2.0,,,,,,,,,,,
encoding,attention,19,12010285,12013303,12010957.0,12011340.0,384.0,384.0,1889.3,1389.2,1920.0,700.0,Animal_Sea_Pattern_Small,12.383713249990253,15.401582249993226,4.0,Animal_Sea_Pattern_Small,2.0,2.0,1.0,1.4451987909851596,,,,,,,,
encoding,attention,19,12010285,12013303,12011550.0,12011772.0,223.0,223.0,1925.5,1412.7,1920.0,700.0,Animal_Sea_Pattern_Small,12.383713249990253,15.401582249993226,4.0,Animal_Sea_Pattern_Small,2.0,2.0,1.0,1.4451987909851596,,,,,,,,
encoding,attention,19,12010285,12013303,12011784.0,12012008.0,225.0,225.0,1910.2,1449.6,1920.0,700.0,Animal_Sea_Pattern_Small,12.383713249990253,15.401582249993226,4.0,Animal_Sea_Pattern_Small,2.0,2.0,1.0,1.4451987909851596,,,,,,,,
encoding,attention,19,12010285,12013303,12012025.0,12012427.0,403.0,403.0,1886.4,1347.8,1920.0,700.0,Animal_Sea_Pattern_Small,12.383713249990253,15.401582249993226,4.0,Animal_Sea_Pattern_Small,2.0,2.0,1.0,1.4451987909851596,,,,,,,,
encoding,attention,19,12010285,12013303,12012611.0,12012680.0,70.0,70.0,1921.1,1424.9,1920.0,700.0,Animal_Sea_Pattern_Small,12.383713249990253,15.401582249993226,4.0,Animal_Sea_Pattern_Small,2.0,2.0,1.0,1.4451987909851596,,,,,,,,
encoding,attention,19,12010285,12013303,12012693.0,12012727.0,35.0,35.0,1927.6,1438.4,1920.0,700.0,Animal_Sea_Pattern_Small,12.383713249990253,15.401582249993226,4.0,Animal_Sea_Pattern_Small,2.0,2.0,1.0,1.4451987909851596,,,,,,,,
encoding,fixation,20,12013303,12014811,12013361.0,12013629.0,269.0,269.0,1922.2,1453.8,1920.0,700.0,Animal_Sea_Pattern_Small,15.4017582499946,16.909949124994455,4.0,Object_Sea_Solid_Small,-9.0,,,,,,,,,,,
encoding,fixation,20,12013303,12014811,12013672.0,12013987.0,316.0,316.0,1871.2,1056.3,1920.0,1080.0,fixation,15.4017582499946,16.909949124994455,4.0,Object_Sea_Solid_Small,-9.0,,,,,,,,,,,
encoding,fixation,20,12013303,12014811,12014178.0,12014211.0,34.0,34.0,1907.3,1172.9,1920.0,700.0,Animal_Sea_Pattern_Small,15.4017582499946,16.909949124994455,4.0,Object_Sea_Solid_Small,-9.0,,,,,,,,,,,
encoding,fixation,20,12013303,12014811,12014220.0,12015007.0,788.0,591.0,1896.9,1086.5,1920.0,1080.0,fixation,15.4017582499946,16.909949124994455,4.0,Object_Sea_Solid_Small,-9.0,,,,,,,,,,,
encoding,image,20,12014811,12015821,12015045.0,12015214.0,170.0,170.0,2173.1,921.5,2249.0,1269.0,Object_Sea_Solid_Small,16.910051666985964,17.920060292002745,4.0,Object_Sea_Solid_Small,-9.0,,,,,,,,,,,
encoding,image,20,12014811,12015821,12015222.0,12016028.0,807.0,599.0,2199.9,884.0,2249.0,1269.0,Object_Sea_Solid_Small,16.910051666985964,17.920060292002745,4.0,Object_Sea_Solid_Small,-9.0,,,,,,,,,,,
encoding,value,20,12015822,12021833,12016045.0,12016447.0,403.0,403.0,2214.0,775.3,2249.0,1269.0,Object_Sea_Solid_Small,17.920172916987212,23.931192249991,4.0,Object_Sea_Solid_Small,-9.0,,,,,,,,,,,
encoding,value,20,12015822,12021833,12016723.0,12016837.0,115.0,115.0,2168.3,855.4000000000001,2249.0,1269.0,Object_Sea_Solid_Small,17.920172916987212,23.931192249991,4.0,Object_Sea_Solid_Small,-9.0,,,,,,,,,,,
encoding,value,20,12015822,12021833,12016846.0,12017066.0,221.0,221.0,2192.0,886.9000000000001,2249.0,1269.0,Object_Sea_Solid_Small,17.920172916987212,23.931192249991,4.0,Object_Sea_Solid_Small,-9.0,,,,,,,,,,,
encoding,value,20,12015822,12021833,12017327.0,12017501.0,175.0,175.0,2189.2,861.5999999999999,2249.0,1269.0,Object_Sea_Solid_Small,17.920172916987212,23.931192249991,4.0,Object_Sea_Solid_Small,-9.0,,,,,,,,,,,
encoding,value,20,12015822,12021833,12017510.0,12018362.0,853.0,853.0,2203.3,890.5,2249.0,1269.0,Object_Sea_Solid_Small,17.920172916987212,23.931192249991,4.0,Object_Sea_Solid_Small,-9.0,,,,,,,,,,,
encoding,value,20,12015822,12021833,12018378.0,12018674.0,297.0,297.0,2193.5,794.9000000000001,2249.0,1269.0,Object_Sea_Solid_Small,17.920172916987212,23.931192249991,4.0,Object_Sea_Solid_Small,-9.0,,,,,,,,,,,
encoding,value,20,12015822,12021833,12018938.0,12019260.0,323.0,323.0,2190.2,873.0999999999999,2249.0,1269.0,Object_Sea_Solid_Small,17.920172916987212,23.931192249991,4.0,Object_Sea_Solid_Small,-9.0,,,,,,,,,,,
encoding,value,20,12015822,12021833,12019272.0,12019768.0,497.0,497.0,2193.4,913.7,2249.0,1269.0,Object_Sea_Solid_Small,17.920172916987212,23.931192249991,4.0,Object_Sea_Solid_Small,-9.0,,,,,,,,,,,
encoding,value,20,12015822,12021833,12020046.0,12020186.0,141.0,141.0,2167.8,918.4000000000001,2249.0,1269.0,Object_Sea_Solid_Small,17.920172916987212,23.931192249991,4.0,Object_Sea_Solid_Small,-9.0,,,,,,,,,,,
encoding,value,20,12015822,12021833,12020194.0,12020531.0,338.0,338.0,2198.6,903.0,2249.0,1269.0,Object_Sea_Solid_Small,17.920172916987212,23.931192249991,4.0,Object_Sea_Solid_Small,-9.0,,,,,,,,,,,
encoding,value,20,12015822,12021833,12020548.0,12021051.0,504.0,504.0,2174.1,796.7,2249.0,1269.0,Object_Sea_Solid_Small,17.920172916987212,23.931192249991,4.0,Object_Sea_Solid_Small,-9.0,,,,,,,,,,,
encoding,value,20,12015822,12021833,12021062.0,12021725.0,664.0,664.0,2177.3,867.4000000000001,2249.0,1269.0,Object_Sea_Solid_Small,17.920172916987212,23.931192249991,4.0,Object_Sea_Solid_Small,-9.0,,,,,,,,,,,
encoding,value,20,12015822,12021833,12021736.0,12022357.0,622.0,97.0,2159.3,787.2,2249.0,1269.0,Object_Sea_Solid_Small,17.920172916987212,23.931192249991,4.0,Object_Sea_Solid_Small,-9.0,,,,,,,,,,,
encoding,attention,20,12021833,12024852,12022598.0,12022751.0,154.0,154.0,2146.8,929.5,2249.0,1269.0,Object_Sea_Solid_Small,23.931312832981348,26.949798624991672,4.0,Object_Sea_Solid_Small,-9.0,-9.0,1.0,1.9924279170227237,,,,,,,,
encoding,attention,20,12021833,12024852,12023000.0,12024110.0,1111.0,1111.0,2158.4,893.0,2249.0,1269.0,Object_Sea_Solid_Small,23.931312832981348,26.949798624991672,4.0,Object_Sea_Solid_Small,-9.0,-9.0,1.0,1.9924279170227237,,,,,,,,
encoding,attention,20,12021833,12024852,12024126.0,12024391.0,266.0,266.0,2128.7,795.3,2249.0,1269.0,Object_Sea_Solid_Small,23.931312832981348,26.949798624991672,4.0,Object_Sea_Solid_Small,-9.0,-9.0,1.0,1.9924279170227237,,,,,,,,
encoding,fixation,21,12024852,12025357,,,,,,,,,none,26.949954916985007,27.455675874982266,4.0,Animal_Land_Solid_Large,-4.0,,,,,,,,,,,
encoding,image,21,12025357,12026369,12025403.0,12025600.0,198.0,198.0,1919.5,1085.1,1920.0,1080.0,fixation,27.45578370799194,28.46681995797553,4.0,Animal_Land_Solid_Large,-4.0,,,,,,,,,,,
encoding,image,21,12025357,12026369,12025633.0,12026574.0,942.0,736.0,1591.0,1275.3,1591.0,891.0,Animal_Land_Solid_Large,27.45578370799194,28.46681995797553,4.0,Animal_Land_Solid_Large,-4.0,,,,,,,,,,,
encoding,value,21,12026369,12032381,12026591.0,12027017.0,427.0,427.0,1564.0,1186.6,1591.0,891.0,Animal_Land_Solid_Large,28.466939707985148,34.47931958298432,4.0,Animal_Land_Solid_Large,-4.0,,,,,,,,,,,
encoding,value,21,12026369,12032381,12027037.0,12027196.0,160.0,160.0,1580.0,1280.8,1591.0,891.0,Animal_Land_Solid_Large,28.466939707985148,34.47931958298432,4.0,Animal_Land_Solid_Large,-4.0,,,,,,,,,,,
encoding,value,21,12026369,12032381,12027401.0,12027938.0,538.0,538.0,1577.2,1283.4,1591.0,891.0,Animal_Land_Solid_Large,28.466939707985148,34.47931958298432,4.0,Animal_Land_Solid_Large,-4.0,,,,,,,,,,,
encoding,value,21,12026369,12032381,12028151.0,12028861.0,711.0,711.0,1604.1,1284.8,1591.0,891.0,Animal_Land_Solid_Large,28.466939707985148,34.47931958298432,4.0,Animal_Land_Solid_Large,-4.0,,,,,,,,,,,
encoding,value,21,12026369,12032381,12029149.0,12029289.0,141.0,141.0,2240.6,1021.0,2249.0,1269.0,Object_Sea_Solid_Small,28.466939707985148,34.47931958298432,4.0,Animal_Land_Solid_Large,-4.0,,,,,,,,,,,
encoding,value,21,12026369,12032381,12029585.0,12029792.0,208.0,208.0,1729.9,1257.7,1591.0,891.0,Animal_Land_Solid_Large,28.466939707985148,34.47931958298432,4.0,Animal_Land_Solid_Large,-4.0,,,,,,,,,,,
encoding,value,21,12026369,12032381,12029813.0,12030167.0,355.0,355.0,1568.6,1194.2,1591.0,891.0,Animal_Land_Solid_Large,28.466939707985148,34.47931958298432,4.0,Animal_Land_Solid_Large,-4.0,,,,,,,,,,,
encoding,value,21,12026369,12032381,12030186.0,12030677.0,492.0,492.0,1598.3,1283.7,1591.0,891.0,Animal_Land_Solid_Large,28.466939707985148,34.47931958298432,4.0,Animal_Land_Solid_Large,-4.0,,,,,,,,,,,
encoding,value,21,12026369,12032381,12030892.0,12031717.0,826.0,826.0,1587.9,1275.3,1591.0,891.0,Animal_Land_Solid_Large,28.466939707985148,34.47931958298432,4.0,Animal_Land_Solid_Large,-4.0,,,,,,,,,,,
encoding,value,21,12026369,12032381,12031907.0,12032039.0,133.0,133.0,1586.8,1263.7,1591.0,891.0,Animal_Land_Solid_Large,28.466939707985148,34.47931958298432,4.0,Animal_Land_Solid_Large,-4.0,,,,,,,,,,,
encoding,value,21,12026369,12032381,12032263.0,12033000.0,738.0,118.0,1587.3,1273.2,1591.0,891.0,Animal_Land_Solid_Large,28.466939707985148,34.47931958298432,4.0,Animal_Land_Solid_Large,-4.0,,,,,,,,,,,
encoding,attention,21,12032381,12035394,12033158.0,12033851.0,694.0,694.0,1593.4,1278.7,1591.0,891.0,Animal_Land_Solid_Large,34.47942708298797,37.49188287497964,4.0,Animal_Land_Solid_Large,-4.0,,,,,,,,,,,
encoding,fixation,22,12035394,12036150,12035847.0,12035995.0,149.0,149.0,1779.2,1091.9,1591.0,891.0,Animal_Land_Solid_Large,37.49204899999313,38.24728637500084,4.0,Object_Sea_Solid_Large,9.0,,,,,,,,,,,
encoding,fixation,22,12035394,12036150,12036009.0,12036707.0,699.0,141.0,1867.9,1068.7,1920.0,1080.0,fixation,37.49204899999313,38.24728637500084,4.0,Object_Sea_Solid_Large,9.0,,,,,,,,,,,
encoding,image,22,12036150,12037161,12036741.0,12040436.0,3696.0,420.0,1533.9,848.8,1591.0,1269.0,Object_Sea_Solid_Large,38.247393792000366,39.25884075000067,4.0,Object_Sea_Solid_Large,9.0,,,,,,,,,,,
encoding,value,22,12037161,12043173,12040445.0,12040796.0,352.0,352.0,1525.3,878.8,1591.0,1269.0,Object_Sea_Solid_Large,39.25901758298278,45.270424874994205,4.0,Object_Sea_Solid_Large,9.0,,,,,,,,,,,
encoding,value,22,12037161,12043173,12040812.0,12041745.0,934.0,934.0,1570.8,798.2,1591.0,1269.0,Object_Sea_Solid_Large,39.25901758298278,45.270424874994205,4.0,Object_Sea_Solid_Large,9.0,,,,,,,,,,,
encoding,value,22,12037161,12043173,12041765.0,12042147.0,383.0,383.0,1523.2,910.5999999999999,1591.0,1269.0,Object_Sea_Solid_Large,39.25901758298278,45.270424874994205,4.0,Object_Sea_Solid_Large,9.0,,,,,,,,,,,
encoding,value,22,12037161,12043173,12042324.0,12043372.0,1049.0,849.0,1549.8,880.9000000000001,1591.0,1269.0,Object_Sea_Solid_Large,39.25901758298278,45.270424874994205,4.0,Object_Sea_Solid_Large,9.0,,,,,,,,,,,
encoding,attention,22,12043173,12046192,12043383.0,12043557.0,175.0,175.0,1573.8,816.3,1591.0,1269.0,Object_Sea_Solid_Large,45.270531624992145,48.289247791981325,4.0,Object_Sea_Solid_Large,9.0,9.0,1.0,2.126758540980518,,,,,,,,
encoding,attention,22,12043173,12046192,12043566.0,12044590.0,1025.0,1025.0,1520.0,803.9000000000001,1591.0,1269.0,Object_Sea_Solid_Large,45.270531624992145,48.289247791981325,4.0,Object_Sea_Solid_Large,9.0,9.0,1.0,2.126758540980518,,,,,,,,
encoding,attention,22,12043173,12046192,12044606.0,12044690.0,85.0,85.0,1456.3,782.8,1591.0,1269.0,Object_Sea_Solid_Large,45.270531624992145,48.289247791981325,4.0,Object_Sea_Solid_Large,9.0,9.0,1.0,2.126758540980518,,,,,,,,
encoding,attention,22,12043173,12046192,12044704.0,12045182.0,479.0,479.0,1540.9,843.0999999999999,1591.0,1269.0,Object_Sea_Solid_Large,45.270531624992145,48.289247791981325,4.0,Object_Sea_Solid_Large,9.0,9.0,1.0,2.126758540980518,,,,,,,,
encoding,fixation,23,12046192,12047197,12046598.0,12046734.0,137.0,137.0,1852.1,1090.5,1920.0,1080.0,fixation,48.28940758298267,49.29428362500039,4.0,Animal_Land_Pattern_Small,4.0,,,,,,,,,,,
encoding,fixation,23,12046192,12047197,12046744.0,12046998.0,255.0,255.0,1907.7,1111.9,1920.0,1080.0,fixation,48.28940758298267,49.29428362500039,4.0,Animal_Land_Pattern_Small,4.0,,,,,,,,,,,
encoding,fixation,23,12046192,12047197,12047196.0,12047291.0,96.0,1.0,1891.0,1130.8,1920.0,1080.0,fixation,48.28940758298267,49.29428362500039,4.0,Animal_Land_Pattern_Small,4.0,,,,,,,,,,,
encoding,image,23,12047197,12048211,12047500.0,12047599.0,100.0,100.0,2172.1,1229.2,2249.0,891.0,Animal_Land_Pattern_Small,49.29444612498628,50.30841091700131,4.0,Animal_Land_Pattern_Small,4.0,,,,,,,,,,,
encoding,image,23,12047197,12048211,12047616.0,12048020.0,405.0,405.0,2215.3,1288.4,2249.0,891.0,Animal_Land_Pattern_Small,49.29444612498628,50.30841091700131,4.0,Animal_Land_Pattern_Small,4.0,,,,,,,,,,,
encoding,value,23,12048211,12054223,12048233.0,12048487.0,255.0,255.0,2014.8,1198.7,2249.0,891.0,Animal_Land_Pattern_Small,50.30852708299062,56.319847332983045,4.0,Animal_Land_Pattern_Small,4.0,,,,,,,,,,,
encoding,value,23,12048211,12054223,12048511.0,12049053.0,543.0,543.0,2222.7,1199.5,2249.0,891.0,Animal_Land_Pattern_Small,50.30852708299062,56.319847332983045,4.0,Animal_Land_Pattern_Small,4.0,,,,,,,,,,,
encoding,value,23,12048211,12054223,12049066.0,12049707.0,642.0,642.0,2220.2,1284.2,2249.0,891.0,Animal_Land_Pattern_Small,50.30852708299062,56.319847332983045,4.0,Animal_Land_Pattern_Small,4.0,,,,,,,,,,,
encoding,value,23,12048211,12054223,12049715.0,12050158.0,444.0,444.0,2259.4,1289.7,2249.0,891.0,Animal_Land_Pattern_Small,50.30852708299062,56.319847332983045,4.0,Animal_Land_Pattern_Small,4.0,,,,,,,,,,,
encoding,value,23,12048211,12054223,12050540.0,12050561.0,22.0,22.0,2256.1,1327.9,2249.0,891.0,Animal_Land_Pattern_Small,50.30852708299062,56.319847332983045,4.0,Animal_Land_Pattern_Small,4.0,,,,,,,,,,,
encoding,value,23,12048211,12054223,12050594.0,12050804.0,211.0,211.0,2238.9,1253.9,2249.0,891.0,Animal_Land_Pattern_Small,50.30852708299062,56.319847332983045,4.0,Animal_Land_Pattern_Small,4.0,,,,,,,,,,,
encoding,value,23,12048211,12054223,12051016.0,12051037.0,22.0,22.0,2223.8,1255.7,2249.0,891.0,Animal_Land_Pattern_Small,50.30852708299062,56.319847332983045,4.0,Animal_Land_Pattern_Small,4.0,,,,,,,,,,,
encoding,value,23,12048211,12054223,12051060.0,12051904.0,845.0,845.0,2220.8,1174.0,2249.0,891.0,Animal_Land_Pattern_Small,50.30852708299062,56.319847332983045,4.0,Animal_Land_Pattern_Small,4.0,,,,,,,,,,,
encoding,value,23,12048211,12054223,12051923.0,12053106.0,1184.0,1184.0,2215.6,1288.0,2249.0,891.0,Animal_Land_Pattern_Small,50.30852708299062,56.319847332983045,4.0,Animal_Land_Pattern_Small,4.0,,,,,,,,,,,
encoding,value,23,12048211,12054223,12053114.0,12053635.0,522.0,522.0,2259.5,1285.2,2249.0,891.0,Animal_Land_Pattern_Small,50.30852708299062,56.319847332983045,4.0,Animal_Land_Pattern_Small,4.0,,,,,,,,,,,
encoding,value,23,12048211,12054223,12053651.0,12054178.0,528.0,528.0,2218.8,1178.2,2249.0,891.0,Animal_Land_Pattern_Small,50.30852708299062,56.319847332983045,4.0,Animal_Land_Pattern_Small,4.0,,,,,,,,,,,
encoding,value,23,12048211,12054223,12054197.0,12054463.0,267.0,26.0,2240.2,1278.5,2249.0,891.0,Animal_Land_Pattern_Small,50.30852708299062,56.319847332983045,4.0,Animal_Land_Pattern_Small,4.0,,,,,,,,,,,
encoding,attention,23,12054223,12057241,12054478.0,12056208.0,1731.0,1731.0,2251.2,1166.2,2249.0,891.0,Animal_Land_Pattern_Small,56.31997462498839,59.338047541998094,4.0,Animal_Land_Pattern_Small,4.0,4.0,1.0,0.9650375829951372,,,,,,,,
encoding,attention,23,12054223,12057241,12056220.0,12056510.0,291.0,291.0,2235.3,1218.0,2249.0,891.0,Animal_Land_Pattern_Small,56.31997462498839,59.338047541998094,4.0,Animal_Land_Pattern_Small,4.0,4.0,1.0,0.9650375829951372,,,,,,,,
encoding,attention,23,12054223,12057241,12056518.0,12056790.0,273.0,273.0,2251.9,1181.3,2249.0,891.0,Animal_Land_Pattern_Small,56.31997462498839,59.338047541998094,4.0,Animal_Land_Pattern_Small,4.0,4.0,1.0,0.9650375829951372,,,,,,,,
encoding,fixation,24,12057241,12057997,12057295.0,12057487.0,193.0,193.0,2247.6,1156.3,2249.0,891.0,Animal_Land_Pattern_Small,59.3382282499806,60.09347845800221,4.0,Object_Land_Pattern_Large,-1.0,,,,,,,,,,,
encoding,fixation,24,12057241,12057997,12057730.0,12057920.0,191.0,191.0,1931.0,1146.2,1920.0,1080.0,fixation,59.3382282499806,60.09347845800221,4.0,Object_Land_Pattern_Large,-1.0,,,,,,,,,,,
encoding,fixation,24,12057241,12057997,12057933.0,12058258.0,326.0,64.0,1858.9,1108.4,1920.0,1080.0,fixation,59.3382282499806,60.09347845800221,4.0,Object_Land_Pattern_Large,-1.0,,,,,,,,,,,
encoding,image,24,12057997,12059011,12058300.0,12058568.0,269.0,269.0,1850.9,709.5,1920.0,1460.0,Object_Land_Pattern_Large,60.09359170799144,61.10829874998308,4.0,Object_Land_Pattern_Large,-1.0,,,,,,,,,,,
encoding,image,24,12057997,12059011,12058784.0,12058895.0,112.0,112.0,1780.0,778.4000000000001,1920.0,1460.0,Object_Land_Pattern_Large,60.09359170799144,61.10829874998308,4.0,Object_Land_Pattern_Large,-1.0,,,,,,,,,,,
encoding,value,24,12059012,12065024,12059148.0,12060022.0,875.0,875.0,1649.0,1080.4,1591.0,891.0,Animal_Land_Solid_Large,61.108401791978395,67.12039404199459,4.0,Object_Land_Pattern_Large,-1.0,,,,,,,,,,,
encoding,value,24,12059012,12065024,12060072.0,12060413.0,342.0,342.0,1831.4,645.5999999999999,1920.0,1460.0,Object_Land_Pattern_Large,61.108401791978395,67.12039404199459,4.0,Object_Land_Pattern_Large,-1.0,,,,,,,,,,,
encoding,value,24,12059012,12065024,12060424.0,12062582.0,2159.0,2159.0,1872.6,682.7,1920.0,1460.0,Object_Land_Pattern_Large,61.108401791978395,67.12039404199459,4.0,Object_Land_Pattern_Large,-1.0,,,,,,,,,,,
encoding,value,24,12059012,12065024,12062590.0,12063000.0,411.0,411.0,1869.7,678.3,1920.0,1460.0,Object_Land_Pattern_Large,61.108401791978395,67.12039404199459,4.0,Object_Land_Pattern_Large,-1.0,,,,,,,,,,,
encoding,value,24,12059012,12065024,12063227.0,12064198.0,972.0,972.0,1893.1,690.7,1920.0,1460.0,Object_Land_Pattern_Large,61.108401791978395,67.12039404199459,4.0,Object_Land_Pattern_Large,-1.0,,,,,,,,,,,
encoding,value,24,12059012,12065024,12064207.0,12064509.0,303.0,303.0,1890.5,636.3,1920.0,1460.0,Object_Land_Pattern_Large,61.108401791978395,67.12039404199459,4.0,Object_Land_Pattern_Large,-1.0,,,,,,,,,,,
encoding,value,24,12059012,12065024,12064519.0,12064901.0,383.0,383.0,1873.7,694.5,1920.0,1460.0,Object_Land_Pattern_Large,61.108401791978395,67.12039404199459,4.0,Object_Land_Pattern_Large,-1.0,,,,,,,,,,,
encoding,value,24,12059012,12065024,12064917.0,12065157.0,241.0,107.0,1915.0,616.5999999999999,1920.0,1460.0,Object_Land_Pattern_Large,61.108401791978395,67.12039404199459,4.0,Object_Land_Pattern_Large,-1.0,,,,,,,,,,,
encoding,attention,24,12065024,12068044,12065170.0,12065495.0,326.0,326.0,1878.4,663.9000000000001,1920.0,1460.0,Object_Land_Pattern_Large,67.12051979199168,70.14055037498474,4.0,Object_Land_Pattern_Large,-1.0,-1.0,1.0,1.6015598330122884,,,,,,,,
encoding,attention,24,12065024,12068044,12065705.0,12065753.0,49.0,49.0,1816.3,708.0999999999999,1920.0,1460.0,Object_Land_Pattern_Large,67.12051979199168,70.14055037498474,4.0,Object_Land_Pattern_Large,-1.0,-1.0,1.0,1.6015598330122884,,,,,,,,
encoding,attention,24,12065024,12068044,12065764.0,12066300.0,537.0,537.0,1824.4,618.4000000000001,1920.0,1460.0,Object_Land_Pattern_Large,67.12051979199168,70.14055037498474,4.0,Object_Land_Pattern_Large,-1.0,-1.0,1.0,1.6015598330122884,,,,,,,,
encoding,attention,24,12065024,12068044,12066516.0,12067054.0,539.0,539.0,1823.3,628.0,1920.0,1460.0,Object_Land_Pattern_Large,67.12051979199168,70.14055037498474,4.0,Object_Land_Pattern_Large,-1.0,-1.0,1.0,1.6015598330122884,,,,,,,,
encoding,fixation,25,12445443,12446949,12445672.0,12447201.0,1530.0,1277.0,1893.1,1078.5,1920.0,1080.0,fixation,5.296024124982068,6.8019101659883745,5.0,Object_Sea_Solid_Large,-2.0,,,,,,,,,,,
encoding,image,25,12446949,12447962,12447233.0,12448152.0,920.0,729.0,1572.3,904.9000000000001,1591.0,1269.0,Object_Sea_Solid_Large,6.802025124983629,7.814984915981768,5.0,Object_Sea_Solid_Large,-2.0,,,,,,,,,,,
encoding,value,25,12447962,12453978,12448170.0,12448640.0,471.0,471.0,1565.5,793.4000000000001,1591.0,1269.0,Object_Sea_Solid_Large,7.815094540972496,13.830623415997252,5.0,Object_Sea_Solid_Large,-2.0,,,,,,,,,,,
encoding,value,25,12447962,12453978,12448654.0,12449044.0,391.0,391.0,1561.1,872.8,1591.0,1269.0,Object_Sea_Solid_Large,7.815094540972496,13.830623415997252,5.0,Object_Sea_Solid_Large,-2.0,,,,,,,,,,,
encoding,value,25,12447962,12453978,12449310.0,12449381.0,72.0,72.0,1563.3,906.0999999999999,1591.0,1269.0,Object_Sea_Solid_Large,7.815094540972496,13.830623415997252,5.0,Object_Sea_Solid_Large,-2.0,,,,,,,,,,,
encoding,value,25,12447962,12453978,12449390.0,12449488.0,99.0,99.0,1551.3,830.2,1591.0,1269.0,Object_Sea_Solid_Large,7.815094540972496,13.830623415997252,5.0,Object_Sea_Solid_Large,-2.0,,,,,,,,,,,
encoding,value,25,12447962,12453978,12449501.0,12450728.0,1228.0,1228.0,1541.6,871.5,1591.0,1269.0,Object_Sea_Solid_Large,7.815094540972496,13.830623415997252,5.0,Object_Sea_Solid_Large,-2.0,,,,,,,,,,,
encoding,value,25,12447962,12453978,12450739.0,12450961.0,223.0,223.0,1576.5,806.3,1591.0,1269.0,Object_Sea_Solid_Large,7.815094540972496,13.830623415997252,5.0,Object_Sea_Solid_Large,-2.0,,,,,,,,,,,
encoding,value,25,12447962,12453978,12450981.0,12451308.0,328.0,328.0,1557.5,871.0999999999999,1591.0,1269.0,Object_Sea_Solid_Large,7.815094540972496,13.830623415997252,5.0,Object_Sea_Solid_Large,-2.0,,,,,,,,,,,
encoding,value,25,12447962,12453978,12451322.0,12451673.0,352.0,352.0,1577.5,790.7,1591.0,1269.0,Object_Sea_Solid_Large,7.815094540972496,13.830623415997252,5.0,Object_Sea_Solid_Large,-2.0,,,,,,,,,,,
encoding,value,25,12447962,12453978,12451690.0,12452352.0,663.0,663.0,1539.3,869.5999999999999,1591.0,1269.0,Object_Sea_Solid_Large,7.815094540972496,13.830623415997252,5.0,Object_Sea_Solid_Large,-2.0,,,,,,,,,,,
encoding,value,25,12447962,12453978,12452366.0,12454382.0,2017.0,1612.0,1573.8,794.2,1591.0,1269.0,Object_Sea_Solid_Large,7.815094540972496,13.830623415997252,5.0,Object_Sea_Solid_Large,-2.0,,,,,,,,,,,
encoding,attention,25,12453978,12456996,12454390.0,12454494.0,105.0,105.0,1528.3,800.0999999999999,1591.0,1269.0,Object_Sea_Solid_Large,13.830740957986563,16.84785529098008,5.0,Object_Sea_Solid_Large,-2.0,-2.0,1.0,1.2487993750255555,,,,,,,,
encoding,attention,25,12453978,12456996,12454709.0,12455706.0,998.0,998.0,1538.0,784.3,1591.0,1269.0,Object_Sea_Solid_Large,13.830740957986563,16.84785529098008,5.0,Object_Sea_Solid_Large,-2.0,-2.0,1.0,1.2487993750255555,,,,,,,,
encoding,fixation,26,12456996,12458251,12457254.0,12458414.0,1161.0,997.0,1895.8,1067.7,1920.0,1080.0,fixation,16.848019499971997,18.10310920799384,5.0,Animal_Land_Solid_Small,8.0,,,,,,,,,,,
encoding,image,26,12458251,12459262,12458449.0,12458750.0,302.0,302.0,1588.8,1279.9,1591.0,891.0,Animal_Land_Solid_Small,18.10323591597262,19.11428470799001,5.0,Animal_Land_Solid_Small,8.0,,,,,,,,,,,
encoding,image,26,12458251,12459262,12458961.0,12459268.0,308.0,301.0,1586.2,1282.7,1591.0,891.0,Animal_Land_Solid_Small,18.10323591597262,19.11428470799001,5.0,Animal_Land_Solid_Small,8.0,,,,,,,,,,,
encoding,value,26,12459262,12465274,12459488.0,12459686.0,199.0,199.0,1623.6,1286.2,1591.0,891.0,Animal_Land_Solid_Small,19.11446329098544,25.12617783297901,5.0,Animal_Land_Solid_Small,8.0,,,,,,,,,,,
encoding,value,26,12459262,12465274,12459703.0,12460394.0,692.0,692.0,1581.7,1182.1,1591.0,891.0,Animal_Land_Solid_Small,19.11446329098544,25.12617783297901,5.0,Animal_Land_Solid_Small,8.0,,,,,,,,,,,
encoding,value,26,12459262,12465274,12460615.0,12460755.0,141.0,141.0,1583.5,1192.6,1591.0,891.0,Animal_Land_Solid_Small,19.11446329098544,25.12617783297901,5.0,Animal_Land_Solid_Small,8.0,,,,,,,,,,,
encoding,value,26,12459262,12465274,12460946.0,12461339.0,394.0,394.0,1566.1,1211.2,1591.0,891.0,Animal_Land_Solid_Small,19.11446329098544,25.12617783297901,5.0,Animal_Land_Solid_Small,8.0,,,,,,,,,,,
encoding,value,26,12459262,12465274,12461585.0,12461811.0,227.0,227.0,1563.4,1252.0,1591.0,891.0,Animal_Land_Solid_Small,19.11446329098544,25.12617783297901,5.0,Animal_Land_Solid_Small,8.0,,,,,,,,,,,
encoding,value,26,12459262,12465274,12461822.0,12462386.0,565.0,565.0,1595.9,1287.7,1591.0,891.0,Animal_Land_Solid_Small,19.11446329098544,25.12617783297901,5.0,Animal_Land_Solid_Small,8.0,,,,,,,,,,,
encoding,value,26,12459262,12465274,12462407.0,12465525.0,3119.0,2867.0,1597.0,1168.4,1591.0,891.0,Animal_Land_Solid_Small,19.11446329098544,25.12617783297901,5.0,Animal_Land_Solid_Small,8.0,,,,,,,,,,,
encoding,attention,26,12465274,12468292,12465532.0,12466653.0,1122.0,1122.0,1557.3,1154.0,1591.0,891.0,Animal_Land_Solid_Small,25.126291415974265,28.143146957998397,5.0,Animal_Land_Solid_Small,8.0,8.0,1.0,0.8673648330150172,,,,,,,,
encoding,attention,26,12465274,12468292,12466662.0,12467391.0,730.0,730.0,1598.4,1154.2,1591.0,891.0,Animal_Land_Solid_Small,25.126291415974265,28.143146957998397,5.0,Animal_Land_Solid_Small,8.0,8.0,1.0,0.8673648330150172,,,,,,,,
encoding,attention,26,12465274,12468292,12467398.0,12467642.0,245.0,245.0,1648.1,1196.6,1591.0,891.0,Animal_Land_Solid_Small,25.126291415974265,28.143146957998397,5.0,Animal_Land_Solid_Small,8.0,8.0,1.0,0.8673648330150172,,,,,,,,
encoding,attention,26,12465274,12468292,12467767.0,12468136.0,370.0,370.0,1602.6,1250.2,1591.0,891.0,Animal_Land_Solid_Small,25.126291415974265,28.143146957998397,5.0,Animal_Land_Solid_Small,8.0,8.0,1.0,0.8673648330150172,,,,,,,,
encoding,fixation,27,12468292,12469547,12468531.0,12469728.0,1198.0,1016.0,1891.9,1101.3,1920.0,1080.0,fixation,28.14330974998302,29.39846045797458,5.0,Object_Sea_Pattern_Large,8.0,,,,,,,,,,,
encoding,image,27,12469547,12470558,12469781.0,12470218.0,438.0,438.0,1901.8,1442.5,1920.0,700.0,Object_Sea_Pattern_Large,29.39856520798639,30.409773415973177,5.0,Object_Sea_Pattern_Large,8.0,,,,,,,,,,,
encoding,image,27,12469547,12470558,12470254.0,12470466.0,213.0,213.0,1892.0,1114.8,1920.0,1080.0,fixation,29.39856520798639,30.409773415973177,5.0,Object_Sea_Pattern_Large,8.0,,,,,,,,,,,
encoding,image,27,12469547,12470558,12470516.0,12470773.0,258.0,42.0,1909.8,1494.1,1920.0,700.0,Object_Sea_Pattern_Large,29.39856520798639,30.409773415973177,5.0,Object_Sea_Pattern_Large,8.0,,,,,,,,,,,
encoding,value,27,12470558,12476570,12470792.0,12471367.0,576.0,576.0,1907.4,1384.0,1920.0,700.0,Object_Sea_Pattern_Large,30.40990495798178,36.42167212499771,5.0,Object_Sea_Pattern_Large,8.0,,,,,,,,,,,
encoding,value,27,12470558,12476570,12471578.0,12472829.0,1252.0,1252.0,1921.5,1427.0,1920.0,700.0,Object_Sea_Pattern_Large,30.40990495798178,36.42167212499771,5.0,Object_Sea_Pattern_Large,8.0,,,,,,,,,,,
encoding,value,27,12470558,12476570,12472990.0,12473882.0,893.0,893.0,1946.5,1390.4,1920.0,700.0,Object_Sea_Pattern_Large,30.40990495798178,36.42167212499771,5.0,Object_Sea_Pattern_Large,8.0,,,,,,,,,,,
encoding,value,27,12470558,12476570,12473897.0,12474607.0,711.0,711.0,1928.2,1452.3,1920.0,700.0,Object_Sea_Pattern_Large,30.40990495798178,36.42167212499771,5.0,Object_Sea_Pattern_Large,8.0,,,,,,,,,,,
encoding,value,27,12470558,12476570,12474626.0,12475217.0,592.0,592.0,1923.7,1358.5,1920.0,700.0,Object_Sea_Pattern_Large,30.40990495798178,36.42167212499771,5.0,Object_Sea_Pattern_Large,8.0,,,,,,,,,,,
encoding,value,27,12470558,12476570,12475439.0,12476199.0,761.0,761.0,1903.5,1399.0,1920.0,700.0,Object_Sea_Pattern_Large,30.40990495798178,36.42167212499771,5.0,Object_Sea_Pattern_Large,8.0,,,,,,,,,,,
encoding,value,27,12470558,12476570,12476209.0,12477023.0,815.0,361.0,1918.1,1345.0,1920.0,700.0,Object_Sea_Pattern_Large,30.40990495798178,36.42167212499771,5.0,Object_Sea_Pattern_Large,8.0,,,,,,,,,,,
encoding,attention,27,12476570,12479588,12477248.0,12477900.0,653.0,653.0,1857.2,1331.6,1920.0,700.0,Object_Sea_Pattern_Large,36.42178508298821,39.43901537498459,5.0,Object_Sea_Pattern_Large,8.0,8.0,1.0,1.0181079999892972,,,,,,,,
encoding,attention,27,12476570,12479588,12478151.0,12479387.0,1237.0,1237.0,1914.8,1406.2,1920.0,700.0,Object_Sea_Pattern_Large,36.42178508298821,39.43901537498459,5.0,Object_Sea_Pattern_Large,8.0,8.0,1.0,1.0181079999892972,,,,,,,,
encoding,fixation,28,12479588,12480843,12479875.0,12481118.0,1244.0,968.0,1871.0,1081.0,1920.0,1080.0,fixation,39.4391622080002,40.69422308297362,5.0,Animal_Sea_Solid_Small,-3.0,,,,,,,,,,,
encoding,image,28,12480843,12481855,12481159.0,12481483.0,325.0,325.0,1869.0,690.3,1920.0,1460.0,Animal_Sea_Solid_Small,40.69432758298353,41.705502500000875,5.0,Animal_Sea_Solid_Small,-3.0,,,,,,,,,,,
encoding,image,28,12480843,12481855,12481704.0,12482024.0,321.0,151.0,1860.4,711.2,1920.0,1460.0,Animal_Sea_Solid_Small,40.69432758298353,41.705502500000875,5.0,Animal_Sea_Solid_Small,-3.0,,,,,,,,,,,
encoding,value,28,12481855,12487866,12482042.0,12482556.0,515.0,515.0,1906.0,579.8,1920.0,1460.0,Animal_Sea_Solid_Small,41.70562404097291,47.7172124159988,5.0,Animal_Sea_Solid_Small,-3.0,,,,,,,,,,,
encoding,value,28,12481855,12487866,12482579.0,12482785.0,207.0,207.0,1885.0,698.7,1920.0,1460.0,Animal_Sea_Solid_Small,41.70562404097291,47.7172124159988,5.0,Animal_Sea_Solid_Small,-3.0,,,,,,,,,,,
encoding,value,28,12481855,12487866,12483017.0,12483915.0,899.0,899.0,1879.1,709.9000000000001,1920.0,1460.0,Animal_Sea_Solid_Small,41.70562404097291,47.7172124159988,5.0,Animal_Sea_Solid_Small,-3.0,,,,,,,,,,,
encoding,value,28,12481855,12487866,12483936.0,12484759.0,824.0,824.0,1910.3,593.3,1920.0,1460.0,Animal_Sea_Solid_Small,41.70562404097291,47.7172124159988,5.0,Animal_Sea_Solid_Small,-3.0,,,,,,,,,,,
encoding,value,28,12481855,12487866,12484774.0,12485131.0,358.0,358.0,1869.1,672.8,1920.0,1460.0,Animal_Sea_Solid_Small,41.70562404097291,47.7172124159988,5.0,Animal_Sea_Solid_Small,-3.0,,,,,,,,,,,
encoding,value,28,12481855,12487866,12485139.0,12485802.0,664.0,664.0,1875.9,688.9000000000001,1920.0,1460.0,Animal_Sea_Solid_Small,41.70562404097291,47.7172124159988,5.0,Animal_Sea_Solid_Small,-3.0,,,,,,,,,,,
encoding,value,28,12481855,12487866,12486011.0,12486525.0,515.0,515.0,1872.5,684.7,1920.0,1460.0,Animal_Sea_Solid_Small,41.70562404097291,47.7172124159988,5.0,Animal_Sea_Solid_Small,-3.0,,,,,,,,,,,
encoding,value,28,12481855,12487866,12486541.0,12488377.0,1837.0,1325.0,1900.8,600.7,1920.0,1460.0,Animal_Sea_Solid_Small,41.70562404097291,47.7172124159988,5.0,Animal_Sea_Solid_Small,-3.0,,,,,,,,,,,
encoding,attention,28,12487866,12490880,12488566.0,12488769.0,204.0,204.0,1876.1,641.5,1920.0,1460.0,Animal_Sea_Solid_Small,47.7173197909724,50.73094604097423,5.0,Animal_Sea_Solid_Small,-3.0,,,,,,,,,,,
encoding,attention,28,12487866,12490880,12488783.0,12489299.0,517.0,517.0,1881.2,675.7,1920.0,1460.0,Animal_Sea_Solid_Small,47.7173197909724,50.73094604097423,5.0,Animal_Sea_Solid_Small,-3.0,,,,,,,,,,,
encoding,fixation,29,12490880,12491385,12491149.0,12491381.0,233.0,233.0,1884.8,1031.2,1920.0,1080.0,fixation,50.73106683298829,51.23599199997261,5.0,Object_Land_Pattern_Small,-8.0,,,,,,,,,,,
encoding,image,29,12491385,12492397,12491393.0,12491701.0,309.0,309.0,1886.6,1068.6,1920.0,1080.0,fixation,51.236094249994494,52.247855040972354,5.0,Object_Land_Pattern_Small,-8.0,,,,,,,,,,,
encoding,image,29,12491385,12492397,12491739.0,12492035.0,297.0,297.0,2178.0,926.0,2249.0,1269.0,Object_Land_Pattern_Small,51.236094249994494,52.247855040972354,5.0,Object_Land_Pattern_Small,-8.0,,,,,,,,,,,
encoding,image,29,12491385,12492397,12492043.0,12493431.0,1389.0,354.0,2215.3,919.7,2249.0,1269.0,Object_Land_Pattern_Small,51.236094249994494,52.247855040972354,5.0,Object_Land_Pattern_Small,-8.0,,,,,,,,,,,
encoding,value,29,12492397,12498409,12493446.0,12493772.0,327.0,327.0,2194.5,854.0,2249.0,1269.0,Object_Land_Pattern_Small,52.24796412498108,58.25925570799154,5.0,Object_Land_Pattern_Small,-8.0,,,,,,,,,,,
encoding,value,29,12492397,12498409,12493983.0,12494665.0,683.0,683.0,2209.6,884.5,2249.0,1269.0,Object_Land_Pattern_Small,52.24796412498108,58.25925570799154,5.0,Object_Land_Pattern_Small,-8.0,,,,,,,,,,,
encoding,value,29,12492397,12498409,12494677.0,12495840.0,1164.0,1164.0,2210.0,795.8,2249.0,1269.0,Object_Land_Pattern_Small,52.24796412498108,58.25925570799154,5.0,Object_Land_Pattern_Small,-8.0,,,,,,,,,,,
encoding,value,29,12492397,12498409,12495852.0,12496782.0,931.0,931.0,2200.2,880.4000000000001,2249.0,1269.0,Object_Land_Pattern_Small,52.24796412498108,58.25925570799154,5.0,Object_Land_Pattern_Small,-8.0,,,,,,,,,,,
encoding,value,29,12492397,12498409,12496794.0,12497046.0,253.0,253.0,2133.1,888.4000000000001,2249.0,1269.0,Object_Land_Pattern_Small,52.24796412498108,58.25925570799154,5.0,Object_Land_Pattern_Small,-8.0,,,,,,,,,,,
encoding,value,29,12492397,12498409,12497062.0,12498701.0,1640.0,1347.0,2188.4,820.9000000000001,2249.0,1269.0,Object_Land_Pattern_Small,52.24796412498108,58.25925570799154,5.0,Object_Land_Pattern_Small,-8.0,,,,,,,,,,,
encoding,attention,29,12498409,12501428,12498946.0,12498982.0,37.0,37.0,2223.2,919.5999999999999,2249.0,1269.0,Object_Land_Pattern_Small,58.259365874982905,61.278233165998245,5.0,Object_Land_Pattern_Small,-8.0,-8.0,1.0,1.2356328750029206,,,,,,,,
encoding,attention,29,12498409,12501428,12498997.0,12499357.0,361.0,361.0,2210.9,834.0999999999999,2249.0,1269.0,Object_Land_Pattern_Small,58.259365874982905,61.278233165998245,5.0,Object_Land_Pattern_Small,-8.0,-8.0,1.0,1.2356328750029206,,,,,,,,
encoding,attention,29,12498409,12501428,12499368.0,12500308.0,941.0,941.0,2198.6,879.8,2249.0,1269.0,Object_Land_Pattern_Small,58.259365874982905,61.278233165998245,5.0,Object_Land_Pattern_Small,-8.0,-8.0,1.0,1.2356328750029206,,,,,,,,
encoding,attention,29,12498409,12501428,12500323.0,12500524.0,202.0,202.0,2243.2,813.7,2249.0,1269.0,Object_Land_Pattern_Small,58.259365874982905,61.278233165998245,5.0,Object_Land_Pattern_Small,-8.0,-8.0,1.0,1.2356328750029206,,,,,,,,
encoding,fixation,30,12501428,12502183,12501653.0,12501909.0,257.0,257.0,1906.3,1074.9,1920.0,1080.0,fixation,61.27846412497456,62.03359699997236,5.0,Animal_Land_Pattern_Large,-2.0,,,,,,,,,,,
encoding,fixation,30,12501428,12502183,12502119.0,12502143.0,25.0,25.0,1915.6,1192.7,1920.0,700.0,Object_Sea_Pattern_Large,61.27846412497456,62.03359699997236,5.0,Animal_Land_Pattern_Large,-2.0,,,,,,,,,,,
encoding,fixation,30,12501428,12502183,12502153.0,12502239.0,87.0,30.0,1906.4,1124.2,1920.0,1080.0,fixation,61.27846412497456,62.03359699997236,5.0,Animal_Land_Pattern_Large,-2.0,,,,,,,,,,,
encoding,image,30,12502184,12503195,12502426.0,12502789.0,364.0,364.0,2108.4,1184.0,2249.0,891.0,Animal_Land_Pattern_Large,62.03370862497832,63.04458170797443,5.0,Animal_Land_Pattern_Large,-2.0,,,,,,,,,,,
encoding,image,30,12502184,12503195,12502811.0,12503184.0,374.0,374.0,1889.9,1088.6,1920.0,1080.0,fixation,62.03370862497832,63.04458170797443,5.0,Animal_Land_Pattern_Large,-2.0,,,,,,,,,,,
encoding,value,30,12503195,12509206,12503214.0,12503430.0,217.0,217.0,2221.7,1233.7,2249.0,891.0,Animal_Land_Pattern_Large,63.044706457993016,69.05590641597519,5.0,Animal_Land_Pattern_Large,-2.0,,,,,,,,,,,
encoding,value,30,12503195,12509206,12503442.0,12503913.0,472.0,472.0,2257.9,1190.4,2249.0,891.0,Animal_Land_Pattern_Large,63.044706457993016,69.05590641597519,5.0,Animal_Land_Pattern_Large,-2.0,,,,,,,,,,,
encoding,value,30,12503195,12509206,12504130.0,12504419.0,290.0,290.0,2240.9,1198.5,2249.0,891.0,Animal_Land_Pattern_Large,63.044706457993016,69.05590641597519,5.0,Animal_Land_Pattern_Large,-2.0,,,,,,,,,,,
encoding,value,30,12503195,12509206,12504601.0,12507370.0,2770.0,2770.0,2239.2,1185.6,2249.0,891.0,Animal_Land_Pattern_Large,63.044706457993016,69.05590641597519,5.0,Animal_Land_Pattern_Large,-2.0,,,,,,,,,,,
encoding,value,30,12503195,12509206,12507392.0,12507717.0,326.0,326.0,2154.0,1087.2,2249.0,891.0,Animal_Land_Pattern_Large,63.044706457993016,69.05590641597519,5.0,Animal_Land_Pattern_Large,-2.0,,,,,,,,,,,
encoding,value,30,12503195,12509206,12507732.0,12509824.0,2093.0,1474.0,2219.5,1184.2,2249.0,891.0,Animal_Land_Pattern_Large,63.044706457993016,69.05590641597519,5.0,Animal_Land_Pattern_Large,-2.0,,,,,,,,,,,
encoding,attention,30,12509206,12512223,12509835.0,12510010.0,176.0,176.0,2252.3,1185.3,2249.0,891.0,Animal_Land_Pattern_Large,69.0560237079917,72.07258304097923,5.0,Animal_Land_Pattern_Large,-2.0,-2.0,1.0,1.5374564170197118,,,,,,,,
encoding,attention,30,12509206,12512223,12510243.0,12510419.0,177.0,177.0,2176.2,1204.0,2249.0,891.0,Animal_Land_Pattern_Large,69.0560237079917,72.07258304097923,5.0,Animal_Land_Pattern_Large,-2.0,-2.0,1.0,1.5374564170197118,,,,,,,,
