phase,event,onset,offset,trial_number,game,image,outcome,choice,correct,rt,letter,match,response,option,true_value,true_position,recalled_position,
encoding,fixation,13.021469375118613,14.288229917176068,1,1,Object_Land_Solid_Small,-2,,,,,,,,,,,
encoding,image,14.288409917149693,15.310968625126407,1,1,Object_Land_Solid_Small,-2,,,,,,,,,,,
encoding,value,15.311081083025783,21.327264625113457,1,1,Object_Land_Solid_Small,-2,,,,,,,,,,,
encoding,attention,21.327368792146444,24.34740824997425,1,1,Object_Land_Solid_Small,-2,-2,1,2.102256708079949,,,,,,,,
encoding,fixation,24.34755991701968,25.85246566706337,2,1,Animal_Sea_Pattern_Large,6,,,,,,,,,,,
encoding,image,25.852583250030875,26.863037000177428,2,1,Animal_Sea_Pattern_Large,6,,,,,,,,,,,
encoding,value,26.86315495800227,32.87715291697532,2,1,Animal_Sea_Pattern_Large,6,,,,,,,,,,,
encoding,attention,32.87725770799443,35.896744875004515,2,1,Animal_Sea_Pattern_Large,6,+6,1,1.3426605421118438,,,,,,,,
encoding,fixation,35.89690087502822,37.15192375006154,3,1,Object_Sea_Solid_Small,-2,,,,,,,,,,,
encoding,image,37.15204366715625,38.16198049997911,3,1,Object_Sea_Solid_Small,-2,,,,,,,,,,,
encoding,value,38.16209616698325,44.17378875007853,3,1,Object_Sea_Solid_Small,-2,,,,,,,,,,,
encoding,attention,44.17390579194762,47.19132612505928,3,1,Object_Sea_Solid_Small,-2,-2,1,1.2075179170351475,,,,,,,,
encoding,fixation,47.191467500058934,48.446402250090614,4,1,Animal_Sea_Solid_Small,2,,,,,,,,,,,
encoding,image,48.44650995801203,49.457295041996986,4,1,Animal_Sea_Solid_Small,2,,,,,,,,,,,
encoding,value,49.457411041948944,55.46844204212539,4,1,Animal_Sea_Solid_Small,2,,,,,,,,,,,
encoding,attention,55.46854937495664,58.485952333081514,4,1,Animal_Sea_Solid_Small,2,+2,1,1.2279307499993593,,,,,,,,
encoding,fixation,58.48611137503758,59.99442629213445,5,1,Animal_Land_Pattern_Large,-9,,,,,,,,,,,
encoding,image,59.99454141710885,61.00593579211272,5,1,Animal_Land_Pattern_Large,-9,,,,,,,,,,,
encoding,value,61.00604091701098,67.0183798330836,5,1,Animal_Land_Pattern_Large,-9,,,,,,,,,,,
encoding,attention,67.01848608301952,70.07716279197484,5,1,Animal_Land_Pattern_Large,-9,-9,1,1.0825049590785056,,,,,,,,
encoding,fixation,70.07730033295229,70.83231962495483,6,1,Object_Land_Pattern_Large,9,,,,,,,,,,,
encoding,image,70.83244441705756,71.84449183312245,6,1,Object_Land_Pattern_Large,9,,,,,,,,,,,
encoding,value,71.84459408302791,77.85698866704479,6,1,Object_Land_Pattern_Large,9,,,,,,,,,,,
encoding,attention,77.85711770807393,80.8757318330463,6,1,Object_Land_Pattern_Large,9,+9,1,0.9718874159734696,,,,,,,,
n-back,,,,1,1,,,,1,None,V,False,None,,,,,
n-back,,,,2,1,,,,0,None,Z,True,None,,,,,
n-back,,,,3,1,,,,0,None,V,True,None,,,,,
n-back,,,,4,1,,,,1,0.0454954169690609,Z,True,1,,,,,
n-back,,,,5,1,,,,1,None,Z,False,None,,,,,
n-back,,,,6,1,,,,1,None,B,False,None,,,,,
n-back,,,,7,1,,,,1,None,N,False,None,,,,,
n-back,,,,8,1,,,,1,None,V,False,None,,,,,
n-back,,,,9,1,,,,1,None,X,False,None,,,,,
n-back,,,,10,1,,,,1,0.878053667023778,V,True,1,,,,,
n-back,,,,11,1,,,,1,None,V,False,None,,,,,
n-back,,,,12,1,,,,0,None,V,True,None,,,,,
n-back,,,,13,1,,,,0,None,V,True,None,,,,,
n-back,,,,14,1,,,,1,None,C,False,None,,,,,
n-back,,,,15,1,,,,1,None,B,False,None,,,,,
n-back,,,,16,1,,,,1,None,X,False,None,,,,,
n-back,,,,17,1,,,,1,None,X,False,None,,,,,
n-back,,,,18,1,,,,1,1.067759915953502,X,True,1,,,,,
n-back,,,,19,1,,,,1,None,C,False,None,,,,,
n-back,,,,20,1,,,,1,None,N,False,None,,,,,
n-back,,,,21,1,,,,1,None,B,False,None,,,,,
n-back,,,,22,1,,,,1,None,X,False,None,,,,,
n-back,,,,23,1,,,,1,0.918216124875471,B,True,1,,,,,
n-back,,,,24,1,,,,1,None,B,False,None,,,,,
n-back,,,,25,1,,,,0,None,B,True,None,,,,,
n-back,,,,26,1,,,,1,None,Z,False,None,,,,,
n-back,,,,27,1,,,,0,None,B,True,None,,,,,
n-back,,,,28,1,,,,1,None,C,False,None,,,,,
n-back,,,,29,1,,,,1,None,Z,False,None,,,,,
n-back,,,,30,1,,,,1,None,B,False,None,,,,,
choice,fixation,161.02670229203068,162.53321625012904,1,1,,,,,,,,,Object,,,,
choice,option,162.54321704199538,163.78248449997045,1,1,,,,,,,,,Object,,,,
choice,choice,163.78265187516809,169.91405095811933,1,1,,,1,1,5.12133300001733,,,,Object,,,,
choice,fixation,169.91417558304965,171.16913633304648,2,1,,,,,,,,,Sea,,,,
choice,option,171.17806320800446,172.20706787495874,2,1,,,,,,,,,Sea,,,,
choice,choice,172.20721591706388,185.3446561251767,2,1,,,2,0,12.125878915889189,,,,Sea,,,,
choice,fixation,185.34477841714397,186.59978316701017,3,1,,,,,,,,,Pattern,,,,
choice,option,186.60914512514137,187.63707041717134,3,1,,,,,,,,,Pattern,,,,
choice,choice,187.63716741697863,202.62382258311845,3,1,,,1,1,13.975662958808243,,,,Pattern,,,,
choice,fixation,202.62395699997433,203.87935741711408,4,1,,,,,,,,,Animal,,,,
choice,option,203.8895110830199,204.91713395807892,4,1,,,,,,,,,Animal,,,,
choice,choice,204.91723241703585,207.4555221251212,4,1,,,1,0,1.5288555000443012,,,,Animal,,,,
choice,fixation,207.45565408305265,208.7109797920566,5,1,,,,,,,,,Solid,,,,
choice,option,208.72010316699743,209.74787600012496,5,1,,,,,,,,,Solid,,,,
choice,choice,209.7479822919704,213.081601458136,5,1,,,2,1,2.3238957091234624,,,,Solid,,,,
choice,fixation,213.0817267501261,214.08679908304475,6,1,,,,,,,,,Large,,,,
choice,option,214.0956047079526,215.1222144169733,6,1,,,,,,,,,Large,,,,
choice,choice,215.12232866697013,219.38252408313565,6,1,,,1,1,3.250751999905333,,,,Large,,,,
choice,fixation,219.38264912506565,220.13762066699564,7,1,,,,,,,,,Small,,,,
choice,option,220.1466534580104,221.17643454205245,7,1,,,,,,,,,Small,,,,
choice,choice,221.17654454195872,226.96842583315447,7,1,,,2,1,4.781949875177816,,,,Small,,,,
choice,fixation,226.96856650011614,227.72367766709067,8,1,,,,,,,,,Land,,,,
choice,option,227.732461333042,228.76019183313474,8,1,,,,,,,,,Land,,,,
choice,choice,228.7603109171614,232.8544963330496,8,1,,,1,0,3.084692707983777,,,,Land,,,,
memory,free_recall,296.0016481250059,336.53751508309506,0,1,,,,,,,,,,,,,
memory,value_recall,380.8873972920701,389.8259657921735,1,1,Object_Land_Pattern_Large,,,,8.93256604205817,,,,,9,,,
memory,value_recall,390.8728485421743,416.84209633315913,2,1,Animal_Sea_Solid_Small,,,,25.965714833000675,,,,,2,,,
memory,value_recall,418.3891110420227,427.83327033300884,3,1,Animal_Land_Pattern_Large,,,,9.440056415973231,,,,,-9,,,
memory,value_recall,429.880643249955,433.1616306670476,4,1,Object_Sea_Solid_Small,,,,3.276965416967869,,,,,-2,,,
memory,value_recall,434.45928629208356,455.24987891712226,5,1,Animal_Sea_Pattern_Large,,,,20.786415208131075,,,,,6,,,
memory,value_recall,457.30246020806953,461.47564887511544,6,1,Object_Land_Solid_Small,,,,4.166688083903864,,,,,-2,,,
memory,spatial_recall,493.0264051251579,528.4769101249985,6,1,Animal_Sea_Solid_Small,,,1,35.44647679198533,,,,,,"[0, 380]","[0, 380]",
memory,spatial_recall,530.5339675419964,539.7136102081276,6,1,Animal_Land_Pattern_Large,,,1,9.17530395812355,,,,,,"[-329, 190]","[-329, 190]",
memory,spatial_recall,541.5210656251293,553.4769675419666,6,1,Object_Land_Solid_Small,,,1,11.951874666847289,,,,,,"[-329, -190]","[-329, -190]",
memory,spatial_recall,554.5286875420716,562.5300505000632,6,1,Object_Sea_Solid_Small,,,1,7.99883949989453,,,,,,"[329, -190]","[329, -190]",
memory,spatial_recall,564.0818421251606,567.7339880829677,6,1,Animal_Sea_Pattern_Large,,,1,3.6478773751296103,,,,,,"[329, 189]","[329, 189]",
memory,spatial_recall,569.798759000143,574.6672273750883,6,1,Object_Land_Pattern_Large,,,1,4.86445050011389,,,,,,"[0, -380]","[0, -380]",
encoding,fixation,19.879659166093916,20.636732832994312,7,2,Object_Land_Pattern_Small,-7,,,,,,,,,,,
encoding,image,20.63686512503773,21.649565041065216,7,2,Object_Land_Pattern_Small,-7,,,,,,,,,,,
encoding,value,21.64966879109852,27.662994500016794,7,2,Object_Land_Pattern_Small,-7,,,,,,,,,,,
encoding,attention,27.663112791022286,30.683485249988735,7,2,Object_Land_Pattern_Small,-7,-7,1,1.781184958992526,,,,,,,,
encoding,fixation,30.6836409161333,31.938990958034992,8,2,Object_Sea_Pattern_Small,3,,,,,,,,,,,
encoding,image,31.939103625016287,32.950315041001886,8,2,Object_Sea_Pattern_Small,3,,,,,,,,,,,
encoding,value,32.95042529096827,38.96287158317864,8,2,Object_Sea_Pattern_Small,3,,,,,,,,,,,
encoding,attention,38.96299241599627,41.982990000164136,8,2,Object_Sea_Pattern_Small,3,+3,1,2.24914758419618,,,,,,,,
encoding,fixation,41.98314212518744,42.989179000025615,9,2,Animal_Sea_Solid_Large,1,,,,,,,,,,,
encoding,image,42.98928929097019,44.00092766596936,9,2,Animal_Sea_Solid_Large,1,,,,,,,,,,,
encoding,value,44.00105141615495,50.013814041158184,9,2,Animal_Sea_Solid_Large,1,,,,,,,,,,,
encoding,attention,50.013931500026956,53.03234220808372,9,2,Animal_Sea_Solid_Large,1,+1,1,1.4539520412217826,,,,,,,,
encoding,fixation,53.03249179106206,53.53794629103504,10,2,Animal_Sea_Solid_Small,-8,,,,,,,,,,,
encoding,image,53.53804516606033,54.54895520815626,10,2,Animal_Sea_Solid_Small,-8,,,,,,,,,,,
encoding,value,54.549076250055805,60.560409458121285,10,2,Animal_Sea_Solid_Small,-8,,,,,,,,,,,
encoding,attention,60.560511416057125,63.578238000161946,10,2,Animal_Sea_Solid_Small,-8,-8,1,1.8193959170021117,,,,,,,,
encoding,fixation,63.578389041125774,64.8333880410064,11,2,Object_Land_Solid_Large,-2,,,,,,,,,,,
encoding,image,64.83349858317524,65.84385791607201,11,2,Object_Land_Solid_Large,-2,,,,,,,,,,,
encoding,value,65.84398408303969,71.85447275009938,11,2,Object_Land_Solid_Large,-2,,,,,,,,,,,
encoding,attention,71.85458504105918,74.8709210830275,11,2,Object_Land_Solid_Large,-2,-2,1,2.366150249959901,,,,,,,,
encoding,fixation,74.87106379098259,76.12691704113968,12,2,Animal_Land_Pattern_Large,2,,,,,,,,,,,
encoding,image,76.127027166076,77.13957616616972,12,2,Animal_Land_Pattern_Large,2,,,,,,,,,,,
encoding,value,77.13971195812337,83.15098179108463,12,2,Animal_Land_Pattern_Large,2,,,,,,,,,,,
encoding,attention,83.15115050016902,86.17128341598436,12,2,Animal_Land_Pattern_Large,2,+2,1,1.1401225419249386,,,,,,,,
n-back,,,,31,2,,,,1,None,C,False,None,,,,,
n-back,,,,32,2,,,,1,None,Z,False,None,,,,,
n-back,,,,33,2,,,,1,None,B,False,None,,,,,
n-back,,,,34,2,,,,0,None,Z,True,None,,,,,
n-back,,,,35,2,,,,1,None,C,False,None,,,,,
n-back,,,,36,2,,,,0,None,Z,True,None,,,,,
n-back,,,,37,2,,,,1,None,X,False,None,,,,,
n-back,,,,38,2,,,,1,0.7386618750169873,Z,True,1,,,,,
n-back,,,,39,2,,,,1,None,C,False,None,,,,,
n-back,,,,40,2,,,,0,None,Z,True,None,,,,,
n-back,,,,41,2,,,,1,0.44831029209308326,C,True,1,,,,,
n-back,,,,42,2,,,,1,None,C,False,None,,,,,
n-back,,,,43,2,,,,1,None,V,False,None,,,,,
n-back,,,,44,2,,,,1,None,X,False,None,,,,,
n-back,,,,45,2,,,,1,0.5685322911012918,V,True,1,,,,,
n-back,,,,46,2,,,,1,None,Z,False,None,,,,,
n-back,,,,47,2,,,,1,None,Z,False,None,,,,,
n-back,,,,48,2,,,,1,None,C,False,None,,,,,
n-back,,,,49,2,,,,1,1.483060667058453,Z,True,1,,,,,
n-back,,,,50,2,,,,0,None,C,True,None,,,,,
n-back,,,,51,2,,,,1,None,C,False,None,,,,,
n-back,,,,52,2,,,,1,None,X,False,None,,,,,
n-back,,,,53,2,,,,1,None,N,False,None,,,,,
n-back,,,,54,2,,,,1,None,V,False,None,,,,,
n-back,,,,55,2,,,,1,1.2356825829483569,N,True,1,,,,,
n-back,,,,56,2,,,,1,None,N,False,None,,,,,
n-back,,,,57,2,,,,1,None,B,False,None,,,,,
n-back,,,,58,2,,,,1,None,B,False,None,,,,,
n-back,,,,59,2,,,,0,None,B,True,None,,,,,
n-back,,,,60,2,,,,1,None,N,False,None,,,,,
choice,fixation,167.74678425001912,168.7499627501238,9,2,,,,,,,,,Small,,,,
choice,option,168.75875854096375,169.78636587504297,9,2,,,,,,,,,Small,,,,
choice,choice,169.78648387501016,197.49450425012037,9,2,,,1,0,26.69488462503068,,,,Small,,,,
choice,fixation,197.49462429108098,197.99957808316685,10,2,,,,,,,,,Pattern,,,,
choice,option,198.00889599998482,199.03591545810923,10,2,,,,,,,,,Pattern,,,,
choice,choice,199.03602891601622,230.17427495797165,10,2,,,2,1,30.127478166949004,,,,Pattern,,,,
choice,fixation,230.17440112517215,231.6795646250248,11,2,,,,,,,,,Object,,,,
choice,option,231.6888178330846,232.7159407499712,11,2,,,,,,,,,Object,,,,
choice,choice,232.71604108298197,243.11949691618793,11,2,,,2,1,9.393135708989576,,,,Object,,,,
choice,fixation,243.11962225008756,243.627503833035,12,2,,,,,,,,,Solid,,,,
choice,option,243.63788991607726,244.66456004115753,12,2,,,,,,,,,Solid,,,,
choice,choice,244.66468000016175,259.9527080410626,12,2,,,1,0,14.276609749998897,,,,Solid,,,,
choice,fixation,259.9528512081597,261.20802237512544,13,2,,,,,,,,,Animal,,,,
choice,option,261.21751916618086,262.24549054098316,13,2,,,,,,,,,Animal,,,,
choice,choice,262.24560595816,274.4382697499823,13,2,,,1,0,11.181667750002816,,,,Animal,,,,
choice,fixation,274.43840558314696,274.94349329103716,14,2,,,,,,,,,Sea,,,,
choice,option,274.95181416603737,275.9785625410732,14,2,,,,,,,,,Sea,,,,
choice,choice,275.978718083119,293.0231888331473,14,2,,,1,0,16.033803374972194,,,,Sea,,,,
choice,fixation,293.0233099581674,294.0283977910876,15,2,,,,,,,,,Large,,,,
choice,option,294.03684041602537,295.06427762517706,15,2,,,,,,,,,Large,,,,
choice,choice,295.06443845806643,298.95725308312103,15,2,,,1,1,2.8827055420260876,,,,Large,,,,
choice,fixation,298.95738300005905,300.21241870801896,16,2,,,,,,,,,Land,,,,
choice,option,300.22126208315603,301.24750241613947,16,2,,,,,,,,,Land,,,,
choice,choice,301.2476923749782,305.06439208309166,16,2,,,2,1,2.8068969170562923,,,,Land,,,,
memory,free_recall,339.64335433300585,376.577430708101,6,2,,,,,,,,,,,,,
memory,value_recall,391.37675154116005,402.9040168749634,7,2,Object_Land_Pattern_Small,,,,11.523083499865606,,,,,-7,,,
memory,value_recall,403.95108016603626,413.59947712509893,8,2,Animal_Land_Pattern_Large,,,,9.645259583834559,,,,,2,,,
memory,value_recall,414.8962170830928,422.7851269580424,9,2,Object_Land_Solid_Large,,,,7.884543500142172,,,,,-2,,,
memory,value_recall,423.83211891609244,438.1837451250758,10,2,Animal_Sea_Solid_Small,,,,14.34862041613087,,,,,-8,,,
memory,value_recall,439.9821036660578,444.2486251250375,11,2,Object_Sea_Pattern_Small,,,,4.2620667919982225,,,,,3,,,
memory,value_recall,446.0456748751458,454.4259315831587,12,2,Animal_Sea_Solid_Large,,,,8.376124999951571,,,,,1,,,
memory,spatial_recall,470.6742641660385,476.53421150008217,12,2,Object_Land_Pattern_Small,,,1,5.855799208860844,,,,,,"[0, -380]","[0, -380]",
memory,spatial_recall,478.0948637910187,481.2618130410556,12,2,Object_Land_Solid_Large,,,1,3.162875375011936,,,,,,"[329, 189]","[329, 189]",
memory,spatial_recall,482.818475499982,486.03502020798624,12,2,Animal_Sea_Solid_Small,,,1,3.212299874983728,,,,,,"[0, 380]","[0, 380]",
memory,spatial_recall,487.09586745803244,490.0106051659677,12,2,Animal_Land_Pattern_Large,,,1,2.912335166009143,,,,,,"[-329, 190]","[-329, 190]",
memory,spatial_recall,491.06564508308657,496.78577112499624,12,2,Animal_Sea_Solid_Large,,,1,5.7175938750151545,,,,,,"[-329, -190]","[-329, -190]",
memory,spatial_recall,497.8451647500042,502.017730000196,12,2,Object_Sea_Pattern_Small,,,1,4.170092375017703,,,,,,"[329, -190]","[329, -190]",
encoding,fixation,6.706807584036142,7.713261374970898,13,3,Animal_Sea_Pattern_Small,8,,,,,,,,,,,
encoding,image,7.713387791998684,8.726947125047445,13,3,Animal_Sea_Pattern_Small,8,,,,,,,,,,,
encoding,value,8.727063541999087,14.74099012510851,13,3,Animal_Sea_Pattern_Small,8,,,,,,,,,,,
encoding,attention,14.74113787501119,17.75939212506637,13,3,Animal_Sea_Pattern_Small,8,+8,1,2.7314366248901933,,,,,,,,
encoding,fixation,17.759528750088066,18.764306833967566,14,3,Object_Sea_Pattern_Small,-8,,,,,,,,,,,
encoding,image,18.764427084010094,19.775443417020142,14,3,Object_Sea_Pattern_Small,-8,,,,,,,,,,,
encoding,value,19.775579042034224,25.787246459163725,14,3,Object_Sea_Pattern_Small,-8,,,,,,,,,,,
encoding,attention,25.787355334032327,28.805089875124395,14,3,Object_Sea_Pattern_Small,-8,-8,1,1.4588497078511864,,,,,,,,
encoding,fixation,28.80525958398357,30.310235291952267,15,3,Object_Land_Solid_Small,7,,,,,,,,,,,
encoding,image,30.31036520912312,31.32173691713251,15,3,Object_Land_Solid_Small,7,,,,,,,,,,,
encoding,value,31.321838709060103,37.334255875088274,15,3,Object_Land_Solid_Small,7,,,,,,,,,,,
encoding,attention,37.33437479194254,40.35202508396469,15,3,Object_Land_Solid_Small,7,+7,1,1.3044588749762625,,,,,,,,
encoding,fixation,40.352164125069976,41.85715579194948,16,3,Object_Sea_Solid_Large,8,,,,,,,,,,,
encoding,image,41.85725812497549,42.870039416942745,16,3,Object_Sea_Solid_Large,8,,,,,,,,,,,
encoding,value,42.87015966698527,48.882736625149846,16,3,Object_Sea_Solid_Large,8,,,,,,,,,,,
encoding,attention,48.88284958410077,51.89722737506963,16,3,Object_Sea_Solid_Large,8,None,None,None,,,,,,,,
encoding,fixation,51.89735308405943,53.15449079195969,17,3,Animal_Land_Pattern_Large,-3,,,,,,,,,,,
encoding,image,53.15461516706273,54.16606741701253,17,3,Animal_Land_Pattern_Large,-3,,,,,,,,,,,
encoding,value,54.16619937494397,60.178221750073135,17,3,Animal_Land_Pattern_Large,-3,,,,,,,,,,,
encoding,attention,60.1783377090469,63.19588066707365,17,3,Animal_Land_Pattern_Large,-3,-3,1,1.9721514999400824,,,,,,,,
encoding,fixation,63.196041834075004,64.4511701669544,18,3,Animal_Land_Solid_Large,-2,,,,,,,,,,,
encoding,image,64.45130433398299,65.46330133406445,18,3,Animal_Land_Solid_Large,-2,,,,,,,,,,,
encoding,value,65.46340120909736,71.476748917019,18,3,Animal_Land_Solid_Large,-2,,,,,,,,,,,
encoding,attention,71.47689579194412,74.49563691695221,18,3,Animal_Land_Solid_Large,-2,-2,1,1.9120407500304282,,,,,,,,
n-back,,,,61,3,,,,1,None,X,False,None,,,,,
n-back,,,,62,3,,,,1,None,B,False,None,,,,,
n-back,,,,63,3,,,,1,None,N,False,None,,,,,
n-back,,,,64,3,,,,1,None,X,False,None,,,,,
n-back,,,,65,3,,,,1,None,X,False,None,,,,,
n-back,,,,66,3,,,,1,None,C,False,None,,,,,
n-back,,,,67,3,,,,1,None,V,False,None,,,,,
n-back,,,,68,3,,,,1,None,Z,False,None,,,,,
n-back,,,,69,3,,,,1,None,X,False,None,,,,,
n-back,,,,70,3,,,,1,0.8939594170078635,Z,True,1,,,,,
n-back,,,,71,3,,,,1,None,N,False,None,,,,,
n-back,,,,72,3,,,,0,None,Z,True,None,,,,,
n-back,,,,73,3,,,,1,None,X,False,None,,,,,
n-back,,,,74,3,,,,1,None,X,False,None,,,,,
n-back,,,,75,3,,,,1,None,B,False,None,,,,,
n-back,,,,76,3,,,,1,None,N,False,None,,,,,
n-back,,,,77,3,,,,0,None,B,True,None,,,,,
n-back,,,,78,3,,,,1,None,X,False,None,,,,,
n-back,,,,79,3,,,,1,0.9504109588451684,B,True,1,,,,,
n-back,,,,80,3,,,,0,None,X,True,None,,,,,
n-back,,,,81,3,,,,1,None,X,False,None,,,,,
n-back,,,,82,3,,,,1,None,C,False,None,,,,,
n-back,,,,83,3,,,,1,0.8943344161380082,X,True,1,,,,,
n-back,,,,84,3,,,,1,None,B,False,None,,,,,
n-back,,,,85,3,,,,0,None,X,True,None,,,,,
n-back,,,,86,3,,,,1,0.8860250830184668,B,True,1,,,,,
n-back,,,,87,3,,,,1,None,B,False,None,,,,,
n-back,,,,88,3,,,,0,None,B,True,None,,,,,
n-back,,,,89,3,,,,1,None,N,False,None,,,,,
n-back,,,,90,3,,,,1,0.5646619170438498,B,True,1,,,,,
choice,fixation,155.30139250005595,156.30459762504324,17,3,,,,,,,,,Sea,,,,
choice,option,156.3125768341124,157.34086108393967,17,3,,,,,,,,,Sea,,,,
choice,choice,157.34096345910802,177.1122810000088,17,3,,,1,1,18.75997016695328,,,,Sea,,,,
choice,fixation,177.11240470898338,178.11748916702345,18,3,,,,,,,,,Small,,,,
choice,option,178.1262835841626,179.15383520908654,18,3,,,,,,,,,Small,,,,
choice,choice,179.15394729212858,213.48217666707933,18,3,,,1,1,33.31555170798674,,,,Small,,,,
choice,fixation,213.48233029199764,214.23793675005436,19,3,,,,,,,,,Land,,,,
choice,option,214.2468037919607,215.27390754199587,19,3,,,,,,,,,Land,,,,
choice,choice,215.27401733398438,251.73959408397786,19,3,,,1,1,35.453000207897276,,,,Land,,,,
choice,fixation,251.7397683339659,252.24514295905828,20,3,,,,,,,,,Pattern,,,,
choice,option,252.254926542053,253.28336800006218,20,3,,,,,,,,,Pattern,,,,
choice,choice,253.28347725002095,274.4256732920185,20,3,,,1,0,20.13132212497294,,,,Pattern,,,,
choice,fixation,274.42580216703936,275.18074658396654,21,3,,,,,,,,,Solid,,,,
choice,option,275.1903072921559,276.2170558341313,21,3,,,,,,,,,Solid,,,,
choice,choice,276.2171588749625,288.18452658411115,21,3,,,2,0,10.956364249810576,,,,Solid,,,,
choice,fixation,288.18465766706504,289.68985433410853,22,3,,,,,,,,,Animal,,,,
choice,option,289.6990295839496,290.7260892500635,22,3,,,,,,,,,Animal,,,,
choice,choice,290.7262040420901,304.9685454170685,22,3,,,1,1,13.231137291993946,,,,Animal,,,,
choice,fixation,304.9686694170814,305.72378475009464,23,3,,,,,,,,,Large,,,,
choice,option,305.73277791705914,306.76014683395624,23,3,,,,,,,,,Large,,,,
choice,choice,306.7602702919394,333.19006487494335,23,3,,,2,0,25.412483249790967,,,,Large,,,,
choice,fixation,333.19027687516063,333.9461010841187,24,3,,,,,,,,,Object,,,,
choice,option,333.95747679215856,334.9870282090269,24,3,,,,,,,,,Object,,,,
choice,choice,334.9871353751514,358.09228187496774,24,3,,,2,0,22.093488583806902,,,,Object,,,,
memory,free_recall,376.82122212508693,402.80302466708235,12,3,,,,,,,,,,,,,
memory,value_recall,418.5589066669345,426.29781037499197,13,3,Object_Sea_Solid_Large,,,,7.734809709014371,,,,,8,,,
memory,value_recall,427.34518062509596,435.00269791693427,14,3,Animal_Land_Pattern_Large,,,,7.65407745889388,,,,,-3,,,
memory,value_recall,436.04949524998665,444.5726112499833,15,3,Object_Land_Solid_Small,,,,8.519601250067353,,,,,7,,,
memory,value_recall,445.62217170908116,450.88438645913266,16,3,Animal_Land_Solid_Large,,,,5.258493624860421,,,,,-2,,,
memory,value_recall,451.9306424590759,455.33821041695774,17,3,Animal_Sea_Pattern_Small,,,,3.4032330000773072,,,,,8,,,
memory,value_recall,457.13738216715865,462.22689704201184,18,3,Object_Sea_Pattern_Small,,,,5.085397958988324,,,,,-8,,,
memory,spatial_recall,471.4386381250806,476.20805312506855,18,3,Animal_Land_Pattern_Large,,,1,4.7653515411075205,,,,,,"[-329, 190]","[-329, 190]",
memory,spatial_recall,477.77095208410174,479.98724725004286,18,3,Object_Land_Solid_Small,,,1,2.212069666944444,,,,,,"[-329, -190]","[-329, -190]",
memory,spatial_recall,481.79317050008103,486.87397979199886,18,3,Animal_Sea_Pattern_Small,,,1,5.07624854077585,,,,,,"[0, -380]","[0, -380]",
memory,spatial_recall,488.6823211670853,491.8621045839973,18,3,Object_Sea_Solid_Large,,,1,3.175638125045225,,,,,,"[329, 189]","[329, 189]",
memory,spatial_recall,493.6748537090607,501.8939447500743,18,3,Object_Sea_Pattern_Small,,,1,8.214684625156224,,,,,,"[329, -190]","[329, -190]",
memory,spatial_recall,502.9587679170072,506.88966475008056,18,3,Animal_Land_Solid_Large,,,1,3.92818620800972,,,,,,"[0, 380]","[0, 380]",
encoding,fixation,5.365143875125796,6.121725917095318,19,4,Object_Land_Pattern_Large,-3,,,,,,,,,,,
encoding,image,6.12183487508446,7.134697667090222,19,4,Object_Land_Pattern_Large,-3,,,,,,,,,,,
encoding,value,7.134810250019655,13.149184750160202,19,4,Object_Land_Pattern_Large,-3,,,,,,,,,,,
encoding,attention,13.149306958075613,16.167858542175964,19,4,Object_Land_Pattern_Large,-3,-3,1,1.3179337501060218,,,,,,,,
encoding,fixation,16.168012333102524,17.673265625024214,20,4,Animal_Land_Pattern_Large,7,,,,,,,,,,,
encoding,image,17.673384375171736,18.684614417143166,20,4,Animal_Land_Pattern_Large,7,,,,,,,,,,,
encoding,value,18.68472829204984,24.69991183304228,20,4,Animal_Land_Pattern_Large,7,,,,,,,,,,,
encoding,attention,24.700033500092104,27.718300207983702,20,4,Animal_Land_Pattern_Large,7,+7,1,1.636091500055045,,,,,,,,
encoding,fixation,27.718463125173002,28.973492291988805,21,4,Object_Sea_Solid_Small,7,,,,,,,,,,,
encoding,image,28.97362441709265,29.98355450015515,21,4,Object_Sea_Solid_Small,7,,,,,,,,,,,
encoding,value,29.983673125039786,35.994457042077556,21,4,Object_Sea_Solid_Small,7,,,,,,,,,,,
encoding,attention,35.99459020816721,39.01145650004037,21,4,Object_Sea_Solid_Small,7,+7,1,1.3280605420004576,,,,,,,,
encoding,fixation,39.01168670807965,39.5166629999876,22,4,Object_Land_Solid_Small,-6,,,,,,,,,,,
encoding,image,39.5167752080597,40.52839850005694,22,4,Object_Land_Solid_Small,-6,,,,,,,,,,,
encoding,value,40.52849558298476,46.540589542128146,22,4,Object_Land_Solid_Small,-6,,,,,,,,,,,
encoding,attention,46.54070754209533,49.559492458123714,22,4,Object_Land_Solid_Small,-6,-6,1,2.331553583033383,,,,,,,,
encoding,fixation,49.55964458314702,51.0663849581033,23,4,Animal_Sea_Solid_Small,-4,,,,,,,,,,,
encoding,image,51.06649520806968,52.0787191670388,23,4,Animal_Sea_Solid_Small,-4,,,,,,,,,,,
encoding,value,52.07884016702883,58.09021283313632,23,4,Animal_Sea_Solid_Small,-4,,,,,,,,,,,
encoding,attention,58.09036162495613,61.10819850000553,23,4,Animal_Sea_Solid_Small,-4,-4,1,1.0717719169333577,,,,,,,,
encoding,fixation,61.10841070814058,62.1158425421454,24,4,Animal_Sea_Pattern_Large,-1,,,,,,,,,,,
encoding,image,62.11597375012934,63.12603620812297,24,4,Animal_Sea_Pattern_Large,-1,,,,,,,,,,,
encoding,value,63.12621937505901,69.13741529197432,24,4,Animal_Sea_Pattern_Large,-1,,,,,,,,,,,
encoding,attention,69.13752320804633,72.14877066714689,24,4,Animal_Sea_Pattern_Large,-1,None,None,None,,,,,,,,
n-back,,,,91,4,,,,0,None,N,True,None,,,,,
n-back,,,,92,4,,,,1,None,X,False,None,,,,,
n-back,,,,93,4,,,,1,None,X,False,None,,,,,
n-back,,,,94,4,,,,1,0.7103550001047552,X,True,1,,,,,
n-back,,,,95,4,,,,0,None,X,True,None,,,,,
n-back,,,,96,4,,,,1,None,N,False,None,,,,,
n-back,,,,97,4,,,,1,None,Z,False,None,,,,,
n-back,,,,98,4,,,,1,None,Z,False,None,,,,,
n-back,,,,99,4,,,,1,None,V,False,None,,,,,
n-back,,,,100,4,,,,1,0.9658740831073374,Z,True,1,,,,,
n-back,,,,101,4,,,,0,None,V,True,None,,,,,
n-back,,,,102,4,,,,0,None,Z,True,None,,,,,
n-back,,,,103,4,,,,1,None,C,False,None,,,,,
n-back,,,,104,4,,,,1,None,C,False,None,,,,,
n-back,,,,105,4,,,,1,None,X,False,None,,,,,
n-back,,,,106,4,,,,1,None,N,False,None,,,,,
n-back,,,,107,4,,,,1,0.9630157919600606,X,True,1,,,,,
n-back,,,,108,4,,,,0,None,N,True,None,,,,,
n-back,,,,109,4,,,,1,None,N,False,None,,,,,
n-back,,,,110,4,,,,1,0.8918092499952763,N,True,1,,,,,
n-back,,,,111,4,,,,1,None,Z,False,None,,,,,
n-back,,,,112,4,,,,1,None,C,False,None,,,,,
n-back,,,,113,4,,,,1,None,B,False,None,,,,,
n-back,,,,114,4,,,,1,None,Z,False,None,,,,,
n-back,,,,115,4,,,,1,0.920000416925177,B,True,1,,,,,
n-back,,,,116,4,,,,1,None,C,False,None,,,,,
n-back,,,,117,4,,,,1,None,X,False,None,,,,,
n-back,,,,118,4,,,,1,None,X,False,None,,,,,
n-back,,,,119,4,,,,1,None,N,False,None,,,,,
n-back,,,,120,4,,,,1,None,Z,False,None,,,,,
choice,fixation,152.85798441711813,153.36151858302765,25,4,,,,,,,,,Solid,,,,
choice,option,153.3707319579553,154.39924637507647,25,4,,,,,,,,,Solid,,,,
choice,choice,154.39939045812935,172.83914304198697,25,4,,,1,0,17.429053749889135,,,,Solid,,,,
choice,fixation,172.8392816670239,173.59473945805803,26,4,,,,,,,,,Large,,,,
choice,option,173.603467958048,174.63354637497105,26,4,,,,,,,,,Large,,,,
choice,choice,174.63365679210983,194.35589700005949,26,4,,,1,1,18.7113089999184,,,,Large,,,,
choice,fixation,194.3561072081793,195.86159279197454,27,4,,,,,,,,,Sea,,,,
choice,option,195.87028100015596,196.89926516707055,27,4,,,,,,,,,Sea,,,,
choice,choice,196.89939920813777,219.31656962516718,27,4,,,1,1,21.405234166886657,,,,Sea,,,,
choice,fixation,219.31670358311385,220.32175975013524,28,4,,,,,,,,,Small,,,,
choice,option,220.33077154215425,221.35856254212558,28,4,,,,,,,,,Small,,,,
choice,choice,221.3587306670379,241.43923316709697,28,4,,,2,1,19.06720058294013,,,,Small,,,,
choice,fixation,241.43937470810488,242.19462995813228,29,4,,,,,,,,,Land,,,,
choice,option,242.20347712514922,243.23202987504192,29,4,,,,,,,,,Land,,,,
choice,choice,243.23214608314447,246.2765337501187,29,4,,,1,0,2.0342225830536336,,,,Land,,,,
choice,fixation,246.27665295801125,247.53222837508656,30,4,,,,,,,,,Object,,,,
choice,option,247.5415930831805,248.56882437504828,30,4,,,,,,,,,Object,,,,
choice,choice,248.56894979206845,272.5341678331606,30,4,,,2,1,22.952045749872923,,,,Object,,,,
choice,fixation,272.534311250085,273.7899091250729,31,4,,,,,,,,,Animal,,,,
choice,option,273.79965650010854,274.8279078330379,31,4,,,,,,,,,Animal,,,,
choice,choice,274.8280440000817,278.2906982919667,31,4,,,1,1,2.4530871661845595,,,,Animal,,,,
choice,fixation,278.29085858305916,279.79589445795864,32,4,,,,,,,,,Pattern,,,,
choice,option,279.805094917072,280.8335737080779,32,4,,,,,,,,,Pattern,,,,
choice,choice,280.8337575830519,286.43669870798476,32,4,,,1,1,4.592756083002314,,,,Pattern,,,,
memory,free_recall,324.95695400005206,339.3251220001839,18,4,,,,,,,,,,,,,
memory,value_recall,347.6590471251402,353.941516708117,19,4,Animal_Land_Pattern_Large,,,,6.2749459580518305,,,,,7,,,
memory,value_recall,355.73865516716614,362.52522270800546,20,4,Object_Sea_Solid_Small,,,,6.782028708141297,,,,,7,,,
memory,value_recall,363.82408116711304,367.0551259170752,21,4,Animal_Sea_Solid_Small,,,,3.2266962910071015,,,,,-4,,,
memory,value_recall,368.85142737510614,375.34121241699904,22,4,Object_Land_Pattern_Large,,,,6.485766000114381,,,,,-3,,,
memory,value_recall,377.3880066249985,397.89295691717416,23,4,Object_Land_Solid_Small,,,,20.500374083872885,,,,,-6,,,
memory,value_recall,398.9421414581593,404.6703740421217,24,4,Animal_Sea_Pattern_Large,,,,5.723273833980784,,,,,-1,,,
memory,spatial_recall,411.5875233330298,415.4860475831665,24,4,Object_Sea_Solid_Small,,,1,3.8950216250959784,,,,,,"[329, -190]","[329, -190]",
memory,spatial_recall,417.29228391707875,420.75599587499164,24,4,Animal_Sea_Pattern_Large,,,1,3.457213541958481,,,,,,"[329, 189]","[329, 189]",
memory,spatial_recall,422.06871212506667,424.7910130000673,24,4,Object_Land_Solid_Small,,,1,2.7181865840684623,,,,,,"[-329, -190]","[-329, -190]",
memory,spatial_recall,425.85407025017776,427.8525492080953,24,4,Object_Land_Pattern_Large,,,1,1.9941298749763519,,,,,,"[0, -380]","[0, -380]",
memory,spatial_recall,428.9079595000949,434.33634783304296,24,4,Animal_Land_Pattern_Large,,,1,5.425963083049282,,,,,,"[-329, 190]","[-329, 190]",
memory,spatial_recall,436.3926740421448,439.1072577079758,24,4,Animal_Sea_Solid_Small,,,1,2.709398709004745,,,,,,"[0, 380]","[0, 380]",
encoding,fixation,5.350830000126734,6.3564412500709295,25,5,Object_Land_Pattern_Small,-6,,,,,,,,,,,
encoding,image,6.35658258292824,7.368886291049421,25,5,Object_Land_Pattern_Small,-6,,,,,,,,,,,
encoding,value,7.369003833038732,13.382156833074987,25,5,Object_Land_Pattern_Small,-6,,,,,,,,,,,
encoding,attention,13.38227237504907,16.40305675007403,25,5,Object_Land_Pattern_Small,-6,-6,1,2.476086833048612,,,,,,,,
encoding,fixation,16.40333604090847,17.408477457938716,26,5,Object_Sea_Solid_Large,5,,,,,,,,,,,
encoding,image,17.40859245811589,18.420659458031878,26,5,Object_Sea_Solid_Large,5,,,,,,,,,,,
encoding,value,18.42076779110357,24.433007082901895,26,5,Object_Sea_Solid_Large,5,,,,,,,,,,,
encoding,attention,24.43312295805663,27.44547712500207,26,5,Object_Sea_Solid_Large,5,None,None,None,,,,,,,,
encoding,fixation,27.44566416600719,28.95007975003682,27,5,Animal_Land_Solid_Small,3,,,,,,,,,,,
encoding,image,28.950177083024755,29.961238000076264,27,5,Animal_Land_Solid_Small,3,,,,,,,,,,,
encoding,value,29.961416749982163,35.972970833070576,27,5,Animal_Land_Solid_Small,3,,,,,,,,,,,
encoding,attention,35.97307833307423,38.98708083294332,27,5,Animal_Land_Solid_Small,3,None,None,None,,,,,,,,
encoding,fixation,38.98720287508331,39.744803790934384,28,5,Animal_Land_Pattern_Small,1,,,,,,,,,,,
encoding,image,39.74492145795375,40.756787582999095,28,5,Animal_Land_Pattern_Small,1,,,,,,,,,,,
encoding,value,40.75693908310495,46.76840270799585,28,5,Animal_Land_Pattern_Small,1,,,,,,,,,,,
encoding,attention,46.76853470806964,49.786322500091046,28,5,Animal_Land_Pattern_Small,1,+1,1,2.201940166996792,,,,,,,,
encoding,fixation,49.78648362495005,50.54203199991025,29,5,Object_Sea_Pattern_Large,3,,,,,,,,,,,
encoding,image,50.54216120811179,51.553797374945134,29,5,Object_Sea_Pattern_Large,3,,,,,,,,,,,
encoding,value,51.553924957988784,57.565482625039294,29,5,Object_Sea_Pattern_Large,3,,,,,,,,,,,
encoding,attention,57.56560841598548,60.57761191600002,29,5,Object_Sea_Pattern_Large,3,None,None,None,,,,,,,,
encoding,fixation,60.57776895794086,61.58314200001769,30,5,Animal_Sea_Solid_Large,-5,,,,,,,,,,,
encoding,image,61.58326833299361,62.594642375130206,30,5,Animal_Sea_Solid_Large,-5,,,,,,,,,,,
encoding,value,62.594774540979415,68.60631162510253,30,5,Animal_Sea_Solid_Large,-5,,,,,,,,,,,
encoding,attention,68.60645929095335,71.62465383298695,30,5,Animal_Sea_Solid_Large,-5,-5,1,2.2834093749988824,,,,,,,,
n-back,,,,121,5,,,,1,None,B,False,None,,,,,
n-back,,,,122,5,,,,1,None,C,False,None,,,,,
n-back,,,,123,5,,,,1,0.48066524998284876,B,True,1,,,,,
n-back,,,,124,5,,,,1,None,N,False,None,,,,,
n-back,,,,125,5,,,,1,None,N,False,None,,,,,
n-back,,,,126,5,,,,1,0.5918453331105411,N,True,1,,,,,
n-back,,,,127,5,,,,1,None,C,False,None,,,,,
n-back,,,,128,5,,,,1,None,B,False,None,,,,,
n-back,,,,129,5,,,,1,None,N,False,None,,,,,
n-back,,,,130,5,,,,1,None,X,False,None,,,,,
n-back,,,,131,5,,,,1,0.6664630840532482,N,True,1,,,,,
n-back,,,,132,5,,,,0,None,X,True,None,,,,,
n-back,,,,133,5,,,,1,None,X,False,None,,,,,
n-back,,,,134,5,,,,1,None,V,False,None,,,,,
n-back,,,,135,5,,,,1,0.3976672498974949,X,True,1,,,,,
n-back,,,,136,5,,,,1,None,Z,False,None,,,,,
n-back,,,,137,5,,,,0,None,X,True,None,,,,,
n-back,,,,138,5,,,,1,None,X,False,None,,,,,
n-back,,,,139,5,,,,1,None,Z,False,None,,,,,
n-back,,,,140,5,,,,1,None,Z,False,None,,,,,
n-back,,,,141,5,,,,1,0.5253037919756025,Z,True,1,,,,,
n-back,,,,142,5,,,,0,None,Z,True,None,,,,,
n-back,,,,143,5,,,,1,None,V,False,None,,,,,
n-back,,,,144,5,,,,1,None,V,False,None,,,,,
n-back,,,,145,5,,,,1,None,N,False,None,,,,,
n-back,,,,146,5,,,,1,0.5204618340358138,V,True,1,,,,,
n-back,,,,147,5,,,,1,None,Z,False,None,,,,,
n-back,,,,148,5,,,,0,None,V,True,None,,,,,
n-back,,,,149,5,,,,1,None,N,False,None,,,,,
n-back,,,,150,5,,,,1,None,B,False,None,,,,,
choice,fixation,149.8526580829639,150.35617800010368,33,5,,,,,,,,,Animal,,,,
choice,option,150.3655246659182,151.39381070807576,33,5,,,,,,,,,Animal,,,,
choice,choice,151.3939140001312,195.10497700003907,33,5,,,1,0,42.69733233307488,,,,Animal,,,,
choice,fixation,195.10513595794328,195.61182966595516,34,5,,,,,,,,,Object,,,,
choice,option,195.6224618330598,196.65084741590545,34,5,,,,,,,,,Object,,,,
choice,choice,196.65095850010403,203.8233471249696,34,5,,,2,0,6.160835792077705,,,,Object,,,,
choice,fixation,203.82348604104482,204.57874712510966,35,5,,,,,,,,,Large,,,,
choice,option,204.58835416613147,205.61522549996153,35,5,,,,,,,,,Large,,,,
choice,choice,205.61533212498762,229.13529437500983,35,5,,,1,1,22.507979166926816,,,,Large,,,,
choice,fixation,229.13542283303104,230.6409282910172,36,5,,,,,,,,,Sea,,,,
choice,option,230.6494121251162,231.6780371661298,36,5,,,,,,,,,Sea,,,,
choice,choice,231.67815441591665,260.4784224580508,36,5,,,2,0,27.788370166905224,,,,Sea,,,,
choice,fixation,260.47854649997316,261.23352649994195,37,5,,,,,,,,,Solid,,,,
choice,option,261.24539812491275,262.2716718749143,37,5,,,,,,,,,Solid,,,,
choice,choice,262.27183008310385,279.48590070800856,37,5,,,2,0,16.20169466594234,,,,Solid,,,,
choice,fixation,279.48603979102336,280.9912509159185,38,5,,,,,,,,,Pattern,,,,
choice,option,281.0009652499575,282.02697945805266,38,5,,,,,,,,,Pattern,,,,
choice,choice,282.02708437503316,296.53424133290537,38,5,,,1,0,13.496241957880557,,,,Pattern,,,,
choice,fixation,296.5343845000025,297.5393425829243,39,5,,,,,,,,,Land,,,,
choice,option,297.5481329159811,298.57601341605186,39,5,,,,,,,,,Land,,,,
choice,choice,298.57612237497233,337.96828316594474,39,5,,,1,0,38.381449667038396,,,,Land,,,,
choice,fixation,337.9684220410418,338.72351850010455,40,5,,,,,,,,,Small,,,,
choice,option,338.73253808310255,339.7603117499966,40,5,,,,,,,,,Small,,,,
choice,choice,339.76043016603217,349.30889333295636,40,5,,,2,1,8.537806290900335,,,,Small,,,,
memory,free_recall,387.2864992080722,423.0866417910438,24,5,,,,,,,,,,,,,
memory,value_recall,453.4952976249624,466.3847910000477,25,5,Animal_Land_Solid_Small,,,,12.88623229204677,,,,,3,,,
memory,value_recall,467.68404762493446,477.6717018329073,26,5,Animal_Sea_Solid_Large,,,,9.983081125188619,,,,,-5,,,
memory,value_recall,478.969902333105,484.68679850012995,27,5,Object_Sea_Solid_Large,,,,5.7126984999049455,,,,,5,,,
memory,value_recall,486.2326859580353,506.37644849997014,28,5,Object_Sea_Pattern_Large,,,,20.13925370806828,,,,,3,,,
memory,value_recall,507.92411316605285,522.2387119999621,29,5,Animal_Land_Pattern_Small,,,,14.309970833128318,,,,,1,,,
memory,value_recall,524.2859134159517,530.9826334160753,30,5,Object_Land_Pattern_Small,,,,6.692654915852472,,,,,-6,,,
memory,spatial_recall,536.7613165411167,541.053727874998,30,5,Object_Land_Pattern_Small,,,1,4.288250416982919,,,,,,"[0, -380]","[0, -380]",
memory,spatial_recall,542.6179815831129,545.161426207982,30,5,Object_Sea_Solid_Large,,,1,2.539425834082067,,,,,,"[329, 189]","[329, 189]",
memory,spatial_recall,546.7168661251199,550.1351439161226,30,5,Animal_Sea_Solid_Large,,,1,3.4142907499335706,,,,,,"[-329, -190]","[-329, -190]",
memory,spatial_recall,551.9478066659067,555.8481236661319,30,5,Animal_Land_Solid_Small,,,1,3.896382875042036,,,,,,"[-329, 190]","[-329, 190]",
memory,spatial_recall,557.4044320001267,561.4810014159884,30,5,Animal_Land_Pattern_Small,,,1,4.069651792058721,,,,,,"[329, -190]","[329, -190]",
memory,spatial_recall,563.288855874911,565.6844061249867,30,5,Object_Sea_Pattern_Large,,,1,2.3909944167826325,,,,,,"[0, 380]","[0, 380]",
encoding,fixation,5.68337666708976,6.191142667084932,31,6,Object_Sea_Pattern_Large,-6,,,,,,,,,,,
encoding,image,6.191298584220931,7.204611292108893,31,6,Object_Sea_Pattern_Large,-6,,,,,,,,,,,
encoding,value,7.204739417182282,13.219043667195365,31,6,Object_Sea_Pattern_Large,-6,,,,,,,,,,,
encoding,attention,13.219162459019572,16.237465625163168,31,6,Object_Sea_Pattern_Large,-6,-6,1,2.0995403330307454,,,,,,,,
encoding,fixation,16.237639875151217,17.492794584017247,32,6,Object_Land_Pattern_Small,-2,,,,,,,,,,,
encoding,image,17.49291712511331,18.504526709206402,32,6,Object_Land_Pattern_Small,-2,,,,,,,,,,,
encoding,value,18.504683875013143,24.51700408407487,32,6,Object_Land_Pattern_Small,-2,,,,,,,,,,,
encoding,attention,24.51711962511763,27.53604895900935,32,6,Object_Land_Pattern_Small,-2,-2,1,1.8655620838981122,,,,,,,,
encoding,fixation,27.536208625184372,28.041368959005922,33,6,Animal_Land_Solid_Small,-9,,,,,,,,,,,
encoding,image,28.04151500016451,29.05241404217668,33,6,Animal_Land_Solid_Small,-9,,,,,,,,,,,
encoding,value,29.052552542183548,35.064316750038415,33,6,Animal_Land_Solid_Small,-9,,,,,,,,,,,
encoding,attention,35.06443900009617,38.08103583403863,33,6,Animal_Land_Solid_Small,-9,-9,1,2.46366108302027,,,,,,,,
encoding,fixation,38.08118583401665,38.586122000124305,34,6,Object_Sea_Solid_Large,9,,,,,,,,,,,
encoding,image,38.58622591709718,39.59744304209016,34,6,Object_Sea_Solid_Large,9,,,,,,,,,,,
encoding,value,39.59756900020875,45.60924225021154,34,6,Object_Sea_Solid_Large,9,,,,,,,,,,,
encoding,attention,45.609337750123814,48.628193125128746,34,6,Object_Sea_Solid_Large,9,+9,1,1.357568125007674,,,,,,,,
encoding,fixation,48.628340375144035,50.13348758406937,35,6,Animal_Land_Pattern_Small,9,,,,,,,,,,,
encoding,image,50.13359983405098,51.14647758402862,35,6,Animal_Land_Pattern_Small,9,,,,,,,,,,,
encoding,value,51.14658750011586,57.158286542166024,35,6,Animal_Land_Pattern_Small,9,,,,,,,,,,,
encoding,attention,57.158405209193006,60.16988683422096,35,6,Animal_Land_Pattern_Small,9,None,None,None,,,,,,,,
encoding,fixation,60.1700050001964,60.675136167090386,36,6,Animal_Sea_Solid_Large,-1,,,,,,,,,,,
encoding,image,60.6752508750651,61.6863285000436,36,6,Animal_Sea_Solid_Large,-1,,,,,,,,,,,
encoding,value,61.68644562503323,67.6981584590394,36,6,Animal_Sea_Solid_Large,-1,,,,,,,,,,,
encoding,attention,67.69829545915127,70.71006129216403,36,6,Animal_Sea_Solid_Large,-1,None,None,None,,,,,,,,
n-back,,,,151,6,,,,1,None,N,False,None,,,,,
n-back,,,,152,6,,,,1,None,N,False,None,,,,,
n-back,,,,153,6,,,,1,None,C,False,None,,,,,
n-back,,,,154,6,,,,1,None,Z,False,None,,,,,
n-back,,,,155,6,,,,1,None,Z,False,None,,,,,
n-back,,,,156,6,,,,1,None,C,False,None,,,,,
n-back,,,,157,6,,,,1,None,X,False,None,,,,,
n-back,,,,158,6,,,,1,None,B,False,None,,,,,
n-back,,,,159,6,,,,1,None,B,False,None,,,,,
n-back,,,,160,6,,,,1,0.5479618329554796,B,True,1,,,,,
n-back,,,,161,6,,,,0,None,B,True,None,,,,,
n-back,,,,162,6,,,,1,None,Z,False,None,,,,,
n-back,,,,163,6,,,,1,0.6209715830627829,B,True,1,,,,,
n-back,,,,164,6,,,,1,None,N,False,None,,,,,
n-back,,,,165,6,,,,1,None,X,False,None,,,,,
n-back,,,,166,6,,,,1,None,X,False,None,,,,,
n-back,,,,167,6,,,,1,None,C,False,None,,,,,
n-back,,,,168,6,,,,1,0.3681387910619378,X,True,1,,,,,
n-back,,,,169,6,,,,0,None,C,True,None,,,,,
n-back,,,,170,6,,,,1,None,N,False,None,,,,,
n-back,,,,171,6,,,,1,0.6888901661150157,C,True,1,,,,,
n-back,,,,172,6,,,,0,None,N,True,None,,,,,
n-back,,,,173,6,,,,1,None,B,False,None,,,,,
n-back,,,,174,6,,,,1,0.7788274169433862,N,True,1,,,,,
n-back,,,,175,6,,,,1,None,X,False,None,,,,,
n-back,,,,176,6,,,,0,None,N,True,None,,,,,
n-back,,,,177,6,,,,1,0.7071200828067958,X,True,1,,,,,
n-back,,,,178,6,,,,1,None,C,False,None,,,,,
n-back,,,,179,6,,,,1,None,N,False,None,,,,,
n-back,,,,180,6,,,,1,None,N,False,None,,,,,
choice,fixation,139.1331367501989,140.38645504205488,41,6,,,,,,,,,Land,,,,
choice,option,140.39443620899692,141.42459287517704,41,6,,,,,,,,,Land,,,,
choice,choice,141.42470970912836,169.6990805421956,41,6,,,2,1,27.261609832989052,,,,Land,,,,
choice,fixation,169.6992056251038,170.45413645915687,42,6,,,,,,,,,Large,,,,
choice,option,170.46310954215005,171.48981858417392,42,6,,,,,,,,,Large,,,,
choice,choice,171.48997012502514,205.29824170912616,42,6,,,1,1,32.793436917010695,,,,Large,,,,
choice,fixation,205.2983642090112,206.55338733410463,43,6,,,,,,,,,Sea,,,,
choice,option,206.56192574999295,207.58934045908973,43,6,,,,,,,,,Sea,,,,
choice,choice,207.58946720906533,226.3227008341346,43,6,,,1,1,17.719269207911566,,,,Sea,,,,
choice,fixation,226.32290608412586,227.58051104214974,44,6,,,,,,,,,Animal,,,,
choice,option,227.59064983413555,228.61783579201438,44,6,,,,,,,,,Animal,,,,
choice,choice,228.61796233407222,240.63706245901994,44,6,,,2,1,11.008105541812256,,,,Animal,,,,
choice,fixation,240.63718508416787,241.14234412508085,45,6,,,,,,,,,Solid,,,,
choice,option,241.15178145910613,242.1803362921346,45,6,,,,,,,,,Solid,,,,
choice,choice,242.18046458414756,267.74808829207905,45,6,,,2,1,24.554261124925688,,,,Solid,,,,
choice,fixation,267.7482097921893,268.7532216249965,46,6,,,,,,,,,Pattern,,,,
choice,option,268.762298917165,269.78848824999295,46,6,,,,,,,,,Pattern,,,,
choice,choice,269.7885956671089,285.436663125176,46,6,,,2,0,14.637280416907743,,,,Pattern,,,,
choice,fixation,285.4367993751075,286.1918512501288,47,6,,,,,,,,,Object,,,,
choice,option,286.20142012508586,287.2304150001146,47,6,,,,,,,,,Object,,,,
choice,choice,287.2305531250313,313.410458000144,47,6,,,2,0,25.168902290984988,,,,Object,,,,
choice,fixation,313.4105992920231,314.9156500841491,48,6,,,,,,,,,Small,,,,
choice,option,314.9244890420232,315.95167937502265,48,6,,,,,,,,,Small,,,,
choice,choice,315.9518506252207,322.67307970905676,48,6,,,1,0,5.71123724989593,,,,Small,,,,
memory,free_recall,360.506816000212,372.33174979221076,30,6,,,,,,,,,,,,,
memory,value_recall,393.1960312500596,404.6201360421255,31,6,Object_Sea_Pattern_Large,,,,11.419129208894446,,,,,-6,,,
memory,value_recall,405.6703462500591,410.3308568340726,32,6,Animal_Land_Solid_Small,,,,4.657681124983355,,,,,-9,,,
memory,value_recall,412.37687070900574,416.52313775010407,33,6,Object_Sea_Solid_Large,,,,4.1416636251378804,,,,,9,,,
memory,value_recall,417.8209316250868,424.7323782502208,34,6,Object_Land_Pattern_Small,,,,6.907122500007972,,,,,-2,,,
memory,value_recall,426.53111054212786,432.2191610420123,35,6,Animal_Sea_Solid_Large,,,,5.684015667065978,,,,,-1,,,
memory,value_recall,433.26594645902514,438.84446179214865,36,6,Animal_Land_Pattern_Small,,,,5.575011791894212,,,,,9,,,
memory,spatial_recall,448.2270694170147,452.1172617501579,36,6,Object_Sea_Solid_Large,,,1,3.8860727089922875,,,,,,"[329, 189]","[329, 189]",
memory,spatial_recall,453.17689058417454,454.9341639170889,36,6,Object_Sea_Pattern_Large,,,1,1.754826416959986,,,,,,"[0, 380]","[0, 380]",
memory,spatial_recall,456.9907570001669,461.73339529219083,36,6,Object_Land_Pattern_Small,,,1,4.737787832971662,,,,,,"[0, -380]","[0, -380]",
memory,spatial_recall,462.7900428341236,464.5479451250285,36,6,Animal_Sea_Solid_Large,,,1,1.7521078330464661,,,,,,"[-329, -190]","[-329, -190]",
memory,spatial_recall,466.60615737503394,469.53733775019646,36,6,Animal_Land_Solid_Small,,,1,2.922925166785717,,,,,,"[-329, 190]","[-329, 190]",
memory,spatial_recall,471.3505622090306,473.0680975841824,36,6,Animal_Land_Pattern_Small,,,1,1.7130668750032783,,,,,,"[329, -190]","[329, -190]",
encoding,fixation,5.353917666943744,6.610225917072967,37,7,Animal_Land_Pattern_Small,1,,,,,,,,,,,
encoding,image,6.610387458000332,7.624163083033636,37,7,Animal_Land_Pattern_Small,1,,,,,,,,,,,
encoding,value,7.624332875013351,13.637601958122104,37,7,Animal_Land_Pattern_Small,1,,,,,,,,,,,
encoding,attention,13.637732292059809,16.657177250133827,37,7,Animal_Land_Pattern_Small,1,+1,1,2.26346683409065,,,,,,,,
encoding,fixation,16.657326000044122,18.16235087509267,38,7,Object_Land_Pattern_Small,2,,,,,,,,,,,
encoding,image,18.162468833150342,19.17389825009741,38,7,Object_Land_Pattern_Small,2,,,,,,,,,,,
encoding,value,19.174026624998078,25.18619400006719,38,7,Object_Land_Pattern_Small,2,,,,,,,,,,,
encoding,attention,25.186356417136267,28.20668233302422,38,7,Object_Land_Pattern_Small,2,+2,1,1.489569375058636,,,,,,,,
encoding,fixation,28.20684920810163,28.713475875090808,39,7,Object_Sea_Pattern_Large,-8,,,,,,,,,,,
encoding,image,28.713584375102073,29.72459162515588,39,7,Object_Sea_Pattern_Large,-8,,,,,,,,,,,
encoding,value,29.724705792032182,35.73656158312224,39,7,Object_Sea_Pattern_Large,-8,,,,,,,,,,,
encoding,attention,35.73667470808141,38.754425666993484,39,7,Object_Sea_Pattern_Large,-8,-8,1,1.6858007910195738,,,,,,,,
encoding,fixation,38.75459354207851,39.25976979197003,40,7,Animal_Sea_Solid_Large,5,,,,,,,,,,,
encoding,image,39.25991833303124,40.27173200016841,40,7,Animal_Sea_Solid_Large,5,,,,,,,,,,,
encoding,value,40.27186300000176,46.28361125010997,40,7,Animal_Sea_Solid_Large,5,,,,,,,,,,,
encoding,attention,46.283717333106324,49.302443500142545,40,7,Animal_Sea_Solid_Large,5,+5,1,2.6658737079706043,,,,,,,,
encoding,fixation,49.302634875057265,50.3075951251667,41,7,Animal_Land_Solid_Small,-8,,,,,,,,,,,
encoding,image,50.30771875008941,51.31872775009833,41,7,Animal_Land_Solid_Small,-8,,,,,,,,,,,
encoding,value,51.318852625088766,57.33006712514907,41,7,Animal_Land_Solid_Small,-8,,,,,,,,,,,
encoding,attention,57.33020070800558,60.34633516706526,41,7,Animal_Land_Solid_Small,-8,-8,1,2.8126564999110997,,,,,,,,
encoding,fixation,60.34648054209538,61.60140379215591,42,7,Object_Sea_Solid_Large,2,,,,,,,,,,,
encoding,image,61.60154250008054,62.61327650002204,42,7,Object_Sea_Solid_Large,2,,,,,,,,,,,
encoding,value,62.613384458003566,68.62501045805402,42,7,Object_Sea_Solid_Large,2,,,,,,,,,,,
encoding,attention,68.62515445798635,71.64372608298436,42,7,Object_Sea_Solid_Large,2,+2,1,2.3246261668391526,,,,,,,,
n-back,,,,181,7,,,,0,None,B,True,None,,,,,
n-back,,,,182,7,,,,1,None,B,False,None,,,,,
n-back,,,,183,7,,,,1,None,C,False,None,,,,,
n-back,,,,184,7,,,,1,None,X,False,None,,,,,
n-back,,,,185,7,,,,1,0.5499760420061648,C,True,1,,,,,
n-back,,,,186,7,,,,0,None,X,True,None,,,,,
n-back,,,,187,7,,,,1,None,N,False,None,,,,,
n-back,,,,188,7,,,,1,None,N,False,None,,,,,
n-back,,,,189,7,,,,1,0.6180932919960469,N,True,1,,,,,
n-back,,,,190,7,,,,0,None,N,True,None,,,,,
n-back,,,,191,7,,,,1,None,X,False,None,,,,,
n-back,,,,192,7,,,,1,0.5094658751040697,N,True,1,,,,,
n-back,,,,193,7,,,,1,None,B,False,None,,,,,
n-back,,,,194,7,,,,1,None,B,False,None,,,,,
n-back,,,,195,7,,,,1,None,V,False,None,,,,,
n-back,,,,196,7,,,,1,None,V,False,None,,,,,
n-back,,,,197,7,,,,1,None,C,False,None,,,,,
n-back,,,,198,7,,,,1,None,B,False,None,,,,,
n-back,,,,199,7,,,,1,0.8426667079329491,C,True,1,,,,,
n-back,,,,200,7,,,,1,None,Z,False,None,,,,,
n-back,,,,201,7,,,,1,None,X,False,None,,,,,
n-back,,,,202,7,,,,1,None,C,False,None,,,,,
n-back,,,,203,7,,,,1,1.1456932078581303,X,True,1,,,,,
n-back,,,,204,7,,,,1,None,V,False,None,,,,,
n-back,,,,205,7,,,,0,None,X,True,None,,,,,
n-back,,,,206,7,,,,1,None,C,False,None,,,,,
n-back,,,,207,7,,,,1,None,C,False,None,,,,,
n-back,,,,208,7,,,,1,None,N,False,None,,,,,
n-back,,,,209,7,,,,1,None,V,False,None,,,,,
n-back,,,,210,7,,,,1,0.9771679579280317,N,True,1,,,,,
choice,fixation,146.95035712514073,147.70401212503202,49,7,,,,,,,,,Solid,,,,
choice,option,147.7139300419949,148.74260525009595,49,7,,,,,,,,,Solid,,,,
choice,choice,148.74271608307026,159.15205116709694,49,7,,,2,1,9.399167417082936,,,,Solid,,,,
choice,fixation,159.15217770799063,159.65738891717046,50,7,,,,,,,,,Pattern,,,,
choice,option,159.6664204171393,160.6963840420358,50,7,,,,,,,,,Pattern,,,,
choice,choice,160.69650554214604,165.34267362509854,50,7,,,2,1,3.6365219159051776,,,,Pattern,,,,
choice,fixation,165.34280937514268,166.34784354199655,51,7,,,,,,,,,Object,,,,
choice,option,166.35757187497802,167.3850620421581,51,7,,,,,,,,,Object,,,,
choice,choice,167.38517029210925,188.71356866694987,51,7,,,2,1,20.317237291950732,,,,Object,,,,
choice,fixation,188.71370020811446,189.9686179170385,52,7,,,,,,,,,Small,,,,
choice,option,189.97770470799878,191.0049925830681,52,7,,,,,,,,,Small,,,,
choice,choice,191.0051819169894,208.81930395797826,52,7,,,2,1,16.80020416714251,,,,Small,,,,
choice,fixation,208.81947150011547,209.57487554196268,53,7,,,,,,,,,Sea,,,,
choice,option,209.5837323749438,210.6137238331139,53,7,,,,,,,,,Sea,,,,
choice,choice,210.6138362500351,226.22337345802225,53,7,,,2,1,14.59953225008212,,,,Sea,,,,
choice,fixation,226.22353262500837,227.72962337499484,54,7,,,,,,,,,Land,,,,
choice,option,227.73834224999882,228.76608058298007,54,7,,,,,,,,,Land,,,,
choice,choice,228.76619445811957,253.62461000005715,54,7,,,2,1,23.84700979082845,,,,Land,,,,
choice,fixation,253.6247307921294,254.62962504196912,55,7,,,,,,,,,Animal,,,,
choice,option,254.63907237513922,255.66668604197912,55,7,,,,,,,,,Animal,,,,
choice,choice,255.66682012495585,273.9939192919992,55,7,,,2,1,17.31469912501052,,,,Animal,,,,
choice,fixation,273.99406716716476,275.24938633316197,56,7,,,,,,,,,Large,,,,
choice,option,275.25875116698444,276.2866076249629,56,7,,,,,,,,,Large,,,,
choice,choice,276.2867328750435,291.25079837511294,56,7,,,1,0,13.953320665983483,,,,Large,,,,
memory,free_recall,310.3373147500679,324.4978706249967,36,7,,,,,,,,,,,,,
memory,value_recall,334.30829108296894,347.16979595809244,37,7,Animal_Land_Pattern_Small,,,,12.857963416958228,,,,,1,,,
memory,value_recall,348.97213566699065,362.69032074999996,38,7,Object_Sea_Solid_Large,,,,13.711500582983717,,,,,2,,,
memory,value_recall,363.9906585831195,367.3628256251104,39,7,Object_Sea_Pattern_Large,,,,3.366738833952695,,,,,-8,,,
memory,value_recall,369.15947504201904,384.09232445806265,40,7,Animal_Sea_Solid_Large,,,,14.928315291879699,,,,,5,,,
memory,value_recall,385.3997417080682,397.31448125001043,41,7,Object_Land_Pattern_Small,,,,11.910443833097816,,,,,2,,,
memory,value_recall,398.365174875129,407.38523370795883,42,7,Animal_Land_Solid_Small,,,,9.016579124843702,,,,,-8,,,
memory,spatial_recall,411.030462292023,415.15297625004314,42,7,Object_Land_Pattern_Small,,,1,4.118496458046138,,,,,,"[0, -380]","[0, -380]",
memory,spatial_recall,416.4735267921351,418.84861737512983,42,7,Object_Sea_Solid_Large,,,1,2.3707014170940965,,,,,,"[329, 189]","[329, 189]",
memory,spatial_recall,419.90338120795786,426.8963920001406,42,7,Animal_Sea_Solid_Large,,,1,6.990653000073507,,,,,,"[-329, -190]","[-329, -190]",
memory,spatial_recall,428.7033034169581,433.2829015001189,42,7,Animal_Land_Solid_Small,,,1,4.575128416996449,,,,,,"[-329, 190]","[-329, 190]",
memory,spatial_recall,434.58993600006215,438.69932929216884,42,7,Animal_Land_Pattern_Small,,,1,4.104943082900718,,,,,,"[329, -190]","[329, -190]",
memory,spatial_recall,440.0057935831137,446.320437458111,42,7,Object_Sea_Pattern_Large,,,1,6.308230957947671,,,,,,"[0, 380]","[0, 380]",
