subject,phase,event,trial_number,game,option,choice,rt,roi_content,item_index,is_center,is_relevant,fix_start,fix_end,fix_duration_bounded
125,choice,choice,1,1.0,Object,1.0,5.12133300001733,fixation,-1,1,0,17409055.0,17410419.0,1364.0
125,choice,choice,1,1.0,Object,1.0,5.12133300001733,Animal_Sea_Solid_Small,0,0,0,17410619.0,17410876.0,257.0
125,choice,choice,1,1.0,Object,1.0,5.12133300001733,Animal_Sea_Pattern_Large,1,0,0,17410900.0,17411181.0,281.0
125,choice,choice,1,1.0,Object,1.0,5.12133300001733,Object_Land_Pattern_Large,2,0,1,17412634.0,17412971.0,337.0
125,choice,choice,1,1.0,Object,1.0,5.12133300001733,fixation,-1,1,0,17413005.0,17413274.0,269.0
125,choice,choice,1,1.0,Object,1.0,5.12133300001733,Animal_Sea_Solid_Small,0,0,0,17413301.0,17413586.0,285.0
125,choice,choice,2,1.0,Sea,2.0,12.125878915889189,Animal_Sea_Pattern_Large,1,0,1,17418029.0,17418184.0,155.0
125,choice,choice,2,1.0,Sea,2.0,12.125878915889189,fixation,-1,1,0,17418209.0,17419130.0,921.0
125,choice,choice,2,1.0,Sea,2.0,12.125878915889189,Object_Sea_Solid_Small,3,0,1,17419415.0,17419479.0,64.0
125,choice,choice,2,1.0,Sea,2.0,12.125878915889189,fixation,-1,1,0,17419496.0,17420986.0,1490.0
125,choice,choice,2,1.0,Sea,2.0,12.125878915889189,Object_Sea_Solid_Small,3,0,1,17421530.0,17421610.0,80.0
125,choice,choice,2,1.0,Sea,2.0,12.125878915889189,fixation,-1,1,0,17421627.0,17422173.0,546.0
125,choice,choice,2,1.0,Sea,2.0,12.125878915889189,Animal_Sea_Pattern_Large,1,0,1,17422199.0,17422759.0,560.0
125,choice,choice,2,1.0,Sea,2.0,12.125878915889189,fixation,-1,1,0,17425948.0,17426256.0,308.0
125,choice,choice,2,1.0,Sea,2.0,12.125878915889189,Object_Land_Solid_Small,4,0,0,17426514.0,17427025.0,511.0
125,choice,choice,2,1.0,Sea,2.0,12.125878915889189,fixation,-1,1,0,17427036.0,17427287.0,251.0
125,choice,choice,2,1.0,Sea,2.0,12.125878915889189,Object_Sea_Solid_Small,3,0,1,17427564.0,17427944.0,380.0
125,choice,choice,2,1.0,Sea,2.0,12.125878915889189,Object_Land_Solid_Small,4,0,0,17428909.0,17429016.0,107.0
125,choice,choice,3,1.0,Pattern,1.0,13.975662958808243,Object_Land_Pattern_Large,2,0,1,17433051.0,17433174.0,123.0
125,choice,choice,3,1.0,Pattern,1.0,13.975662958808243,Animal_Sea_Solid_Small,0,0,0,17433430.0,17434169.0,739.0
125,choice,choice,3,1.0,Pattern,1.0,13.975662958808243,Animal_Sea_Pattern_Large,1,0,1,17443731.0,17443903.0,172.0
125,choice,choice,3,1.0,Pattern,1.0,13.975662958808243,Animal_Land_Pattern_Large,5,0,1,17443923.0,17444115.0,192.0
125,choice,choice,4,1.0,Animal,1.0,1.5288555000443012,fixation,-1,1,0,17449617.0,17450493.0,876.0
125,choice,choice,4,1.0,Animal,1.0,1.5288555000443012,Animal_Sea_Pattern_Large,1,0,1,17450796.0,17451082.0,286.0
125,choice,choice,4,1.0,Animal,1.0,1.5288555000443012,fixation,-1,1,0,17451098.0,17451130.0,32.0
125,choice,choice,5,1.0,Solid,2.0,2.3238957091234624,Object_Land_Solid_Small,4,0,1,17456175.0,17456756.0,581.0
125,choice,choice,6,1.0,Large,1.0,3.250751999905333,Animal_Sea_Pattern_Large,1,0,1,17459840.0,17460292.0,452.0
125,choice,choice,6,1.0,Large,1.0,3.250751999905333,Animal_Sea_Solid_Small,0,0,0,17460344.0,17461466.0,1122.0
125,choice,choice,6,1.0,Large,1.0,3.250751999905333,fixation,-1,1,0,17461733.0,17463050.0,1317.0
125,choice,choice,7,1.0,Small,2.0,4.781949875177816,Object_Land_Pattern_Large,2,0,0,17466235.0,17466270.0,35.0
125,choice,choice,7,1.0,Small,2.0,4.781949875177816,Object_Sea_Solid_Small,3,0,1,17466286.0,17466702.0,416.0
125,choice,choice,7,1.0,Small,2.0,4.781949875177816,Animal_Sea_Pattern_Large,1,0,0,17467146.0,17467730.0,584.0
125,choice,choice,7,1.0,Small,2.0,4.781949875177816,Object_Sea_Solid_Small,3,0,1,17468013.0,17468355.0,342.0
125,choice,choice,7,1.0,Small,2.0,4.781949875177816,fixation,-1,1,0,17468651.0,17470376.0,1725.0
125,choice,choice,8,1.0,Land,1.0,3.084692707983777,fixation,-1,1,0,17473622.0,17473897.0,275.0
125,choice,choice,8,1.0,Land,1.0,3.084692707983777,Object_Land_Pattern_Large,2,0,1,17474192.0,17474339.0,147.0
125,choice,choice,8,1.0,Land,1.0,3.084692707983777,Object_Sea_Solid_Small,3,0,0,17474362.0,17474578.0,216.0
125,choice,choice,8,1.0,Land,1.0,3.084692707983777,Object_Land_Pattern_Large,2,0,1,17474599.0,17474674.0,75.0
125,choice,choice,8,1.0,Land,1.0,3.084692707983777,Object_Sea_Solid_Small,3,0,0,17474918.0,17475091.0,173.0
125,choice,choice,8,1.0,Land,1.0,3.084692707983777,Animal_Sea_Solid_Small,0,0,0,17475126.0,17475832.0,706.0
125,choice,choice,8,1.0,Land,1.0,3.084692707983777,fixation,-1,1,0,17476284.0,17476508.0,224.0
125,choice,choice,9,2.0,Small,1.0,26.69488462503068,Animal_Sea_Solid_Small,0,0,1,18117788.0,18117941.0,153.0
125,choice,choice,9,2.0,Small,1.0,26.69488462503068,Object_Land_Solid_Large,1,0,0,18118936.0,18119323.0,387.0
125,choice,choice,9,2.0,Small,1.0,26.69488462503068,Object_Sea_Pattern_Small,2,0,1,18119346.0,18119496.0,150.0
125,choice,choice,9,2.0,Small,1.0,26.69488462503068,fixation,-1,1,0,18119517.0,18119802.0,285.0
125,choice,choice,9,2.0,Small,1.0,26.69488462503068,Object_Sea_Pattern_Small,2,0,1,18119842.0,18120343.0,501.0
125,choice,choice,9,2.0,Small,1.0,26.69488462503068,Object_Land_Solid_Large,1,0,0,18120389.0,18121276.0,887.0
125,choice,choice,9,2.0,Small,1.0,26.69488462503068,Animal_Sea_Solid_Small,0,0,1,18121545.0,18121966.0,421.0
125,choice,choice,9,2.0,Small,1.0,26.69488462503068,Object_Land_Solid_Large,1,0,0,18121989.0,18122465.0,476.0
125,choice,choice,9,2.0,Small,1.0,26.69488462503068,Animal_Sea_Solid_Small,0,0,1,18122716.0,18123018.0,302.0
125,choice,choice,9,2.0,Small,1.0,26.69488462503068,Object_Land_Solid_Large,1,0,0,18123263.0,18123799.0,536.0
125,choice,choice,9,2.0,Small,1.0,26.69488462503068,Object_Sea_Pattern_Small,2,0,1,18124464.0,18124728.0,264.0
125,choice,choice,9,2.0,Small,1.0,26.69488462503068,Object_Land_Pattern_Small,3,0,1,18124756.0,18124972.0,216.0
125,choice,choice,9,2.0,Small,1.0,26.69488462503068,fixation,-1,1,0,18125008.0,18125132.0,124.0
125,choice,choice,9,2.0,Small,1.0,26.69488462503068,Animal_Sea_Solid_Small,0,0,1,18125152.0,18125327.0,175.0
125,choice,choice,9,2.0,Small,1.0,26.69488462503068,Object_Land_Solid_Large,1,0,0,18125356.0,18125782.0,426.0
125,choice,choice,9,2.0,Small,1.0,26.69488462503068,Animal_Sea_Solid_Small,0,0,1,18125806.0,18126153.0,347.0
125,choice,choice,9,2.0,Small,1.0,26.69488462503068,Object_Land_Solid_Large,1,0,0,18126371.0,18128302.0,1931.0
125,choice,choice,9,2.0,Small,1.0,26.69488462503068,Object_Sea_Pattern_Small,2,0,1,18128922.0,18128992.0,70.0
125,choice,choice,9,2.0,Small,1.0,26.69488462503068,Animal_Sea_Solid_Large,4,0,0,18129018.0,18129326.0,308.0
125,choice,choice,9,2.0,Small,1.0,26.69488462503068,Object_Land_Pattern_Small,3,0,1,18129350.0,18130011.0,661.0
125,choice,choice,9,2.0,Small,1.0,26.69488462503068,Object_Sea_Pattern_Small,2,0,1,18130339.0,18130367.0,28.0
125,choice,choice,9,2.0,Small,1.0,26.69488462503068,Object_Land_Pattern_Small,3,0,1,18130405.0,18130623.0,218.0
125,choice,choice,9,2.0,Small,1.0,26.69488462503068,Object_Sea_Pattern_Small,2,0,1,18131048.0,18131137.0,89.0
125,choice,choice,9,2.0,Small,1.0,26.69488462503068,Object_Land_Pattern_Small,3,0,1,18131189.0,18132365.0,1176.0
125,choice,choice,9,2.0,Small,1.0,26.69488462503068,Object_Sea_Pattern_Small,2,0,1,18132732.0,18137495.0,4763.0
125,choice,choice,9,2.0,Small,1.0,26.69488462503068,Object_Land_Pattern_Small,3,0,1,18139596.0,18139698.0,102.0
125,choice,choice,9,2.0,Small,1.0,26.69488462503068,Animal_Sea_Solid_Large,4,0,0,18139795.0,18139977.0,182.0
125,choice,choice,9,2.0,Small,1.0,26.69488462503068,Object_Land_Pattern_Small,3,0,1,18140602.0,18140834.0,232.0
125,choice,choice,9,2.0,Small,1.0,26.69488462503068,Animal_Sea_Solid_Large,4,0,0,18140858.0,18141515.0,657.0
125,choice,choice,9,2.0,Small,1.0,26.69488462503068,Object_Land_Pattern_Small,3,0,1,18141832.0,18141934.0,102.0
125,choice,choice,9,2.0,Small,1.0,26.69488462503068,fixation,-1,1,0,18141942.0,18142239.0,297.0
125,choice,choice,9,2.0,Small,1.0,26.69488462503068,Object_Land_Pattern_Small,3,0,1,18142261.0,18142829.0,568.0
125,choice,choice,9,2.0,Small,1.0,26.69488462503068,fixation,-1,1,0,18143250.0,18143405.0,155.0
125,choice,choice,9,2.0,Small,1.0,26.69488462503068,Object_Sea_Pattern_Small,2,0,1,18143720.0,18143963.0,243.0
125,choice,choice,9,2.0,Small,1.0,26.69488462503068,Object_Land_Pattern_Small,3,0,1,18144000.0,18144406.0,406.0
125,choice,choice,9,2.0,Small,1.0,26.69488462503068,Animal_Sea_Solid_Large,4,0,0,18144428.0,18144447.0,19.0
125,choice,choice,10,2.0,Pattern,2.0,30.127478166949004,fixation,-1,1,0,18147072.0,18147356.0,284.0
125,choice,choice,10,2.0,Pattern,2.0,30.127478166949004,Object_Land_Pattern_Small,3,0,1,18147418.0,18147469.0,51.0
125,choice,choice,10,2.0,Pattern,2.0,30.127478166949004,Animal_Sea_Solid_Small,0,0,0,18147700.0,18148107.0,407.0
125,choice,choice,10,2.0,Pattern,2.0,30.127478166949004,Animal_Land_Pattern_Large,5,0,1,18148139.0,18148939.0,800.0
125,choice,choice,10,2.0,Pattern,2.0,30.127478166949004,fixation,-1,1,0,18149218.0,18150197.0,979.0
125,choice,choice,10,2.0,Pattern,2.0,30.127478166949004,Object_Land_Solid_Large,1,0,0,18150499.0,18150907.0,408.0
125,choice,choice,10,2.0,Pattern,2.0,30.127478166949004,Animal_Sea_Solid_Small,0,0,0,18151224.0,18153170.0,1946.0
125,choice,choice,10,2.0,Pattern,2.0,30.127478166949004,Object_Land_Solid_Large,1,0,0,18153668.0,18154318.0,650.0
125,choice,choice,10,2.0,Pattern,2.0,30.127478166949004,fixation,-1,1,0,18154645.0,18155410.0,765.0
125,choice,choice,10,2.0,Pattern,2.0,30.127478166949004,Object_Sea_Pattern_Small,2,0,1,18156007.0,18156576.0,569.0
125,choice,choice,10,2.0,Pattern,2.0,30.127478166949004,fixation,-1,1,0,18156638.0,18157266.0,628.0
125,choice,choice,10,2.0,Pattern,2.0,30.127478166949004,Object_Sea_Pattern_Small,2,0,1,18157909.0,18158026.0,117.0
125,choice,choice,10,2.0,Pattern,2.0,30.127478166949004,Object_Land_Pattern_Small,3,0,1,18158036.0,18158839.0,803.0
125,choice,choice,10,2.0,Pattern,2.0,30.127478166949004,Object_Sea_Pattern_Small,2,0,1,18158974.0,18159014.0,40.0
125,choice,choice,10,2.0,Pattern,2.0,30.127478166949004,Animal_Sea_Solid_Large,4,0,0,18159069.0,18159838.0,769.0
125,choice,choice,10,2.0,Pattern,2.0,30.127478166949004,Animal_Land_Pattern_Large,5,0,1,18160407.0,18161778.0,1371.0
125,choice,choice,10,2.0,Pattern,2.0,30.127478166949004,Animal_Sea_Solid_Large,4,0,0,18162176.0,18163383.0,1207.0
125,choice,choice,10,2.0,Pattern,2.0,30.127478166949004,Object_Land_Pattern_Small,3,0,1,18163750.0,18164649.0,899.0
125,choice,choice,10,2.0,Pattern,2.0,30.127478166949004,Object_Sea_Pattern_Small,2,0,1,18165386.0,18166587.0,1201.0
125,choice,choice,10,2.0,Pattern,2.0,30.127478166949004,Object_Land_Solid_Large,1,0,0,18166633.0,18167468.0,835.0
125,choice,choice,10,2.0,Pattern,2.0,30.127478166949004,Object_Sea_Pattern_Small,2,0,1,18167770.0,18168148.0,378.0
125,choice,choice,10,2.0,Pattern,2.0,30.127478166949004,Object_Land_Solid_Large,1,0,0,18168240.0,18168267.0,27.0
125,choice,choice,10,2.0,Pattern,2.0,30.127478166949004,Animal_Sea_Solid_Large,4,0,0,18168406.0,18169377.0,971.0
125,choice,choice,10,2.0,Pattern,2.0,30.127478166949004,Object_Sea_Pattern_Small,2,0,1,18169926.0,18171649.0,1723.0
125,choice,choice,10,2.0,Pattern,2.0,30.127478166949004,Animal_Sea_Solid_Large,4,0,0,18173189.0,18173527.0,338.0
125,choice,choice,10,2.0,Pattern,2.0,30.127478166949004,Object_Sea_Pattern_Small,2,0,1,18173953.0,18175320.0,1367.0
125,choice,choice,10,2.0,Pattern,2.0,30.127478166949004,Object_Land_Pattern_Small,3,0,1,18176081.0,18176533.0,452.0
125,choice,choice,10,2.0,Pattern,2.0,30.127478166949004,Object_Sea_Pattern_Small,2,0,1,18176540.0,18177128.0,588.0
125,choice,choice,11,2.0,Object,2.0,9.393135708989576,fixation,-1,1,0,18180866.0,18181318.0,452.0
125,choice,choice,11,2.0,Object,2.0,9.393135708989576,Object_Land_Pattern_Small,3,0,1,18181339.0,18182113.0,774.0
125,choice,choice,11,2.0,Object,2.0,9.393135708989576,Object_Land_Solid_Large,1,0,1,18182386.0,18182510.0,124.0
125,choice,choice,11,2.0,Object,2.0,9.393135708989576,fixation,-1,1,0,18182526.0,18183403.0,877.0
125,choice,choice,11,2.0,Object,2.0,9.393135708989576,Object_Land_Solid_Large,1,0,1,18183670.0,18184795.0,1125.0
125,choice,choice,11,2.0,Object,2.0,9.393135708989576,Animal_Sea_Solid_Large,4,0,0,18185122.0,18185429.0,307.0
125,choice,choice,11,2.0,Object,2.0,9.393135708989576,Object_Land_Pattern_Small,3,0,1,18185453.0,18185892.0,439.0
125,choice,choice,11,2.0,Object,2.0,9.393135708989576,Animal_Land_Pattern_Large,5,0,0,18186193.0,18187338.0,1145.0
125,choice,choice,11,2.0,Object,2.0,9.393135708989576,fixation,-1,1,0,18187712.0,18188203.0,491.0
125,choice,choice,11,2.0,Object,2.0,9.393135708989576,Object_Sea_Pattern_Small,2,0,1,18188471.0,18188609.0,138.0
125,choice,choice,11,2.0,Object,2.0,9.393135708989576,fixation,-1,1,0,18188624.0,18189294.0,670.0
125,choice,choice,11,2.0,Object,2.0,9.393135708989576,Object_Land_Solid_Large,1,0,1,18189324.0,18189882.0,558.0
125,choice,choice,11,2.0,Object,2.0,9.393135708989576,Animal_Land_Pattern_Large,5,0,0,18189916.0,18190075.0,159.0
125,choice,choice,12,2.0,Solid,1.0,14.276609749998896,Object_Land_Solid_Large,1,0,1,18193201.0,18193540.0,339.0
125,choice,choice,12,2.0,Solid,1.0,14.276609749998896,Animal_Sea_Solid_Small,0,0,1,18193573.0,18193892.0,319.0
125,choice,choice,12,2.0,Solid,1.0,14.276609749998896,Object_Land_Solid_Large,1,0,1,18193918.0,18196063.0,2145.0
125,choice,choice,12,2.0,Solid,1.0,14.276609749998896,Object_Sea_Pattern_Small,2,0,0,18197200.0,18197578.0,378.0
125,choice,choice,12,2.0,Solid,1.0,14.276609749998896,Animal_Sea_Solid_Large,4,0,1,18198452.0,18200082.0,1630.0
125,choice,choice,12,2.0,Solid,1.0,14.276609749998896,Object_Land_Pattern_Small,3,0,0,18200467.0,18200990.0,523.0
125,choice,choice,12,2.0,Solid,1.0,14.276609749998896,fixation,-1,1,0,18201330.0,18201824.0,494.0
125,choice,choice,12,2.0,Solid,1.0,14.276609749998896,Animal_Land_Pattern_Large,5,0,0,18202157.0,18203383.0,1226.0
125,choice,choice,12,2.0,Solid,1.0,14.276609749998896,Animal_Sea_Solid_Small,0,0,1,18203677.0,18204037.0,360.0
125,choice,choice,12,2.0,Solid,1.0,14.276609749998896,Animal_Land_Pattern_Large,5,0,0,18204053.0,18204332.0,279.0
125,choice,choice,12,2.0,Solid,1.0,14.276609749998896,Animal_Sea_Solid_Small,0,0,1,18204592.0,18205028.0,436.0
125,choice,choice,12,2.0,Solid,1.0,14.276609749998896,Animal_Land_Pattern_Large,5,0,0,18205056.0,18205249.0,193.0
125,choice,choice,12,2.0,Solid,1.0,14.276609749998896,Animal_Sea_Solid_Large,4,0,1,18205711.0,18206098.0,387.0
125,choice,choice,12,2.0,Solid,1.0,14.276609749998896,fixation,-1,1,0,18206116.0,18206901.0,785.0
125,choice,choice,13,2.0,Animal,1.0,11.181667750002816,Animal_Sea_Solid_Large,4,0,1,18210404.0,18210532.0,128.0
125,choice,choice,13,2.0,Animal,1.0,11.181667750002816,Animal_Sea_Solid_Small,0,0,1,18210563.0,18211715.0,1152.0
125,choice,choice,13,2.0,Animal,1.0,11.181667750002816,Object_Land_Pattern_Small,3,0,0,18212084.0,18212183.0,99.0
125,choice,choice,13,2.0,Animal,1.0,11.181667750002816,Animal_Sea_Solid_Large,4,0,1,18212198.0,18213500.0,1302.0
125,choice,choice,13,2.0,Animal,1.0,11.181667750002816,Object_Sea_Pattern_Small,2,0,0,18213815.0,18214384.0,569.0
125,choice,choice,13,2.0,Animal,1.0,11.181667750002816,Animal_Land_Pattern_Large,5,0,1,18214730.0,18215465.0,735.0
125,choice,choice,13,2.0,Animal,1.0,11.181667750002816,Animal_Sea_Solid_Large,4,0,1,18215732.0,18216287.0,555.0
125,choice,choice,13,2.0,Animal,1.0,11.181667750002816,fixation,-1,1,0,18216297.0,18216687.0,390.0
125,choice,choice,13,2.0,Animal,1.0,11.181667750002816,Object_Sea_Pattern_Small,2,0,0,18216963.0,18217229.0,266.0
125,choice,choice,13,2.0,Animal,1.0,11.181667750002816,Object_Land_Pattern_Small,3,0,0,18217531.0,18218109.0,578.0
125,choice,choice,13,2.0,Animal,1.0,11.181667750002816,Object_Sea_Pattern_Small,2,0,0,18218431.0,18218755.0,324.0
125,choice,choice,13,2.0,Animal,1.0,11.181667750002816,Object_Land_Pattern_Small,3,0,0,18218779.0,18219016.0,237.0
125,choice,choice,13,2.0,Animal,1.0,11.181667750002816,fixation,-1,1,0,18219367.0,18221121.0,1754.0
125,choice,choice,14,2.0,Sea,1.0,16.033803374972194,fixation,-1,1,0,18224498.0,18226563.0,2065.0
125,choice,choice,14,2.0,Sea,1.0,16.033803374972194,Object_Sea_Pattern_Small,2,0,1,18227200.0,18229134.0,1934.0
125,choice,choice,14,2.0,Sea,1.0,16.033803374972194,fixation,-1,1,0,18229789.0,18229986.0,197.0
125,choice,choice,14,2.0,Sea,1.0,16.033803374972194,Animal_Land_Pattern_Large,5,0,0,18230009.0,18231118.0,1109.0
125,choice,choice,14,2.0,Sea,1.0,16.033803374972194,Animal_Sea_Solid_Large,4,0,1,18231420.0,18231913.0,493.0
125,choice,choice,14,2.0,Sea,1.0,16.033803374972194,Animal_Land_Pattern_Large,5,0,0,18232181.0,18232439.0,258.0
125,choice,choice,14,2.0,Sea,1.0,16.033803374972194,fixation,-1,1,0,18232455.0,18232734.0,279.0
125,choice,choice,14,2.0,Sea,1.0,16.033803374972194,Animal_Land_Pattern_Large,5,0,0,18232756.0,18233468.0,712.0
125,choice,choice,14,2.0,Sea,1.0,16.033803374972194,fixation,-1,1,0,18233782.0,18233914.0,132.0
125,choice,choice,14,2.0,Sea,1.0,16.033803374972194,Object_Sea_Pattern_Small,2,0,1,18234252.0,18235016.0,764.0
125,choice,choice,14,2.0,Sea,1.0,16.033803374972194,Object_Land_Pattern_Small,3,0,0,18235038.0,18235309.0,271.0
125,choice,choice,14,2.0,Sea,1.0,16.033803374972194,fixation,-1,1,0,18235329.0,18236126.0,797.0
125,choice,choice,14,2.0,Sea,1.0,16.033803374972194,Object_Land_Pattern_Small,3,0,0,18236708.0,18236771.0,63.0
125,choice,choice,14,2.0,Sea,1.0,16.033803374972194,Object_Sea_Pattern_Small,2,0,1,18238876.0,18239950.0,1074.0
125,choice,choice,14,2.0,Sea,1.0,16.033803374972194,Object_Land_Pattern_Small,3,0,0,18239974.0,18239980.0,6.0
125,choice,choice,15,2.0,Large,1.0,2.8827055420260876,Object_Sea_Pattern_Small,2,0,0,18243789.0,18244624.0,835.0
125,choice,choice,15,2.0,Large,1.0,2.8827055420260876,Object_Land_Solid_Large,1,0,1,18244704.0,18245012.0,308.0
125,choice,choice,15,2.0,Large,1.0,2.8827055420260876,fixation,-1,1,0,18245031.0,18245890.0,859.0
125,choice,choice,16,2.0,Land,2.0,2.8068969170562923,fixation,-1,1,0,18249358.0,18249436.0,78.0
125,choice,choice,16,2.0,Land,2.0,2.8068969170562923,Animal_Sea_Solid_Large,4,0,0,18249466.0,18250148.0,682.0
125,choice,choice,16,2.0,Land,2.0,2.8068969170562923,fixation,-1,1,0,18250419.0,18250631.0,212.0
125,choice,choice,16,2.0,Land,2.0,2.8068969170562923,Animal_Sea_Solid_Large,4,0,0,18250649.0,18250932.0,283.0
125,choice,choice,16,2.0,Land,2.0,2.8068969170562923,fixation,-1,1,0,18250947.0,18252014.0,1067.0
125,choice,choice,17,3.0,Sea,1.0,18.75997016695328,Object_Sea_Solid_Large,0,0,1,18628243.0,18628698.0,455.0
125,choice,choice,17,3.0,Sea,1.0,18.75997016695328,Animal_Land_Solid_Large,1,0,0,18628925.0,18629356.0,431.0
125,choice,choice,17,3.0,Sea,1.0,18.75997016695328,Object_Sea_Solid_Large,0,0,1,18629574.0,18629910.0,336.0
125,choice,choice,17,3.0,Sea,1.0,18.75997016695328,Object_Sea_Pattern_Small,2,0,1,18629948.0,18630202.0,254.0
125,choice,choice,17,3.0,Sea,1.0,18.75997016695328,Animal_Sea_Pattern_Small,3,0,1,18630462.0,18630799.0,337.0
125,choice,choice,17,3.0,Sea,1.0,18.75997016695328,Object_Sea_Pattern_Small,2,0,1,18630823.0,18631293.0,470.0
125,choice,choice,17,3.0,Sea,1.0,18.75997016695328,Object_Sea_Solid_Large,0,0,1,18631328.0,18633661.0,2333.0
125,choice,choice,17,3.0,Sea,1.0,18.75997016695328,Object_Sea_Pattern_Small,2,0,1,18634400.0,18635163.0,763.0
125,choice,choice,17,3.0,Sea,1.0,18.75997016695328,Object_Sea_Solid_Large,0,0,1,18635202.0,18635335.0,133.0
125,choice,choice,17,3.0,Sea,1.0,18.75997016695328,Object_Land_Solid_Small,4,0,0,18635359.0,18635895.0,536.0
125,choice,choice,17,3.0,Sea,1.0,18.75997016695328,Animal_Land_Pattern_Large,5,0,0,18636170.0,18637207.0,1037.0
125,choice,choice,17,3.0,Sea,1.0,18.75997016695328,Object_Land_Solid_Small,4,0,0,18637478.0,18638116.0,638.0
125,choice,choice,17,3.0,Sea,1.0,18.75997016695328,Animal_Sea_Pattern_Small,3,0,1,18638710.0,18638986.0,276.0
125,choice,choice,17,3.0,Sea,1.0,18.75997016695328,Object_Sea_Pattern_Small,2,0,1,18639019.0,18639785.0,766.0
125,choice,choice,17,3.0,Sea,1.0,18.75997016695328,Object_Sea_Solid_Large,0,0,1,18640127.0,18640510.0,383.0
125,choice,choice,17,3.0,Sea,1.0,18.75997016695328,fixation,-1,1,0,18640536.0,18640893.0,357.0
125,choice,choice,17,3.0,Sea,1.0,18.75997016695328,Animal_Sea_Pattern_Small,3,0,1,18641283.0,18641310.0,27.0
125,choice,choice,17,3.0,Sea,1.0,18.75997016695328,Object_Land_Solid_Small,4,0,0,18641365.0,18641976.0,611.0
125,choice,choice,17,3.0,Sea,1.0,18.75997016695328,fixation,-1,1,0,18642014.0,18642376.0,362.0
125,choice,choice,17,3.0,Sea,1.0,18.75997016695328,Animal_Sea_Pattern_Small,3,0,1,18642674.0,18644369.0,1695.0
125,choice,choice,17,3.0,Sea,1.0,18.75997016695328,Object_Land_Solid_Small,4,0,0,18645932.0,18646353.0,421.0
125,choice,choice,18,3.0,Small,1.0,33.31555170798674,Animal_Sea_Pattern_Small,3,0,1,18649742.0,18649807.0,65.0
125,choice,choice,18,3.0,Small,1.0,33.31555170798674,Object_Sea_Pattern_Small,2,0,1,18650125.0,18650154.0,29.0
125,choice,choice,18,3.0,Small,1.0,33.31555170798674,Object_Sea_Solid_Large,0,0,0,18650189.0,18650718.0,529.0
125,choice,choice,18,3.0,Small,1.0,33.31555170798674,Animal_Land_Solid_Large,1,0,0,18650775.0,18651267.0,492.0
125,choice,choice,18,3.0,Small,1.0,33.31555170798674,Animal_Land_Pattern_Large,5,0,0,18651290.0,18651780.0,490.0
125,choice,choice,18,3.0,Small,1.0,33.31555170798674,Object_Sea_Solid_Large,0,0,0,18652020.0,18652399.0,379.0
125,choice,choice,18,3.0,Small,1.0,33.31555170798674,Animal_Land_Solid_Large,1,0,0,18652708.0,18655244.0,2536.0
125,choice,choice,18,3.0,Small,1.0,33.31555170798674,Object_Sea_Solid_Large,0,0,0,18656057.0,18657036.0,979.0
125,choice,choice,18,3.0,Small,1.0,33.31555170798674,Object_Sea_Pattern_Small,2,0,1,18657331.0,18659012.0,1681.0
125,choice,choice,18,3.0,Small,1.0,33.31555170798674,Animal_Sea_Pattern_Small,3,0,1,18659965.0,18660951.0,986.0
125,choice,choice,18,3.0,Small,1.0,33.31555170798674,Object_Sea_Pattern_Small,2,0,1,18661321.0,18661614.0,293.0
125,choice,choice,18,3.0,Small,1.0,33.31555170798674,Animal_Sea_Pattern_Small,3,0,1,18661630.0,18662484.0,854.0
125,choice,choice,18,3.0,Small,1.0,33.31555170798674,Object_Land_Solid_Small,4,0,1,18662857.0,18663121.0,264.0
125,choice,choice,18,3.0,Small,1.0,33.31555170798674,Animal_Sea_Pattern_Small,3,0,1,18663139.0,18663439.0,300.0
125,choice,choice,18,3.0,Small,1.0,33.31555170798674,Object_Land_Solid_Small,4,0,1,18663761.0,18664054.0,293.0
125,choice,choice,18,3.0,Small,1.0,33.31555170798674,fixation,-1,1,0,18664072.0,18664288.0,216.0
125,choice,choice,18,3.0,Small,1.0,33.31555170798674,Animal_Sea_Pattern_Small,3,0,1,18664575.0,18664920.0,345.0
125,choice,choice,18,3.0,Small,1.0,33.31555170798674,Object_Sea_Pattern_Small,2,0,1,18665242.0,18665526.0,284.0
125,choice,choice,18,3.0,Small,1.0,33.31555170798674,Object_Land_Solid_Small,4,0,1,18665565.0,18666423.0,858.0
125,choice,choice,18,3.0,Small,1.0,33.31555170798674,Object_Sea_Pattern_Small,2,0,1,18667020.0,18670690.0,3670.0
125,choice,choice,18,3.0,Small,1.0,33.31555170798674,fixation,-1,1,0,18672054.0,18672210.0,156.0
125,choice,choice,18,3.0,Small,1.0,33.31555170798674,Object_Land_Solid_Small,4,0,1,18672238.0,18673901.0,1663.0
125,choice,choice,18,3.0,Small,1.0,33.31555170798674,Animal_Sea_Pattern_Small,3,0,1,18674541.0,18674723.0,182.0
125,choice,choice,18,3.0,Small,1.0,33.31555170798674,Object_Sea_Pattern_Small,2,0,1,18674772.0,18674969.0,197.0
125,choice,choice,18,3.0,Small,1.0,33.31555170798674,Animal_Sea_Pattern_Small,3,0,1,18674995.0,18675183.0,188.0
125,choice,choice,18,3.0,Small,1.0,33.31555170798674,Object_Land_Solid_Small,4,0,1,18675208.0,18675756.0,548.0
125,choice,choice,18,3.0,Small,1.0,33.31555170798674,Animal_Sea_Pattern_Small,3,0,1,18676378.0,18676580.0,202.0
125,choice,choice,18,3.0,Small,1.0,33.31555170798674,Object_Land_Solid_Small,4,0,1,18676599.0,18676969.0,370.0
125,choice,choice,18,3.0,Small,1.0,33.31555170798674,fixation,-1,1,0,18677233.0,18677479.0,246.0
125,choice,choice,18,3.0,Small,1.0,33.31555170798674,Object_Sea_Pattern_Small,2,0,1,18677498.0,18677717.0,219.0
125,choice,choice,18,3.0,Small,1.0,33.31555170798674,fixation,-1,1,0,18678080.0,18678306.0,226.0
125,choice,choice,18,3.0,Small,1.0,33.31555170798674,Animal_Sea_Pattern_Small,3,0,1,18678587.0,18679091.0,504.0
125,choice,choice,18,3.0,Small,1.0,33.31555170798674,Object_Land_Solid_Small,4,0,1,18679901.0,18680477.0,576.0
125,choice,choice,18,3.0,Small,1.0,33.31555170798674,Animal_Land_Pattern_Large,5,0,0,18680523.0,18681218.0,695.0
125,choice,choice,18,3.0,Small,1.0,33.31555170798674,Object_Land_Solid_Small,4,0,1,18681524.0,18682828.0,1304.0
125,choice,choice,19,3.0,Land,1.0,35.453000207897276,Animal_Land_Solid_Large,1,0,1,18685961.0,18686648.0,687.0
125,choice,choice,19,3.0,Land,1.0,35.453000207897276,Object_Sea_Solid_Large,0,0,0,18686884.0,18687121.0,237.0
125,choice,choice,19,3.0,Land,1.0,35.453000207897276,Animal_Land_Solid_Large,1,0,1,18687367.0,18687806.0,439.0
125,choice,choice,19,3.0,Land,1.0,35.453000207897276,Object_Sea_Solid_Large,0,0,0,18687820.0,18688400.0,580.0
125,choice,choice,19,3.0,Land,1.0,35.453000207897276,Animal_Land_Solid_Large,1,0,1,18688628.0,18688878.0,250.0
125,choice,choice,19,3.0,Land,1.0,35.453000207897276,Animal_Land_Pattern_Large,5,0,1,18689136.0,18690776.0,1640.0
125,choice,choice,19,3.0,Land,1.0,35.453000207897276,Object_Land_Solid_Small,4,0,1,18691109.0,18691769.0,660.0
125,choice,choice,19,3.0,Land,1.0,35.453000207897276,fixation,-1,1,0,18692071.0,18694064.0,1993.0
125,choice,choice,19,3.0,Land,1.0,35.453000207897276,Object_Sea_Pattern_Small,2,0,0,18694679.0,18695099.0,420.0
125,choice,choice,19,3.0,Land,1.0,35.453000207897276,Object_Land_Solid_Small,4,0,1,18695140.0,18696839.0,1699.0
125,choice,choice,19,3.0,Land,1.0,35.453000207897276,Object_Sea_Pattern_Small,2,0,0,18697253.0,18697613.0,360.0
125,choice,choice,19,3.0,Land,1.0,35.453000207897276,Animal_Sea_Pattern_Small,3,0,0,18697630.0,18698050.0,420.0
125,choice,choice,19,3.0,Land,1.0,35.453000207897276,Object_Sea_Pattern_Small,2,0,0,18698074.0,18698202.0,128.0
125,choice,choice,19,3.0,Land,1.0,35.453000207897276,Object_Sea_Solid_Large,0,0,0,18698492.0,18699428.0,936.0
125,choice,choice,19,3.0,Land,1.0,35.453000207897276,Object_Sea_Pattern_Small,2,0,0,18701599.0,18702209.0,610.0
125,choice,choice,19,3.0,Land,1.0,35.453000207897276,Animal_Land_Solid_Large,1,0,1,18702544.0,18703340.0,796.0
125,choice,choice,19,3.0,Land,1.0,35.453000207897276,Object_Sea_Solid_Large,0,0,0,18703546.0,18703971.0,425.0
125,choice,choice,19,3.0,Land,1.0,35.453000207897276,Animal_Land_Solid_Large,1,0,1,18703995.0,18704349.0,354.0
125,choice,choice,19,3.0,Land,1.0,35.453000207897276,Animal_Sea_Pattern_Small,3,0,0,18704906.0,18704949.0,43.0
125,choice,choice,19,3.0,Land,1.0,35.453000207897276,Object_Sea_Pattern_Small,2,0,0,18704969.0,18705257.0,288.0
125,choice,choice,19,3.0,Land,1.0,35.453000207897276,Object_Sea_Solid_Large,0,0,0,18705282.0,18706062.0,780.0
125,choice,choice,19,3.0,Land,1.0,35.453000207897276,Object_Sea_Pattern_Small,2,0,0,18706229.0,18706294.0,65.0
125,choice,choice,19,3.0,Land,1.0,35.453000207897276,Animal_Land_Solid_Large,1,0,1,18706549.0,18706710.0,161.0
125,choice,choice,19,3.0,Land,1.0,35.453000207897276,Object_Sea_Solid_Large,0,0,0,18706736.0,18707147.0,411.0
125,choice,choice,19,3.0,Land,1.0,35.453000207897276,Object_Sea_Pattern_Small,2,0,0,18707202.0,18707503.0,301.0
125,choice,choice,19,3.0,Land,1.0,35.453000207897276,Animal_Sea_Pattern_Small,3,0,0,18707527.0,18708281.0,754.0
125,choice,choice,19,3.0,Land,1.0,35.453000207897276,Object_Land_Solid_Small,4,0,1,18709163.0,18710844.0,1681.0
125,choice,choice,19,3.0,Land,1.0,35.453000207897276,Animal_Sea_Pattern_Small,3,0,0,18711777.0,18712713.0,936.0
125,choice,choice,19,3.0,Land,1.0,35.453000207897276,Object_Sea_Pattern_Small,2,0,0,18713358.0,18713575.0,217.0
125,choice,choice,19,3.0,Land,1.0,35.453000207897276,Animal_Sea_Pattern_Small,3,0,0,18713601.0,18713846.0,245.0
125,choice,choice,19,3.0,Land,1.0,35.453000207897276,Object_Land_Solid_Small,4,0,1,18713873.0,18715692.0,1819.0
125,choice,choice,19,3.0,Land,1.0,35.453000207897276,fixation,-1,1,0,18716087.0,18716416.0,329.0
125,choice,choice,19,3.0,Land,1.0,35.453000207897276,Animal_Land_Pattern_Large,5,0,1,18716680.0,18717280.0,600.0
125,choice,choice,19,3.0,Land,1.0,35.453000207897276,Animal_Land_Solid_Large,1,0,1,18717322.0,18717538.0,216.0
125,choice,choice,19,3.0,Land,1.0,35.453000207897276,Object_Land_Solid_Small,4,0,1,18717842.0,18718417.0,575.0
125,choice,choice,19,3.0,Land,1.0,35.453000207897276,Animal_Sea_Pattern_Small,3,0,0,18718772.0,18719087.0,315.0
125,choice,choice,20,3.0,Pattern,1.0,20.13132212497294,Object_Sea_Solid_Large,0,0,0,18723675.0,18724103.0,428.0
125,choice,choice,20,3.0,Pattern,1.0,20.13132212497294,Animal_Land_Solid_Large,1,0,0,18724957.0,18725722.0,765.0
125,choice,choice,20,3.0,Pattern,1.0,20.13132212497294,Object_Sea_Solid_Large,0,0,0,18725953.0,18726481.0,528.0
125,choice,choice,20,3.0,Pattern,1.0,20.13132212497294,Object_Sea_Pattern_Small,2,0,1,18726822.0,18728988.0,2166.0
125,choice,choice,20,3.0,Pattern,1.0,20.13132212497294,Animal_Sea_Pattern_Small,3,0,1,18729979.0,18730153.0,174.0
125,choice,choice,20,3.0,Pattern,1.0,20.13132212497294,Object_Sea_Pattern_Small,2,0,1,18730452.0,18730841.0,389.0
125,choice,choice,20,3.0,Pattern,1.0,20.13132212497294,Animal_Sea_Pattern_Small,3,0,1,18730859.0,18731261.0,402.0
125,choice,choice,20,3.0,Pattern,1.0,20.13132212497294,Object_Sea_Pattern_Small,2,0,1,18731597.0,18731991.0,394.0
125,choice,choice,20,3.0,Pattern,1.0,20.13132212497294,Animal_Sea_Pattern_Small,3,0,1,18734163.0,18735023.0,860.0
125,choice,choice,20,3.0,Pattern,1.0,20.13132212497294,Object_Sea_Pattern_Small,2,0,1,18738840.0,18739180.0,340.0
125,choice,choice,20,3.0,Pattern,1.0,20.13132212497294,Animal_Sea_Pattern_Small,3,0,1,18739197.0,18739980.0,783.0
125,choice,choice,20,3.0,Pattern,1.0,20.13132212497294,Object_Sea_Pattern_Small,2,0,1,18740005.0,18740766.0,761.0
125,choice,choice,20,3.0,Pattern,1.0,20.13132212497294,Animal_Sea_Pattern_Small,3,0,1,18741821.0,18742129.0,308.0
125,choice,choice,20,3.0,Pattern,1.0,20.13132212497294,fixation,-1,1,0,18742497.0,18743363.0,866.0
125,choice,choice,20,3.0,Pattern,1.0,20.13132212497294,Animal_Sea_Pattern_Small,3,0,1,18743700.0,18743794.0,94.0
125,choice,choice,21,3.0,Solid,2.0,10.956364249810576,Animal_Land_Solid_Large,1,0,1,18747213.0,18747798.0,585.0
125,choice,choice,21,3.0,Solid,2.0,10.956364249810576,Object_Sea_Solid_Large,0,0,1,18748039.0,18749028.0,989.0
125,choice,choice,21,3.0,Solid,2.0,10.956364249810576,Animal_Land_Solid_Large,1,0,1,18749784.0,18750767.0,983.0
125,choice,choice,21,3.0,Solid,2.0,10.956364249810576,Object_Sea_Solid_Large,0,0,1,18751030.0,18752055.0,1025.0
125,choice,choice,21,3.0,Solid,2.0,10.956364249810576,Animal_Land_Solid_Large,1,0,1,18752831.0,18755645.0,2814.0
125,choice,choice,21,3.0,Solid,2.0,10.956364249810576,Object_Sea_Solid_Large,0,0,1,18756441.0,18756711.0,270.0
125,choice,choice,21,3.0,Solid,2.0,10.956364249810576,fixation,-1,1,0,18756735.0,18757554.0,819.0
125,choice,choice,22,3.0,Animal,1.0,13.231137291993946,Animal_Land_Solid_Large,1,0,1,18761239.0,18761436.0,197.0
125,choice,choice,22,3.0,Animal,1.0,13.231137291993946,Object_Sea_Pattern_Small,2,0,0,18761485.0,18761668.0,183.0
125,choice,choice,22,3.0,Animal,1.0,13.231137291993946,fixation,-1,1,0,18761678.0,18761808.0,130.0
125,choice,choice,22,3.0,Animal,1.0,13.231137291993946,Animal_Sea_Pattern_Small,3,0,1,18762184.0,18762269.0,85.0
125,choice,choice,22,3.0,Animal,1.0,13.231137291993946,Object_Sea_Pattern_Small,2,0,0,18762316.0,18762608.0,292.0
125,choice,choice,22,3.0,Animal,1.0,13.231137291993946,Animal_Sea_Pattern_Small,3,0,1,18762634.0,18762831.0,197.0
125,choice,choice,22,3.0,Animal,1.0,13.231137291993946,fixation,-1,1,0,18762848.0,18763871.0,1023.0
125,choice,choice,22,3.0,Animal,1.0,13.231137291993946,Object_Land_Solid_Small,4,0,0,18764587.0,18765321.0,734.0
125,choice,choice,22,3.0,Animal,1.0,13.231137291993946,Animal_Land_Pattern_Large,5,0,1,18765477.0,18766664.0,1187.0
125,choice,choice,22,3.0,Animal,1.0,13.231137291993946,Animal_Land_Solid_Large,1,0,1,18767225.0,18767528.0,303.0
125,choice,choice,22,3.0,Animal,1.0,13.231137291993946,Object_Sea_Solid_Large,0,0,0,18767551.0,18768143.0,592.0
125,choice,choice,22,3.0,Animal,1.0,13.231137291993946,Animal_Land_Pattern_Large,5,0,1,18768647.0,18768984.0,337.0
125,choice,choice,22,3.0,Animal,1.0,13.231137291993946,Animal_Land_Solid_Large,1,0,1,18769251.0,18769398.0,147.0
125,choice,choice,22,3.0,Animal,1.0,13.231137291993946,Animal_Land_Pattern_Large,5,0,1,18769419.0,18769971.0,552.0
125,choice,choice,22,3.0,Animal,1.0,13.231137291993946,fixation,-1,1,0,18770226.0,18770521.0,295.0
125,choice,choice,22,3.0,Animal,1.0,13.231137291993946,Animal_Land_Solid_Large,1,0,1,18770801.0,18772473.0,1672.0
125,choice,choice,22,3.0,Animal,1.0,13.231137291993946,Object_Sea_Solid_Large,0,0,0,18772991.0,18773220.0,229.0
125,choice,choice,22,3.0,Animal,1.0,13.231137291993946,Animal_Land_Solid_Large,1,0,1,18773265.0,18773455.0,190.0
125,choice,choice,23,3.0,Large,2.0,25.412483249790967,Animal_Land_Solid_Large,1,0,1,18777657.0,18778249.0,592.0
125,choice,choice,23,3.0,Large,2.0,25.412483249790967,Object_Sea_Solid_Large,0,0,1,18778290.0,18779719.0,1429.0
125,choice,choice,23,3.0,Large,2.0,25.412483249790967,Animal_Land_Solid_Large,1,0,1,18780270.0,18780568.0,298.0
125,choice,choice,23,3.0,Large,2.0,25.412483249790967,Object_Land_Solid_Small,4,0,0,18780850.0,18780985.0,135.0
125,choice,choice,23,3.0,Large,2.0,25.412483249790967,fixation,-1,1,0,18781254.0,18781848.0,594.0
125,choice,choice,23,3.0,Large,2.0,25.412483249790967,Animal_Land_Pattern_Large,5,0,1,18781901.0,18783066.0,1165.0
125,choice,choice,23,3.0,Large,2.0,25.412483249790967,Animal_Land_Solid_Large,1,0,1,18783671.0,18784382.0,711.0
125,choice,choice,23,3.0,Large,2.0,25.412483249790967,Object_Sea_Solid_Large,0,0,1,18784651.0,18787490.0,2839.0
125,choice,choice,23,3.0,Large,2.0,25.412483249790967,Animal_Land_Solid_Large,1,0,1,18788893.0,18790044.0,1151.0
125,choice,choice,23,3.0,Large,2.0,25.412483249790967,fixation,-1,1,0,18790790.0,18791182.0,392.0
125,choice,choice,23,3.0,Large,2.0,25.412483249790967,Animal_Land_Solid_Large,1,0,1,18791501.0,18791716.0,215.0
125,choice,choice,23,3.0,Large,2.0,25.412483249790967,Object_Sea_Solid_Large,0,0,1,18791754.0,18791927.0,173.0
125,choice,choice,23,3.0,Large,2.0,25.412483249790967,Animal_Land_Pattern_Large,5,0,1,18791977.0,18794085.0,2108.0
125,choice,choice,23,3.0,Large,2.0,25.412483249790967,Object_Land_Solid_Small,4,0,0,18794453.0,18794706.0,253.0
125,choice,choice,23,3.0,Large,2.0,25.412483249790967,Animal_Land_Pattern_Large,5,0,1,18795000.0,18795232.0,232.0
125,choice,choice,23,3.0,Large,2.0,25.412483249790967,fixation,-1,1,0,18795252.0,18796195.0,943.0
125,choice,choice,23,3.0,Large,2.0,25.412483249790967,Object_Sea_Solid_Large,0,0,1,18796741.0,18797355.0,614.0
125,choice,choice,23,3.0,Large,2.0,25.412483249790967,Object_Sea_Pattern_Small,2,0,0,18798381.0,18798509.0,128.0
125,choice,choice,23,3.0,Large,2.0,25.412483249790967,Animal_Land_Solid_Large,1,0,1,18798536.0,18798965.0,429.0
125,choice,choice,23,3.0,Large,2.0,25.412483249790967,fixation,-1,1,0,18798981.0,18799169.0,188.0
125,choice,choice,23,3.0,Large,2.0,25.412483249790967,Object_Sea_Solid_Large,0,0,1,18799431.0,18799992.0,561.0
125,choice,choice,23,3.0,Large,2.0,25.412483249790967,Object_Sea_Pattern_Small,2,0,0,18800268.0,18800817.0,549.0
125,choice,choice,23,3.0,Large,2.0,25.412483249790967,Object_Land_Solid_Small,4,0,0,18800860.0,18801734.0,874.0
125,choice,choice,23,3.0,Large,2.0,25.412483249790967,fixation,-1,1,0,18802072.0,18802370.0,298.0
125,choice,choice,23,3.0,Large,2.0,25.412483249790967,Object_Land_Solid_Small,4,0,0,18802387.0,18802555.0,168.0
125,choice,choice,24,3.0,Object,2.0,22.093488583806906,fixation,-1,1,0,18805452.0,18805813.0,361.0
125,choice,choice,24,3.0,Object,2.0,22.093488583806906,Animal_Sea_Pattern_Small,3,0,0,18806122.0,18807889.0,1767.0
125,choice,choice,24,3.0,Object,2.0,22.093488583806906,fixation,-1,1,0,18809089.0,18809283.0,194.0
125,choice,choice,24,3.0,Object,2.0,22.093488583806906,Object_Sea_Solid_Large,0,0,1,18809309.0,18811197.0,1888.0
125,choice,choice,24,3.0,Object,2.0,22.093488583806906,Object_Land_Solid_Small,4,0,1,18811536.0,18812119.0,583.0
125,choice,choice,24,3.0,Object,2.0,22.093488583806906,fixation,-1,1,0,18812502.0,18812866.0,364.0
125,choice,choice,24,3.0,Object,2.0,22.093488583806906,Object_Sea_Solid_Large,0,0,1,18813121.0,18813316.0,195.0
125,choice,choice,24,3.0,Object,2.0,22.093488583806906,Object_Land_Solid_Small,4,0,1,18813360.0,18814250.0,890.0
125,choice,choice,24,3.0,Object,2.0,22.093488583806906,Animal_Land_Pattern_Large,5,0,0,18814565.0,18814707.0,142.0
125,choice,choice,24,3.0,Object,2.0,22.093488583806906,fixation,-1,1,0,18814730.0,18815785.0,1055.0
125,choice,choice,24,3.0,Object,2.0,22.093488583806906,Object_Sea_Pattern_Small,2,0,1,18816380.0,18816987.0,607.0
125,choice,choice,24,3.0,Object,2.0,22.093488583806906,Animal_Sea_Pattern_Small,3,0,0,18817270.0,18817855.0,585.0
125,choice,choice,24,3.0,Object,2.0,22.093488583806906,Object_Sea_Pattern_Small,2,0,1,18818455.0,18818600.0,145.0
125,choice,choice,24,3.0,Object,2.0,22.093488583806906,Animal_Sea_Pattern_Small,3,0,0,18818613.0,18818971.0,358.0
125,choice,choice,24,3.0,Object,2.0,22.093488583806906,Object_Land_Solid_Small,4,0,1,18818996.0,18820012.0,1016.0
125,choice,choice,24,3.0,Object,2.0,22.093488583806906,Animal_Land_Pattern_Large,5,0,0,18820288.0,18820869.0,581.0
125,choice,choice,24,3.0,Object,2.0,22.093488583806906,Animal_Sea_Pattern_Small,3,0,0,18820894.0,18821172.0,278.0
125,choice,choice,24,3.0,Object,2.0,22.093488583806906,fixation,-1,1,0,18821183.0,18821324.0,141.0
125,choice,choice,24,3.0,Object,2.0,22.093488583806906,Object_Sea_Solid_Large,0,0,1,18821583.0,18822655.0,1072.0
125,choice,choice,24,3.0,Object,2.0,22.093488583806906,Object_Sea_Pattern_Small,2,0,1,18822934.0,18823826.0,892.0
125,choice,choice,24,3.0,Object,2.0,22.093488583806906,Animal_Sea_Pattern_Small,3,0,0,18824146.0,18824937.0,791.0
125,choice,choice,24,3.0,Object,2.0,22.093488583806906,Object_Sea_Pattern_Small,2,0,1,18825230.0,18826830.0,1600.0
125,choice,choice,24,3.0,Object,2.0,22.093488583806906,Object_Sea_Solid_Large,0,0,1,18827196.0,18827393.0,197.0
125,choice,choice,24,3.0,Object,2.0,22.093488583806906,fixation,-1,1,0,18827411.0,18827464.0,53.0
125,choice,choice,25,4.0,Solid,1.0,17.429053749889135,Animal_Sea_Solid_Small,0,0,1,19192457.0,19193590.0,1133.0
125,choice,choice,25,4.0,Solid,1.0,17.429053749889135,Animal_Sea_Pattern_Large,1,0,0,19194141.0,19194273.0,132.0
125,choice,choice,25,4.0,Solid,1.0,17.429053749889135,fixation,-1,1,0,19194291.0,19195111.0,820.0
125,choice,choice,25,4.0,Solid,1.0,17.429053749889135,Animal_Sea_Pattern_Large,1,0,0,19195137.0,19198885.0,3748.0
125,choice,choice,25,4.0,Solid,1.0,17.429053749889135,Object_Sea_Solid_Small,2,0,1,19200007.0,19203491.0,3484.0
125,choice,choice,25,4.0,Solid,1.0,17.429053749889135,Object_Land_Solid_Small,3,0,1,19205325.0,19205503.0,178.0
125,choice,choice,25,4.0,Solid,1.0,17.429053749889135,Animal_Land_Pattern_Large,4,0,0,19205521.0,19206172.0,651.0
125,choice,choice,25,4.0,Solid,1.0,17.429053749889135,fixation,-1,1,0,19206208.0,19206386.0,178.0
125,choice,choice,25,4.0,Solid,1.0,17.429053749889135,Object_Land_Pattern_Large,5,0,0,19206711.0,19207000.0,289.0
125,choice,choice,25,4.0,Solid,1.0,17.429053749889135,Object_Sea_Solid_Small,2,0,1,19207033.0,19207237.0,204.0
125,choice,choice,25,4.0,Solid,1.0,17.429053749889135,fixation,-1,1,0,19207259.0,19207640.0,381.0
125,choice,choice,25,4.0,Solid,1.0,17.429053749889135,Animal_Sea_Solid_Small,0,0,1,19207868.0,19208247.0,379.0
125,choice,choice,25,4.0,Solid,1.0,17.429053749889135,fixation,-1,1,0,19208493.0,19209279.0,786.0
125,choice,choice,26,4.0,Large,1.0,18.7113089999184,Animal_Sea_Solid_Small,0,0,0,19212968.0,19213075.0,107.0
125,choice,choice,26,4.0,Large,1.0,18.7113089999184,Animal_Land_Pattern_Large,4,0,1,19213099.0,19213506.0,407.0
125,choice,choice,26,4.0,Large,1.0,18.7113089999184,Animal_Sea_Solid_Small,0,0,0,19213532.0,19214159.0,627.0
125,choice,choice,26,4.0,Large,1.0,18.7113089999184,Animal_Sea_Pattern_Large,1,0,1,19214393.0,19215780.0,1387.0
125,choice,choice,26,4.0,Large,1.0,18.7113089999184,Object_Land_Pattern_Large,5,0,1,19216125.0,19216876.0,751.0
125,choice,choice,26,4.0,Large,1.0,18.7113089999184,Object_Sea_Solid_Small,2,0,0,19217528.0,19218072.0,544.0
125,choice,choice,26,4.0,Large,1.0,18.7113089999184,Object_Land_Pattern_Large,5,0,1,19218093.0,19218722.0,629.0
125,choice,choice,26,4.0,Large,1.0,18.7113089999184,fixation,-1,1,0,19219425.0,19220146.0,721.0
125,choice,choice,26,4.0,Large,1.0,18.7113089999184,Object_Land_Solid_Small,3,0,0,19220516.0,19220744.0,228.0
125,choice,choice,26,4.0,Large,1.0,18.7113089999184,Object_Land_Pattern_Large,5,0,1,19220767.0,19220993.0,226.0
125,choice,choice,26,4.0,Large,1.0,18.7113089999184,fixation,-1,1,0,19221007.0,19222013.0,1006.0
125,choice,choice,26,4.0,Large,1.0,18.7113089999184,Object_Sea_Solid_Small,2,0,0,19222603.0,19223049.0,446.0
125,choice,choice,26,4.0,Large,1.0,18.7113089999184,Object_Land_Solid_Small,3,0,0,19223118.0,19223500.0,382.0
125,choice,choice,26,4.0,Large,1.0,18.7113089999184,fixation,-1,1,0,19223822.0,19224234.0,412.0
125,choice,choice,26,4.0,Large,1.0,18.7113089999184,Object_Land_Pattern_Large,5,0,1,19224536.0,19224861.0,325.0
125,choice,choice,26,4.0,Large,1.0,18.7113089999184,Object_Land_Solid_Small,3,0,0,19224885.0,19226753.0,1868.0
125,choice,choice,26,4.0,Large,1.0,18.7113089999184,fixation,-1,1,0,19227683.0,19228560.0,877.0
125,choice,choice,26,4.0,Large,1.0,18.7113089999184,Animal_Sea_Pattern_Large,1,0,1,19228859.0,19229381.0,522.0
125,choice,choice,26,4.0,Large,1.0,18.7113089999184,fixation,-1,1,0,19229408.0,19229601.0,193.0
125,choice,choice,26,4.0,Large,1.0,18.7113089999184,Animal_Sea_Pattern_Large,1,0,1,19229856.0,19230852.0,996.0
125,choice,choice,27,4.0,Sea,1.0,21.405234166886657,Animal_Sea_Pattern_Large,1,0,1,19235674.0,19239507.0,3833.0
125,choice,choice,27,4.0,Sea,1.0,21.405234166886657,Animal_Sea_Solid_Small,0,0,1,19241293.0,19241512.0,219.0
125,choice,choice,27,4.0,Sea,1.0,21.405234166886657,Object_Land_Solid_Small,3,0,0,19241939.0,19242107.0,168.0
125,choice,choice,27,4.0,Sea,1.0,21.405234166886657,fixation,-1,1,0,19242118.0,19242314.0,196.0
125,choice,choice,27,4.0,Sea,1.0,21.405234166886657,Animal_Sea_Pattern_Large,1,0,1,19242334.0,19245501.0,3167.0
125,choice,choice,27,4.0,Sea,1.0,21.405234166886657,Animal_Sea_Solid_Small,0,0,1,19247113.0,19247288.0,175.0
125,choice,choice,27,4.0,Sea,1.0,21.405234166886657,fixation,-1,1,0,19247589.0,19248222.0,633.0
125,choice,choice,27,4.0,Sea,1.0,21.405234166886657,Animal_Sea_Pattern_Large,1,0,1,19248259.0,19251372.0,3113.0
125,choice,choice,27,4.0,Sea,1.0,21.405234166886657,Object_Sea_Solid_Small,2,0,1,19252470.0,19252725.0,255.0
125,choice,choice,27,4.0,Sea,1.0,21.405234166886657,Animal_Sea_Pattern_Large,1,0,1,19252980.0,19253563.0,583.0
125,choice,choice,27,4.0,Sea,1.0,21.405234166886657,fixation,-1,1,0,19254576.0,19255668.0,1092.0
125,choice,choice,27,4.0,Sea,1.0,21.405234166886657,Animal_Sea_Pattern_Large,1,0,1,19255697.0,19256095.0,398.0
125,choice,choice,28,4.0,Small,2.0,19.06720058294013,Object_Land_Pattern_Large,5,0,0,19259285.0,19259509.0,224.0
125,choice,choice,28,4.0,Small,2.0,19.06720058294013,fixation,-1,1,0,19259530.0,19259634.0,104.0
125,choice,choice,28,4.0,Small,2.0,19.06720058294013,Animal_Sea_Solid_Small,0,0,1,19259674.0,19260960.0,1286.0
125,choice,choice,28,4.0,Small,2.0,19.06720058294013,Object_Land_Solid_Small,3,0,1,19261485.0,19261869.0,384.0
125,choice,choice,28,4.0,Small,2.0,19.06720058294013,fixation,-1,1,0,19262214.0,19262392.0,178.0
125,choice,choice,28,4.0,Small,2.0,19.06720058294013,Object_Sea_Solid_Small,2,0,1,19262414.0,19262617.0,203.0
125,choice,choice,28,4.0,Small,2.0,19.06720058294013,Object_Land_Solid_Small,3,0,1,19262647.0,19263618.0,971.0
125,choice,choice,28,4.0,Small,2.0,19.06720058294013,fixation,-1,1,0,19265105.0,19265864.0,759.0
125,choice,choice,28,4.0,Small,2.0,19.06720058294013,Animal_Land_Pattern_Large,4,0,0,19266151.0,19266990.0,839.0
125,choice,choice,28,4.0,Small,2.0,19.06720058294013,Animal_Sea_Solid_Small,0,0,1,19267285.0,19267510.0,225.0
125,choice,choice,28,4.0,Small,2.0,19.06720058294013,fixation,-1,1,0,19267522.0,19268681.0,1159.0
125,choice,choice,28,4.0,Small,2.0,19.06720058294013,Animal_Land_Pattern_Large,4,0,0,19269040.0,19270242.0,1202.0
125,choice,choice,28,4.0,Small,2.0,19.06720058294013,Animal_Sea_Pattern_Large,1,0,0,19270525.0,19270681.0,156.0
125,choice,choice,28,4.0,Small,2.0,19.06720058294013,Animal_Sea_Solid_Small,0,0,1,19270906.0,19271809.0,903.0
125,choice,choice,28,4.0,Small,2.0,19.06720058294013,Animal_Sea_Pattern_Large,1,0,0,19272070.0,19272330.0,260.0
125,choice,choice,28,4.0,Small,2.0,19.06720058294013,Object_Sea_Solid_Small,2,0,1,19272616.0,19273872.0,1256.0
125,choice,choice,28,4.0,Small,2.0,19.06720058294013,Object_Land_Pattern_Large,5,0,0,19274654.0,19275091.0,437.0
125,choice,choice,28,4.0,Small,2.0,19.06720058294013,Object_Sea_Solid_Small,2,0,1,19275116.0,19277472.0,2356.0
125,choice,choice,28,4.0,Small,2.0,19.06720058294013,Object_Land_Solid_Small,3,0,1,19278209.0,19278235.0,26.0
125,choice,choice,29,4.0,Land,1.0,2.0342225830536336,Object_Land_Pattern_Large,5,0,1,19281735.0,19282697.0,962.0
125,choice,choice,29,4.0,Land,1.0,2.0342225830536336,fixation,-1,1,0,19282752.0,19283074.0,322.0
125,choice,choice,30,4.0,Object,2.0,22.952045749872923,Animal_Sea_Solid_Small,0,0,0,19286914.0,19287030.0,116.0
125,choice,choice,30,4.0,Object,2.0,22.952045749872923,Object_Land_Pattern_Large,5,0,1,19287072.0,19287372.0,300.0
125,choice,choice,30,4.0,Object,2.0,22.952045749872923,Object_Sea_Solid_Small,2,0,1,19287952.0,19288047.0,95.0
125,choice,choice,30,4.0,Object,2.0,22.952045749872923,Object_Land_Pattern_Large,5,0,1,19288320.0,19288892.0,572.0
125,choice,choice,30,4.0,Object,2.0,22.952045749872923,Object_Sea_Solid_Small,2,0,1,19289432.0,19289586.0,154.0
125,choice,choice,30,4.0,Object,2.0,22.952045749872923,Object_Land_Pattern_Large,5,0,1,19289607.0,19289994.0,387.0
125,choice,choice,30,4.0,Object,2.0,22.952045749872923,Object_Sea_Solid_Small,2,0,1,19290018.0,19290435.0,417.0
125,choice,choice,30,4.0,Object,2.0,22.952045749872923,Object_Land_Solid_Small,3,0,1,19290763.0,19291876.0,1113.0
125,choice,choice,30,4.0,Object,2.0,22.952045749872923,Object_Land_Pattern_Large,5,0,1,19292276.0,19292474.0,198.0
125,choice,choice,30,4.0,Object,2.0,22.952045749872923,Animal_Land_Pattern_Large,4,0,0,19292498.0,19292880.0,382.0
125,choice,choice,30,4.0,Object,2.0,22.952045749872923,Object_Land_Pattern_Large,5,0,1,19293235.0,19293290.0,55.0
125,choice,choice,30,4.0,Object,2.0,22.952045749872923,fixation,-1,1,0,19293300.0,19293771.0,471.0
125,choice,choice,30,4.0,Object,2.0,22.952045749872923,Object_Land_Pattern_Large,5,0,1,19294427.0,19295080.0,653.0
125,choice,choice,30,4.0,Object,2.0,22.952045749872923,Object_Land_Solid_Small,3,0,1,19295130.0,19295515.0,385.0
125,choice,choice,30,4.0,Object,2.0,22.952045749872923,fixation,-1,1,0,19295554.0,19295861.0,307.0
125,choice,choice,30,4.0,Object,2.0,22.952045749872923,Object_Land_Pattern_Large,5,0,1,19296120.0,19297207.0,1087.0
125,choice,choice,30,4.0,Object,2.0,22.952045749872923,Object_Land_Solid_Small,3,0,1,19297558.0,19298669.0,1111.0
125,choice,choice,30,4.0,Object,2.0,22.952045749872923,fixation,-1,1,0,19299028.0,19299743.0,715.0
125,choice,choice,30,4.0,Object,2.0,22.952045749872923,Animal_Land_Pattern_Large,4,0,0,19300255.0,19300516.0,261.0
125,choice,choice,30,4.0,Object,2.0,22.952045749872923,fixation,-1,1,0,19300539.0,19300711.0,172.0
125,choice,choice,30,4.0,Object,2.0,22.952045749872923,Object_Sea_Solid_Small,2,0,1,19301001.0,19301510.0,509.0
125,choice,choice,30,4.0,Object,2.0,22.952045749872923,Object_Land_Pattern_Large,5,0,1,19301804.0,19301901.0,97.0
125,choice,choice,30,4.0,Object,2.0,22.952045749872923,fixation,-1,1,0,19301912.0,19302171.0,259.0
125,choice,choice,30,4.0,Object,2.0,22.952045749872923,Object_Sea_Solid_Small,2,0,1,19302441.0,19302878.0,437.0
125,choice,choice,30,4.0,Object,2.0,22.952045749872923,fixation,-1,1,0,19303160.0,19303787.0,627.0
125,choice,choice,30,4.0,Object,2.0,22.952045749872923,Animal_Sea_Pattern_Large,1,0,0,19303815.0,19305042.0,1227.0
125,choice,choice,30,4.0,Object,2.0,22.952045749872923,Object_Sea_Solid_Small,2,0,1,19305813.0,19305912.0,99.0
125,choice,choice,30,4.0,Object,2.0,22.952045749872923,Animal_Sea_Pattern_Large,1,0,0,19305936.0,19307254.0,1318.0
125,choice,choice,30,4.0,Object,2.0,22.952045749872923,Object_Land_Solid_Small,3,0,1,19307856.0,19308266.0,410.0
125,choice,choice,30,4.0,Object,2.0,22.952045749872923,Object_Land_Pattern_Large,5,0,1,19308571.0,19309266.0,695.0
125,choice,choice,30,4.0,Object,2.0,22.952045749872923,Object_Land_Solid_Small,3,0,1,19309296.0,19309329.0,33.0
125,choice,choice,31,4.0,Animal,1.0,2.4530871661845595,Animal_Sea_Pattern_Large,1,0,1,19312941.0,19313235.0,294.0
125,choice,choice,31,4.0,Animal,1.0,2.4530871661845595,Animal_Land_Pattern_Large,4,0,1,19313267.0,19313868.0,601.0
125,choice,choice,31,4.0,Animal,1.0,2.4530871661845595,fixation,-1,1,0,19314148.0,19315075.0,927.0
125,choice,choice,32,4.0,Pattern,1.0,4.592756083002314,Animal_Sea_Pattern_Large,1,0,1,19318739.0,19319246.0,507.0
125,choice,choice,32,4.0,Pattern,1.0,4.592756083002314,Animal_Land_Pattern_Large,4,0,1,19319313.0,19319746.0,433.0
125,choice,choice,32,4.0,Pattern,1.0,4.592756083002314,Animal_Sea_Pattern_Large,1,0,1,19320043.0,19320662.0,619.0
125,choice,choice,32,4.0,Pattern,1.0,4.592756083002314,Animal_Land_Pattern_Large,4,0,1,19320982.0,19322413.0,1431.0
125,choice,choice,32,4.0,Pattern,1.0,4.592756083002314,fixation,-1,1,0,19322726.0,19323228.0,502.0
125,choice,choice,33,5.0,Animal,1.0,42.69733233307488,Object_Sea_Pattern_Large,0,0,0,19664800.0,19665738.0,938.0
125,choice,choice,33,5.0,Animal,1.0,42.69733233307488,Object_Sea_Solid_Large,1,0,0,19665950.0,19666829.0,879.0
125,choice,choice,33,5.0,Animal,1.0,42.69733233307488,Object_Sea_Pattern_Large,0,0,0,19667326.0,19667624.0,298.0
125,choice,choice,33,5.0,Animal,1.0,42.69733233307488,Object_Sea_Solid_Large,1,0,0,19667642.0,19667956.0,314.0
125,choice,choice,33,5.0,Animal,1.0,42.69733233307488,Animal_Land_Pattern_Small,2,0,1,19668217.0,19668456.0,239.0
125,choice,choice,33,5.0,Animal,1.0,42.69733233307488,Object_Sea_Solid_Large,1,0,0,19668482.0,19668759.0,277.0
125,choice,choice,33,5.0,Animal,1.0,42.69733233307488,fixation,-1,1,0,19668778.0,19670021.0,1243.0
125,choice,choice,33,5.0,Animal,1.0,42.69733233307488,Animal_Land_Pattern_Small,2,0,1,19670524.0,19670607.0,83.0
125,choice,choice,33,5.0,Animal,1.0,42.69733233307488,fixation,-1,1,0,19670621.0,19670795.0,174.0
125,choice,choice,33,5.0,Animal,1.0,42.69733233307488,Object_Sea_Solid_Large,1,0,0,19670821.0,19672825.0,2004.0
125,choice,choice,33,5.0,Animal,1.0,42.69733233307488,Animal_Land_Pattern_Small,2,0,1,19673401.0,19673649.0,248.0
125,choice,choice,33,5.0,Animal,1.0,42.69733233307488,Object_Land_Pattern_Small,3,0,0,19673672.0,19673913.0,241.0
125,choice,choice,33,5.0,Animal,1.0,42.69733233307488,Animal_Land_Pattern_Small,2,0,1,19674194.0,19676022.0,1828.0
125,choice,choice,33,5.0,Animal,1.0,42.69733233307488,Object_Land_Pattern_Small,3,0,0,19677022.0,19679438.0,2416.0
125,choice,choice,33,5.0,Animal,1.0,42.69733233307488,Animal_Sea_Solid_Large,4,0,1,19680167.0,19680489.0,322.0
125,choice,choice,33,5.0,Animal,1.0,42.69733233307488,fixation,-1,1,0,19680793.0,19681053.0,260.0
125,choice,choice,33,5.0,Animal,1.0,42.69733233307488,Object_Land_Pattern_Small,3,0,0,19681381.0,19681784.0,403.0
125,choice,choice,33,5.0,Animal,1.0,42.69733233307488,Animal_Sea_Solid_Large,4,0,1,19682181.0,19683081.0,900.0
125,choice,choice,33,5.0,Animal,1.0,42.69733233307488,Object_Land_Pattern_Small,3,0,0,19683402.0,19683684.0,282.0
125,choice,choice,33,5.0,Animal,1.0,42.69733233307488,Animal_Land_Pattern_Small,2,0,1,19683953.0,19684397.0,444.0
125,choice,choice,33,5.0,Animal,1.0,42.69733233307488,Animal_Sea_Solid_Large,4,0,1,19684422.0,19684627.0,205.0
125,choice,choice,33,5.0,Animal,1.0,42.69733233307488,Animal_Land_Solid_Small,5,0,1,19684901.0,19685669.0,768.0
125,choice,choice,33,5.0,Animal,1.0,42.69733233307488,fixation,-1,1,0,19686183.0,19686438.0,255.0
125,choice,choice,33,5.0,Animal,1.0,42.69733233307488,Animal_Land_Solid_Small,5,0,1,19686713.0,19688114.0,1401.0
125,choice,choice,33,5.0,Animal,1.0,42.69733233307488,Object_Land_Pattern_Small,3,0,0,19688643.0,19689271.0,628.0
125,choice,choice,33,5.0,Animal,1.0,42.69733233307488,Animal_Land_Solid_Small,5,0,1,19689568.0,19695149.0,5581.0
125,choice,choice,33,5.0,Animal,1.0,42.69733233307488,Object_Sea_Pattern_Large,0,0,0,19697067.0,19697267.0,200.0
125,choice,choice,33,5.0,Animal,1.0,42.69733233307488,fixation,-1,1,0,19697528.0,19697757.0,229.0
125,choice,choice,33,5.0,Animal,1.0,42.69733233307488,Object_Sea_Solid_Large,1,0,0,19698039.0,19698291.0,252.0
125,choice,choice,33,5.0,Animal,1.0,42.69733233307488,Animal_Land_Solid_Small,5,0,1,19698570.0,19698848.0,278.0
125,choice,choice,33,5.0,Animal,1.0,42.69733233307488,Object_Sea_Pattern_Large,0,0,0,19699144.0,19699341.0,197.0
125,choice,choice,33,5.0,Animal,1.0,42.69733233307488,fixation,-1,1,0,19699360.0,19699811.0,451.0
125,choice,choice,33,5.0,Animal,1.0,42.69733233307488,Object_Land_Pattern_Small,3,0,0,19700072.0,19700099.0,27.0
125,choice,choice,33,5.0,Animal,1.0,42.69733233307488,Animal_Land_Solid_Small,5,0,1,19700647.0,19701294.0,647.0
125,choice,choice,33,5.0,Animal,1.0,42.69733233307488,fixation,-1,1,0,19701551.0,19702036.0,485.0
125,choice,choice,33,5.0,Animal,1.0,42.69733233307488,Animal_Land_Solid_Small,5,0,1,19702324.0,19702700.0,376.0
125,choice,choice,33,5.0,Animal,1.0,42.69733233307488,Animal_Land_Pattern_Small,2,0,1,19702965.0,19703573.0,608.0
125,choice,choice,33,5.0,Animal,1.0,42.69733233307488,Object_Land_Pattern_Small,3,0,0,19703875.0,19704101.0,226.0
125,choice,choice,33,5.0,Animal,1.0,42.69733233307488,Animal_Land_Pattern_Small,2,0,1,19704379.0,19704511.0,132.0
125,choice,choice,33,5.0,Animal,1.0,42.69733233307488,fixation,-1,1,0,19704528.0,19705043.0,515.0
125,choice,choice,33,5.0,Animal,1.0,42.69733233307488,Animal_Land_Pattern_Small,2,0,1,19705314.0,19705899.0,585.0
125,choice,choice,33,5.0,Animal,1.0,42.69733233307488,Object_Land_Pattern_Small,3,0,0,19705923.0,19706629.0,706.0
125,choice,choice,33,5.0,Animal,1.0,42.69733233307488,fixation,-1,1,0,19706914.0,19707372.0,458.0
125,choice,choice,34,5.0,Object,2.0,6.160835792077705,Object_Sea_Pattern_Large,0,0,1,19710142.0,19711575.0,1433.0
125,choice,choice,34,5.0,Object,2.0,6.160835792077705,Animal_Land_Solid_Small,5,0,0,19711853.0,19712147.0,294.0
125,choice,choice,34,5.0,Object,2.0,6.160835792077705,Object_Sea_Solid_Large,1,0,1,19712422.0,19712518.0,96.0
125,choice,choice,34,5.0,Object,2.0,6.160835792077705,Object_Sea_Pattern_Large,0,0,1,19712545.0,19713436.0,891.0
125,choice,choice,34,5.0,Object,2.0,6.160835792077705,Object_Sea_Solid_Large,1,0,1,19714244.0,19714457.0,213.0
125,choice,choice,34,5.0,Object,2.0,6.160835792077705,Object_Land_Pattern_Small,3,0,1,19714501.0,19714775.0,274.0
125,choice,choice,34,5.0,Object,2.0,6.160835792077705,fixation,-1,1,0,19714794.0,19715088.0,294.0
125,choice,choice,34,5.0,Object,2.0,6.160835792077705,Object_Sea_Solid_Large,1,0,1,19715376.0,19715806.0,430.0
125,choice,choice,34,5.0,Object,2.0,6.160835792077705,fixation,-1,1,0,19715832.0,19716092.0,260.0
125,choice,choice,35,5.0,Large,1.0,22.507979166926816,Object_Sea_Pattern_Large,0,0,1,19719156.0,19720062.0,906.0
125,choice,choice,35,5.0,Large,1.0,22.507979166926816,Object_Sea_Solid_Large,1,0,1,19720105.0,19722394.0,2289.0
125,choice,choice,35,5.0,Large,1.0,22.507979166926816,Animal_Land_Solid_Small,5,0,0,19724066.0,19724207.0,141.0
125,choice,choice,35,5.0,Large,1.0,22.507979166926816,Animal_Sea_Solid_Large,4,0,1,19724237.0,19724897.0,660.0
125,choice,choice,35,5.0,Large,1.0,22.507979166926816,Object_Land_Pattern_Small,3,0,0,19725181.0,19725657.0,476.0
125,choice,choice,35,5.0,Large,1.0,22.507979166926816,fixation,-1,1,0,19725980.0,19726817.0,837.0
125,choice,choice,35,5.0,Large,1.0,22.507979166926816,Object_Land_Pattern_Small,3,0,0,19727438.0,19727879.0,441.0
125,choice,choice,35,5.0,Large,1.0,22.507979166926816,Object_Sea_Solid_Large,1,0,1,19728143.0,19730500.0,2357.0
125,choice,choice,35,5.0,Large,1.0,22.507979166926816,Animal_Sea_Solid_Large,4,0,1,19733404.0,19733983.0,579.0
125,choice,choice,35,5.0,Large,1.0,22.507979166926816,Object_Sea_Solid_Large,1,0,1,19735191.0,19735540.0,349.0
125,choice,choice,35,5.0,Large,1.0,22.507979166926816,Object_Sea_Pattern_Large,0,0,1,19736053.0,19736840.0,787.0
125,choice,choice,35,5.0,Large,1.0,22.507979166926816,Object_Sea_Solid_Large,1,0,1,19737370.0,19737654.0,284.0
125,choice,choice,35,5.0,Large,1.0,22.507979166926816,Object_Sea_Pattern_Large,0,0,1,19737676.0,19737927.0,251.0
125,choice,choice,35,5.0,Large,1.0,22.507979166926816,Object_Sea_Solid_Large,1,0,1,19738225.0,19738443.0,218.0
125,choice,choice,35,5.0,Large,1.0,22.507979166926816,fixation,-1,1,0,19738485.0,19739853.0,1368.0
125,choice,choice,35,5.0,Large,1.0,22.507979166926816,Object_Sea_Solid_Large,1,0,1,19740457.0,19740742.0,285.0
125,choice,choice,35,5.0,Large,1.0,22.507979166926816,Animal_Land_Solid_Small,5,0,0,19740787.0,19741004.0,217.0
125,choice,choice,35,5.0,Large,1.0,22.507979166926816,fixation,-1,1,0,19741017.0,19741400.0,383.0
125,choice,choice,36,5.0,Sea,2.0,27.788370166905224,Object_Sea_Solid_Large,1,0,1,19744976.0,19745886.0,910.0
125,choice,choice,36,5.0,Sea,2.0,27.788370166905224,Animal_Sea_Solid_Large,4,0,1,19745954.0,19746342.0,388.0
125,choice,choice,36,5.0,Sea,2.0,27.788370166905224,Object_Land_Pattern_Small,3,0,0,19746693.0,19746904.0,211.0
125,choice,choice,36,5.0,Sea,2.0,27.788370166905224,Animal_Sea_Solid_Large,4,0,1,19746934.0,19748547.0,1613.0
125,choice,choice,36,5.0,Sea,2.0,27.788370166905224,Object_Sea_Solid_Large,1,0,1,19749256.0,19749370.0,114.0
125,choice,choice,36,5.0,Sea,2.0,27.788370166905224,fixation,-1,1,0,19749391.0,19749543.0,152.0
125,choice,choice,36,5.0,Sea,2.0,27.788370166905224,Object_Land_Pattern_Small,3,0,0,19749862.0,19750865.0,1003.0
125,choice,choice,36,5.0,Sea,2.0,27.788370166905224,Object_Sea_Solid_Large,1,0,1,19751206.0,19752446.0,1240.0
125,choice,choice,36,5.0,Sea,2.0,27.788370166905224,fixation,-1,1,0,19752769.0,19753028.0,259.0
125,choice,choice,36,5.0,Sea,2.0,27.788370166905224,Animal_Sea_Solid_Large,4,0,1,19753349.0,19753447.0,98.0
125,choice,choice,36,5.0,Sea,2.0,27.788370166905224,Animal_Land_Pattern_Small,2,0,0,19754836.0,19754855.0,19.0
125,choice,choice,36,5.0,Sea,2.0,27.788370166905224,Animal_Sea_Solid_Large,4,0,1,19754876.0,19756299.0,1423.0
125,choice,choice,36,5.0,Sea,2.0,27.788370166905224,Animal_Land_Pattern_Small,2,0,0,19757639.0,19758701.0,1062.0
125,choice,choice,36,5.0,Sea,2.0,27.788370166905224,Object_Sea_Solid_Large,1,0,1,19759414.0,19765555.0,6141.0
125,choice,choice,36,5.0,Sea,2.0,27.788370166905224,Animal_Sea_Solid_Large,4,0,1,19767229.0,19768325.0,1096.0
125,choice,choice,36,5.0,Sea,2.0,27.788370166905224,Object_Sea_Solid_Large,1,0,1,19768612.0,19771760.0,3148.0
125,choice,choice,36,5.0,Sea,2.0,27.788370166905224,fixation,-1,1,0,19772396.0,19772735.0,339.0
125,choice,choice,37,5.0,Solid,2.0,16.20169466594234,Object_Sea_Pattern_Large,0,0,0,19776115.0,19777221.0,1106.0
125,choice,choice,37,5.0,Solid,2.0,16.20169466594234,Object_Sea_Solid_Large,1,0,1,19777502.0,19778467.0,965.0
125,choice,choice,37,5.0,Solid,2.0,16.20169466594234,Animal_Land_Pattern_Small,2,0,0,19779073.0,19779315.0,242.0
125,choice,choice,37,5.0,Solid,2.0,16.20169466594234,Object_Sea_Solid_Large,1,0,1,19779332.0,19779834.0,502.0
125,choice,choice,37,5.0,Solid,2.0,16.20169466594234,Animal_Land_Pattern_Small,2,0,0,19780127.0,19780288.0,161.0
125,choice,choice,37,5.0,Solid,2.0,16.20169466594234,Object_Land_Pattern_Small,3,0,0,19780314.0,19782156.0,1842.0
125,choice,choice,37,5.0,Solid,2.0,16.20169466594234,Animal_Land_Solid_Small,5,0,1,19783914.0,19784698.0,784.0
125,choice,choice,37,5.0,Solid,2.0,16.20169466594234,fixation,-1,1,0,19785002.0,19786341.0,1339.0
125,choice,choice,37,5.0,Solid,2.0,16.20169466594234,Object_Land_Pattern_Small,3,0,0,19786690.0,19787951.0,1261.0
125,choice,choice,37,5.0,Solid,2.0,16.20169466594234,Animal_Land_Pattern_Small,2,0,0,19788856.0,19789163.0,307.0
125,choice,choice,37,5.0,Solid,2.0,16.20169466594234,Object_Land_Pattern_Small,3,0,0,19789187.0,19789754.0,567.0
125,choice,choice,37,5.0,Solid,2.0,16.20169466594234,Animal_Land_Pattern_Small,2,0,0,19790097.0,19790287.0,190.0
125,choice,choice,37,5.0,Solid,2.0,16.20169466594234,Object_Land_Pattern_Small,3,0,0,19790304.0,19791390.0,1086.0
125,choice,choice,38,5.0,Pattern,1.0,13.496241957880557,Animal_Land_Pattern_Small,2,0,1,19795970.0,19796542.0,572.0
125,choice,choice,38,5.0,Pattern,1.0,13.496241957880557,Animal_Land_Solid_Small,5,0,0,19797307.0,19797747.0,440.0
125,choice,choice,38,5.0,Pattern,1.0,13.496241957880557,fixation,-1,1,0,19797773.0,19798598.0,825.0
125,choice,choice,38,5.0,Pattern,1.0,13.496241957880557,Animal_Land_Solid_Small,5,0,0,19799210.0,19799991.0,781.0
125,choice,choice,38,5.0,Pattern,1.0,13.496241957880557,Object_Sea_Pattern_Large,0,0,1,19800243.0,19800503.0,260.0
125,choice,choice,38,5.0,Pattern,1.0,13.496241957880557,Object_Sea_Solid_Large,1,0,0,19800524.0,19800745.0,221.0
125,choice,choice,38,5.0,Pattern,1.0,13.496241957880557,fixation,-1,1,0,19800759.0,19801070.0,311.0
125,choice,choice,38,5.0,Pattern,1.0,13.496241957880557,Object_Sea_Solid_Large,1,0,0,19801371.0,19803191.0,1820.0
125,choice,choice,38,5.0,Pattern,1.0,13.496241957880557,fixation,-1,1,0,19804524.0,19805568.0,1044.0
125,choice,choice,38,5.0,Pattern,1.0,13.496241957880557,Object_Sea_Pattern_Large,0,0,1,19806160.0,19806825.0,665.0
125,choice,choice,38,5.0,Pattern,1.0,13.496241957880557,Object_Sea_Solid_Large,1,0,0,19807086.0,19807388.0,302.0
125,choice,choice,38,5.0,Pattern,1.0,13.496241957880557,Animal_Land_Pattern_Small,2,0,1,19807682.0,19807733.0,51.0
125,choice,choice,38,5.0,Pattern,1.0,13.496241957880557,Animal_Sea_Solid_Large,4,0,0,19807844.0,19808442.0,598.0
125,choice,choice,38,5.0,Pattern,1.0,13.496241957880557,fixation,-1,1,0,19808486.0,19808798.0,312.0
125,choice,choice,39,5.0,Land,1.0,38.3814496670384,Animal_Land_Pattern_Small,2,0,1,19811916.0,19812125.0,209.0
125,choice,choice,39,5.0,Land,1.0,38.3814496670384,Object_Sea_Pattern_Large,0,0,0,19812147.0,19812499.0,352.0
125,choice,choice,39,5.0,Land,1.0,38.3814496670384,Object_Land_Pattern_Small,3,0,1,19812533.0,19812725.0,192.0
125,choice,choice,39,5.0,Land,1.0,38.3814496670384,Animal_Land_Solid_Small,5,0,1,19813089.0,19813773.0,684.0
125,choice,choice,39,5.0,Land,1.0,38.3814496670384,Animal_Sea_Solid_Large,4,0,0,19814067.0,19814233.0,166.0
125,choice,choice,39,5.0,Land,1.0,38.3814496670384,fixation,-1,1,0,19814249.0,19814518.0,269.0
125,choice,choice,39,5.0,Land,1.0,38.3814496670384,Object_Land_Pattern_Small,3,0,1,19814908.0,19817687.0,2779.0
125,choice,choice,39,5.0,Land,1.0,38.3814496670384,fixation,-1,1,0,19820033.0,19820267.0,234.0
125,choice,choice,39,5.0,Land,1.0,38.3814496670384,Object_Sea_Solid_Large,1,0,0,19820511.0,19820677.0,166.0
125,choice,choice,39,5.0,Land,1.0,38.3814496670384,fixation,-1,1,0,19820694.0,19820962.0,268.0
125,choice,choice,39,5.0,Land,1.0,38.3814496670384,Object_Land_Pattern_Small,3,0,1,19821268.0,19821604.0,336.0
125,choice,choice,39,5.0,Land,1.0,38.3814496670384,Animal_Land_Pattern_Small,2,0,1,19821902.0,19822097.0,195.0
125,choice,choice,39,5.0,Land,1.0,38.3814496670384,Object_Land_Pattern_Small,3,0,1,19822384.0,19823408.0,1024.0
125,choice,choice,39,5.0,Land,1.0,38.3814496670384,Animal_Sea_Solid_Large,4,0,0,19823814.0,19824010.0,196.0
125,choice,choice,39,5.0,Land,1.0,38.3814496670384,Animal_Land_Solid_Small,5,0,1,19824290.0,19825729.0,1439.0
125,choice,choice,39,5.0,Land,1.0,38.3814496670384,Object_Sea_Pattern_Large,0,0,0,19826270.0,19827200.0,930.0
125,choice,choice,39,5.0,Land,1.0,38.3814496670384,Animal_Land_Pattern_Small,2,0,1,19827815.0,19827934.0,119.0
125,choice,choice,39,5.0,Land,1.0,38.3814496670384,fixation,-1,1,0,19827945.0,19828562.0,617.0
125,choice,choice,39,5.0,Land,1.0,38.3814496670384,Object_Sea_Pattern_Large,0,0,0,19828827.0,19830836.0,2009.0
125,choice,choice,39,5.0,Land,1.0,38.3814496670384,Animal_Land_Solid_Small,5,0,1,19831583.0,19831909.0,326.0
125,choice,choice,39,5.0,Land,1.0,38.3814496670384,Object_Sea_Pattern_Large,0,0,0,19831928.0,19832575.0,647.0
125,choice,choice,39,5.0,Land,1.0,38.3814496670384,Object_Sea_Solid_Large,1,0,0,19832839.0,19833869.0,1030.0
125,choice,choice,39,5.0,Land,1.0,38.3814496670384,fixation,-1,1,0,19834420.0,19834777.0,357.0
125,choice,choice,39,5.0,Land,1.0,38.3814496670384,Animal_Land_Pattern_Small,2,0,1,19834821.0,19836937.0,2116.0
125,choice,choice,39,5.0,Land,1.0,38.3814496670384,Object_Land_Pattern_Small,3,0,1,19837942.0,19838418.0,476.0
125,choice,choice,39,5.0,Land,1.0,38.3814496670384,Animal_Land_Pattern_Small,2,0,1,19838444.0,19838597.0,153.0
125,choice,choice,39,5.0,Land,1.0,38.3814496670384,Animal_Sea_Solid_Large,4,0,0,19838643.0,19839368.0,725.0
125,choice,choice,39,5.0,Land,1.0,38.3814496670384,Object_Land_Pattern_Small,3,0,1,19839725.0,19840247.0,522.0
125,choice,choice,39,5.0,Land,1.0,38.3814496670384,Animal_Sea_Solid_Large,4,0,0,19840259.0,19840478.0,219.0
125,choice,choice,39,5.0,Land,1.0,38.3814496670384,Object_Land_Pattern_Small,3,0,1,19840832.0,19841466.0,634.0
125,choice,choice,39,5.0,Land,1.0,38.3814496670384,Animal_Sea_Solid_Large,4,0,0,19841490.0,19842954.0,1464.0
125,choice,choice,39,5.0,Land,1.0,38.3814496670384,Animal_Land_Solid_Small,5,0,1,19843588.0,19845760.0,2172.0
125,choice,choice,39,5.0,Land,1.0,38.3814496670384,Animal_Land_Pattern_Small,2,0,1,19846295.0,19846629.0,334.0
125,choice,choice,39,5.0,Land,1.0,38.3814496670384,fixation,-1,1,0,19846655.0,19846895.0,240.0
125,choice,choice,39,5.0,Land,1.0,38.3814496670384,Animal_Land_Pattern_Small,2,0,1,19847180.0,19847625.0,445.0
125,choice,choice,39,5.0,Land,1.0,38.3814496670384,Object_Land_Pattern_Small,3,0,1,19848590.0,19848726.0,136.0
125,choice,choice,39,5.0,Land,1.0,38.3814496670384,Animal_Land_Pattern_Small,2,0,1,19848767.0,19848805.0,38.0
125,choice,choice,39,5.0,Land,1.0,38.3814496670384,Animal_Land_Solid_Small,5,0,1,19849184.0,19849638.0,454.0
125,choice,choice,39,5.0,Land,1.0,38.3814496670384,Animal_Sea_Solid_Large,4,0,0,19849660.0,19850232.0,572.0
125,choice,choice,40,5.0,Small,2.0,8.537806290900335,Animal_Land_Pattern_Small,2,0,1,19853297.0,19854670.0,1373.0
125,choice,choice,40,5.0,Small,2.0,8.537806290900335,Object_Sea_Solid_Large,1,0,0,19855255.0,19855405.0,150.0
125,choice,choice,40,5.0,Small,2.0,8.537806290900335,Animal_Land_Solid_Small,5,0,1,19855451.0,19856244.0,793.0
125,choice,choice,40,5.0,Small,2.0,8.537806290900335,fixation,-1,1,0,19856540.0,19856911.0,371.0
125,choice,choice,40,5.0,Small,2.0,8.537806290900335,Animal_Land_Pattern_Small,2,0,1,19856949.0,19857689.0,740.0
125,choice,choice,40,5.0,Small,2.0,8.537806290900335,Object_Land_Pattern_Small,3,0,1,19858039.0,19858675.0,636.0
125,choice,choice,40,5.0,Small,2.0,8.537806290900335,fixation,-1,1,0,19858991.0,19859412.0,421.0
125,choice,choice,40,5.0,Small,2.0,8.537806290900335,Animal_Land_Pattern_Small,2,0,1,19859739.0,19860070.0,331.0
125,choice,choice,40,5.0,Small,2.0,8.537806290900335,Animal_Land_Solid_Small,5,0,1,19861081.0,19861569.0,488.0
125,choice,choice,41,6.0,Land,2.0,27.261609832989052,Object_Sea_Solid_Large,0,0,0,20265868.0,20266878.0,1010.0
125,choice,choice,41,6.0,Land,2.0,27.261609832989052,Animal_Land_Pattern_Small,1,0,1,20267203.0,20267941.0,738.0
125,choice,choice,41,6.0,Land,2.0,27.261609832989052,Object_Land_Pattern_Small,2,0,1,20269281.0,20269533.0,252.0
125,choice,choice,41,6.0,Land,2.0,27.261609832989052,Animal_Land_Pattern_Small,1,0,1,20269846.0,20270505.0,659.0
125,choice,choice,41,6.0,Land,2.0,27.261609832989052,fixation,-1,1,0,20270838.0,20271060.0,222.0
125,choice,choice,41,6.0,Land,2.0,27.261609832989052,Object_Land_Pattern_Small,2,0,1,20271357.0,20272890.0,1533.0
125,choice,choice,41,6.0,Land,2.0,27.261609832989052,Animal_Land_Pattern_Small,1,0,1,20274223.0,20274948.0,725.0
125,choice,choice,41,6.0,Land,2.0,27.261609832989052,Object_Land_Pattern_Small,2,0,1,20274999.0,20276617.0,1618.0
125,choice,choice,41,6.0,Land,2.0,27.261609832989052,fixation,-1,1,0,20277538.0,20278177.0,639.0
125,choice,choice,41,6.0,Land,2.0,27.261609832989052,Object_Land_Pattern_Small,2,0,1,20278432.0,20278630.0,198.0
125,choice,choice,41,6.0,Land,2.0,27.261609832989052,Animal_Land_Pattern_Small,1,0,1,20278668.0,20279379.0,711.0
125,choice,choice,41,6.0,Land,2.0,27.261609832989052,fixation,-1,1,0,20279774.0,20280016.0,242.0
125,choice,choice,41,6.0,Land,2.0,27.261609832989052,Object_Land_Pattern_Small,2,0,1,20280034.0,20280680.0,646.0
125,choice,choice,41,6.0,Land,2.0,27.261609832989052,Animal_Land_Pattern_Small,1,0,1,20281202.0,20281396.0,194.0
125,choice,choice,41,6.0,Land,2.0,27.261609832989052,Object_Sea_Solid_Large,0,0,0,20281413.0,20281593.0,180.0
125,choice,choice,41,6.0,Land,2.0,27.261609832989052,Animal_Land_Solid_Small,3,0,1,20281852.0,20282431.0,579.0
125,choice,choice,41,6.0,Land,2.0,27.261609832989052,Object_Sea_Solid_Large,0,0,0,20282691.0,20283005.0,314.0
125,choice,choice,41,6.0,Land,2.0,27.261609832989052,Animal_Sea_Solid_Large,4,0,0,20283297.0,20283549.0,252.0
125,choice,choice,41,6.0,Land,2.0,27.261609832989052,Animal_Land_Solid_Small,3,0,1,20283573.0,20284429.0,856.0
125,choice,choice,41,6.0,Land,2.0,27.261609832989052,Animal_Sea_Solid_Large,4,0,0,20284997.0,20285575.0,578.0
125,choice,choice,41,6.0,Land,2.0,27.261609832989052,fixation,-1,1,0,20285611.0,20285780.0,169.0
125,choice,choice,41,6.0,Land,2.0,27.261609832989052,Object_Land_Pattern_Small,2,0,1,20286097.0,20286213.0,116.0
125,choice,choice,41,6.0,Land,2.0,27.261609832989052,fixation,-1,1,0,20286221.0,20286701.0,480.0
125,choice,choice,41,6.0,Land,2.0,27.261609832989052,Object_Land_Pattern_Small,2,0,1,20287011.0,20287079.0,68.0
125,choice,choice,41,6.0,Land,2.0,27.261609832989052,Animal_Land_Pattern_Small,1,0,1,20287198.0,20287420.0,222.0
125,choice,choice,41,6.0,Land,2.0,27.261609832989052,Animal_Sea_Solid_Large,4,0,0,20288134.0,20288638.0,504.0
125,choice,choice,41,6.0,Land,2.0,27.261609832989052,Object_Land_Pattern_Small,2,0,1,20288660.0,20288800.0,140.0
125,choice,choice,41,6.0,Land,2.0,27.261609832989052,fixation,-1,1,0,20289074.0,20290612.0,1538.0
125,choice,choice,41,6.0,Land,2.0,27.261609832989052,Animal_Land_Solid_Small,3,0,1,20290878.0,20291118.0,240.0
125,choice,choice,41,6.0,Land,2.0,27.261609832989052,fixation,-1,1,0,20291133.0,20291337.0,204.0
125,choice,choice,41,6.0,Land,2.0,27.261609832989052,Animal_Land_Pattern_Small,1,0,1,20291626.0,20291830.0,204.0
125,choice,choice,41,6.0,Land,2.0,27.261609832989052,Animal_Sea_Solid_Large,4,0,0,20291855.0,20292207.0,352.0
125,choice,choice,42,6.0,Large,1.0,32.793436917010695,Object_Sea_Pattern_Large,5,0,1,20295367.0,20296077.0,710.0
125,choice,choice,42,6.0,Large,1.0,32.793436917010695,Animal_Land_Solid_Small,3,0,0,20296127.0,20296727.0,600.0
125,choice,choice,42,6.0,Large,1.0,32.793436917010695,Object_Sea_Pattern_Large,5,0,1,20297018.0,20297478.0,460.0
125,choice,choice,42,6.0,Large,1.0,32.793436917010695,Object_Sea_Solid_Large,0,0,1,20297738.0,20298672.0,934.0
125,choice,choice,42,6.0,Large,1.0,32.793436917010695,Animal_Land_Pattern_Small,1,0,0,20299691.0,20299813.0,122.0
125,choice,choice,42,6.0,Large,1.0,32.793436917010695,Object_Sea_Solid_Large,0,0,1,20302171.0,20302518.0,347.0
125,choice,choice,42,6.0,Large,1.0,32.793436917010695,Object_Sea_Pattern_Large,5,0,1,20302536.0,20302847.0,311.0
125,choice,choice,42,6.0,Large,1.0,32.793436917010695,Object_Sea_Solid_Large,0,0,1,20303101.0,20303307.0,206.0
125,choice,choice,42,6.0,Large,1.0,32.793436917010695,Animal_Land_Solid_Small,3,0,0,20303595.0,20304613.0,1018.0
125,choice,choice,42,6.0,Large,1.0,32.793436917010695,Object_Sea_Pattern_Large,5,0,1,20305208.0,20305481.0,273.0
125,choice,choice,42,6.0,Large,1.0,32.793436917010695,Object_Sea_Solid_Large,0,0,1,20305732.0,20306111.0,379.0
125,choice,choice,42,6.0,Large,1.0,32.793436917010695,Object_Sea_Pattern_Large,5,0,1,20306134.0,20306439.0,305.0
125,choice,choice,42,6.0,Large,1.0,32.793436917010695,Object_Sea_Solid_Large,0,0,1,20306740.0,20307075.0,335.0
125,choice,choice,42,6.0,Large,1.0,32.793436917010695,Animal_Land_Pattern_Small,1,0,0,20307419.0,20307646.0,227.0
125,choice,choice,42,6.0,Large,1.0,32.793436917010695,Animal_Land_Solid_Small,3,0,0,20308364.0,20309381.0,1017.0
125,choice,choice,42,6.0,Large,1.0,32.793436917010695,Object_Sea_Pattern_Large,5,0,1,20309614.0,20310282.0,668.0
125,choice,choice,42,6.0,Large,1.0,32.793436917010695,Object_Sea_Solid_Large,0,0,1,20310570.0,20311292.0,722.0
125,choice,choice,42,6.0,Large,1.0,32.793436917010695,Object_Sea_Pattern_Large,5,0,1,20311558.0,20311610.0,52.0
125,choice,choice,42,6.0,Large,1.0,32.793436917010695,Object_Sea_Solid_Large,0,0,1,20311891.0,20312095.0,204.0
125,choice,choice,42,6.0,Large,1.0,32.793436917010695,Object_Land_Pattern_Small,2,0,0,20313484.0,20313614.0,130.0
125,choice,choice,42,6.0,Large,1.0,32.793436917010695,Animal_Land_Pattern_Small,1,0,0,20313648.0,20314512.0,864.0
125,choice,choice,42,6.0,Large,1.0,32.793436917010695,Object_Sea_Solid_Large,0,0,1,20315072.0,20315307.0,235.0
125,choice,choice,42,6.0,Large,1.0,32.793436917010695,Object_Sea_Pattern_Large,5,0,1,20315328.0,20315642.0,314.0
125,choice,choice,42,6.0,Large,1.0,32.793436917010695,Animal_Land_Solid_Small,3,0,0,20315669.0,20315947.0,278.0
125,choice,choice,42,6.0,Large,1.0,32.793436917010695,Animal_Sea_Solid_Large,4,0,1,20316318.0,20316443.0,125.0
125,choice,choice,42,6.0,Large,1.0,32.793436917010695,Object_Sea_Solid_Large,0,0,1,20316468.0,20316745.0,277.0
125,choice,choice,42,6.0,Large,1.0,32.793436917010695,Object_Sea_Pattern_Large,5,0,1,20316760.0,20318130.0,1370.0
125,choice,choice,42,6.0,Large,1.0,32.793436917010695,Object_Sea_Solid_Large,0,0,1,20318701.0,20319059.0,358.0
125,choice,choice,42,6.0,Large,1.0,32.793436917010695,Object_Sea_Pattern_Large,5,0,1,20319400.0,20320016.0,616.0
125,choice,choice,42,6.0,Large,1.0,32.793436917010695,Object_Sea_Solid_Large,0,0,1,20320306.0,20322652.0,2346.0
125,choice,choice,42,6.0,Large,1.0,32.793436917010695,Animal_Land_Solid_Small,3,0,0,20324116.0,20324823.0,707.0
125,choice,choice,42,6.0,Large,1.0,32.793436917010695,Object_Sea_Solid_Large,0,0,1,20324856.0,20325850.0,994.0
125,choice,choice,42,6.0,Large,1.0,32.793436917010695,Animal_Land_Pattern_Small,1,0,0,20326277.0,20326567.0,290.0
125,choice,choice,42,6.0,Large,1.0,32.793436917010695,Object_Sea_Solid_Large,0,0,1,20326630.0,20327885.0,1255.0
125,choice,choice,43,6.0,Sea,1.0,17.719269207911566,Object_Sea_Pattern_Large,5,0,1,20331763.0,20334264.0,2501.0
125,choice,choice,43,6.0,Sea,1.0,17.719269207911566,Object_Sea_Solid_Large,0,0,1,20335065.0,20336840.0,1775.0
125,choice,choice,43,6.0,Sea,1.0,17.719269207911566,fixation,-1,1,0,20337410.0,20337664.0,254.0
125,choice,choice,43,6.0,Sea,1.0,17.719269207911566,Animal_Land_Pattern_Small,1,0,0,20337981.0,20338229.0,248.0
125,choice,choice,43,6.0,Sea,1.0,17.719269207911566,Object_Land_Pattern_Small,2,0,0,20338266.0,20338556.0,290.0
125,choice,choice,43,6.0,Sea,1.0,17.719269207911566,Animal_Land_Pattern_Small,1,0,0,20338580.0,20338861.0,281.0
125,choice,choice,43,6.0,Sea,1.0,17.719269207911566,Object_Land_Pattern_Small,2,0,0,20338878.0,20339120.0,242.0
125,choice,choice,43,6.0,Sea,1.0,17.719269207911566,Animal_Sea_Solid_Large,4,0,1,20339228.0,20339397.0,169.0
125,choice,choice,43,6.0,Sea,1.0,17.719269207911566,Object_Land_Pattern_Small,2,0,0,20339429.0,20339701.0,272.0
125,choice,choice,43,6.0,Sea,1.0,17.719269207911566,Animal_Sea_Solid_Large,4,0,1,20339732.0,20340301.0,569.0
125,choice,choice,43,6.0,Sea,1.0,17.719269207911566,fixation,-1,1,0,20340629.0,20340792.0,163.0
125,choice,choice,43,6.0,Sea,1.0,17.719269207911566,Animal_Sea_Solid_Large,4,0,1,20341213.0,20342114.0,901.0
125,choice,choice,43,6.0,Sea,1.0,17.719269207911566,fixation,-1,1,0,20342172.0,20342999.0,827.0
125,choice,choice,43,6.0,Sea,1.0,17.719269207911566,Object_Land_Pattern_Small,2,0,0,20343303.0,20343570.0,267.0
125,choice,choice,43,6.0,Sea,1.0,17.719269207911566,fixation,-1,1,0,20343578.0,20343825.0,247.0
125,choice,choice,43,6.0,Sea,1.0,17.719269207911566,Animal_Sea_Solid_Large,4,0,1,20343853.0,20345545.0,1692.0
125,choice,choice,43,6.0,Sea,1.0,17.719269207911566,Object_Sea_Solid_Large,0,0,1,20345858.0,20347297.0,1439.0
125,choice,choice,43,6.0,Sea,1.0,17.719269207911566,fixation,-1,1,0,20347625.0,20348026.0,401.0
125,choice,choice,43,6.0,Sea,1.0,17.719269207911566,Object_Land_Pattern_Small,2,0,0,20348035.0,20348473.0,438.0
125,choice,choice,43,6.0,Sea,1.0,17.719269207911566,Object_Sea_Solid_Large,0,0,1,20348741.0,20348961.0,220.0
125,choice,choice,44,6.0,Animal,2.0,11.008105541812256,Animal_Land_Solid_Small,3,0,1,20352318.0,20354208.0,1890.0
125,choice,choice,44,6.0,Animal,2.0,11.008105541812256,Animal_Sea_Solid_Large,4,0,1,20354806.0,20355614.0,808.0
125,choice,choice,44,6.0,Animal,2.0,11.008105541812256,fixation,-1,1,0,20355956.0,20356440.0,484.0
125,choice,choice,44,6.0,Animal,2.0,11.008105541812256,Object_Sea_Solid_Large,0,0,0,20356768.0,20356937.0,169.0
125,choice,choice,44,6.0,Animal,2.0,11.008105541812256,Animal_Sea_Solid_Large,4,0,1,20356968.0,20357696.0,728.0
125,choice,choice,44,6.0,Animal,2.0,11.008105541812256,Animal_Land_Pattern_Small,1,0,1,20359153.0,20359199.0,46.0
125,choice,choice,44,6.0,Animal,2.0,11.008105541812256,Object_Land_Pattern_Small,2,0,0,20359468.0,20359497.0,29.0
125,choice,choice,44,6.0,Animal,2.0,11.008105541812256,Animal_Sea_Solid_Large,4,0,1,20359520.0,20359686.0,166.0
125,choice,choice,44,6.0,Animal,2.0,11.008105541812256,Animal_Land_Pattern_Small,1,0,1,20360385.0,20362017.0,1632.0
125,choice,choice,44,6.0,Animal,2.0,11.008105541812256,Object_Land_Pattern_Small,2,0,0,20362713.0,20363053.0,340.0
125,choice,choice,44,6.0,Animal,2.0,11.008105541812256,Animal_Land_Pattern_Small,1,0,1,20363079.0,20363283.0,204.0
125,choice,choice,45,6.0,Solid,2.0,24.554261124925688,Object_Sea_Pattern_Large,5,0,0,20366084.0,20367176.0,1092.0
125,choice,choice,45,6.0,Solid,2.0,24.554261124925688,Object_Land_Pattern_Small,2,0,0,20367559.0,20368368.0,809.0
125,choice,choice,45,6.0,Solid,2.0,24.554261124925688,Animal_Sea_Solid_Large,4,0,1,20368383.0,20368490.0,107.0
125,choice,choice,45,6.0,Solid,2.0,24.554261124925688,Animal_Land_Solid_Small,3,0,1,20368527.0,20369339.0,812.0
125,choice,choice,45,6.0,Solid,2.0,24.554261124925688,fixation,-1,1,0,20369669.0,20370011.0,342.0
125,choice,choice,45,6.0,Solid,2.0,24.554261124925688,Object_Sea_Solid_Large,0,0,1,20370035.0,20370319.0,284.0
125,choice,choice,45,6.0,Solid,2.0,24.554261124925688,Object_Sea_Pattern_Large,5,0,0,20370617.0,20370696.0,79.0
125,choice,choice,45,6.0,Solid,2.0,24.554261124925688,Animal_Land_Pattern_Small,1,0,0,20370739.0,20371510.0,771.0
125,choice,choice,45,6.0,Solid,2.0,24.554261124925688,Object_Land_Pattern_Small,2,0,0,20371571.0,20371828.0,257.0
125,choice,choice,45,6.0,Solid,2.0,24.554261124925688,Object_Sea_Pattern_Large,5,0,0,20372183.0,20372460.0,277.0
125,choice,choice,45,6.0,Solid,2.0,24.554261124925688,Object_Sea_Solid_Large,0,0,1,20372485.0,20375434.0,2949.0
125,choice,choice,45,6.0,Solid,2.0,24.554261124925688,Object_Land_Pattern_Small,2,0,0,20376903.0,20377278.0,375.0
125,choice,choice,45,6.0,Solid,2.0,24.554261124925688,fixation,-1,1,0,20377413.0,20377777.0,364.0
125,choice,choice,45,6.0,Solid,2.0,24.554261124925688,Object_Land_Pattern_Small,2,0,0,20378124.0,20378425.0,301.0
125,choice,choice,45,6.0,Solid,2.0,24.554261124925688,Animal_Land_Pattern_Small,1,0,0,20379142.0,20380028.0,886.0
125,choice,choice,45,6.0,Solid,2.0,24.554261124925688,Object_Land_Pattern_Small,2,0,0,20380372.0,20380578.0,206.0
125,choice,choice,45,6.0,Solid,2.0,24.554261124925688,Object_Sea_Solid_Large,0,0,1,20380859.0,20381549.0,690.0
125,choice,choice,45,6.0,Solid,2.0,24.554261124925688,Animal_Land_Pattern_Small,1,0,0,20381837.0,20382197.0,360.0
125,choice,choice,45,6.0,Solid,2.0,24.554261124925688,Object_Sea_Solid_Large,0,0,1,20382206.0,20386410.0,4204.0
125,choice,choice,45,6.0,Solid,2.0,24.554261124925688,Object_Sea_Pattern_Large,5,0,0,20387920.0,20388330.0,410.0
125,choice,choice,45,6.0,Solid,2.0,24.554261124925688,fixation,-1,1,0,20388343.0,20389601.0,1258.0
125,choice,choice,45,6.0,Solid,2.0,24.554261124925688,Object_Sea_Solid_Large,0,0,1,20389640.0,20390136.0,496.0
125,choice,choice,46,6.0,Pattern,2.0,14.637280416907744,fixation,-1,1,0,20393517.0,20393779.0,262.0
125,choice,choice,46,6.0,Pattern,2.0,14.637280416907744,Object_Land_Pattern_Small,2,0,1,20394361.0,20394638.0,277.0
125,choice,choice,46,6.0,Pattern,2.0,14.637280416907744,Animal_Land_Pattern_Small,1,0,1,20394660.0,20398199.0,3539.0
125,choice,choice,46,6.0,Pattern,2.0,14.637280416907744,fixation,-1,1,0,20400562.0,20400958.0,396.0
125,choice,choice,46,6.0,Pattern,2.0,14.637280416907744,Object_Land_Pattern_Small,2,0,1,20400979.0,20401200.0,221.0
125,choice,choice,46,6.0,Pattern,2.0,14.637280416907744,Animal_Land_Pattern_Small,1,0,1,20401626.0,20402664.0,1038.0
125,choice,choice,46,6.0,Pattern,2.0,14.637280416907744,Animal_Sea_Solid_Large,4,0,0,20403442.0,20403847.0,405.0
125,choice,choice,46,6.0,Pattern,2.0,14.637280416907744,Animal_Land_Solid_Small,3,0,0,20403917.0,20404399.0,482.0
125,choice,choice,46,6.0,Pattern,2.0,14.637280416907744,Object_Sea_Pattern_Large,5,0,1,20404422.0,20404919.0,497.0
125,choice,choice,46,6.0,Pattern,2.0,14.637280416907744,Object_Sea_Solid_Large,0,0,0,20405212.0,20406280.0,1068.0
125,choice,choice,46,6.0,Pattern,2.0,14.637280416907744,Animal_Sea_Solid_Large,4,0,0,20406688.0,20406929.0,241.0
125,choice,choice,46,6.0,Pattern,2.0,14.637280416907744,Animal_Land_Pattern_Small,1,0,1,20407247.0,20407363.0,116.0
125,choice,choice,46,6.0,Pattern,2.0,14.637280416907744,Object_Land_Pattern_Small,2,0,1,20407441.0,20408077.0,636.0
125,choice,choice,47,6.0,Object,2.0,25.168902290984988,Object_Sea_Solid_Large,0,0,1,20411254.0,20412419.0,1165.0
125,choice,choice,47,6.0,Object,2.0,25.168902290984988,Object_Sea_Pattern_Large,5,0,1,20412467.0,20412990.0,523.0
125,choice,choice,47,6.0,Object,2.0,25.168902290984988,Animal_Land_Solid_Small,3,0,0,20413335.0,20413822.0,487.0
125,choice,choice,47,6.0,Object,2.0,25.168902290984988,Object_Sea_Pattern_Large,5,0,1,20413852.0,20415066.0,1214.0
125,choice,choice,47,6.0,Object,2.0,25.168902290984988,Object_Sea_Solid_Large,0,0,1,20415385.0,20415905.0,520.0
125,choice,choice,47,6.0,Object,2.0,25.168902290984988,Animal_Land_Pattern_Small,1,0,0,20416233.0,20416381.0,148.0
125,choice,choice,47,6.0,Object,2.0,25.168902290984988,Object_Land_Pattern_Small,2,0,1,20416473.0,20416774.0,301.0
125,choice,choice,47,6.0,Object,2.0,25.168902290984988,Animal_Land_Pattern_Small,1,0,0,20416816.0,20417151.0,335.0
125,choice,choice,47,6.0,Object,2.0,25.168902290984988,Object_Sea_Solid_Large,0,0,1,20417172.0,20417705.0,533.0
125,choice,choice,47,6.0,Object,2.0,25.168902290984988,Object_Sea_Pattern_Large,5,0,1,20417971.0,20418903.0,932.0
125,choice,choice,47,6.0,Object,2.0,25.168902290984988,Object_Sea_Solid_Large,0,0,1,20419163.0,20420940.0,1777.0
125,choice,choice,47,6.0,Object,2.0,25.168902290984988,Animal_Land_Pattern_Small,1,0,0,20421607.0,20422154.0,547.0
125,choice,choice,47,6.0,Object,2.0,25.168902290984988,Object_Land_Pattern_Small,2,0,1,20422178.0,20422509.0,331.0
125,choice,choice,47,6.0,Object,2.0,25.168902290984988,Animal_Sea_Solid_Large,4,0,0,20424203.0,20424758.0,555.0
125,choice,choice,47,6.0,Object,2.0,25.168902290984988,fixation,-1,1,0,20424790.0,20425216.0,426.0
125,choice,choice,47,6.0,Object,2.0,25.168902290984988,Animal_Land_Pattern_Small,1,0,0,20425563.0,20425593.0,30.0
125,choice,choice,47,6.0,Object,2.0,25.168902290984988,Animal_Sea_Solid_Large,4,0,0,20425674.0,20426404.0,730.0
125,choice,choice,47,6.0,Object,2.0,25.168902290984988,Animal_Land_Pattern_Small,1,0,0,20426712.0,20426744.0,32.0
125,choice,choice,47,6.0,Object,2.0,25.168902290984988,Animal_Sea_Solid_Large,4,0,0,20426889.0,20427538.0,649.0
125,choice,choice,47,6.0,Object,2.0,25.168902290984988,Animal_Land_Solid_Small,3,0,0,20429606.0,20430427.0,821.0
125,choice,choice,47,6.0,Object,2.0,25.168902290984988,fixation,-1,1,0,20430711.0,20431198.0,487.0
125,choice,choice,47,6.0,Object,2.0,25.168902290984988,Animal_Land_Pattern_Small,1,0,0,20431500.0,20431624.0,124.0
125,choice,choice,47,6.0,Object,2.0,25.168902290984988,Object_Land_Pattern_Small,2,0,1,20431640.0,20431909.0,269.0
125,choice,choice,47,6.0,Object,2.0,25.168902290984988,Animal_Land_Pattern_Small,1,0,0,20431929.0,20432320.0,391.0
125,choice,choice,47,6.0,Object,2.0,25.168902290984988,Object_Sea_Solid_Large,0,0,1,20432575.0,20433283.0,708.0
125,choice,choice,47,6.0,Object,2.0,25.168902290984988,Object_Land_Pattern_Small,2,0,1,20433376.0,20433625.0,249.0
125,choice,choice,47,6.0,Object,2.0,25.168902290984988,fixation,-1,1,0,20433646.0,20433885.0,239.0
125,choice,choice,47,6.0,Object,2.0,25.168902290984988,Object_Sea_Solid_Large,0,0,1,20434166.0,20435495.0,1329.0
125,choice,choice,48,6.0,Small,1.0,5.71123724989593,Object_Sea_Solid_Large,0,0,0,20439611.0,20440044.0,433.0
125,choice,choice,48,6.0,Small,1.0,5.71123724989593,Animal_Land_Pattern_Small,1,0,1,20440380.0,20440512.0,132.0
125,choice,choice,48,6.0,Small,1.0,5.71123724989593,Animal_Sea_Solid_Large,4,0,0,20440541.0,20440748.0,207.0
125,choice,choice,48,6.0,Small,1.0,5.71123724989593,Animal_Land_Solid_Small,3,0,1,20440779.0,20441913.0,1134.0
125,choice,choice,48,6.0,Small,1.0,5.71123724989593,Object_Land_Pattern_Small,2,0,1,20442567.0,20443181.0,614.0
125,choice,choice,48,6.0,Small,1.0,5.71123724989593,fixation,-1,1,0,20443827.0,20444027.0,200.0
125,choice,choice,48,6.0,Small,1.0,5.71123724989593,Animal_Land_Pattern_Small,1,0,1,20444413.0,20445029.0,616.0
125,choice,choice,48,6.0,Small,1.0,5.71123724989593,Object_Land_Pattern_Small,2,0,1,20445055.0,20445323.0,268.0
125,choice,choice,49,7.0,Solid,2.0,9.399167417082936,Object_Sea_Solid_Large,0,0,1,20791086.0,20792077.0,991.0
125,choice,choice,49,7.0,Solid,2.0,9.399167417082936,Animal_Land_Solid_Small,1,0,1,20792379.0,20792658.0,279.0
125,choice,choice,49,7.0,Solid,2.0,9.399167417082936,Animal_Sea_Solid_Large,2,0,1,20792978.0,20793500.0,522.0
125,choice,choice,49,7.0,Solid,2.0,9.399167417082936,Object_Land_Pattern_Small,3,0,0,20793540.0,20793814.0,274.0
125,choice,choice,49,7.0,Solid,2.0,9.399167417082936,Object_Sea_Solid_Large,0,0,1,20794071.0,20794409.0,338.0
125,choice,choice,49,7.0,Solid,2.0,9.399167417082936,Object_Sea_Pattern_Large,4,0,0,20794433.0,20795302.0,869.0
125,choice,choice,49,7.0,Solid,2.0,9.399167417082936,Object_Sea_Solid_Large,0,0,1,20795757.0,20796677.0,920.0
125,choice,choice,49,7.0,Solid,2.0,9.399167417082936,fixation,-1,1,0,20797415.0,20798306.0,891.0
125,choice,choice,49,7.0,Solid,2.0,9.399167417082936,Animal_Land_Pattern_Small,5,0,0,20798618.0,20798914.0,296.0
125,choice,choice,49,7.0,Solid,2.0,9.399167417082936,Object_Sea_Solid_Large,0,0,1,20799152.0,20799777.0,625.0
125,choice,choice,49,7.0,Solid,2.0,9.399167417082936,Animal_Land_Pattern_Small,5,0,0,20799846.0,20800064.0,218.0
125,choice,choice,49,7.0,Solid,2.0,9.399167417082936,Object_Land_Pattern_Small,3,0,0,20800095.0,20800275.0,180.0
125,choice,choice,49,7.0,Solid,2.0,9.399167417082936,fixation,-1,1,0,20800290.0,20800435.0,145.0
125,choice,choice,50,7.0,Pattern,2.0,3.6365219159051776,fixation,-1,1,0,20803037.0,20803213.0,176.0
125,choice,choice,50,7.0,Pattern,2.0,3.6365219159051776,Object_Sea_Solid_Large,0,0,0,20803436.0,20803829.0,393.0
125,choice,choice,50,7.0,Pattern,2.0,3.6365219159051776,Object_Land_Pattern_Small,3,0,1,20804170.0,20804227.0,57.0
125,choice,choice,50,7.0,Pattern,2.0,3.6365219159051776,fixation,-1,1,0,20804252.0,20804469.0,217.0
125,choice,choice,50,7.0,Pattern,2.0,3.6365219159051776,Animal_Land_Pattern_Small,5,0,1,20804500.0,20804897.0,397.0
125,choice,choice,50,7.0,Pattern,2.0,3.6365219159051776,Animal_Sea_Solid_Large,2,0,0,20804933.0,20805287.0,354.0
125,choice,choice,50,7.0,Pattern,2.0,3.6365219159051776,Animal_Land_Solid_Small,1,0,0,20805320.0,20805565.0,245.0
125,choice,choice,50,7.0,Pattern,2.0,3.6365219159051776,Object_Sea_Pattern_Large,4,0,1,20805589.0,20806054.0,465.0
125,choice,choice,50,7.0,Pattern,2.0,3.6365219159051776,fixation,-1,1,0,20806356.0,20806627.0,271.0
125,choice,choice,51,7.0,Object,2.0,20.317237291950732,Object_Sea_Solid_Large,0,0,1,20810735.0,20810887.0,152.0
125,choice,choice,51,7.0,Object,2.0,20.317237291950732,Object_Sea_Pattern_Large,4,0,1,20810907.0,20811450.0,543.0
125,choice,choice,51,7.0,Object,2.0,20.317237291950732,Object_Sea_Solid_Large,0,0,1,20811703.0,20812847.0,1144.0
125,choice,choice,51,7.0,Object,2.0,20.317237291950732,Object_Land_Pattern_Small,3,0,1,20813249.0,20813461.0,212.0
125,choice,choice,51,7.0,Object,2.0,20.317237291950732,Object_Sea_Solid_Large,0,0,1,20813785.0,20813887.0,102.0
125,choice,choice,51,7.0,Object,2.0,20.317237291950732,Object_Land_Pattern_Small,3,0,1,20813972.0,20814046.0,74.0
125,choice,choice,51,7.0,Object,2.0,20.317237291950732,Animal_Land_Pattern_Small,5,0,0,20814072.0,20814776.0,704.0
125,choice,choice,51,7.0,Object,2.0,20.317237291950732,Object_Sea_Solid_Large,0,0,1,20815081.0,20815409.0,328.0
125,choice,choice,51,7.0,Object,2.0,20.317237291950732,Object_Sea_Pattern_Large,4,0,1,20815434.0,20816570.0,1136.0
125,choice,choice,51,7.0,Object,2.0,20.317237291950732,Object_Sea_Solid_Large,0,0,1,20817033.0,20817668.0,635.0
125,choice,choice,51,7.0,Object,2.0,20.317237291950732,Object_Sea_Pattern_Large,4,0,1,20817913.0,20818171.0,258.0
125,choice,choice,51,7.0,Object,2.0,20.317237291950732,Object_Sea_Solid_Large,0,0,1,20818187.0,20819528.0,1341.0
125,choice,choice,51,7.0,Object,2.0,20.317237291950732,Animal_Land_Pattern_Small,5,0,0,20820428.0,20821206.0,778.0
125,choice,choice,51,7.0,Object,2.0,20.317237291950732,Object_Sea_Solid_Large,0,0,1,20821484.0,20821864.0,380.0
125,choice,choice,51,7.0,Object,2.0,20.317237291950732,Animal_Land_Pattern_Small,5,0,0,20821882.0,20822545.0,663.0
125,choice,choice,51,7.0,Object,2.0,20.317237291950732,fixation,-1,1,0,20823610.0,20824378.0,768.0
125,choice,choice,51,7.0,Object,2.0,20.317237291950732,Animal_Land_Pattern_Small,5,0,0,20824943.0,20827160.0,2217.0
125,choice,choice,51,7.0,Object,2.0,20.317237291950732,Object_Sea_Solid_Large,0,0,1,20828711.0,20829975.0,1264.0
125,choice,choice,52,7.0,Small,2.0,16.80020416714251,Animal_Land_Solid_Small,1,0,1,20833512.0,20834460.0,948.0
125,choice,choice,52,7.0,Small,2.0,16.80020416714251,Object_Sea_Pattern_Large,4,0,0,20834783.0,20835531.0,748.0
125,choice,choice,52,7.0,Small,2.0,16.80020416714251,Animal_Land_Pattern_Small,5,0,1,20836097.0,20836297.0,200.0
125,choice,choice,52,7.0,Small,2.0,16.80020416714251,Object_Land_Pattern_Small,3,0,1,20836958.0,20837001.0,43.0
125,choice,choice,52,7.0,Small,2.0,16.80020416714251,Animal_Land_Pattern_Small,5,0,1,20837301.0,20838133.0,832.0
125,choice,choice,52,7.0,Small,2.0,16.80020416714251,Object_Land_Pattern_Small,3,0,1,20839472.0,20839669.0,197.0
125,choice,choice,52,7.0,Small,2.0,16.80020416714251,fixation,-1,1,0,20839908.0,20840007.0,99.0
125,choice,choice,52,7.0,Small,2.0,16.80020416714251,Animal_Land_Pattern_Small,5,0,1,20840283.0,20840494.0,211.0
125,choice,choice,52,7.0,Small,2.0,16.80020416714251,Object_Land_Pattern_Small,3,0,1,20840820.0,20840874.0,54.0
125,choice,choice,52,7.0,Small,2.0,16.80020416714251,Animal_Land_Pattern_Small,5,0,1,20841193.0,20841922.0,729.0
125,choice,choice,52,7.0,Small,2.0,16.80020416714251,Animal_Sea_Solid_Large,2,0,0,20843240.0,20843562.0,322.0
125,choice,choice,52,7.0,Small,2.0,16.80020416714251,Object_Sea_Solid_Large,0,0,0,20843896.0,20844027.0,131.0
125,choice,choice,52,7.0,Small,2.0,16.80020416714251,Animal_Sea_Solid_Large,2,0,0,20844167.0,20844209.0,42.0
125,choice,choice,52,7.0,Small,2.0,16.80020416714251,fixation,-1,1,0,20844230.0,20844668.0,438.0
125,choice,choice,52,7.0,Small,2.0,16.80020416714251,Animal_Land_Pattern_Small,5,0,1,20844974.0,20845007.0,33.0
125,choice,choice,52,7.0,Small,2.0,16.80020416714251,Object_Land_Pattern_Small,3,0,1,20845065.0,20845338.0,273.0
125,choice,choice,52,7.0,Small,2.0,16.80020416714251,Animal_Land_Pattern_Small,5,0,1,20845358.0,20846009.0,651.0
125,choice,choice,52,7.0,Small,2.0,16.80020416714251,Object_Land_Pattern_Small,3,0,1,20846606.0,20847929.0,1323.0
125,choice,choice,52,7.0,Small,2.0,16.80020416714251,Animal_Land_Solid_Small,1,0,1,20849925.0,20850104.0,179.0
125,choice,choice,53,7.0,Sea,2.0,14.59953225008212,Object_Sea_Solid_Large,0,0,1,20852936.0,20855152.0,2216.0
125,choice,choice,53,7.0,Sea,2.0,14.59953225008212,Animal_Sea_Solid_Large,2,0,1,20856778.0,20857163.0,385.0
125,choice,choice,53,7.0,Sea,2.0,14.59953225008212,Object_Sea_Solid_Large,0,0,1,20857718.0,20858398.0,680.0
125,choice,choice,53,7.0,Sea,2.0,14.59953225008212,Object_Sea_Pattern_Large,4,0,1,20861723.0,20862023.0,300.0
125,choice,choice,53,7.0,Sea,2.0,14.59953225008212,Object_Sea_Solid_Large,0,0,1,20862256.0,20863014.0,758.0
125,choice,choice,53,7.0,Sea,2.0,14.59953225008212,Animal_Land_Pattern_Small,5,0,0,20863877.0,20864025.0,148.0
125,choice,choice,53,7.0,Sea,2.0,14.59953225008212,Object_Sea_Solid_Large,0,0,1,20864322.0,20864408.0,86.0
125,choice,choice,53,7.0,Sea,2.0,14.59953225008212,fixation,-1,1,0,20864732.0,20865415.0,683.0
125,choice,choice,53,7.0,Sea,2.0,14.59953225008212,Object_Sea_Pattern_Large,4,0,1,20865761.0,20865980.0,219.0
125,choice,choice,53,7.0,Sea,2.0,14.59953225008212,fixation,-1,1,0,20866331.0,20866936.0,605.0
125,choice,choice,53,7.0,Sea,2.0,14.59953225008212,Animal_Land_Pattern_Small,5,0,0,20867237.0,20867362.0,125.0
125,choice,choice,54,7.0,Land,2.0,23.84700979082845,fixation,-1,1,0,20871092.0,20872175.0,1083.0
125,choice,choice,54,7.0,Land,2.0,23.84700979082845,Object_Sea_Solid_Large,0,0,0,20872483.0,20872501.0,18.0
125,choice,choice,54,7.0,Land,2.0,23.84700979082845,fixation,-1,1,0,20872545.0,20872797.0,252.0
125,choice,choice,54,7.0,Land,2.0,23.84700979082845,Object_Sea_Pattern_Large,4,0,0,20873023.0,20873725.0,702.0
125,choice,choice,54,7.0,Land,2.0,23.84700979082845,Animal_Land_Solid_Small,1,0,1,20874018.0,20874307.0,289.0
125,choice,choice,54,7.0,Land,2.0,23.84700979082845,Object_Sea_Pattern_Large,4,0,0,20874583.0,20875386.0,803.0
125,choice,choice,54,7.0,Land,2.0,23.84700979082845,Object_Sea_Solid_Large,0,0,0,20875675.0,20876695.0,1020.0
125,choice,choice,54,7.0,Land,2.0,23.84700979082845,fixation,-1,1,0,20883091.0,20883363.0,272.0
125,choice,choice,54,7.0,Land,2.0,23.84700979082845,Animal_Land_Pattern_Small,5,0,1,20883699.0,20884307.0,608.0
125,choice,choice,54,7.0,Land,2.0,23.84700979082845,Object_Land_Pattern_Small,3,0,1,20884344.0,20884448.0,104.0
125,choice,choice,54,7.0,Land,2.0,23.84700979082845,Animal_Land_Pattern_Small,5,0,1,20884804.0,20885871.0,1067.0
125,choice,choice,54,7.0,Land,2.0,23.84700979082845,Object_Sea_Solid_Large,0,0,0,20887350.0,20888223.0,873.0
125,choice,choice,54,7.0,Land,2.0,23.84700979082845,Animal_Sea_Solid_Large,2,0,0,20888542.0,20889001.0,459.0
125,choice,choice,54,7.0,Land,2.0,23.84700979082845,Animal_Land_Solid_Small,1,0,1,20889309.0,20889859.0,550.0
125,choice,choice,54,7.0,Land,2.0,23.84700979082845,Animal_Land_Pattern_Small,5,0,1,20890500.0,20890527.0,27.0
125,choice,choice,54,7.0,Land,2.0,23.84700979082845,Object_Land_Pattern_Small,3,0,1,20890723.0,20891131.0,408.0
125,choice,choice,54,7.0,Land,2.0,23.84700979082845,Animal_Land_Pattern_Small,5,0,1,20891539.0,20891622.0,83.0
125,choice,choice,54,7.0,Land,2.0,23.84700979082845,Object_Land_Pattern_Small,3,0,1,20891846.0,20891869.0,23.0
125,choice,choice,54,7.0,Land,2.0,23.84700979082845,Animal_Land_Pattern_Small,5,0,1,20893191.0,20893422.0,231.0
125,choice,choice,54,7.0,Land,2.0,23.84700979082845,Object_Land_Pattern_Small,3,0,1,20894719.0,20894852.0,133.0
125,choice,choice,55,7.0,Animal,2.0,17.31469912501052,Animal_Land_Solid_Small,1,0,1,20898240.0,20898743.0,503.0
125,choice,choice,55,7.0,Animal,2.0,17.31469912501052,Object_Sea_Pattern_Large,4,0,0,20899030.0,20899174.0,144.0
125,choice,choice,55,7.0,Animal,2.0,17.31469912501052,fixation,-1,1,0,20899194.0,20899434.0,240.0
125,choice,choice,55,7.0,Animal,2.0,17.31469912501052,Animal_Sea_Solid_Large,2,0,1,20899783.0,20899961.0,178.0
125,choice,choice,55,7.0,Animal,2.0,17.31469912501052,Animal_Land_Solid_Small,1,0,1,20900300.0,20901223.0,923.0
125,choice,choice,55,7.0,Animal,2.0,17.31469912501052,Object_Sea_Solid_Large,0,0,0,20901830.0,20901900.0,70.0
125,choice,choice,55,7.0,Animal,2.0,17.31469912501052,Animal_Sea_Solid_Large,2,0,1,20902042.0,20902228.0,186.0
125,choice,choice,55,7.0,Animal,2.0,17.31469912501052,Animal_Land_Pattern_Small,5,0,1,20902565.0,20903069.0,504.0
125,choice,choice,55,7.0,Animal,2.0,17.31469912501052,Animal_Land_Solid_Small,1,0,1,20903400.0,20903758.0,358.0
125,choice,choice,55,7.0,Animal,2.0,17.31469912501052,fixation,-1,1,0,20903776.0,20904217.0,441.0
125,choice,choice,55,7.0,Animal,2.0,17.31469912501052,Object_Land_Pattern_Small,3,0,0,20904537.0,20904708.0,171.0
125,choice,choice,55,7.0,Animal,2.0,17.31469912501052,Animal_Land_Pattern_Small,5,0,1,20904728.0,20905657.0,929.0
125,choice,choice,55,7.0,Animal,2.0,17.31469912501052,Animal_Land_Solid_Small,1,0,1,20908759.0,20909922.0,1163.0
125,choice,choice,55,7.0,Animal,2.0,17.31469912501052,fixation,-1,1,0,20910509.0,20910775.0,266.0
125,choice,choice,55,7.0,Animal,2.0,17.31469912501052,Animal_Sea_Solid_Large,2,0,1,20911100.0,20911379.0,279.0
125,choice,choice,55,7.0,Animal,2.0,17.31469912501052,Object_Land_Pattern_Small,3,0,0,20911716.0,20912026.0,310.0
125,choice,choice,55,7.0,Animal,2.0,17.31469912501052,Animal_Sea_Solid_Large,2,0,1,20912379.0,20912968.0,589.0
125,choice,choice,55,7.0,Animal,2.0,17.31469912501052,Animal_Land_Solid_Small,1,0,1,20913041.0,20914618.0,1577.0
125,choice,choice,56,7.0,Large,1.0,13.953320665983483,Object_Sea_Pattern_Large,4,0,1,20918663.0,20919217.0,554.0
125,choice,choice,56,7.0,Large,1.0,13.953320665983483,Object_Sea_Solid_Large,0,0,1,20919629.0,20919892.0,263.0
125,choice,choice,56,7.0,Large,1.0,13.953320665983483,Object_Sea_Pattern_Large,4,0,1,20920170.0,20921163.0,993.0
125,choice,choice,56,7.0,Large,1.0,13.953320665983483,Object_Sea_Solid_Large,0,0,1,20921408.0,20921889.0,481.0
125,choice,choice,56,7.0,Large,1.0,13.953320665983483,Object_Sea_Pattern_Large,4,0,1,20922095.0,20922774.0,679.0
125,choice,choice,56,7.0,Large,1.0,13.953320665983483,Animal_Land_Pattern_Small,5,0,0,20923493.0,20923979.0,486.0
125,choice,choice,56,7.0,Large,1.0,13.953320665983483,Object_Sea_Solid_Large,0,0,1,20924261.0,20924771.0,510.0
125,choice,choice,56,7.0,Large,1.0,13.953320665983483,fixation,-1,1,0,20924788.0,20925012.0,224.0
125,choice,choice,56,7.0,Large,1.0,13.953320665983483,Object_Sea_Pattern_Large,4,0,1,20925278.0,20926216.0,938.0
125,choice,choice,56,7.0,Large,1.0,13.953320665983483,Object_Sea_Solid_Large,0,0,1,20926487.0,20927236.0,749.0
125,choice,choice,56,7.0,Large,1.0,13.953320665983483,Animal_Land_Pattern_Small,5,0,0,20927582.0,20927802.0,220.0
125,choice,choice,56,7.0,Large,1.0,13.953320665983483,Object_Land_Pattern_Small,3,0,0,20928193.0,20928261.0,68.0
125,choice,choice,56,7.0,Large,1.0,13.953320665983483,Object_Sea_Solid_Large,0,0,1,20928287.0,20930659.0,2372.0
125,choice,choice,56,7.0,Large,1.0,13.953320665983483,fixation,-1,1,0,20932243.0,20932539.0,296.0
