phase,event,trial_number,eyetracker_onset,eyetracker_offset,fix_start,fix_end,fix_duration_full,fix_duration_bounded,fix_x,fix_y,roi_x,roi_y,roi_content,onset,offset,game,image,outcome,choice,correct,rt,letter,match,response,option,true_value,true_position,recalled_position,Unnamed: 18
encoding,fixation,1,17257692,17258959,17257780.0,17257979.0,200.0,200.0,1736.9,1018.8,1591.0,1269.0,Object_Land_Solid_Small,13.021469375118611,14.288229917176068,1.0,Object_Land_Solid_Small,-2.0,,,,,,,,,,,
encoding,fixation,1,17257692,17258959,17257999.0,17258134.0,136.0,136.0,1866.6,1069.1,1920.0,1080.0,fixation,13.021469375118611,14.288229917176068,1.0,Object_Land_Solid_Small,-2.0,,,,,,,,,,,
encoding,fixation,1,17257692,17258959,17258361.0,17258693.0,333.0,333.0,1899.3,1272.2,1920.0,700.0,Animal_Sea_Solid_Small,13.021469375118611,14.288229917176068,1.0,Object_Land_Solid_Small,-2.0,,,,,,,,,,,
encoding,fixation,1,17257692,17258959,17258715.0,17258939.0,225.0,225.0,1944.9,1161.3,1920.0,700.0,Animal_Sea_Solid_Small,13.021469375118611,14.288229917176068,1.0,Object_Land_Solid_Small,-2.0,,,,,,,,,,,
encoding,image,1,17258959,17259982,17258966.0,17259167.0,202.0,202.0,1920.7,1346.0,1920.0,700.0,Animal_Sea_Solid_Small,14.288409917149693,15.310968625126408,1.0,Object_Land_Solid_Small,-2.0,,,,,,,,,,,
encoding,image,1,17258959,17259982,17259215.0,17259365.0,151.0,151.0,1629.9,872.8,1591.0,1269.0,Object_Land_Solid_Small,14.288409917149693,15.310968625126408,1.0,Object_Land_Solid_Small,-2.0,,,,,,,,,,,
encoding,image,1,17258959,17259982,17259376.0,17259845.0,470.0,470.0,1583.2,846.8,1591.0,1269.0,Object_Land_Solid_Small,14.288409917149693,15.310968625126408,1.0,Object_Land_Solid_Small,-2.0,,,,,,,,,,,
encoding,image,1,17258959,17259982,17259861.0,17260065.0,205.0,121.0,1690.4,910.0,1591.0,1269.0,Object_Land_Solid_Small,14.288409917149693,15.310968625126408,1.0,Object_Land_Solid_Small,-2.0,,,,,,,,,,,
encoding,value,1,17259982,17265999,17260080.0,17260228.0,149.0,149.0,1605.5,869.5999999999999,1591.0,1269.0,Object_Land_Solid_Small,15.311081083025783,21.327264625113457,1.0,Object_Land_Solid_Small,-2.0,,,,,,,,,,,
encoding,value,1,17259982,17265999,17260245.0,17260579.0,335.0,335.0,1570.4,767.7,1591.0,1269.0,Object_Land_Solid_Small,15.311081083025783,21.327264625113457,1.0,Object_Land_Solid_Small,-2.0,,,,,,,,,,,
encoding,value,1,17259982,17265999,17260835.0,17261113.0,279.0,279.0,1582.4,812.3,1591.0,1269.0,Object_Land_Solid_Small,15.311081083025783,21.327264625113457,1.0,Object_Land_Solid_Small,-2.0,,,,,,,,,,,
encoding,value,1,17259982,17265999,17261121.0,17262121.0,1001.0,1001.0,1591.7,838.9000000000001,1591.0,1269.0,Object_Land_Solid_Small,15.311081083025783,21.327264625113457,1.0,Object_Land_Solid_Small,-2.0,,,,,,,,,,,
encoding,value,1,17259982,17265999,17262139.0,17262405.0,267.0,267.0,1571.2,751.8,1591.0,1269.0,Object_Land_Solid_Small,15.311081083025783,21.327264625113457,1.0,Object_Land_Solid_Small,-2.0,,,,,,,,,,,
encoding,value,1,17259982,17265999,17262420.0,17262818.0,399.0,399.0,1587.0,829.9000000000001,1591.0,1269.0,Object_Land_Solid_Small,15.311081083025783,21.327264625113457,1.0,Object_Land_Solid_Small,-2.0,,,,,,,,,,,
encoding,value,1,17259982,17265999,17262855.0,17263053.0,199.0,199.0,1854.0,998.3,1591.0,1269.0,Object_Land_Solid_Small,15.311081083025783,21.327264625113457,1.0,Object_Land_Solid_Small,-2.0,,,,,,,,,,,
encoding,value,1,17259982,17265999,17263063.0,17263237.0,175.0,175.0,1891.7,1021.5,1920.0,1080.0,fixation,15.311081083025783,21.327264625113457,1.0,Object_Land_Solid_Small,-2.0,,,,,,,,,,,
encoding,value,1,17259982,17265999,17263485.0,17264113.0,629.0,629.0,1581.0,801.8,1591.0,1269.0,Object_Land_Solid_Small,15.311081083025783,21.327264625113457,1.0,Object_Land_Solid_Small,-2.0,,,,,,,,,,,
encoding,value,1,17259982,17265999,17264143.0,17264688.0,546.0,546.0,1894.1,1028.0,1920.0,1080.0,fixation,15.311081083025783,21.327264625113457,1.0,Object_Land_Solid_Small,-2.0,,,,,,,,,,,
encoding,value,1,17259982,17265999,17264715.0,17264883.0,169.0,169.0,1757.3,793.4000000000001,1920.0,1460.0,Object_Land_Pattern_Large,15.311081083025783,21.327264625113457,1.0,Object_Land_Solid_Small,-2.0,,,,,,,,,,,
encoding,value,1,17259982,17265999,17264903.0,17265217.0,315.0,315.0,1572.6,742.0999999999999,1591.0,1269.0,Object_Land_Solid_Small,15.311081083025783,21.327264625113457,1.0,Object_Land_Solid_Small,-2.0,,,,,,,,,,,
encoding,value,1,17259982,17265999,17265243.0,17265604.0,362.0,362.0,1817.3,901.4000000000001,1920.0,1460.0,Object_Land_Pattern_Large,15.311081083025783,21.327264625113457,1.0,Object_Land_Solid_Small,-2.0,,,,,,,,,,,
encoding,value,1,17259982,17265999,17265631.0,17265887.0,257.0,257.0,1553.7,761.5999999999999,1591.0,1269.0,Object_Land_Solid_Small,15.311081083025783,21.327264625113457,1.0,Object_Land_Solid_Small,-2.0,,,,,,,,,,,
encoding,attention,1,17265999,17269019,17266154.0,17266327.0,174.0,174.0,1562.8,778.5,1591.0,1269.0,Object_Land_Solid_Small,21.327368792146444,24.34740824997425,1.0,Object_Land_Solid_Small,-2.0,-2.0,1.0,2.102256708079949,,,,,,,,
encoding,attention,1,17265999,17269019,17266339.0,17266787.0,449.0,449.0,1597.0,756.0,1591.0,1269.0,Object_Land_Solid_Small,21.327368792146444,24.34740824997425,1.0,Object_Land_Solid_Small,-2.0,-2.0,1.0,2.102256708079949,,,,,,,,
encoding,attention,1,17265999,17269019,17266802.0,17267625.0,824.0,824.0,1511.5,732.9000000000001,1591.0,1269.0,Object_Land_Solid_Small,21.327368792146444,24.34740824997425,1.0,Object_Land_Solid_Small,-2.0,-2.0,1.0,2.102256708079949,,,,,,,,
encoding,attention,1,17265999,17269019,17267637.0,17268591.0,955.0,955.0,1567.1,769.4000000000001,1591.0,1269.0,Object_Land_Solid_Small,21.327368792146444,24.34740824997425,1.0,Object_Land_Solid_Small,-2.0,-2.0,1.0,2.102256708079949,,,,,,,,
encoding,fixation,2,17269019,17270524,17269257.0,17270721.0,1465.0,1267.0,1915.4,1040.6,1920.0,1080.0,fixation,24.34755991701968,25.85246566706337,1.0,Animal_Sea_Pattern_Large,6.0,,,,,,,,,,,
encoding,image,2,17270524,17271535,17270757.0,17271303.0,547.0,547.0,2236.1,1230.4,2249.0,891.0,Animal_Sea_Pattern_Large,25.852583250030875,26.863037000177428,1.0,Animal_Sea_Pattern_Large,6.0,,,,,,,,,,,
encoding,value,2,17271535,17277549,17271598.0,17271710.0,113.0,113.0,2227.2,1179.9,2249.0,891.0,Animal_Sea_Pattern_Large,26.86315495800227,32.87715291697532,1.0,Animal_Sea_Pattern_Large,6.0,,,,,,,,,,,
encoding,value,2,17271535,17277549,17271722.0,17272158.0,437.0,437.0,2269.6,1148.6,2249.0,891.0,Animal_Sea_Pattern_Large,26.86315495800227,32.87715291697532,1.0,Animal_Sea_Pattern_Large,6.0,,,,,,,,,,,
encoding,value,2,17271535,17277549,17272171.0,17272548.0,378.0,378.0,2223.9,1214.3,2249.0,891.0,Animal_Sea_Pattern_Large,26.86315495800227,32.87715291697532,1.0,Animal_Sea_Pattern_Large,6.0,,,,,,,,,,,
encoding,value,2,17271535,17277549,17272562.0,17272789.0,228.0,228.0,2264.6,1165.1,2249.0,891.0,Animal_Sea_Pattern_Large,26.86315495800227,32.87715291697532,1.0,Animal_Sea_Pattern_Large,6.0,,,,,,,,,,,
encoding,value,2,17271535,17277549,17273079.0,17274055.0,977.0,977.0,2262.4,1157.9,2249.0,891.0,Animal_Sea_Pattern_Large,26.86315495800227,32.87715291697532,1.0,Animal_Sea_Pattern_Large,6.0,,,,,,,,,,,
encoding,value,2,17271535,17277549,17274068.0,17274289.0,222.0,222.0,2254.6,1202.6,2249.0,891.0,Animal_Sea_Pattern_Large,26.86315495800227,32.87715291697532,1.0,Animal_Sea_Pattern_Large,6.0,,,,,,,,,,,
encoding,value,2,17271535,17277549,17274298.0,17274992.0,695.0,695.0,2255.4,1157.7,2249.0,891.0,Animal_Sea_Pattern_Large,26.86315495800227,32.87715291697532,1.0,Animal_Sea_Pattern_Large,6.0,,,,,,,,,,,
encoding,value,2,17271535,17277549,17275010.0,17276403.0,1394.0,1394.0,2243.0,1230.9,2249.0,891.0,Animal_Sea_Pattern_Large,26.86315495800227,32.87715291697532,1.0,Animal_Sea_Pattern_Large,6.0,,,,,,,,,,,
encoding,value,2,17271535,17277549,17276664.0,17277772.0,1109.0,885.0,2230.1,1224.2,2249.0,891.0,Animal_Sea_Pattern_Large,26.86315495800227,32.87715291697532,1.0,Animal_Sea_Pattern_Large,6.0,,,,,,,,,,,
encoding,attention,2,17277549,17280569,17277783.0,17277978.0,196.0,196.0,2258.0,1187.1,2249.0,891.0,Animal_Sea_Pattern_Large,32.87725770799443,35.896744875004515,1.0,Animal_Sea_Pattern_Large,6.0,6.0,1.0,1.3426605421118438,,,,,,,,
encoding,attention,2,17277549,17280569,17277985.0,17278158.0,174.0,174.0,2278.6,1171.8,2249.0,891.0,Animal_Sea_Pattern_Large,32.87725770799443,35.896744875004515,1.0,Animal_Sea_Pattern_Large,6.0,6.0,1.0,1.3426605421118438,,,,,,,,
encoding,attention,2,17277549,17280569,17278169.0,17279159.0,991.0,991.0,2200.1,1148.0,2249.0,891.0,Animal_Sea_Pattern_Large,32.87725770799443,35.896744875004515,1.0,Animal_Sea_Pattern_Large,6.0,6.0,1.0,1.3426605421118438,,,,,,,,
encoding,attention,2,17277549,17280569,17279452.0,17279934.0,483.0,483.0,2279.7,1199.6,2249.0,891.0,Animal_Sea_Pattern_Large,32.87725770799443,35.896744875004515,1.0,Animal_Sea_Pattern_Large,6.0,6.0,1.0,1.3426605421118438,,,,,,,,
encoding,attention,2,17277549,17280569,17279946.0,17280195.0,250.0,250.0,2301.8,1141.4,2249.0,891.0,Animal_Sea_Pattern_Large,32.87725770799443,35.896744875004515,1.0,Animal_Sea_Pattern_Large,6.0,6.0,1.0,1.3426605421118438,,,,,,,,
encoding,attention,2,17277549,17280569,17280209.0,17280403.0,195.0,195.0,2246.3,1210.3,2249.0,891.0,Animal_Sea_Pattern_Large,32.87725770799443,35.896744875004515,1.0,Animal_Sea_Pattern_Large,6.0,6.0,1.0,1.3426605421118438,,,,,,,,
encoding,fixation,3,17280569,17281824,17280667.0,17280812.0,146.0,146.0,2209.9,1190.5,2249.0,891.0,Animal_Sea_Pattern_Large,35.89690087502822,37.15192375006154,1.0,Object_Sea_Solid_Small,-2.0,,,,,,,,,,,
encoding,fixation,3,17280569,17281824,17280839.0,17281040.0,202.0,202.0,1938.2,1038.9,1920.0,1080.0,fixation,35.89690087502822,37.15192375006154,1.0,Object_Sea_Solid_Small,-2.0,,,,,,,,,,,
encoding,fixation,3,17280569,17281824,17281320.0,17281411.0,92.0,92.0,1940.9,1113.1,1920.0,1080.0,fixation,35.89690087502822,37.15192375006154,1.0,Object_Sea_Solid_Small,-2.0,,,,,,,,,,,
encoding,fixation,3,17280569,17281824,17281434.0,17281889.0,456.0,390.0,1846.9,1038.6,1591.0,1269.0,Object_Land_Solid_Small,35.89690087502822,37.15192375006154,1.0,Object_Sea_Solid_Small,-2.0,,,,,,,,,,,
encoding,image,3,17281824,17282834,17281916.0,17282053.0,138.0,138.0,1543.6,919.4000000000001,1591.0,1269.0,Object_Land_Solid_Small,37.15204366715625,38.16198049997911,1.0,Object_Sea_Solid_Small,-2.0,,,,,,,,,,,
encoding,image,3,17281824,17282834,17282104.0,17283106.0,1003.0,730.0,2248.1,903.7,2249.0,1269.0,Object_Sea_Solid_Small,37.15204366715625,38.16198049997911,1.0,Object_Sea_Solid_Small,-2.0,,,,,,,,,,,
encoding,value,3,17282834,17288846,17283128.0,17283536.0,409.0,409.0,2232.9,784.0,2249.0,1269.0,Object_Sea_Solid_Small,38.16209616698325,44.17378875007853,1.0,Object_Sea_Solid_Small,-2.0,,,,,,,,,,,
encoding,value,3,17282834,17288846,17283828.0,17284259.0,432.0,432.0,2252.4,830.3,2249.0,1269.0,Object_Sea_Solid_Small,38.16209616698325,44.17378875007853,1.0,Object_Sea_Solid_Small,-2.0,,,,,,,,,,,
encoding,value,3,17282834,17288846,17284270.0,17287798.0,3529.0,3529.0,2234.8,771.4000000000001,2249.0,1269.0,Object_Sea_Solid_Small,38.16209616698325,44.17378875007853,1.0,Object_Sea_Solid_Small,-2.0,,,,,,,,,,,
encoding,value,3,17282834,17288846,17288081.0,17288319.0,239.0,239.0,2249.9,824.5,2249.0,1269.0,Object_Sea_Solid_Small,38.16209616698325,44.17378875007853,1.0,Object_Sea_Solid_Small,-2.0,,,,,,,,,,,
encoding,value,3,17282834,17288846,17288337.0,17289499.0,1163.0,509.0,2234.1,772.4000000000001,2249.0,1269.0,Object_Sea_Solid_Small,38.16209616698325,44.17378875007853,1.0,Object_Sea_Solid_Small,-2.0,,,,,,,,,,,
encoding,attention,3,17288846,17291864,17289515.0,17290580.0,1066.0,1066.0,2288.7,755.3,2249.0,1269.0,Object_Sea_Solid_Small,44.17390579194762,47.19132612505928,1.0,Object_Sea_Solid_Small,-2.0,-2.0,1.0,1.2075179170351475,,,,,,,,
encoding,attention,3,17288846,17291864,17290594.0,17291126.0,533.0,533.0,2219.4,808.2,2249.0,1269.0,Object_Sea_Solid_Small,44.17390579194762,47.19132612505928,1.0,Object_Sea_Solid_Small,-2.0,-2.0,1.0,1.2075179170351475,,,,,,,,
encoding,attention,3,17288846,17291864,17291145.0,17291844.0,700.0,700.0,2215.4,913.9000000000001,2249.0,1269.0,Object_Sea_Solid_Small,44.17390579194762,47.19132612505928,1.0,Object_Sea_Solid_Small,-2.0,-2.0,1.0,1.2075179170351475,,,,,,,,
encoding,fixation,4,17291864,17293119,17292104.0,17292233.0,130.0,130.0,1969.9,1062.1,1920.0,1080.0,fixation,47.191467500058934,48.446402250090614,1.0,Animal_Sea_Solid_Small,2.0,,,,,,,,,,,
encoding,fixation,4,17291864,17293119,17292460.0,17292793.0,334.0,334.0,1916.1,1040.8,1920.0,1080.0,fixation,47.191467500058934,48.446402250090614,1.0,Animal_Sea_Solid_Small,2.0,,,,,,,,,,,
encoding,fixation,4,17291864,17293119,17292807.0,17292957.0,151.0,151.0,1905.9,957.8,1920.0,1460.0,Object_Land_Pattern_Large,47.191467500058934,48.446402250090614,1.0,Animal_Sea_Solid_Small,2.0,,,,,,,,,,,
encoding,fixation,4,17291864,17293119,17292974.0,17293410.0,437.0,145.0,1927.2,1052.1,1920.0,1080.0,fixation,47.191467500058934,48.446402250090614,1.0,Animal_Sea_Solid_Small,2.0,,,,,,,,,,,
encoding,image,4,17293119,17294130,17293448.0,17293878.0,431.0,431.0,1909.5,1406.2,1920.0,700.0,Animal_Sea_Solid_Small,48.44650995801203,49.457295041996986,1.0,Animal_Sea_Solid_Small,2.0,,,,,,,,,,,
encoding,image,4,17293119,17294130,17293891.0,17294380.0,490.0,239.0,1919.8,1463.3,1920.0,700.0,Animal_Sea_Solid_Small,48.44650995801203,49.457295041996986,1.0,Animal_Sea_Solid_Small,2.0,,,,,,,,,,,
encoding,value,4,17294130,17300141,17294399.0,17294719.0,321.0,321.0,1924.8,1365.1,1920.0,700.0,Animal_Sea_Solid_Small,49.457411041948944,55.46844204212539,1.0,Animal_Sea_Solid_Small,2.0,,,,,,,,,,,
encoding,value,4,17294130,17300141,17294934.0,17295133.0,200.0,200.0,1939.9,1291.1,1920.0,700.0,Animal_Sea_Solid_Small,49.457411041948944,55.46844204212539,1.0,Animal_Sea_Solid_Small,2.0,,,,,,,,,,,
encoding,value,4,17294130,17300141,17295149.0,17297897.0,2749.0,2749.0,1932.1,1320.6,1920.0,700.0,Animal_Sea_Solid_Small,49.457411041948944,55.46844204212539,1.0,Animal_Sea_Solid_Small,2.0,,,,,,,,,,,
encoding,value,4,17294130,17300141,17298085.0,17300739.0,2655.0,2056.0,1932.3,1294.4,1920.0,700.0,Animal_Sea_Solid_Small,49.457411041948944,55.46844204212539,1.0,Animal_Sea_Solid_Small,2.0,,,,,,,,,,,
encoding,attention,4,17300141,17303159,17300752.0,17301639.0,888.0,888.0,1954.6,1271.7,1920.0,700.0,Animal_Sea_Solid_Small,55.46854937495664,58.485952333081514,1.0,Animal_Sea_Solid_Small,2.0,2.0,1.0,1.2279307499993593,,,,,,,,
encoding,attention,4,17300141,17303159,17301854.0,17302725.0,872.0,872.0,1962.4,1275.4,1920.0,700.0,Animal_Sea_Solid_Small,55.46854937495664,58.485952333081514,1.0,Animal_Sea_Solid_Small,2.0,2.0,1.0,1.2279307499993593,,,,,,,,
encoding,fixation,5,17303159,17304667,17303351.0,17303446.0,96.0,96.0,1948.3,1033.1,1920.0,1080.0,fixation,58.48611137503758,59.99442629213445,1.0,Animal_Land_Pattern_Large,-9.0,,,,,,,,,,,
encoding,fixation,5,17303159,17304667,17303455.0,17304398.0,944.0,944.0,1937.0,1050.2,1920.0,1080.0,fixation,58.48611137503758,59.99442629213445,1.0,Animal_Land_Pattern_Large,-9.0,,,,,,,,,,,
encoding,fixation,5,17303159,17304667,17304423.0,17304852.0,430.0,244.0,2121.5,1188.7,2249.0,891.0,Animal_Sea_Pattern_Large,58.48611137503758,59.99442629213445,1.0,Animal_Land_Pattern_Large,-9.0,,,,,,,,,,,
encoding,image,5,17304668,17305679,17304891.0,17305082.0,192.0,192.0,1612.8,1207.6,1591.0,891.0,Animal_Land_Pattern_Large,59.99454141710885,61.00593579211272,1.0,Animal_Land_Pattern_Large,-9.0,,,,,,,,,,,
encoding,image,5,17304668,17305679,17305089.0,17305457.0,369.0,369.0,1563.2,1214.3,1591.0,891.0,Animal_Land_Pattern_Large,59.99454141710885,61.00593579211272,1.0,Animal_Land_Pattern_Large,-9.0,,,,,,,,,,,
encoding,value,5,17305679,17311692,17305686.0,17306110.0,425.0,425.0,1561.2,1243.6,1591.0,891.0,Animal_Land_Pattern_Large,61.00604091701098,67.0183798330836,1.0,Animal_Land_Pattern_Large,-9.0,,,,,,,,,,,
encoding,value,5,17305679,17311692,17306136.0,17307179.0,1044.0,1044.0,1606.7,1101.5,1591.0,891.0,Animal_Land_Pattern_Large,61.00604091701098,67.0183798330836,1.0,Animal_Land_Pattern_Large,-9.0,,,,,,,,,,,
encoding,value,5,17305679,17311692,17307433.0,17310378.0,2946.0,2946.0,1616.4,1103.0,1591.0,891.0,Animal_Land_Pattern_Large,61.00604091701098,67.0183798330836,1.0,Animal_Land_Pattern_Large,-9.0,,,,,,,,,,,
encoding,value,5,17305679,17311692,17310606.0,17310828.0,223.0,223.0,1624.5,1125.5,1591.0,891.0,Animal_Land_Pattern_Large,61.00604091701098,67.0183798330836,1.0,Animal_Land_Pattern_Large,-9.0,,,,,,,,,,,
encoding,value,5,17305679,17311692,17310835.0,17312054.0,1220.0,857.0,1615.9,1085.9,1591.0,891.0,Animal_Land_Pattern_Large,61.00604091701098,67.0183798330836,1.0,Animal_Land_Pattern_Large,-9.0,,,,,,,,,,,
encoding,attention,5,17311692,17314751,17312062.0,17312324.0,263.0,263.0,1569.5,1081.0,1591.0,891.0,Animal_Land_Pattern_Large,67.01848608301952,70.07716279197484,1.0,Animal_Land_Pattern_Large,-9.0,-9.0,1.0,1.0825049590785056,,,,,,,,
encoding,attention,5,17311692,17314751,17312603.0,17313161.0,559.0,559.0,1532.5,1100.8,1591.0,891.0,Animal_Land_Pattern_Large,67.01848608301952,70.07716279197484,1.0,Animal_Land_Pattern_Large,-9.0,-9.0,1.0,1.0825049590785056,,,,,,,,
encoding,attention,5,17311692,17314751,17313176.0,17313414.0,239.0,239.0,1631.5,1085.9,1591.0,891.0,Animal_Land_Pattern_Large,67.01848608301952,70.07716279197484,1.0,Animal_Land_Pattern_Large,-9.0,-9.0,1.0,1.0825049590785056,,,,,,,,
encoding,attention,5,17311692,17314751,17313435.0,17313958.0,524.0,524.0,1539.6,1233.4,1591.0,891.0,Animal_Land_Pattern_Large,67.01848608301952,70.07716279197484,1.0,Animal_Land_Pattern_Large,-9.0,-9.0,1.0,1.0825049590785056,,,,,,,,
encoding,attention,5,17311692,17314751,17313986.0,17314386.0,401.0,401.0,1906.5,1210.2,1920.0,700.0,Animal_Sea_Solid_Small,67.01848608301952,70.07716279197484,1.0,Animal_Land_Pattern_Large,-9.0,-9.0,1.0,1.0825049590785056,,,,,,,,
encoding,attention,5,17311692,17314751,17314408.0,17314547.0,140.0,140.0,1855.5,1101.2,1920.0,1080.0,fixation,67.01848608301952,70.07716279197484,1.0,Animal_Land_Pattern_Large,-9.0,-9.0,1.0,1.0825049590785056,,,,,,,,
encoding,attention,5,17311692,17314751,17314567.0,17314722.0,156.0,156.0,1653.6,1097.9,1591.0,891.0,Animal_Land_Pattern_Large,67.01848608301952,70.07716279197484,1.0,Animal_Land_Pattern_Large,-9.0,-9.0,1.0,1.0825049590785056,,,,,,,,
encoding,fixation,6,17314751,17315506,17315006.0,17315065.0,60.0,60.0,1773.0,1083.0,1591.0,891.0,Animal_Land_Pattern_Large,70.07730033295229,70.83231962495483,1.0,Object_Land_Pattern_Large,9.0,,,,,,,,,,,
encoding,fixation,6,17314751,17315506,17315082.0,17315369.0,288.0,288.0,1919.9,1078.6,1920.0,1080.0,fixation,70.07730033295229,70.83231962495483,1.0,Object_Land_Pattern_Large,9.0,,,,,,,,,,,
encoding,fixation,6,17314751,17315506,17315395.0,17315734.0,340.0,111.0,1979.3,1231.7,1920.0,700.0,Animal_Sea_Solid_Small,70.07730033295229,70.83231962495483,1.0,Object_Land_Pattern_Large,9.0,,,,,,,,,,,
encoding,image,6,17315506,17316518,17315780.0,17315902.0,123.0,123.0,1936.8,798.5999999999999,1920.0,1460.0,Object_Land_Pattern_Large,70.83244441705756,71.84449183312245,1.0,Object_Land_Pattern_Large,9.0,,,,,,,,,,,
encoding,image,6,17315506,17316518,17315926.0,17316740.0,815.0,592.0,1908.3,693.0,1920.0,1460.0,Object_Land_Pattern_Large,70.83244441705756,71.84449183312245,1.0,Object_Land_Pattern_Large,9.0,,,,,,,,,,,
encoding,value,6,17316518,17322531,17316760.0,17318246.0,1487.0,1487.0,1887.3,577.8,1920.0,1460.0,Object_Land_Pattern_Large,71.84459408302791,77.85698866704479,1.0,Object_Land_Pattern_Large,9.0,,,,,,,,,,,
encoding,value,6,17316518,17322531,17318536.0,17318564.0,29.0,29.0,1588.7,90.5,,,none,71.84459408302791,77.85698866704479,1.0,Object_Land_Pattern_Large,9.0,,,,,,,,,,,
encoding,value,6,17316518,17322531,17318584.0,17319206.0,623.0,623.0,1873.7,545.0,1920.0,1460.0,Object_Land_Pattern_Large,71.84459408302791,77.85698866704479,1.0,Object_Land_Pattern_Large,9.0,,,,,,,,,,,
encoding,value,6,17316518,17322531,17319223.0,17323784.0,4562.0,3308.0,1892.9,515.2,1920.0,1460.0,Object_Land_Pattern_Large,71.84459408302791,77.85698866704479,1.0,Object_Land_Pattern_Large,9.0,,,,,,,,,,,
encoding,attention,6,17322531,17325550,17324086.0,17324247.0,162.0,162.0,1909.2,1058.9,1920.0,1080.0,fixation,77.85711770807393,80.8757318330463,1.0,Object_Land_Pattern_Large,9.0,9.0,1.0,0.9718874159734696,,,,,,,,
encoding,attention,6,17322531,17325550,17324258.0,17325391.0,1134.0,1134.0,1915.5,1025.1,1920.0,1080.0,fixation,77.85711770807393,80.8757318330463,1.0,Object_Land_Pattern_Large,9.0,9.0,1.0,0.9718874159734696,,,,,,,,
encoding,fixation,7,17967831,17968588,17968066.0,17968238.0,173.0,173.0,1842.8,1195.1,1591.0,891.0,Animal_Land_Pattern_Large,19.879659166093916,20.636732832994312,2.0,Object_Land_Pattern_Small,-7.0,,,,,,,,,,,
encoding,fixation,7,17967831,17968588,17968260.0,17968415.0,156.0,156.0,1903.4,1074.7,1920.0,1080.0,fixation,19.879659166093916,20.636732832994312,2.0,Object_Land_Pattern_Small,-7.0,,,,,,,,,,,
encoding,image,7,17968588,17969601,17968673.0,17968866.0,194.0,194.0,1909.3,1053.7,1920.0,1080.0,fixation,20.63686512503773,21.649565041065216,2.0,Object_Land_Pattern_Small,-7.0,,,,,,,,,,,
encoding,image,7,17968588,17969601,17968903.0,17969094.0,192.0,192.0,1899.5,748.7,1920.0,1460.0,Object_Land_Pattern_Small,20.63686512503773,21.649565041065216,2.0,Object_Land_Pattern_Small,-7.0,,,,,,,,,,,
encoding,image,7,17968588,17969601,17969107.0,17969885.0,779.0,494.0,1890.6,697.9000000000001,1920.0,1460.0,Object_Land_Pattern_Small,20.63686512503773,21.649565041065216,2.0,Object_Land_Pattern_Small,-7.0,,,,,,,,,,,
encoding,value,7,17969601,17975615,17969907.0,17970114.0,208.0,208.0,1891.5,594.4000000000001,1920.0,1460.0,Object_Land_Pattern_Small,21.64966879109852,27.662994500016794,2.0,Object_Land_Pattern_Small,-7.0,,,,,,,,,,,
encoding,value,7,17969601,17975615,17970131.0,17970366.0,236.0,236.0,1911.7,677.3,1920.0,1460.0,Object_Land_Pattern_Small,21.64966879109852,27.662994500016794,2.0,Object_Land_Pattern_Small,-7.0,,,,,,,,,,,
encoding,value,7,17969601,17975615,17970382.0,17970664.0,283.0,283.0,1917.6,750.9000000000001,1920.0,1460.0,Object_Land_Pattern_Small,21.64966879109852,27.662994500016794,2.0,Object_Land_Pattern_Small,-7.0,,,,,,,,,,,
encoding,value,7,17969601,17975615,17970901.0,17971029.0,129.0,129.0,1998.1,604.2,1920.0,1460.0,Object_Land_Pattern_Small,21.64966879109852,27.662994500016794,2.0,Object_Land_Pattern_Small,-7.0,,,,,,,,,,,
encoding,value,7,17969601,17975615,17971059.0,17971156.0,98.0,98.0,1898.4,659.8,1920.0,1460.0,Object_Land_Pattern_Small,21.64966879109852,27.662994500016794,2.0,Object_Land_Pattern_Small,-7.0,,,,,,,,,,,
encoding,value,7,17969601,17975615,17971185.0,17971898.0,714.0,714.0,1894.0,751.9000000000001,1920.0,1460.0,Object_Land_Pattern_Small,21.64966879109852,27.662994500016794,2.0,Object_Land_Pattern_Small,-7.0,,,,,,,,,,,
encoding,value,7,17969601,17975615,17971916.0,17972303.0,388.0,388.0,1893.7,643.8,1920.0,1460.0,Object_Land_Pattern_Small,21.64966879109852,27.662994500016794,2.0,Object_Land_Pattern_Small,-7.0,,,,,,,,,,,
encoding,value,7,17969601,17975615,17972317.0,17972479.0,163.0,163.0,1909.5,708.3,1920.0,1460.0,Object_Land_Pattern_Small,21.64966879109852,27.662994500016794,2.0,Object_Land_Pattern_Small,-7.0,,,,,,,,,,,
encoding,value,7,17969601,17975615,17972763.0,17973561.0,799.0,799.0,1918.0,739.2,1920.0,1460.0,Object_Land_Pattern_Small,21.64966879109852,27.662994500016794,2.0,Object_Land_Pattern_Small,-7.0,,,,,,,,,,,
encoding,value,7,17969601,17975615,17973573.0,17973990.0,418.0,418.0,1909.3,677.0999999999999,1920.0,1460.0,Object_Land_Pattern_Small,21.64966879109852,27.662994500016794,2.0,Object_Land_Pattern_Small,-7.0,,,,,,,,,,,
encoding,value,7,17969601,17975615,17974006.0,17974529.0,524.0,524.0,1911.0,743.5999999999999,1920.0,1460.0,Object_Land_Pattern_Small,21.64966879109852,27.662994500016794,2.0,Object_Land_Pattern_Small,-7.0,,,,,,,,,,,
encoding,value,7,17969601,17975615,17974561.0,17974727.0,167.0,167.0,1935.5,960.0999999999999,1920.0,1460.0,Object_Land_Pattern_Small,21.64966879109852,27.662994500016794,2.0,Object_Land_Pattern_Small,-7.0,,,,,,,,,,,
encoding,value,7,17969601,17975615,17974747.0,17974973.0,227.0,227.0,1934.5,1070.8,1920.0,1080.0,fixation,21.64966879109852,27.662994500016794,2.0,Object_Land_Pattern_Small,-7.0,,,,,,,,,,,
encoding,value,7,17969601,17975615,17975016.0,17975260.0,245.0,245.0,1926.6,705.5,1920.0,1460.0,Object_Land_Pattern_Small,21.64966879109852,27.662994500016794,2.0,Object_Land_Pattern_Small,-7.0,,,,,,,,,,,
encoding,value,7,17969601,17975615,17975533.0,17975571.0,39.0,39.0,2020.0,692.7,1920.0,1460.0,Object_Land_Pattern_Small,21.64966879109852,27.662994500016794,2.0,Object_Land_Pattern_Small,-7.0,,,,,,,,,,,
encoding,value,7,17969601,17975615,17975593.0,17975754.0,162.0,22.0,1906.5,763.0999999999999,1920.0,1460.0,Object_Land_Pattern_Small,21.64966879109852,27.662994500016794,2.0,Object_Land_Pattern_Small,-7.0,,,,,,,,,,,
encoding,attention,7,17975615,17978635,17975766.0,17975901.0,136.0,136.0,1908.8,713.0999999999999,1920.0,1460.0,Object_Land_Pattern_Small,27.66311279102229,30.683485249988735,2.0,Object_Land_Pattern_Small,-7.0,-7.0,1.0,1.781184958992526,,,,,,,,
encoding,attention,7,17975615,17978635,17975928.0,17976046.0,119.0,119.0,1926.2,555.2,1920.0,1460.0,Object_Land_Pattern_Small,27.66311279102229,30.683485249988735,2.0,Object_Land_Pattern_Small,-7.0,-7.0,1.0,1.781184958992526,,,,,,,,
encoding,attention,7,17975615,17978635,17976055.0,17976294.0,240.0,240.0,1961.3,571.0,1920.0,1460.0,Object_Land_Pattern_Small,27.66311279102229,30.683485249988735,2.0,Object_Land_Pattern_Small,-7.0,-7.0,1.0,1.781184958992526,,,,,,,,
encoding,attention,7,17975615,17978635,17976308.0,17977761.0,1454.0,1454.0,1874.5,588.9000000000001,1920.0,1460.0,Object_Land_Pattern_Small,27.66311279102229,30.683485249988735,2.0,Object_Land_Pattern_Small,-7.0,-7.0,1.0,1.781184958992526,,,,,,,,
encoding,attention,7,17975615,17978635,17977777.0,17978078.0,302.0,302.0,1906.3,660.7,1920.0,1460.0,Object_Land_Pattern_Small,27.66311279102229,30.683485249988735,2.0,Object_Land_Pattern_Small,-7.0,-7.0,1.0,1.781184958992526,,,,,,,,
encoding,attention,7,17975615,17978635,17978372.0,17978454.0,83.0,83.0,2002.1,590.2,1920.0,1460.0,Object_Land_Pattern_Small,27.66311279102229,30.683485249988735,2.0,Object_Land_Pattern_Small,-7.0,-7.0,1.0,1.781184958992526,,,,,,,,
encoding,fixation,8,17978635,17979891,17978858.0,17979136.0,279.0,279.0,1903.9,1078.8,1920.0,1080.0,fixation,30.6836409161333,31.938990958034992,2.0,Object_Sea_Pattern_Small,3.0,,,,,,,,,,,
encoding,fixation,8,17978635,17979891,17979145.0,17980117.0,973.0,746.0,1907.0,1047.2,1920.0,1080.0,fixation,30.6836409161333,31.938990958034992,2.0,Object_Sea_Pattern_Small,3.0,,,,,,,,,,,
encoding,image,8,17979891,17980902,17980147.0,17980511.0,365.0,365.0,2238.6,935.5,2249.0,1269.0,Object_Sea_Pattern_Small,31.939103625016287,32.950315041001886,2.0,Object_Sea_Pattern_Small,3.0,,,,,,,,,,,
encoding,image,8,17979891,17980902,17980788.0,17981094.0,307.0,114.0,2253.1,916.8,2249.0,1269.0,Object_Sea_Pattern_Small,31.939103625016287,32.950315041001886,2.0,Object_Sea_Pattern_Small,3.0,,,,,,,,,,,
encoding,value,8,17980902,17986915,17981114.0,17981977.0,864.0,864.0,2247.0,800.0,2249.0,1269.0,Object_Sea_Pattern_Small,32.95042529096827,38.96287158317864,2.0,Object_Sea_Pattern_Small,3.0,,,,,,,,,,,
encoding,value,8,17980902,17986915,17982269.0,17982833.0,565.0,565.0,2238.6,883.4000000000001,2249.0,1269.0,Object_Sea_Pattern_Small,32.95042529096827,38.96287158317864,2.0,Object_Sea_Pattern_Small,3.0,,,,,,,,,,,
encoding,value,8,17980902,17986915,17982851.0,17983292.0,442.0,442.0,2218.9,772.4000000000001,2249.0,1269.0,Object_Sea_Pattern_Small,32.95042529096827,38.96287158317864,2.0,Object_Sea_Pattern_Small,3.0,,,,,,,,,,,
encoding,value,8,17980902,17986915,17983299.0,17984363.0,1065.0,1065.0,2259.8,781.3,2249.0,1269.0,Object_Sea_Pattern_Small,32.95042529096827,38.96287158317864,2.0,Object_Sea_Pattern_Small,3.0,,,,,,,,,,,
encoding,value,8,17980902,17986915,17984377.0,17984935.0,559.0,559.0,2264.5,836.2,2249.0,1269.0,Object_Sea_Pattern_Small,32.95042529096827,38.96287158317864,2.0,Object_Sea_Pattern_Small,3.0,,,,,,,,,,,
encoding,value,8,17980902,17986915,17984950.0,17985101.0,152.0,152.0,2267.7,760.8,2249.0,1269.0,Object_Sea_Pattern_Small,32.95042529096827,38.96287158317864,2.0,Object_Sea_Pattern_Small,3.0,,,,,,,,,,,
encoding,value,8,17980902,17986915,17985412.0,17986032.0,621.0,621.0,2275.3,775.3,2249.0,1269.0,Object_Sea_Pattern_Small,32.95042529096827,38.96287158317864,2.0,Object_Sea_Pattern_Small,3.0,,,,,,,,,,,
encoding,value,8,17980902,17986915,17986052.0,17986563.0,512.0,512.0,2260.5,879.0,2249.0,1269.0,Object_Sea_Pattern_Small,32.95042529096827,38.96287158317864,2.0,Object_Sea_Pattern_Small,3.0,,,,,,,,,,,
encoding,value,8,17980902,17986915,17986575.0,17987172.0,598.0,340.0,2269.8,818.9000000000001,2249.0,1269.0,Object_Sea_Pattern_Small,32.95042529096827,38.96287158317864,2.0,Object_Sea_Pattern_Small,3.0,,,,,,,,,,,
encoding,attention,8,17986915,17989935,17987182.0,17987625.0,444.0,444.0,2220.2,791.9000000000001,2249.0,1269.0,Object_Sea_Pattern_Small,38.96299241599627,41.982990000164136,2.0,Object_Sea_Pattern_Small,3.0,3.0,1.0,2.24914758419618,,,,,,,,
encoding,attention,8,17986915,17989935,17987905.0,17988086.0,182.0,182.0,2310.9,862.0999999999999,2249.0,1269.0,Object_Sea_Pattern_Small,38.96299241599627,41.982990000164136,2.0,Object_Sea_Pattern_Small,3.0,3.0,1.0,2.24914758419618,,,,,,,,
encoding,attention,8,17986915,17989935,17988150.0,17989462.0,1313.0,1313.0,2227.0,794.0,2249.0,1269.0,Object_Sea_Pattern_Small,38.96299241599627,41.982990000164136,2.0,Object_Sea_Pattern_Small,3.0,3.0,1.0,2.24914758419618,,,,,,,,
encoding,attention,8,17986915,17989935,17989476.0,17989602.0,127.0,127.0,2250.3,815.7,2249.0,1269.0,Object_Sea_Pattern_Small,38.96299241599627,41.982990000164136,2.0,Object_Sea_Pattern_Small,3.0,3.0,1.0,2.24914758419618,,,,,,,,
encoding,fixation,9,17989935,17990942,17990173.0,17990399.0,227.0,227.0,1958.4,1069.8,1920.0,1080.0,fixation,41.98314212518744,42.989179000025615,2.0,Animal_Sea_Solid_Large,1.0,,,,,,,,,,,
encoding,fixation,9,17989935,17990942,17990407.0,17991221.0,815.0,535.0,1927.7,1042.1,1920.0,1080.0,fixation,41.98314212518744,42.989179000025615,2.0,Animal_Sea_Solid_Large,1.0,,,,,,,,,,,
encoding,image,9,17990942,17991953,17991248.0,17991526.0,279.0,279.0,1581.7,874.2,1591.0,1269.0,Animal_Sea_Solid_Large,42.98928929097019,44.00092766596936,2.0,Animal_Sea_Solid_Large,1.0,,,,,,,,,,,
encoding,image,9,17990942,17991953,17991837.0,17991868.0,32.0,32.0,1930.1,821.5999999999999,1920.0,1460.0,Object_Land_Pattern_Small,42.98928929097019,44.00092766596936,2.0,Animal_Sea_Solid_Large,1.0,,,,,,,,,,,
encoding,value,9,17991954,17997967,17991954.0,17992181.0,228.0,228.0,1581.1,859.8,1591.0,1269.0,Animal_Sea_Solid_Large,44.00105141615495,50.013814041158184,2.0,Animal_Sea_Solid_Large,1.0,,,,,,,,,,,
encoding,value,9,17991954,17997967,17992203.0,17992641.0,439.0,439.0,1560.6,749.5999999999999,1591.0,1269.0,Animal_Sea_Solid_Large,44.00105141615495,50.013814041158184,2.0,Animal_Sea_Solid_Large,1.0,,,,,,,,,,,
encoding,value,9,17991954,17997967,17992934.0,17992971.0,38.0,38.0,1872.6,638.7,1920.0,1460.0,Object_Land_Pattern_Small,44.00105141615495,50.013814041158184,2.0,Animal_Sea_Solid_Large,1.0,,,,,,,,,,,
encoding,value,9,17991954,17997967,17993001.0,17993212.0,212.0,212.0,1602.7,768.5,1591.0,1269.0,Animal_Sea_Solid_Large,44.00105141615495,50.013814041158184,2.0,Animal_Sea_Solid_Large,1.0,,,,,,,,,,,
encoding,value,9,17991954,17997967,17993223.0,17993446.0,224.0,224.0,1661.6,791.0999999999999,1591.0,1269.0,Animal_Sea_Solid_Large,44.00105141615495,50.013814041158184,2.0,Animal_Sea_Solid_Large,1.0,,,,,,,,,,,
encoding,value,9,17991954,17997967,17993759.0,17995709.0,1951.0,1951.0,1597.6,748.2,1591.0,1269.0,Animal_Sea_Solid_Large,44.00105141615495,50.013814041158184,2.0,Animal_Sea_Solid_Large,1.0,,,,,,,,,,,
encoding,value,9,17991954,17997967,17996101.0,17998424.0,2324.0,1866.0,1592.8,766.3,1591.0,1269.0,Animal_Sea_Solid_Large,44.00105141615495,50.013814041158184,2.0,Animal_Sea_Solid_Large,1.0,,,,,,,,,,,
encoding,attention,9,17997967,18000985,17998437.0,17998948.0,512.0,512.0,1535.6,748.0999999999999,1591.0,1269.0,Animal_Sea_Solid_Large,50.01393150002696,53.03234220808372,2.0,Animal_Sea_Solid_Large,1.0,1.0,1.0,1.4539520412217826,,,,,,,,
encoding,attention,9,17997967,18000985,17999274.0,17999381.0,108.0,108.0,1881.5,957.8,1920.0,1460.0,Object_Land_Pattern_Small,50.01393150002696,53.03234220808372,2.0,Animal_Sea_Solid_Large,1.0,1.0,1.0,1.4539520412217826,,,,,,,,
encoding,attention,9,17997967,18000985,17999400.0,17999904.0,505.0,505.0,1963.8,1042.3,1920.0,1080.0,fixation,50.01393150002696,53.03234220808372,2.0,Animal_Sea_Solid_Large,1.0,1.0,1.0,1.4539520412217826,,,,,,,,
encoding,attention,9,17997967,18000985,17999930.0,18000110.0,181.0,181.0,1725.4,917.8,1591.0,1269.0,Animal_Sea_Solid_Large,50.01393150002696,53.03234220808372,2.0,Animal_Sea_Solid_Large,1.0,1.0,1.0,1.4539520412217826,,,,,,,,
encoding,attention,9,17997967,18000985,18000127.0,18000324.0,198.0,198.0,1604.5,853.8,1591.0,1269.0,Animal_Sea_Solid_Large,50.01393150002696,53.03234220808372,2.0,Animal_Sea_Solid_Large,1.0,1.0,1.0,1.4539520412217826,,,,,,,,
encoding,fixation,10,18000985,18001491,18001272.0,18001719.0,448.0,219.0,1940.9,1036.9,1920.0,1080.0,fixation,53.03249179106206,53.53794629103504,2.0,Animal_Sea_Solid_Small,-8.0,,,,,,,,,,,
encoding,image,10,18001491,18002502,18001762.0,18001947.0,186.0,186.0,1962.1,1403.5,1920.0,700.0,Animal_Sea_Solid_Small,53.53804516606033,54.54895520815626,2.0,Animal_Sea_Solid_Small,-8.0,,,,,,,,,,,
encoding,image,10,18001491,18002502,18002140.0,18002365.0,226.0,226.0,1978.3,1404.2,1920.0,700.0,Animal_Sea_Solid_Small,53.53804516606033,54.54895520815626,2.0,Animal_Sea_Solid_Small,-8.0,,,,,,,,,,,
encoding,image,10,18001491,18002502,18002414.0,18002816.0,403.0,88.0,1976.3,1009.8,2249.0,1269.0,Object_Sea_Pattern_Small,53.53804516606033,54.54895520815626,2.0,Animal_Sea_Solid_Small,-8.0,,,,,,,,,,,
encoding,value,10,18002502,18008514,18002844.0,18003162.0,319.0,319.0,1961.7,1286.8,1920.0,700.0,Animal_Sea_Solid_Small,54.549076250055805,60.560409458121285,2.0,Animal_Sea_Solid_Small,-8.0,,,,,,,,,,,
encoding,value,10,18002502,18008514,18003379.0,18005224.0,1846.0,1846.0,1944.5,1289.0,1920.0,700.0,Animal_Sea_Solid_Small,54.549076250055805,60.560409458121285,2.0,Animal_Sea_Solid_Small,-8.0,,,,,,,,,,,
encoding,value,10,18002502,18008514,18005459.0,18005630.0,172.0,172.0,1949.3,1273.3,1920.0,700.0,Animal_Sea_Solid_Small,54.549076250055805,60.560409458121285,2.0,Animal_Sea_Solid_Small,-8.0,,,,,,,,,,,
encoding,value,10,18002502,18008514,18005649.0,18006106.0,458.0,458.0,1953.6,1403.9,1920.0,700.0,Animal_Sea_Solid_Small,54.549076250055805,60.560409458121285,2.0,Animal_Sea_Solid_Small,-8.0,,,,,,,,,,,
encoding,value,10,18002502,18008514,18006127.0,18007685.0,1559.0,1559.0,1959.6,1291.7,1920.0,700.0,Animal_Sea_Solid_Small,54.549076250055805,60.560409458121285,2.0,Animal_Sea_Solid_Small,-8.0,,,,,,,,,,,
encoding,value,10,18002502,18008514,18007945.0,18009159.0,1215.0,569.0,1944.6,1283.5,1920.0,700.0,Animal_Sea_Solid_Small,54.549076250055805,60.560409458121285,2.0,Animal_Sea_Solid_Small,-8.0,,,,,,,,,,,
encoding,attention,10,18008514,18011532,18009174.0,18009818.0,645.0,645.0,1997.7,1286.9,1920.0,700.0,Animal_Sea_Solid_Small,60.560511416057125,63.578238000161946,2.0,Animal_Sea_Solid_Small,-8.0,-8.0,1.0,1.8193959170021117,,,,,,,,
encoding,attention,10,18008514,18011532,18009827.0,18010178.0,352.0,352.0,1962.0,1309.7,1920.0,700.0,Animal_Sea_Solid_Small,60.560511416057125,63.578238000161946,2.0,Animal_Sea_Solid_Small,-8.0,-8.0,1.0,1.8193959170021117,,,,,,,,
encoding,attention,10,18008514,18011532,18010190.0,18010538.0,349.0,349.0,1904.9,1269.3,1920.0,700.0,Animal_Sea_Solid_Small,60.560511416057125,63.578238000161946,2.0,Animal_Sea_Solid_Small,-8.0,-8.0,1.0,1.8193959170021117,,,,,,,,
encoding,attention,10,18008514,18011532,18010549.0,18010734.0,186.0,186.0,1961.9,1271.3,1920.0,700.0,Animal_Sea_Solid_Small,60.560511416057125,63.578238000161946,2.0,Animal_Sea_Solid_Small,-8.0,-8.0,1.0,1.8193959170021117,,,,,,,,
encoding,fixation,11,18011532,18012787,18011553.0,18011894.0,342.0,342.0,1950.6,1340.5,1920.0,700.0,Animal_Sea_Solid_Small,63.578389041125774,64.8333880410064,2.0,Object_Land_Solid_Large,-2.0,,,,,,,,,,,
encoding,fixation,11,18011532,18012787,18012165.0,18012447.0,283.0,283.0,2118.5,1062.8,2249.0,1269.0,Object_Sea_Pattern_Small,63.578389041125774,64.8333880410064,2.0,Object_Land_Solid_Large,-2.0,,,,,,,,,,,
encoding,fixation,11,18011532,18012787,18012463.0,18012622.0,160.0,160.0,2029.4,1044.5,2249.0,1269.0,Object_Sea_Pattern_Small,63.578389041125774,64.8333880410064,2.0,Object_Land_Solid_Large,-2.0,,,,,,,,,,,
encoding,fixation,11,18011532,18012787,18012632.0,18012995.0,364.0,155.0,1967.6,1050.8,1920.0,1080.0,fixation,63.578389041125774,64.8333880410064,2.0,Object_Land_Solid_Large,-2.0,,,,,,,,,,,
encoding,image,11,18012787,18013797,18013023.0,18013384.0,362.0,362.0,2259.1,1223.8,2249.0,891.0,Object_Land_Solid_Large,64.83349858317524,65.84385791607201,2.0,Object_Land_Solid_Large,-2.0,,,,,,,,,,,
encoding,image,11,18012787,18013797,18013650.0,18014343.0,694.0,147.0,2268.6,1164.0,2249.0,891.0,Object_Land_Solid_Large,64.83349858317524,65.84385791607201,2.0,Object_Land_Solid_Large,-2.0,,,,,,,,,,,
encoding,value,11,18013797,18019808,18014639.0,18014939.0,301.0,301.0,2287.5,1128.7,2249.0,891.0,Object_Land_Solid_Large,65.84398408303969,71.85447275009938,2.0,Object_Land_Solid_Large,-2.0,,,,,,,,,,,
encoding,value,11,18013797,18019808,18014954.0,18016044.0,1091.0,1091.0,2280.4,1174.2,2249.0,891.0,Object_Land_Solid_Large,65.84398408303969,71.85447275009938,2.0,Object_Land_Solid_Large,-2.0,,,,,,,,,,,
encoding,value,11,18013797,18019808,18016341.0,18016589.0,249.0,249.0,2318.1,1199.5,2249.0,891.0,Object_Land_Solid_Large,65.84398408303969,71.85447275009938,2.0,Object_Land_Solid_Large,-2.0,,,,,,,,,,,
encoding,value,11,18013797,18019808,18016597.0,18017205.0,609.0,609.0,2264.9,1213.1,2249.0,891.0,Object_Land_Solid_Large,65.84398408303969,71.85447275009938,2.0,Object_Land_Solid_Large,-2.0,,,,,,,,,,,
encoding,value,11,18013797,18019808,18017462.0,18017856.0,395.0,395.0,2293.8,1213.6,2249.0,891.0,Object_Land_Solid_Large,65.84398408303969,71.85447275009938,2.0,Object_Land_Solid_Large,-2.0,,,,,,,,,,,
encoding,value,11,18013797,18019808,18017868.0,18018934.0,1067.0,1067.0,2268.1,1168.3,2249.0,891.0,Object_Land_Solid_Large,65.84398408303969,71.85447275009938,2.0,Object_Land_Solid_Large,-2.0,,,,,,,,,,,
encoding,value,11,18013797,18019808,18019237.0,18019634.0,398.0,398.0,2267.6,1044.3,2249.0,1269.0,Object_Sea_Pattern_Small,65.84398408303969,71.85447275009938,2.0,Object_Land_Solid_Large,-2.0,,,,,,,,,,,
encoding,value,11,18013797,18019808,18019672.0,18020183.0,512.0,136.0,2276.8,1195.5,2249.0,891.0,Object_Land_Solid_Large,65.84398408303969,71.85447275009938,2.0,Object_Land_Solid_Large,-2.0,,,,,,,,,,,
encoding,attention,11,18019808,18022825,18020190.0,18020386.0,197.0,197.0,2319.2,1169.0,2249.0,891.0,Object_Land_Solid_Large,71.85458504105918,74.8709210830275,2.0,Object_Land_Solid_Large,-2.0,-2.0,1.0,2.366150249959901,,,,,,,,
encoding,attention,11,18019808,18022825,18020400.0,18020700.0,301.0,301.0,2238.3,1157.5,2249.0,891.0,Object_Land_Solid_Large,71.85458504105918,74.8709210830275,2.0,Object_Land_Solid_Large,-2.0,-2.0,1.0,2.366150249959901,,,,,,,,
encoding,attention,11,18019808,18022825,18020966.0,18021164.0,199.0,199.0,2332.9,1123.7,2249.0,891.0,Object_Land_Solid_Large,71.85458504105918,74.8709210830275,2.0,Object_Land_Solid_Large,-2.0,-2.0,1.0,2.366150249959901,,,,,,,,
encoding,attention,11,18019808,18022825,18021179.0,18021699.0,521.0,521.0,2227.8,1143.1,2249.0,891.0,Object_Land_Solid_Large,71.85458504105918,74.8709210830275,2.0,Object_Land_Solid_Large,-2.0,-2.0,1.0,2.366150249959901,,,,,,,,
encoding,attention,11,18019808,18022825,18021743.0,18021972.0,230.0,230.0,1969.9,763.3,1920.0,1460.0,Object_Land_Pattern_Small,71.85458504105918,74.8709210830275,2.0,Object_Land_Solid_Large,-2.0,-2.0,1.0,2.366150249959901,,,,,,,,
encoding,attention,11,18019808,18022825,18022001.0,18022496.0,496.0,496.0,2140.4,996.3,2249.0,1269.0,Object_Sea_Pattern_Small,71.85458504105918,74.8709210830275,2.0,Object_Land_Solid_Large,-2.0,-2.0,1.0,2.366150249959901,,,,,,,,
encoding,attention,11,18019808,18022825,18022520.0,18022714.0,195.0,195.0,1940.7,836.3,1920.0,1460.0,Object_Land_Pattern_Small,71.85458504105918,74.8709210830275,2.0,Object_Land_Solid_Large,-2.0,-2.0,1.0,2.366150249959901,,,,,,,,
encoding,fixation,12,18022825,18024081,18023050.0,18023428.0,379.0,379.0,2042.7,1000.0999999999999,2249.0,1269.0,Object_Sea_Pattern_Small,74.87106379098259,76.12691704113968,2.0,Animal_Land_Pattern_Large,2.0,,,,,,,,,,,
encoding,fixation,12,18022825,18024081,18023451.0,18023939.0,489.0,489.0,2082.2,1204.1,2249.0,891.0,Object_Land_Solid_Large,74.87106379098259,76.12691704113968,2.0,Animal_Land_Pattern_Large,2.0,,,,,,,,,,,
encoding,fixation,12,18022825,18024081,18023953.0,18024415.0,463.0,128.0,2014.3,1177.3,2249.0,891.0,Object_Land_Solid_Large,74.87106379098259,76.12691704113968,2.0,Animal_Land_Pattern_Large,2.0,,,,,,,,,,,
encoding,image,12,18024081,18025093,18024442.0,18024603.0,162.0,162.0,1731.8,1164.7,1591.0,891.0,Animal_Land_Pattern_Large,76.127027166076,77.13957616616972,2.0,Animal_Land_Pattern_Large,2.0,,,,,,,,,,,
encoding,image,12,18024081,18025093,18024617.0,18024757.0,141.0,141.0,1633.9,1170.7,1591.0,891.0,Animal_Land_Pattern_Large,76.127027166076,77.13957616616972,2.0,Animal_Land_Pattern_Large,2.0,,,,,,,,,,,
encoding,image,12,18024081,18025093,18025031.0,18025293.0,263.0,62.0,1654.2,1156.8,1591.0,891.0,Animal_Land_Pattern_Large,76.127027166076,77.13957616616972,2.0,Animal_Land_Pattern_Large,2.0,,,,,,,,,,,
encoding,value,12,18025093,18031105,18025307.0,18026358.0,1052.0,1052.0,1614.7,1089.7,1591.0,891.0,Animal_Land_Pattern_Large,77.13971195812337,83.15098179108463,2.0,Animal_Land_Pattern_Large,2.0,,,,,,,,,,,
encoding,value,12,18025093,18031105,18026639.0,18027143.0,505.0,505.0,1642.7,1095.1,1591.0,891.0,Animal_Land_Pattern_Large,77.13971195812337,83.15098179108463,2.0,Animal_Land_Pattern_Large,2.0,,,,,,,,,,,
encoding,value,12,18025093,18031105,18027152.0,18027986.0,835.0,835.0,1605.4,1107.0,1591.0,891.0,Animal_Land_Pattern_Large,77.13971195812337,83.15098179108463,2.0,Animal_Land_Pattern_Large,2.0,,,,,,,,,,,
encoding,value,12,18025093,18031105,18028252.0,18028690.0,439.0,439.0,1604.4,1180.0,1591.0,891.0,Animal_Land_Pattern_Large,77.13971195812337,83.15098179108463,2.0,Animal_Land_Pattern_Large,2.0,,,,,,,,,,,
encoding,value,12,18025093,18031105,18028711.0,18029772.0,1062.0,1062.0,1600.8,1086.7,1591.0,891.0,Animal_Land_Pattern_Large,77.13971195812337,83.15098179108463,2.0,Animal_Land_Pattern_Large,2.0,,,,,,,,,,,
encoding,value,12,18025093,18031105,18029781.0,18030384.0,604.0,604.0,1576.3,1128.6,1591.0,891.0,Animal_Land_Pattern_Large,77.13971195812337,83.15098179108463,2.0,Animal_Land_Pattern_Large,2.0,,,,,,,,,,,
encoding,value,12,18025093,18031105,18030690.0,18030896.0,207.0,207.0,1612.3,1149.0,1591.0,891.0,Animal_Land_Pattern_Large,77.13971195812337,83.15098179108463,2.0,Animal_Land_Pattern_Large,2.0,,,,,,,,,,,
encoding,value,12,18025093,18031105,18030914.0,18031319.0,406.0,191.0,1607.9,1081.0,1591.0,891.0,Animal_Land_Pattern_Large,77.13971195812337,83.15098179108463,2.0,Animal_Land_Pattern_Large,2.0,,,,,,,,,,,
encoding,attention,12,18031105,18034126,18031326.0,18031583.0,258.0,258.0,1573.2,1070.9,1591.0,1269.0,Animal_Sea_Solid_Large,83.15115050016902,86.17128341598436,2.0,Animal_Land_Pattern_Large,2.0,2.0,1.0,1.1401225419249386,,,,,,,,
encoding,attention,12,18031105,18034126,18031597.0,18031920.0,324.0,324.0,1648.9,1078.2,1591.0,1269.0,Animal_Sea_Solid_Large,83.15115050016902,86.17128341598436,2.0,Animal_Land_Pattern_Large,2.0,2.0,1.0,1.1401225419249386,,,,,,,,
encoding,attention,12,18031105,18034126,18031942.0,18032196.0,255.0,255.0,1579.5,1210.0,1591.0,891.0,Animal_Land_Pattern_Large,83.15115050016902,86.17128341598436,2.0,Animal_Land_Pattern_Large,2.0,2.0,1.0,1.1401225419249386,,,,,,,,
encoding,attention,12,18031105,18034126,18032213.0,18032540.0,328.0,328.0,1634.4,1156.2,1591.0,891.0,Animal_Land_Pattern_Large,83.15115050016902,86.17128341598436,2.0,Animal_Land_Pattern_Large,2.0,2.0,1.0,1.1401225419249386,,,,,,,,
encoding,attention,12,18031105,18034126,18032788.0,18032929.0,142.0,142.0,1885.0,1163.9,1920.0,700.0,Animal_Sea_Solid_Small,83.15115050016902,86.17128341598436,2.0,Animal_Land_Pattern_Large,2.0,2.0,1.0,1.1401225419249386,,,,,,,,
encoding,attention,12,18031105,18034126,18032963.0,18033186.0,224.0,224.0,2101.5,1167.2,2249.0,891.0,Object_Land_Solid_Large,83.15115050016902,86.17128341598436,2.0,Animal_Land_Pattern_Large,2.0,2.0,1.0,1.1401225419249386,,,,,,,,
encoding,attention,12,18031105,18034126,18033216.0,18033492.0,277.0,277.0,1663.5,1131.7,1591.0,891.0,Animal_Land_Pattern_Large,83.15115050016902,86.17128341598436,2.0,Animal_Land_Pattern_Large,2.0,2.0,1.0,1.1401225419249386,,,,,,,,
encoding,attention,12,18031105,18034126,18033526.0,18033667.0,142.0,142.0,1928.6,1044.1,1920.0,1080.0,fixation,83.15115050016902,86.17128341598436,2.0,Animal_Land_Pattern_Large,2.0,2.0,1.0,1.1401225419249386,,,,,,,,
encoding,attention,12,18031105,18034126,18033942.0,18034021.0,80.0,80.0,1876.6,1089.1,1920.0,1080.0,fixation,83.15115050016902,86.17128341598436,2.0,Animal_Land_Pattern_Large,2.0,2.0,1.0,1.1401225419249386,,,,,,,,
encoding,fixation,13,18477070,18478077,18477107.0,18477257.0,151.0,151.0,2108.7,828.9000000000001,2249.0,1269.0,Object_Sea_Pattern_Small,6.706807584036142,7.713261374970898,3.0,Animal_Sea_Pattern_Small,8.0,,,,,,,,,,,
encoding,fixation,13,18477070,18478077,18477292.0,18477479.0,188.0,188.0,1910.5,1113.8,1920.0,1080.0,fixation,6.706807584036142,7.713261374970898,3.0,Animal_Sea_Pattern_Small,8.0,,,,,,,,,,,
encoding,fixation,13,18477070,18478077,18477686.0,18477878.0,193.0,193.0,1947.8,1051.1,1920.0,1080.0,fixation,6.706807584036142,7.713261374970898,3.0,Animal_Sea_Pattern_Small,8.0,,,,,,,,,,,
encoding,fixation,13,18477070,18478077,18477909.0,18478168.0,260.0,168.0,2078.1,1298.5,2249.0,891.0,Object_Sea_Solid_Large,6.706807584036142,7.713261374970898,3.0,Animal_Sea_Pattern_Small,8.0,,,,,,,,,,,
encoding,image,13,18478077,18479091,18478201.0,18478278.0,78.0,78.0,1950.9,1180.6,1920.0,700.0,Animal_Land_Solid_Large,7.713387791998684,8.726947125047445,3.0,Animal_Sea_Pattern_Small,8.0,,,,,,,,,,,
encoding,image,13,18478077,18479091,18478327.0,18478423.0,97.0,97.0,2003.1,809.0,1920.0,1460.0,Animal_Sea_Pattern_Small,7.713387791998684,8.726947125047445,3.0,Animal_Sea_Pattern_Small,8.0,,,,,,,,,,,
encoding,image,13,18478077,18479091,18478442.0,18478658.0,217.0,217.0,1927.0,694.5999999999999,1920.0,1460.0,Animal_Sea_Pattern_Small,7.713387791998684,8.726947125047445,3.0,Animal_Sea_Pattern_Small,8.0,,,,,,,,,,,
encoding,image,13,18478077,18479091,18478666.0,18479310.0,645.0,425.0,1928.5,674.0,1920.0,1460.0,Animal_Sea_Pattern_Small,7.713387791998684,8.726947125047445,3.0,Animal_Sea_Pattern_Small,8.0,,,,,,,,,,,
encoding,value,13,18479091,18485105,18479324.0,18479582.0,259.0,259.0,1935.5,589.5,1920.0,1460.0,Animal_Sea_Pattern_Small,8.727063541999087,14.74099012510851,3.0,Animal_Sea_Pattern_Small,8.0,,,,,,,,,,,
encoding,value,13,18479091,18485105,18479594.0,18479780.0,187.0,187.0,1924.9,636.0,1920.0,1460.0,Animal_Sea_Pattern_Small,8.727063541999087,14.74099012510851,3.0,Animal_Sea_Pattern_Small,8.0,,,,,,,,,,,
encoding,value,13,18479091,18485105,18480075.0,18480117.0,43.0,43.0,2082.3,583.0,1920.0,1460.0,Animal_Sea_Pattern_Small,8.727063541999087,14.74099012510851,3.0,Animal_Sea_Pattern_Small,8.0,,,,,,,,,,,
encoding,value,13,18479091,18485105,18480171.0,18482626.0,2456.0,2456.0,1967.4,686.3,1920.0,1460.0,Animal_Sea_Pattern_Small,8.727063541999087,14.74099012510851,3.0,Animal_Sea_Pattern_Small,8.0,,,,,,,,,,,
encoding,value,13,18479091,18485105,18482645.0,18483764.0,1120.0,1120.0,1943.8,553.5,1920.0,1460.0,Animal_Sea_Pattern_Small,8.727063541999087,14.74099012510851,3.0,Animal_Sea_Pattern_Small,8.0,,,,,,,,,,,
encoding,value,13,18479091,18485105,18483795.0,18483855.0,61.0,61.0,1931.7,534.4000000000001,1920.0,1460.0,Animal_Sea_Pattern_Small,8.727063541999087,14.74099012510851,3.0,Animal_Sea_Pattern_Small,8.0,,,,,,,,,,,
encoding,value,13,18479091,18485105,18483913.0,18483957.0,45.0,45.0,1929.3,527.5,1920.0,1460.0,Animal_Sea_Pattern_Small,8.727063541999087,14.74099012510851,3.0,Animal_Sea_Pattern_Small,8.0,,,,,,,,,,,
encoding,value,13,18479091,18485105,18484012.0,18484059.0,48.0,48.0,1944.3,541.3,1920.0,1460.0,Animal_Sea_Pattern_Small,8.727063541999087,14.74099012510851,3.0,Animal_Sea_Pattern_Small,8.0,,,,,,,,,,,
encoding,value,13,18479091,18485105,18484119.0,18484720.0,602.0,602.0,1932.4,542.0,1920.0,1460.0,Animal_Sea_Pattern_Small,8.727063541999087,14.74099012510851,3.0,Animal_Sea_Pattern_Small,8.0,,,,,,,,,,,
encoding,value,13,18479091,18485105,18484735.0,18485392.0,658.0,370.0,1927.1,651.9000000000001,1920.0,1460.0,Animal_Sea_Pattern_Small,8.727063541999087,14.74099012510851,3.0,Animal_Sea_Pattern_Small,8.0,,,,,,,,,,,
encoding,attention,13,18485105,18488123,18485411.0,18485990.0,580.0,580.0,1896.8,546.5999999999999,1920.0,1460.0,Animal_Sea_Pattern_Small,14.74113787501119,17.75939212506637,3.0,Animal_Sea_Pattern_Small,8.0,8.0,1.0,2.7314366248901933,,,,,,,,
encoding,attention,13,18485105,18488123,18486405.0,18486506.0,102.0,102.0,2157.4,401.20000000000005,,,none,14.74113787501119,17.75939212506637,3.0,Animal_Sea_Pattern_Small,8.0,8.0,1.0,2.7314366248901933,,,,,,,,
encoding,attention,13,18485105,18488123,18487296.0,18487328.0,33.0,33.0,1895.3,475.70000000000005,,,none,14.74113787501119,17.75939212506637,3.0,Animal_Sea_Pattern_Small,8.0,8.0,1.0,2.7314366248901933,,,,,,,,
encoding,attention,13,18485105,18488123,18487522.0,18487545.0,24.0,24.0,1903.6,473.79999999999995,,,none,14.74113787501119,17.75939212506637,3.0,Animal_Sea_Pattern_Small,8.0,8.0,1.0,2.7314366248901933,,,,,,,,
encoding,attention,13,18485105,18488123,18487567.0,18487605.0,39.0,39.0,1903.0,482.4000000000001,,,none,14.74113787501119,17.75939212506637,3.0,Animal_Sea_Pattern_Small,8.0,8.0,1.0,2.7314366248901933,,,,,,,,
encoding,attention,13,18485105,18488123,18487639.0,18487781.0,143.0,143.0,1905.1,486.0999999999999,,,none,14.74113787501119,17.75939212506637,3.0,Animal_Sea_Pattern_Small,8.0,8.0,1.0,2.7314366248901933,,,,,,,,
encoding,attention,13,18485105,18488123,18488001.0,18488021.0,21.0,21.0,1920.0,480.0,,,none,14.74113787501119,17.75939212506637,3.0,Animal_Sea_Pattern_Small,8.0,8.0,1.0,2.7314366248901933,,,,,,,,
encoding,fixation,14,18488123,18489128,18488125.0,18488192.0,68.0,68.0,1917.4,478.0999999999999,,,none,17.759528750088066,18.764306833967566,3.0,Object_Sea_Pattern_Small,-8.0,,,,,,,,,,,
encoding,fixation,14,18488123,18489128,18488205.0,18488336.0,132.0,132.0,1987.7,527.3,1920.0,1460.0,Animal_Sea_Pattern_Small,17.759528750088066,18.764306833967566,3.0,Object_Sea_Pattern_Small,-8.0,,,,,,,,,,,
encoding,fixation,14,18488123,18489128,18488388.0,18489390.0,1003.0,740.0,1923.8,1012.4000000000001,1920.0,1080.0,fixation,17.759528750088066,18.764306833967566,3.0,Object_Sea_Pattern_Small,-8.0,,,,,,,,,,,
encoding,image,14,18489128,18490140,18489417.0,18489665.0,249.0,249.0,2237.8,922.8,2249.0,1269.0,Object_Sea_Pattern_Small,18.764427084010094,19.775443417020146,3.0,Object_Sea_Pattern_Small,-8.0,,,,,,,,,,,
encoding,image,14,18489128,18490140,18489676.0,18489893.0,218.0,218.0,2272.0,885.0999999999999,2249.0,1269.0,Object_Sea_Pattern_Small,18.764427084010094,19.775443417020146,3.0,Object_Sea_Pattern_Small,-8.0,,,,,,,,,,,
encoding,value,14,18490140,18496152,18490151.0,18490311.0,161.0,161.0,2282.3,889.0,2249.0,1269.0,Object_Sea_Pattern_Small,19.775579042034224,25.787246459163725,3.0,Object_Sea_Pattern_Small,-8.0,,,,,,,,,,,
encoding,value,14,18490140,18496152,18490327.0,18496542.0,6216.0,5825.0,2271.2,766.0999999999999,2249.0,1269.0,Object_Sea_Pattern_Small,19.775579042034224,25.787246459163725,3.0,Object_Sea_Pattern_Small,-8.0,,,,,,,,,,,
encoding,attention,14,18496152,18499170,18496555.0,18496681.0,127.0,127.0,2231.5,772.0,2249.0,1269.0,Object_Sea_Pattern_Small,25.787355334032327,28.805089875124395,3.0,Object_Sea_Pattern_Small,-8.0,-8.0,1.0,1.4588497078511864,,,,,,,,
encoding,attention,14,18496152,18499170,18496959.0,18497944.0,986.0,986.0,2239.8,792.5999999999999,2249.0,1269.0,Object_Sea_Pattern_Small,25.787355334032327,28.805089875124395,3.0,Object_Sea_Pattern_Small,-8.0,-8.0,1.0,1.4588497078511864,,,,,,,,
encoding,attention,14,18496152,18499170,18497961.0,18498192.0,232.0,232.0,2277.2,865.2,2249.0,1269.0,Object_Sea_Pattern_Small,25.787355334032327,28.805089875124395,3.0,Object_Sea_Pattern_Small,-8.0,-8.0,1.0,1.4588497078511864,,,,,,,,
encoding,attention,14,18496152,18499170,18498201.0,18498858.0,658.0,658.0,2295.1,902.3,2249.0,1269.0,Object_Sea_Pattern_Small,25.787355334032327,28.805089875124395,3.0,Object_Sea_Pattern_Small,-8.0,-8.0,1.0,1.4588497078511864,,,,,,,,
encoding,fixation,15,18499170,18500675,18499231.0,18499459.0,229.0,229.0,2267.0,948.0999999999999,2249.0,1269.0,Object_Sea_Pattern_Small,28.80525958398357,30.310235291952267,3.0,Object_Land_Solid_Small,7.0,,,,,,,,,,,
encoding,fixation,15,18499170,18500675,18499484.0,18500504.0,1021.0,1021.0,1955.8,1042.9,1920.0,1080.0,fixation,28.80525958398357,30.310235291952267,3.0,Object_Land_Solid_Small,7.0,,,,,,,,,,,
encoding,image,15,18500675,18501686,18500831.0,18500904.0,74.0,74.0,1962.4,1002.5999999999999,1920.0,1460.0,Animal_Sea_Pattern_Small,30.31036520912312,31.32173691713251,3.0,Object_Land_Solid_Small,7.0,,,,,,,,,,,
encoding,image,15,18500675,18501686,18501011.0,18501691.0,681.0,675.0,1602.0,836.5,1591.0,1269.0,Object_Land_Solid_Small,30.31036520912312,31.32173691713251,3.0,Object_Land_Solid_Small,7.0,,,,,,,,,,,
encoding,value,15,18501687,18507699,18501714.0,18501747.0,34.0,34.0,1595.0,840.9000000000001,1591.0,1269.0,Object_Land_Solid_Small,31.321838709060103,37.334255875088274,3.0,Object_Land_Solid_Small,7.0,,,,,,,,,,,
encoding,value,15,18501687,18507699,18501778.0,18501939.0,162.0,162.0,1814.6,933.9000000000001,1591.0,1269.0,Object_Land_Solid_Small,31.321838709060103,37.334255875088274,3.0,Object_Land_Solid_Small,7.0,,,,,,,,,,,
encoding,value,15,18501687,18507699,18502034.0,18502120.0,87.0,87.0,1589.8,769.0,1591.0,1269.0,Object_Land_Solid_Small,31.321838709060103,37.334255875088274,3.0,Object_Land_Solid_Small,7.0,,,,,,,,,,,
encoding,value,15,18501687,18507699,18502144.0,18502558.0,415.0,415.0,1590.0,771.0,1591.0,1269.0,Object_Land_Solid_Small,31.321838709060103,37.334255875088274,3.0,Object_Land_Solid_Small,7.0,,,,,,,,,,,
encoding,value,15,18501687,18507699,18502846.0,18502874.0,29.0,29.0,1964.8,737.0,1920.0,1460.0,Animal_Sea_Pattern_Small,31.321838709060103,37.334255875088274,3.0,Object_Land_Solid_Small,7.0,,,,,,,,,,,
encoding,value,15,18501687,18507699,18503077.0,18503182.0,106.0,106.0,1621.3,772.5,1591.0,1269.0,Object_Land_Solid_Small,31.321838709060103,37.334255875088274,3.0,Object_Land_Solid_Small,7.0,,,,,,,,,,,
encoding,value,15,18501687,18507699,18503224.0,18504111.0,888.0,888.0,1638.4,755.0999999999999,1591.0,1269.0,Object_Land_Solid_Small,31.321838709060103,37.334255875088274,3.0,Object_Land_Solid_Small,7.0,,,,,,,,,,,
encoding,value,15,18501687,18507699,18504165.0,18504262.0,98.0,98.0,1603.2,736.7,1591.0,1269.0,Object_Land_Solid_Small,31.321838709060103,37.334255875088274,3.0,Object_Land_Solid_Small,7.0,,,,,,,,,,,
encoding,value,15,18501687,18507699,18504284.0,18504359.0,76.0,76.0,1604.3,737.5999999999999,1591.0,1269.0,Object_Land_Solid_Small,31.321838709060103,37.334255875088274,3.0,Object_Land_Solid_Small,7.0,,,,,,,,,,,
encoding,value,15,18501687,18507699,18504381.0,18504642.0,262.0,262.0,1607.6,741.3,1591.0,1269.0,Object_Land_Solid_Small,31.321838709060103,37.334255875088274,3.0,Object_Land_Solid_Small,7.0,,,,,,,,,,,
encoding,value,15,18501687,18507699,18504681.0,18507025.0,2345.0,2345.0,1598.3,746.8,1591.0,1269.0,Object_Land_Solid_Small,31.321838709060103,37.334255875088274,3.0,Object_Land_Solid_Small,7.0,,,,,,,,,,,
encoding,value,15,18501687,18507699,18507337.0,18507954.0,618.0,362.0,1639.4,822.2,1591.0,1269.0,Object_Land_Solid_Small,31.321838709060103,37.334255875088274,3.0,Object_Land_Solid_Small,7.0,,,,,,,,,,,
encoding,attention,15,18507699,18510717,18507962.0,18508154.0,193.0,193.0,1642.5,791.7,1591.0,1269.0,Object_Land_Solid_Small,37.33437479194254,40.35202508396469,3.0,Object_Land_Solid_Small,7.0,7.0,1.0,1.3044588749762625,,,,,,,,
encoding,attention,15,18507699,18510717,18508169.0,18508365.0,197.0,197.0,1576.9,738.9000000000001,1591.0,1269.0,Object_Land_Solid_Small,37.33437479194254,40.35202508396469,3.0,Object_Land_Solid_Small,7.0,7.0,1.0,1.3044588749762625,,,,,,,,
encoding,attention,15,18507699,18510717,18508376.0,18508723.0,348.0,348.0,1634.2,739.9000000000001,1591.0,1269.0,Object_Land_Solid_Small,37.33437479194254,40.35202508396469,3.0,Object_Land_Solid_Small,7.0,7.0,1.0,1.3044588749762625,,,,,,,,
encoding,attention,15,18507699,18510717,18508739.0,18509630.0,892.0,892.0,1610.3,832.3,1591.0,1269.0,Object_Land_Solid_Small,37.33437479194254,40.35202508396469,3.0,Object_Land_Solid_Small,7.0,7.0,1.0,1.3044588749762625,,,,,,,,
encoding,attention,15,18507699,18510717,18509638.0,18510024.0,387.0,387.0,1635.8,809.3,1591.0,1269.0,Object_Land_Solid_Small,37.33437479194254,40.35202508396469,3.0,Object_Land_Solid_Small,7.0,7.0,1.0,1.3044588749762625,,,,,,,,
encoding,attention,15,18507699,18510717,18510050.0,18510284.0,235.0,235.0,1877.2,954.9000000000001,1920.0,1460.0,Animal_Sea_Pattern_Small,37.33437479194254,40.35202508396469,3.0,Object_Land_Solid_Small,7.0,7.0,1.0,1.3044588749762625,,,,,,,,
encoding,fixation,16,18510717,18512222,18510832.0,18511087.0,256.0,256.0,2195.5,933.4000000000001,2249.0,1269.0,Object_Sea_Pattern_Small,40.352164125069976,41.85715579194948,3.0,Object_Sea_Solid_Large,8.0,,,,,,,,,,,
encoding,fixation,16,18510717,18512222,18511398.0,18511752.0,355.0,355.0,2181.1,1064.8,2249.0,1269.0,Object_Sea_Pattern_Small,40.352164125069976,41.85715579194948,3.0,Object_Sea_Solid_Large,8.0,,,,,,,,,,,
encoding,fixation,16,18510717,18512222,18511777.0,18512399.0,623.0,445.0,2128.1,1214.1,2249.0,891.0,Object_Sea_Solid_Large,40.352164125069976,41.85715579194948,3.0,Object_Sea_Solid_Large,8.0,,,,,,,,,,,
encoding,image,16,18512222,18513235,18512415.0,18512758.0,344.0,344.0,2252.8,1224.0,2249.0,891.0,Object_Sea_Solid_Large,41.85725812497549,42.870039416942745,3.0,Object_Sea_Solid_Large,8.0,,,,,,,,,,,
encoding,image,16,18512222,18513235,18513015.0,18513416.0,402.0,220.0,2274.3,1217.7,2249.0,891.0,Object_Sea_Solid_Large,41.85725812497549,42.870039416942745,3.0,Object_Sea_Solid_Large,8.0,,,,,,,,,,,
encoding,value,16,18513235,18519248,18513431.0,18513781.0,351.0,351.0,2264.6,1138.8,2249.0,891.0,Object_Sea_Solid_Large,42.87015966698527,48.882736625149846,3.0,Object_Sea_Solid_Large,8.0,,,,,,,,,,,
encoding,value,16,18513235,18519248,18514055.0,18515027.0,973.0,973.0,2270.5,1131.0,2249.0,891.0,Object_Sea_Solid_Large,42.87015966698527,48.882736625149846,3.0,Object_Sea_Solid_Large,8.0,,,,,,,,,,,
encoding,value,16,18513235,18519248,18515034.0,18515732.0,699.0,699.0,2265.7,1157.6,2249.0,891.0,Object_Sea_Solid_Large,42.87015966698527,48.882736625149846,3.0,Object_Sea_Solid_Large,8.0,,,,,,,,,,,
encoding,value,16,18513235,18519248,18516026.0,18516241.0,216.0,216.0,2307.5,1183.3,2249.0,891.0,Object_Sea_Solid_Large,42.87015966698527,48.882736625149846,3.0,Object_Sea_Solid_Large,8.0,,,,,,,,,,,
encoding,value,16,18513235,18519248,18516259.0,18516570.0,312.0,312.0,2269.3,1128.2,2249.0,891.0,Object_Sea_Solid_Large,42.87015966698527,48.882736625149846,3.0,Object_Sea_Solid_Large,8.0,,,,,,,,,,,
encoding,value,16,18513235,18519248,18516596.0,18516883.0,288.0,288.0,2014.7,1009.5999999999999,2249.0,1269.0,Object_Sea_Pattern_Small,42.87015966698527,48.882736625149846,3.0,Object_Sea_Solid_Large,8.0,,,,,,,,,,,
encoding,value,16,18513235,18519248,18516895.0,18517081.0,187.0,187.0,1954.2,998.5,1920.0,1460.0,Animal_Sea_Pattern_Small,42.87015966698527,48.882736625149846,3.0,Object_Sea_Solid_Large,8.0,,,,,,,,,,,
encoding,value,16,18513235,18519248,18517121.0,18517516.0,396.0,396.0,2264.9,1157.0,2249.0,891.0,Object_Sea_Solid_Large,42.87015966698527,48.882736625149846,3.0,Object_Sea_Solid_Large,8.0,,,,,,,,,,,
encoding,value,16,18513235,18519248,18517766.0,18517909.0,144.0,144.0,2298.2,1155.2,2249.0,891.0,Object_Sea_Solid_Large,42.87015966698527,48.882736625149846,3.0,Object_Sea_Solid_Large,8.0,,,,,,,,,,,
encoding,value,16,18513235,18519248,18517921.0,18518658.0,738.0,738.0,2250.7,1198.6,2249.0,891.0,Object_Sea_Solid_Large,42.87015966698527,48.882736625149846,3.0,Object_Sea_Solid_Large,8.0,,,,,,,,,,,
encoding,value,16,18513235,18519248,18518672.0,18519181.0,510.0,510.0,2225.6,1118.2,2249.0,891.0,Object_Sea_Solid_Large,42.87015966698527,48.882736625149846,3.0,Object_Sea_Solid_Large,8.0,,,,,,,,,,,
encoding,attention,16,18519248,18522263,18519457.0,18519792.0,336.0,336.0,2248.1,1144.9,2249.0,891.0,Object_Sea_Solid_Large,48.88284958410077,51.89722737506963,3.0,Object_Sea_Solid_Large,8.0,,,,,,,,,,,
encoding,attention,16,18519248,18522263,18519806.0,18520210.0,405.0,405.0,2302.0,1144.0,2249.0,891.0,Object_Sea_Solid_Large,48.88284958410077,51.89722737506963,3.0,Object_Sea_Solid_Large,8.0,,,,,,,,,,,
encoding,attention,16,18519248,18522263,18520484.0,18521155.0,672.0,672.0,2322.4,1135.9,2249.0,891.0,Object_Sea_Solid_Large,48.88284958410077,51.89722737506963,3.0,Object_Sea_Solid_Large,8.0,,,,,,,,,,,
encoding,fixation,17,18522263,18523520,18522921.0,18523373.0,453.0,453.0,2258.5,1104.5,2249.0,891.0,Object_Sea_Solid_Large,51.89735308405943,53.15449079195969,3.0,Animal_Land_Pattern_Large,-3.0,,,,,,,,,,,
encoding,image,17,18523520,18524532,18523614.0,18523735.0,122.0,122.0,2226.2,1097.2,2249.0,891.0,Object_Sea_Solid_Large,53.15461516706273,54.16606741701253,3.0,Animal_Land_Pattern_Large,-3.0,,,,,,,,,,,
encoding,image,17,18523520,18524532,18523777.0,18524155.0,379.0,379.0,1677.1,1219.1,1591.0,891.0,Animal_Land_Pattern_Large,53.15461516706273,54.16606741701253,3.0,Animal_Land_Pattern_Large,-3.0,,,,,,,,,,,
encoding,image,17,18523520,18524532,18524419.0,18524658.0,240.0,113.0,1634.6,1186.3,1591.0,891.0,Animal_Land_Pattern_Large,53.15461516706273,54.16606741701253,3.0,Animal_Land_Pattern_Large,-3.0,,,,,,,,,,,
encoding,value,17,18524532,18530544,18524687.0,18524844.0,158.0,158.0,1840.7,1102.6,1591.0,891.0,Animal_Land_Pattern_Large,54.16619937494397,60.178221750073135,3.0,Animal_Land_Pattern_Large,-3.0,,,,,,,,,,,
encoding,value,17,18524532,18530544,18524867.0,18525552.0,686.0,686.0,1639.5,1085.9,1591.0,891.0,Animal_Land_Pattern_Large,54.16619937494397,60.178221750073135,3.0,Animal_Land_Pattern_Large,-3.0,,,,,,,,,,,
encoding,value,17,18524532,18530544,18525570.0,18525878.0,309.0,309.0,1597.0,1167.9,1591.0,891.0,Animal_Land_Pattern_Large,54.16619937494397,60.178221750073135,3.0,Animal_Land_Pattern_Large,-3.0,,,,,,,,,,,
encoding,value,17,18524532,18530544,18525895.0,18526683.0,789.0,789.0,1635.5,1096.4,1591.0,891.0,Animal_Land_Pattern_Large,54.16619937494397,60.178221750073135,3.0,Animal_Land_Pattern_Large,-3.0,,,,,,,,,,,
encoding,value,17,18524532,18530544,18526922.0,18527171.0,250.0,250.0,1621.7,1108.0,1591.0,891.0,Animal_Land_Pattern_Large,54.16619937494397,60.178221750073135,3.0,Animal_Land_Pattern_Large,-3.0,,,,,,,,,,,
encoding,value,17,18524532,18530544,18527184.0,18527675.0,492.0,492.0,1594.6,1181.9,1591.0,891.0,Animal_Land_Pattern_Large,54.16619937494397,60.178221750073135,3.0,Animal_Land_Pattern_Large,-3.0,,,,,,,,,,,
encoding,value,17,18524532,18530544,18527694.0,18528357.0,664.0,664.0,1637.5,1087.5,1591.0,891.0,Animal_Land_Pattern_Large,54.16619937494397,60.178221750073135,3.0,Animal_Land_Pattern_Large,-3.0,,,,,,,,,,,
encoding,value,17,18524532,18530544,18528371.0,18528560.0,190.0,190.0,1597.7,1172.2,1591.0,891.0,Animal_Land_Pattern_Large,54.16619937494397,60.178221750073135,3.0,Animal_Land_Pattern_Large,-3.0,,,,,,,,,,,
encoding,value,17,18524532,18530544,18528567.0,18528827.0,261.0,261.0,1578.5,1197.7,1591.0,891.0,Animal_Land_Pattern_Large,54.16619937494397,60.178221750073135,3.0,Animal_Land_Pattern_Large,-3.0,,,,,,,,,,,
encoding,value,17,18524532,18530544,18529076.0,18529225.0,150.0,150.0,1819.6,1102.0,1591.0,891.0,Animal_Land_Pattern_Large,54.16619937494397,60.178221750073135,3.0,Animal_Land_Pattern_Large,-3.0,,,,,,,,,,,
encoding,value,17,18524532,18530544,18529246.0,18529721.0,476.0,476.0,1945.7,1041.9,1920.0,1080.0,fixation,54.16619937494397,60.178221750073135,3.0,Animal_Land_Pattern_Large,-3.0,,,,,,,,,,,
encoding,value,17,18524532,18530544,18529745.0,18530311.0,567.0,567.0,1643.5,1110.2,1591.0,891.0,Animal_Land_Pattern_Large,54.16619937494397,60.178221750073135,3.0,Animal_Land_Pattern_Large,-3.0,,,,,,,,,,,
encoding,value,17,18524532,18530544,18530321.0,18531022.0,702.0,223.0,1639.7,1091.5,1591.0,891.0,Animal_Land_Pattern_Large,54.16619937494397,60.178221750073135,3.0,Animal_Land_Pattern_Large,-3.0,,,,,,,,,,,
encoding,attention,17,18530544,18533562,18531032.0,18531263.0,232.0,232.0,1598.3,1084.7,1591.0,891.0,Animal_Land_Pattern_Large,60.1783377090469,63.19588066707365,3.0,Animal_Land_Pattern_Large,-3.0,-3.0,1.0,1.9721514999400824,,,,,,,,
encoding,attention,17,18530544,18533562,18531532.0,18531713.0,182.0,182.0,1622.8,1083.1,1591.0,891.0,Animal_Land_Pattern_Large,60.1783377090469,63.19588066707365,3.0,Animal_Land_Pattern_Large,-3.0,-3.0,1.0,1.9721514999400824,,,,,,,,
encoding,attention,17,18530544,18533562,18531723.0,18531944.0,222.0,222.0,1665.6,1080.7,1591.0,891.0,Animal_Land_Pattern_Large,60.1783377090469,63.19588066707365,3.0,Animal_Land_Pattern_Large,-3.0,-3.0,1.0,1.9721514999400824,,,,,,,,
encoding,attention,17,18530544,18533562,18531959.0,18532780.0,822.0,822.0,1576.9,1077.0,1591.0,1269.0,Object_Land_Solid_Small,60.1783377090469,63.19588066707365,3.0,Animal_Land_Pattern_Large,-3.0,-3.0,1.0,1.9721514999400824,,,,,,,,
encoding,attention,17,18530544,18533562,18533037.0,18533430.0,394.0,394.0,1751.7,1152.4,1591.0,891.0,Animal_Land_Pattern_Large,60.1783377090469,63.19588066707365,3.0,Animal_Land_Pattern_Large,-3.0,-3.0,1.0,1.9721514999400824,,,,,,,,
encoding,fixation,18,18533562,18534817,18533828.0,18534034.0,207.0,207.0,1934.9,1058.0,1920.0,1080.0,fixation,63.19604183407501,64.4511701669544,3.0,Animal_Land_Solid_Large,-2.0,,,,,,,,,,,
encoding,fixation,18,18533562,18534817,18534297.0,18534426.0,130.0,130.0,2022.2,1077.0,2249.0,1269.0,Object_Sea_Pattern_Small,63.19604183407501,64.4511701669544,3.0,Animal_Land_Solid_Large,-2.0,,,,,,,,,,,
encoding,fixation,18,18533562,18534817,18534448.0,18534622.0,175.0,175.0,1943.8,1245.2,1920.0,700.0,Animal_Land_Solid_Large,63.19604183407501,64.4511701669544,3.0,Animal_Land_Solid_Large,-2.0,,,,,,,,,,,
encoding,fixation,18,18533562,18534817,18534646.0,18534792.0,147.0,147.0,1970.9,1084.6,1920.0,1080.0,fixation,63.19604183407501,64.4511701669544,3.0,Animal_Land_Solid_Large,-2.0,,,,,,,,,,,
encoding,fixation,18,18533562,18534817,18534805.0,18535034.0,230.0,12.0,1953.3,1037.5,1920.0,1080.0,fixation,63.19604183407501,64.4511701669544,3.0,Animal_Land_Solid_Large,-2.0,,,,,,,,,,,
encoding,image,18,18534818,18535830,18535075.0,18536119.0,1045.0,755.0,1972.0,1413.2,1920.0,700.0,Animal_Land_Solid_Large,64.45130433398299,65.46330133406445,3.0,Animal_Land_Solid_Large,-2.0,,,,,,,,,,,
encoding,value,18,18535830,18541843,18536353.0,18537441.0,1089.0,1089.0,1968.6,1293.2,1920.0,700.0,Animal_Land_Solid_Large,65.46340120909736,71.476748917019,3.0,Animal_Land_Solid_Large,-2.0,,,,,,,,,,,
encoding,value,18,18535830,18541843,18537674.0,18540404.0,2731.0,2731.0,1961.0,1291.2,1920.0,700.0,Animal_Land_Solid_Large,65.46340120909736,71.476748917019,3.0,Animal_Land_Solid_Large,-2.0,,,,,,,,,,,
encoding,value,18,18535830,18541843,18540654.0,18542269.0,1616.0,1189.0,1973.8,1280.4,1920.0,700.0,Animal_Land_Solid_Large,65.46340120909736,71.476748917019,3.0,Animal_Land_Solid_Large,-2.0,,,,,,,,,,,
encoding,attention,18,18541843,18544862,18542280.0,18542561.0,282.0,282.0,1942.0,1275.3,1920.0,700.0,Animal_Land_Solid_Large,71.47689579194412,74.49563691695221,3.0,Animal_Land_Solid_Large,-2.0,-2.0,1.0,1.912040750030428,,,,,,,,
encoding,attention,18,18541843,18544862,18542576.0,18543284.0,709.0,709.0,2033.5,1303.8,1920.0,700.0,Animal_Land_Solid_Large,71.47689579194412,74.49563691695221,3.0,Animal_Land_Solid_Large,-2.0,-2.0,1.0,1.912040750030428,,,,,,,,
encoding,attention,18,18541843,18544862,18543519.0,18543678.0,160.0,160.0,2056.5,1156.5,2249.0,891.0,Object_Sea_Solid_Large,71.47689579194412,74.49563691695221,3.0,Animal_Land_Solid_Large,-2.0,-2.0,1.0,1.912040750030428,,,,,,,,
encoding,attention,18,18541843,18544862,18543704.0,18544209.0,506.0,506.0,2004.1,1341.0,1920.0,700.0,Animal_Land_Solid_Large,71.47689579194412,74.49563691695221,3.0,Animal_Land_Solid_Large,-2.0,-2.0,1.0,1.912040750030428,,,,,,,,
encoding,attention,18,18541843,18544862,18544219.0,18544413.0,195.0,195.0,2034.1,1301.3,1920.0,700.0,Animal_Land_Solid_Large,71.47689579194412,74.49563691695221,3.0,Animal_Land_Solid_Large,-2.0,-2.0,1.0,1.912040750030428,,,,,,,,
encoding,attention,18,18541843,18544862,18544677.0,18544820.0,144.0,144.0,2068.0,1177.5,2249.0,891.0,Object_Sea_Solid_Large,71.47689579194412,74.49563691695221,3.0,Animal_Land_Solid_Large,-2.0,-2.0,1.0,1.912040750030428,,,,,,,,
encoding,fixation,19,19043158,19043915,19043395.0,19044176.0,782.0,520.0,1910.0,1047.8,1920.0,1080.0,fixation,5.365143875125796,6.121725917095318,4.0,Object_Land_Pattern_Large,-3.0,,,,,,,,,,,
encoding,image,19,19043915,19044928,19044216.0,19044391.0,176.0,176.0,1899.7,704.0,1920.0,1460.0,Object_Land_Pattern_Large,6.12183487508446,7.134697667090222,4.0,Object_Land_Pattern_Large,-3.0,,,,,,,,,,,
encoding,image,19,19043915,19044928,19044401.0,19045145.0,745.0,527.0,1911.2,666.5999999999999,1920.0,1460.0,Object_Land_Pattern_Large,6.12183487508446,7.134697667090222,4.0,Object_Land_Pattern_Large,-3.0,,,,,,,,,,,
encoding,value,19,19044928,19050942,19045157.0,19045237.0,81.0,81.0,1926.2,614.2,1920.0,1460.0,Object_Land_Pattern_Large,7.134810250019655,13.149184750160202,4.0,Object_Land_Pattern_Large,-3.0,,,,,,,,,,,
encoding,value,19,19044928,19050942,19045544.0,19045775.0,232.0,232.0,2308.6,943.8,2249.0,1269.0,Object_Sea_Solid_Small,7.134810250019655,13.149184750160202,4.0,Object_Land_Pattern_Large,-3.0,,,,,,,,,,,
encoding,value,19,19044928,19050942,19045792.0,19045852.0,61.0,61.0,2308.2,922.2,2249.0,1269.0,Object_Sea_Solid_Small,7.134810250019655,13.149184750160202,4.0,Object_Land_Pattern_Large,-3.0,,,,,,,,,,,
encoding,value,19,19044928,19050942,19045989.0,19046126.0,138.0,138.0,1926.5,566.7,1920.0,1460.0,Object_Land_Pattern_Large,7.134810250019655,13.149184750160202,4.0,Object_Land_Pattern_Large,-3.0,,,,,,,,,,,
encoding,value,19,19044928,19050942,19046148.0,19046218.0,71.0,71.0,2300.6,991.2,2249.0,1269.0,Object_Sea_Solid_Small,7.134810250019655,13.149184750160202,4.0,Object_Land_Pattern_Large,-3.0,,,,,,,,,,,
encoding,value,19,19044928,19050942,19046475.0,19047068.0,594.0,594.0,1927.6,547.7,1920.0,1460.0,Object_Land_Pattern_Large,7.134810250019655,13.149184750160202,4.0,Object_Land_Pattern_Large,-3.0,,,,,,,,,,,
encoding,value,19,19044928,19050942,19047092.0,19047123.0,32.0,32.0,1922.8,574.3,1920.0,1460.0,Object_Land_Pattern_Large,7.134810250019655,13.149184750160202,4.0,Object_Land_Pattern_Large,-3.0,,,,,,,,,,,
encoding,value,19,19044928,19050942,19047350.0,19047423.0,74.0,74.0,1916.4,570.3,1920.0,1460.0,Object_Land_Pattern_Large,7.134810250019655,13.149184750160202,4.0,Object_Land_Pattern_Large,-3.0,,,,,,,,,,,
encoding,value,19,19044928,19050942,19048406.0,19048471.0,66.0,66.0,2359.3,953.8,2249.0,1269.0,Object_Sea_Solid_Small,7.134810250019655,13.149184750160202,4.0,Object_Land_Pattern_Large,-3.0,,,,,,,,,,,
encoding,value,19,19044928,19050942,19048518.0,19048555.0,38.0,38.0,1477.7,439.5999999999999,,,none,7.134810250019655,13.149184750160202,4.0,Object_Land_Pattern_Large,-3.0,,,,,,,,,,,
encoding,value,19,19044928,19050942,19048738.0,19049047.0,310.0,310.0,1935.2,655.8,1920.0,1460.0,Object_Land_Pattern_Large,7.134810250019655,13.149184750160202,4.0,Object_Land_Pattern_Large,-3.0,,,,,,,,,,,
encoding,value,19,19044928,19050942,19049291.0,19049503.0,213.0,213.0,1941.5,1048.1,1920.0,1080.0,fixation,7.134810250019655,13.149184750160202,4.0,Object_Land_Pattern_Large,-3.0,,,,,,,,,,,
encoding,value,19,19044928,19050942,19049512.0,19050103.0,592.0,592.0,1918.7,1016.0999999999999,1920.0,1080.0,fixation,7.134810250019655,13.149184750160202,4.0,Object_Land_Pattern_Large,-3.0,,,,,,,,,,,
encoding,value,19,19044928,19050942,19050390.0,19050527.0,138.0,138.0,1925.6,942.0999999999999,1920.0,1460.0,Object_Land_Pattern_Large,7.134810250019655,13.149184750160202,4.0,Object_Land_Pattern_Large,-3.0,,,,,,,,,,,
encoding,value,19,19044928,19050942,19050579.0,19050694.0,116.0,116.0,1916.5,505.70000000000005,1920.0,1460.0,Object_Land_Pattern_Large,7.134810250019655,13.149184750160202,4.0,Object_Land_Pattern_Large,-3.0,,,,,,,,,,,
encoding,value,19,19044928,19050942,19050704.0,19051347.0,644.0,238.0,1910.7,545.0999999999999,1920.0,1460.0,Object_Land_Pattern_Large,7.134810250019655,13.149184750160202,4.0,Object_Land_Pattern_Large,-3.0,,,,,,,,,,,
encoding,attention,19,19050942,19053961,19051586.0,19052637.0,1052.0,1052.0,1842.2,524.5,1920.0,1460.0,Object_Land_Pattern_Large,13.149306958075613,16.167858542175964,4.0,Object_Land_Pattern_Large,-3.0,-3.0,1.0,1.3179337501060218,,,,,,,,
encoding,attention,19,19050942,19053961,19052660.0,19052886.0,227.0,227.0,1905.8,628.9000000000001,1920.0,1460.0,Object_Land_Pattern_Large,13.149306958075613,16.167858542175964,4.0,Object_Land_Pattern_Large,-3.0,-3.0,1.0,1.3179337501060218,,,,,,,,
encoding,fixation,20,19053961,19055466,19054286.0,19054464.0,179.0,179.0,1933.3,910.0,1920.0,1460.0,Object_Land_Pattern_Large,16.168012333102524,17.673265625024214,4.0,Animal_Land_Pattern_Large,7.0,,,,,,,,,,,
encoding,fixation,20,19053961,19055466,19054829.0,19054893.0,65.0,65.0,1903.2,941.5,1920.0,1460.0,Object_Land_Pattern_Large,16.168012333102524,17.673265625024214,4.0,Animal_Land_Pattern_Large,7.0,,,,,,,,,,,
encoding,fixation,20,19053961,19055466,19054904.0,19055340.0,437.0,437.0,1910.8,1010.0,1920.0,1460.0,Object_Land_Pattern_Large,16.168012333102524,17.673265625024214,4.0,Animal_Land_Pattern_Large,7.0,,,,,,,,,,,
encoding,fixation,20,19053961,19055466,19055358.0,19055626.0,269.0,108.0,1980.5,933.5,1920.0,1460.0,Object_Land_Pattern_Large,16.168012333102524,17.673265625024214,4.0,Animal_Land_Pattern_Large,7.0,,,,,,,,,,,
encoding,image,20,19055466,19056478,19055658.0,19055815.0,158.0,158.0,1652.3,1147.4,1591.0,891.0,Animal_Land_Pattern_Large,17.673384375171736,18.68461441714317,4.0,Animal_Land_Pattern_Large,7.0,,,,,,,,,,,
encoding,image,20,19055466,19056478,19055830.0,19056263.0,434.0,434.0,1573.4,1212.2,1591.0,891.0,Animal_Land_Pattern_Large,17.673384375171736,18.68461441714317,4.0,Animal_Land_Pattern_Large,7.0,,,,,,,,,,,
encoding,value,20,19056478,19062494,19056525.0,19056673.0,149.0,149.0,1612.5,1189.9,1591.0,891.0,Animal_Land_Pattern_Large,18.68472829204984,24.69991183304228,4.0,Animal_Land_Pattern_Large,7.0,,,,,,,,,,,
encoding,value,20,19056478,19062494,19056692.0,19058254.0,1563.0,1563.0,1603.3,1084.6,1591.0,891.0,Animal_Land_Pattern_Large,18.68472829204984,24.69991183304228,4.0,Animal_Land_Pattern_Large,7.0,,,,,,,,,,,
encoding,value,20,19056478,19062494,19058492.0,19059570.0,1079.0,1079.0,1601.2,1082.0,1591.0,891.0,Animal_Land_Pattern_Large,18.68472829204984,24.69991183304228,4.0,Animal_Land_Pattern_Large,7.0,,,,,,,,,,,
encoding,value,20,19056478,19062494,19059585.0,19059803.0,219.0,219.0,1596.0,1145.4,1591.0,891.0,Animal_Land_Pattern_Large,18.68472829204984,24.69991183304228,4.0,Animal_Land_Pattern_Large,7.0,,,,,,,,,,,
encoding,value,20,19056478,19062494,19060026.0,19060049.0,24.0,24.0,1296.7,978.4000000000001,,,none,18.68472829204984,24.69991183304228,4.0,Animal_Land_Pattern_Large,7.0,,,,,,,,,,,
encoding,value,20,19056478,19062494,19060069.0,19060330.0,262.0,262.0,1586.4,1101.5,1591.0,891.0,Animal_Land_Pattern_Large,18.68472829204984,24.69991183304228,4.0,Animal_Land_Pattern_Large,7.0,,,,,,,,,,,
encoding,value,20,19056478,19062494,19060352.0,19060560.0,209.0,209.0,1573.8,1217.1,1591.0,891.0,Animal_Land_Pattern_Large,18.68472829204984,24.69991183304228,4.0,Animal_Land_Pattern_Large,7.0,,,,,,,,,,,
encoding,value,20,19056478,19062494,19060567.0,19060840.0,274.0,274.0,1600.4,1191.7,1591.0,891.0,Animal_Land_Pattern_Large,18.68472829204984,24.69991183304228,4.0,Animal_Land_Pattern_Large,7.0,,,,,,,,,,,
encoding,value,20,19056478,19062494,19060860.0,19061583.0,724.0,724.0,1604.2,1068.0,1591.0,1269.0,Object_Land_Solid_Small,18.68472829204984,24.69991183304228,4.0,Animal_Land_Pattern_Large,7.0,,,,,,,,,,,
encoding,value,20,19056478,19062494,19061824.0,19061850.0,27.0,27.0,1300.6,971.4000000000001,,,none,18.68472829204984,24.69991183304228,4.0,Animal_Land_Pattern_Large,7.0,,,,,,,,,,,
encoding,value,20,19056478,19062494,19061870.0,19063984.0,2115.0,624.0,1568.5,1057.5,1591.0,1269.0,Object_Land_Solid_Small,18.68472829204984,24.69991183304228,4.0,Animal_Land_Pattern_Large,7.0,,,,,,,,,,,
encoding,attention,20,19062494,19065512,19063994.0,19064571.0,578.0,578.0,1581.1,1067.7,1591.0,1269.0,Object_Land_Solid_Small,24.700033500092104,27.718300207983702,4.0,Animal_Land_Pattern_Large,7.0,7.0,1.0,1.636091500055045,,,,,,,,
encoding,attention,20,19062494,19065512,19064859.0,19065036.0,178.0,178.0,1583.2,1148.2,1591.0,891.0,Animal_Land_Pattern_Large,24.700033500092104,27.718300207983702,4.0,Animal_Land_Pattern_Large,7.0,7.0,1.0,1.636091500055045,,,,,,,,
encoding,fixation,21,19065512,19066767,19066213.0,19066966.0,754.0,554.0,1943.2,1028.0,1920.0,1080.0,fixation,27.718463125173,28.973492291988805,4.0,Object_Sea_Solid_Small,7.0,,,,,,,,,,,
encoding,image,21,19066767,19067777,19067001.0,19067212.0,212.0,212.0,2287.0,900.2,2249.0,1269.0,Object_Sea_Solid_Small,28.97362441709265,29.98355450015515,4.0,Object_Sea_Solid_Small,7.0,,,,,,,,,,,
encoding,image,21,19066767,19067777,19067219.0,19067617.0,399.0,399.0,2251.6,898.3,2249.0,1269.0,Object_Sea_Solid_Small,28.97362441709265,29.98355450015515,4.0,Object_Sea_Solid_Small,7.0,,,,,,,,,,,
encoding,image,21,19066767,19067777,19067624.0,19067826.0,203.0,153.0,2282.4,893.5,2249.0,1269.0,Object_Sea_Solid_Small,28.97362441709265,29.98355450015515,4.0,Object_Sea_Solid_Small,7.0,,,,,,,,,,,
encoding,value,21,19067777,19073789,19068086.0,19068157.0,72.0,72.0,2449.9,1020.7,2249.0,1269.0,Object_Sea_Solid_Small,29.983673125039783,35.994457042077556,4.0,Object_Sea_Solid_Small,7.0,,,,,,,,,,,
encoding,value,21,19067777,19073789,19068267.0,19068727.0,461.0,461.0,2271.7,761.0,2249.0,1269.0,Object_Sea_Solid_Small,29.983673125039783,35.994457042077556,4.0,Object_Sea_Solid_Small,7.0,,,,,,,,,,,
encoding,value,21,19067777,19073789,19068744.0,19069460.0,717.0,717.0,2283.2,871.0999999999999,2249.0,1269.0,Object_Sea_Solid_Small,29.983673125039783,35.994457042077556,4.0,Object_Sea_Solid_Small,7.0,,,,,,,,,,,
encoding,value,21,19067777,19073789,19069756.0,19069901.0,146.0,146.0,2301.6,734.7,2249.0,1269.0,Object_Sea_Solid_Small,29.983673125039783,35.994457042077556,4.0,Object_Sea_Solid_Small,7.0,,,,,,,,,,,
encoding,value,21,19067777,19073789,19069910.0,19070597.0,688.0,688.0,2268.2,747.3,2249.0,1269.0,Object_Sea_Solid_Small,29.983673125039783,35.994457042077556,4.0,Object_Sea_Solid_Small,7.0,,,,,,,,,,,
encoding,value,21,19067777,19073789,19070607.0,19070970.0,364.0,364.0,2256.4,775.0,2249.0,1269.0,Object_Sea_Solid_Small,29.983673125039783,35.994457042077556,4.0,Object_Sea_Solid_Small,7.0,,,,,,,,,,,
encoding,value,21,19067777,19073789,19070981.0,19071704.0,724.0,724.0,2265.9,726.3,2249.0,1269.0,Object_Sea_Solid_Small,29.983673125039783,35.994457042077556,4.0,Object_Sea_Solid_Small,7.0,,,,,,,,,,,
encoding,value,21,19067777,19073789,19071716.0,19072048.0,333.0,333.0,2275.2,782.0,2249.0,1269.0,Object_Sea_Solid_Small,29.983673125039783,35.994457042077556,4.0,Object_Sea_Solid_Small,7.0,,,,,,,,,,,
encoding,value,21,19067777,19073789,19072373.0,19072665.0,293.0,293.0,2299.7,751.5999999999999,2249.0,1269.0,Object_Sea_Solid_Small,29.983673125039783,35.994457042077556,4.0,Object_Sea_Solid_Small,7.0,,,,,,,,,,,
encoding,value,21,19067777,19073789,19072719.0,19073176.0,458.0,458.0,1823.9,1082.8,1591.0,891.0,Animal_Land_Pattern_Large,29.983673125039783,35.994457042077556,4.0,Object_Sea_Solid_Small,7.0,,,,,,,,,,,
encoding,value,21,19067777,19073789,19073487.0,19073599.0,113.0,113.0,2491.7,941.0999999999999,,,none,29.983673125039783,35.994457042077556,4.0,Object_Sea_Solid_Small,7.0,,,,,,,,,,,
encoding,value,21,19067777,19073789,19073680.0,19073726.0,47.0,47.0,2262.2,790.2,2249.0,1269.0,Object_Sea_Solid_Small,29.983673125039783,35.994457042077556,4.0,Object_Sea_Solid_Small,7.0,,,,,,,,,,,
encoding,value,21,19067777,19073789,19073743.0,19074018.0,276.0,46.0,2273.1,734.2,2249.0,1269.0,Object_Sea_Solid_Small,29.983673125039783,35.994457042077556,4.0,Object_Sea_Solid_Small,7.0,,,,,,,,,,,
encoding,attention,21,19073789,19076806,19074025.0,19074262.0,238.0,238.0,2214.6,726.0,2249.0,1269.0,Object_Sea_Solid_Small,35.99459020816721,39.01145650004037,4.0,Object_Sea_Solid_Small,7.0,7.0,1.0,1.3280605420004576,,,,,,,,
encoding,attention,21,19073789,19076806,19074276.0,19074849.0,574.0,574.0,2299.1,723.2,2249.0,1269.0,Object_Sea_Solid_Small,35.99459020816721,39.01145650004037,4.0,Object_Sea_Solid_Small,7.0,7.0,1.0,1.3280605420004576,,,,,,,,
encoding,attention,21,19073789,19076806,19074866.0,19075074.0,209.0,209.0,2241.9,789.5999999999999,2249.0,1269.0,Object_Sea_Solid_Small,35.99459020816721,39.01145650004037,4.0,Object_Sea_Solid_Small,7.0,7.0,1.0,1.3280605420004576,,,,,,,,
encoding,attention,21,19073789,19076806,19075090.0,19075498.0,409.0,409.0,2241.8,844.3,2249.0,1269.0,Object_Sea_Solid_Small,35.99459020816721,39.01145650004037,4.0,Object_Sea_Solid_Small,7.0,7.0,1.0,1.3280605420004576,,,,,,,,
encoding,attention,21,19073789,19076806,19075785.0,19075945.0,161.0,161.0,1825.0,1085.3,1591.0,891.0,Animal_Land_Pattern_Large,35.99459020816721,39.01145650004037,4.0,Object_Sea_Solid_Small,7.0,7.0,1.0,1.3280605420004576,,,,,,,,
encoding,attention,21,19073789,19076806,19075958.0,19076218.0,261.0,261.0,1882.5,1042.8,1920.0,1080.0,fixation,35.99459020816721,39.01145650004037,4.0,Object_Sea_Solid_Small,7.0,7.0,1.0,1.3280605420004576,,,,,,,,
encoding,fixation,22,19076806,19077311,,,,,,,,,none,39.01168670807965,39.5166629999876,4.0,Object_Land_Solid_Small,-6.0,,,,,,,,,,,
encoding,image,22,19077311,19078323,19077331.0,19077356.0,26.0,26.0,2346.2,1131.9,2249.0,891.0,Animal_Sea_Pattern_Large,39.5167752080597,40.52839850005694,4.0,Object_Land_Solid_Small,-6.0,,,,,,,,,,,
encoding,image,22,19077311,19078323,19077411.0,19077577.0,167.0,167.0,1946.9,1004.8,1920.0,1460.0,Object_Land_Pattern_Large,39.5167752080597,40.52839850005694,4.0,Object_Land_Solid_Small,-6.0,,,,,,,,,,,
encoding,image,22,19077311,19078323,19077648.0,19077802.0,155.0,155.0,1604.9,831.0,1591.0,1269.0,Object_Land_Solid_Small,39.5167752080597,40.52839850005694,4.0,Object_Land_Solid_Small,-6.0,,,,,,,,,,,
encoding,image,22,19077311,19078323,19077809.0,19077840.0,32.0,32.0,1569.7,812.8,1591.0,1269.0,Object_Land_Solid_Small,39.5167752080597,40.52839850005694,4.0,Object_Land_Solid_Small,-6.0,,,,,,,,,,,
encoding,image,22,19077311,19078323,19077863.0,19078534.0,672.0,460.0,1538.5,815.5,1591.0,1269.0,Object_Land_Solid_Small,39.5167752080597,40.52839850005694,4.0,Object_Land_Solid_Small,-6.0,,,,,,,,,,,
encoding,value,22,19078323,19084335,19078591.0,19078813.0,223.0,223.0,1448.1,736.4000000000001,,,none,40.52849558298476,46.540589542128146,4.0,Object_Land_Solid_Small,-6.0,,,,,,,,,,,
encoding,value,22,19078323,19084335,19079079.0,19079961.0,883.0,883.0,1301.4,627.5999999999999,,,none,40.52849558298476,46.540589542128146,4.0,Object_Land_Solid_Small,-6.0,,,,,,,,,,,
encoding,value,22,19078323,19084335,19079983.0,19080418.0,436.0,436.0,1344.3,675.3,,,none,40.52849558298476,46.540589542128146,4.0,Object_Land_Solid_Small,-6.0,,,,,,,,,,,
encoding,value,22,19078323,19084335,19080427.0,19080481.0,55.0,55.0,1338.6,742.8,,,none,40.52849558298476,46.540589542128146,4.0,Object_Land_Solid_Small,-6.0,,,,,,,,,,,
encoding,value,22,19078323,19084335,19080747.0,19080782.0,36.0,36.0,1386.8,780.0999999999999,,,none,40.52849558298476,46.540589542128146,4.0,Object_Land_Solid_Small,-6.0,,,,,,,,,,,
encoding,value,22,19078323,19084335,19081098.0,19081261.0,164.0,164.0,2320.3,1198.7,2249.0,891.0,Animal_Sea_Pattern_Large,40.52849558298476,46.540589542128146,4.0,Object_Land_Solid_Small,-6.0,,,,,,,,,,,
encoding,value,22,19078323,19084335,19081288.0,19082017.0,730.0,730.0,1340.4,663.9000000000001,,,none,40.52849558298476,46.540589542128146,4.0,Object_Land_Solid_Small,-6.0,,,,,,,,,,,
encoding,value,22,19078323,19084335,19082056.0,19082077.0,22.0,22.0,1354.9,669.4000000000001,,,none,40.52849558298476,46.540589542128146,4.0,Object_Land_Solid_Small,-6.0,,,,,,,,,,,
encoding,value,22,19078323,19084335,19082533.0,19082557.0,25.0,25.0,1116.4,225.20000000000005,,,none,40.52849558298476,46.540589542128146,4.0,Object_Land_Solid_Small,-6.0,,,,,,,,,,,
encoding,value,22,19078323,19084335,19082590.0,19082621.0,32.0,32.0,2286.4,953.5999999999999,2249.0,1269.0,Object_Sea_Solid_Small,40.52849558298476,46.540589542128146,4.0,Object_Land_Solid_Small,-6.0,,,,,,,,,,,
encoding,value,22,19078323,19084335,19082643.0,19082779.0,137.0,137.0,1234.2,549.8,,,none,40.52849558298476,46.540589542128146,4.0,Object_Land_Solid_Small,-6.0,,,,,,,,,,,
encoding,value,22,19078323,19084335,19082801.0,19082943.0,143.0,143.0,1250.2,582.5,,,none,40.52849558298476,46.540589542128146,4.0,Object_Land_Solid_Small,-6.0,,,,,,,,,,,
encoding,value,22,19078323,19084335,19083088.0,19083109.0,22.0,22.0,1263.0,606.7,,,none,40.52849558298476,46.540589542128146,4.0,Object_Land_Solid_Small,-6.0,,,,,,,,,,,
encoding,value,22,19078323,19084335,19083138.0,19083173.0,36.0,36.0,1265.4,602.5999999999999,,,none,40.52849558298476,46.540589542128146,4.0,Object_Land_Solid_Small,-6.0,,,,,,,,,,,
encoding,value,22,19078323,19084335,19083232.0,19083293.0,62.0,62.0,1270.7,606.0,,,none,40.52849558298476,46.540589542128146,4.0,Object_Land_Solid_Small,-6.0,,,,,,,,,,,
encoding,value,22,19078323,19084335,19083412.0,19083485.0,74.0,74.0,1255.7,597.5,,,none,40.52849558298476,46.540589542128146,4.0,Object_Land_Solid_Small,-6.0,,,,,,,,,,,
encoding,value,22,19078323,19084335,19083583.0,19083616.0,34.0,34.0,1263.7,603.3,,,none,40.52849558298476,46.540589542128146,4.0,Object_Land_Solid_Small,-6.0,,,,,,,,,,,
encoding,attention,22,19084335,19087354,19084384.0,19084425.0,42.0,42.0,1561.0,735.9000000000001,1591.0,1269.0,Object_Land_Solid_Small,46.54070754209533,49.559492458123714,4.0,Object_Land_Solid_Small,-6.0,-6.0,1.0,2.331553583033383,,,,,,,,
encoding,attention,22,19084335,19087354,19084461.0,19084528.0,68.0,68.0,1562.4,735.5999999999999,1591.0,1269.0,Object_Land_Solid_Small,46.54070754209533,49.559492458123714,4.0,Object_Land_Solid_Small,-6.0,-6.0,1.0,2.331553583033383,,,,,,,,
encoding,attention,22,19084335,19087354,19085053.0,19085074.0,22.0,22.0,1078.8,175.5,,,none,46.54070754209533,49.559492458123714,4.0,Object_Land_Solid_Small,-6.0,-6.0,1.0,2.331553583033383,,,,,,,,
encoding,attention,22,19084335,19087354,19085112.0,19085141.0,30.0,30.0,2271.9,929.7,2249.0,1269.0,Object_Sea_Solid_Small,46.54070754209533,49.559492458123714,4.0,Object_Land_Solid_Small,-6.0,-6.0,1.0,2.331553583033383,,,,,,,,
encoding,attention,22,19084335,19087354,19085163.0,19085209.0,47.0,47.0,1220.2,496.4000000000001,,,none,46.54070754209533,49.559492458123714,4.0,Object_Land_Solid_Small,-6.0,-6.0,1.0,2.331553583033383,,,,,,,,
encoding,attention,22,19084335,19087354,19085418.0,19085451.0,34.0,34.0,1634.6,750.4000000000001,1591.0,1269.0,Object_Land_Solid_Small,46.54070754209533,49.559492458123714,4.0,Object_Land_Solid_Small,-6.0,-6.0,1.0,2.331553583033383,,,,,,,,
encoding,attention,22,19084335,19087354,19085552.0,19085820.0,269.0,269.0,1579.6,793.2,1591.0,1269.0,Object_Land_Solid_Small,46.54070754209533,49.559492458123714,4.0,Object_Land_Solid_Small,-6.0,-6.0,1.0,2.331553583033383,,,,,,,,
encoding,attention,22,19084335,19087354,19085828.0,19086060.0,233.0,233.0,1571.6,819.4000000000001,1591.0,1269.0,Object_Land_Solid_Small,46.54070754209533,49.559492458123714,4.0,Object_Land_Solid_Small,-6.0,-6.0,1.0,2.331553583033383,,,,,,,,
encoding,attention,22,19084335,19087354,19086090.0,19086323.0,234.0,234.0,1860.2,1026.0,1591.0,1269.0,Object_Land_Solid_Small,46.54070754209533,49.559492458123714,4.0,Object_Land_Solid_Small,-6.0,-6.0,1.0,2.331553583033383,,,,,,,,
encoding,attention,22,19084335,19087354,19086334.0,19087004.0,671.0,671.0,1932.6,1040.0,1920.0,1080.0,fixation,46.54070754209533,49.559492458123714,4.0,Object_Land_Solid_Small,-6.0,-6.0,1.0,2.331553583033383,,,,,,,,
encoding,fixation,23,19087354,19088861,19087794.0,19088132.0,339.0,339.0,1922.7,1046.7,1920.0,1080.0,fixation,49.55964458314702,51.0663849581033,4.0,Animal_Sea_Solid_Small,-4.0,,,,,,,,,,,
encoding,fixation,23,19087354,19088861,19088148.0,19088682.0,535.0,535.0,2035.0,1056.3,2249.0,1269.0,Object_Sea_Solid_Small,49.55964458314702,51.0663849581033,4.0,Animal_Sea_Solid_Small,-4.0,,,,,,,,,,,
encoding,image,23,19088861,19089874,19088948.0,19089075.0,128.0,128.0,2165.0,1145.1,2249.0,891.0,Animal_Sea_Pattern_Large,51.06649520806968,52.0787191670388,4.0,Animal_Sea_Solid_Small,-4.0,,,,,,,,,,,
encoding,image,23,19088861,19089874,19089104.0,19089655.0,552.0,552.0,1974.6,1411.8,1920.0,700.0,Animal_Sea_Solid_Small,51.06649520806968,52.0787191670388,4.0,Animal_Sea_Solid_Small,-4.0,,,,,,,,,,,
encoding,image,23,19088861,19089874,19089677.0,19090080.0,404.0,197.0,1958.0,1191.2,1920.0,700.0,Animal_Sea_Solid_Small,51.06649520806968,52.0787191670388,4.0,Animal_Sea_Solid_Small,-4.0,,,,,,,,,,,
encoding,value,23,19089874,19095885,19090298.0,19091743.0,1446.0,1446.0,1956.9,1291.6,1920.0,700.0,Animal_Sea_Solid_Small,52.07884016702883,58.09021283313632,4.0,Animal_Sea_Solid_Small,-4.0,,,,,,,,,,,
encoding,value,23,19089874,19095885,19091954.0,19092164.0,211.0,211.0,1973.1,1349.2,1920.0,700.0,Animal_Sea_Solid_Small,52.07884016702883,58.09021283313632,4.0,Animal_Sea_Solid_Small,-4.0,,,,,,,,,,,
encoding,value,23,19089874,19095885,19092179.0,19093347.0,1169.0,1169.0,1949.4,1292.5,1920.0,700.0,Animal_Sea_Solid_Small,52.07884016702883,58.09021283313632,4.0,Animal_Sea_Solid_Small,-4.0,,,,,,,,,,,
encoding,value,23,19089874,19095885,19093576.0,19096323.0,2748.0,2309.0,1935.6,1285.4,1920.0,700.0,Animal_Sea_Solid_Small,52.07884016702883,58.09021283313632,4.0,Animal_Sea_Solid_Small,-4.0,,,,,,,,,,,
encoding,attention,23,19095885,19098903,19096337.0,19097016.0,680.0,680.0,1981.4,1279.7,1920.0,700.0,Animal_Sea_Solid_Small,58.09036162495613,61.10819850000553,4.0,Animal_Sea_Solid_Small,-4.0,-4.0,1.0,1.0717719169333575,,,,,,,,
encoding,attention,23,19095885,19098903,19097284.0,19097448.0,165.0,165.0,2114.0,1227.6,2249.0,891.0,Animal_Sea_Pattern_Large,58.09036162495613,61.10819850000553,4.0,Animal_Sea_Solid_Small,-4.0,-4.0,1.0,1.0717719169333575,,,,,,,,
encoding,attention,23,19095885,19098903,19097467.0,19097702.0,236.0,236.0,1980.4,1285.3,1920.0,700.0,Animal_Sea_Solid_Small,58.09036162495613,61.10819850000553,4.0,Animal_Sea_Solid_Small,-4.0,-4.0,1.0,1.0717719169333575,,,,,,,,
encoding,attention,23,19095885,19098903,19097726.0,19097941.0,216.0,216.0,2174.9,1246.3,2249.0,891.0,Animal_Sea_Pattern_Large,58.09036162495613,61.10819850000553,4.0,Animal_Sea_Solid_Small,-4.0,-4.0,1.0,1.0717719169333575,,,,,,,,
encoding,attention,23,19095885,19098903,19097965.0,19098406.0,442.0,442.0,1983.6,1348.0,1920.0,700.0,Animal_Sea_Solid_Small,58.09036162495613,61.10819850000553,4.0,Animal_Sea_Solid_Small,-4.0,-4.0,1.0,1.0717719169333575,,,,,,,,
encoding,attention,23,19095885,19098903,19098430.0,19098753.0,324.0,324.0,2191.9,1232.8,2249.0,891.0,Animal_Sea_Pattern_Large,58.09036162495613,61.10819850000553,4.0,Animal_Sea_Solid_Small,-4.0,-4.0,1.0,1.0717719169333575,,,,,,,,
encoding,fixation,24,19098904,19099911,19099045.0,19099339.0,295.0,295.0,2096.6,1197.2,2249.0,891.0,Animal_Sea_Pattern_Large,61.10841070814058,62.1158425421454,4.0,Animal_Sea_Pattern_Large,-1.0,,,,,,,,,,,
encoding,fixation,24,19098904,19099911,19099357.0,19100112.0,756.0,554.0,2187.2,1143.9,2249.0,891.0,Animal_Sea_Pattern_Large,61.10841070814058,62.1158425421454,4.0,Animal_Sea_Pattern_Large,-1.0,,,,,,,,,,,
encoding,image,24,19099911,19100921,19100130.0,19100414.0,285.0,285.0,2251.5,1221.1,2249.0,891.0,Animal_Sea_Pattern_Large,62.11597375012934,63.12603620812297,4.0,Animal_Sea_Pattern_Large,-1.0,,,,,,,,,,,
encoding,image,24,19099911,19100921,19100690.0,19101017.0,328.0,231.0,2278.0,1204.1,2249.0,891.0,Animal_Sea_Pattern_Large,62.11597375012934,63.12603620812297,4.0,Animal_Sea_Pattern_Large,-1.0,,,,,,,,,,,
encoding,value,24,19100921,19106933,19101039.0,19101226.0,188.0,188.0,2273.2,1073.2,2249.0,1269.0,Object_Sea_Solid_Small,63.12621937505901,69.13741529197432,4.0,Animal_Sea_Pattern_Large,-1.0,,,,,,,,,,,
encoding,value,24,19100921,19106933,19101561.0,19101644.0,84.0,84.0,2270.7,1114.5,2249.0,891.0,Animal_Sea_Pattern_Large,63.12621937505901,69.13741529197432,4.0,Animal_Sea_Pattern_Large,-1.0,,,,,,,,,,,
encoding,value,24,19100921,19106933,19101652.0,19102380.0,729.0,729.0,2283.1,1135.6,2249.0,891.0,Animal_Sea_Pattern_Large,63.12621937505901,69.13741529197432,4.0,Animal_Sea_Pattern_Large,-1.0,,,,,,,,,,,
encoding,value,24,19100921,19106933,19102679.0,19103630.0,952.0,952.0,2262.1,1145.6,2249.0,891.0,Animal_Sea_Pattern_Large,63.12621937505901,69.13741529197432,4.0,Animal_Sea_Pattern_Large,-1.0,,,,,,,,,,,
encoding,value,24,19100921,19106933,19103915.0,19107332.0,3418.0,3018.0,2275.4,1143.6,2249.0,891.0,Animal_Sea_Pattern_Large,63.12621937505901,69.13741529197432,4.0,Animal_Sea_Pattern_Large,-1.0,,,,,,,,,,,
encoding,attention,24,19106933,19109944,19107582.0,19108034.0,453.0,453.0,2352.1,1152.1,2249.0,891.0,Animal_Sea_Pattern_Large,69.13752320804633,72.14877066714689,4.0,Animal_Sea_Pattern_Large,-1.0,,,,,,,,,,,
encoding,attention,24,19106933,19109944,19108348.0,19108837.0,490.0,490.0,2331.6,1136.2,2249.0,891.0,Animal_Sea_Pattern_Large,69.13752320804633,72.14877066714689,4.0,Animal_Sea_Pattern_Large,-1.0,,,,,,,,,,,
encoding,attention,24,19106933,19109944,19108846.0,19109092.0,247.0,247.0,2280.3,1155.5,2249.0,891.0,Animal_Sea_Pattern_Large,69.13752320804633,72.14877066714689,4.0,Animal_Sea_Pattern_Large,-1.0,,,,,,,,,,,
encoding,attention,24,19106933,19109944,19109101.0,19109579.0,479.0,479.0,2298.6,1183.5,2249.0,891.0,Animal_Sea_Pattern_Large,69.13752320804633,72.14877066714689,4.0,Animal_Sea_Pattern_Large,-1.0,,,,,,,,,,,
encoding,attention,24,19106933,19109944,19109590.0,19109936.0,347.0,347.0,2250.7,1219.2,2249.0,891.0,Animal_Sea_Pattern_Large,69.13752320804633,72.14877066714689,4.0,Animal_Sea_Pattern_Large,-1.0,,,,,,,,,,,
encoding,fixation,25,19518619,19519624,19518820.0,19518973.0,154.0,154.0,1898.3,1130.3,1920.0,1080.0,fixation,5.350830000126734,6.3564412500709295,5.0,Object_Land_Pattern_Small,-6.0,,,,,,,,,,,
encoding,fixation,25,19518619,19519624,19518993.0,19519736.0,744.0,631.0,1926.3,1043.4,1920.0,1080.0,fixation,5.350830000126734,6.3564412500709295,5.0,Object_Land_Pattern_Small,-6.0,,,,,,,,,,,
encoding,image,25,19519625,19520637,19520053.0,19520080.0,28.0,28.0,1960.7,654.4000000000001,1920.0,1460.0,Object_Land_Pattern_Small,6.35658258292824,7.368886291049421,5.0,Object_Land_Pattern_Small,-6.0,,,,,,,,,,,
encoding,image,25,19519625,19520637,19520104.0,19520585.0,482.0,482.0,1935.7,664.8,1920.0,1460.0,Object_Land_Pattern_Small,6.35658258292824,7.368886291049421,5.0,Object_Land_Pattern_Small,-6.0,,,,,,,,,,,
encoding,image,25,19519625,19520637,19520598.0,19520717.0,120.0,39.0,1934.0,607.7,1920.0,1460.0,Object_Land_Pattern_Small,6.35658258292824,7.368886291049421,5.0,Object_Land_Pattern_Small,-6.0,,,,,,,,,,,
encoding,value,25,19520637,19526651,19520740.0,19521021.0,282.0,282.0,1937.8,604.4000000000001,1920.0,1460.0,Object_Land_Pattern_Small,7.369003833038732,13.382156833074989,5.0,Object_Land_Pattern_Small,-6.0,,,,,,,,,,,
encoding,value,25,19520637,19526651,19521184.0,19521400.0,217.0,217.0,1950.8,553.5999999999999,1920.0,1460.0,Object_Land_Pattern_Small,7.369003833038732,13.382156833074989,5.0,Object_Land_Pattern_Small,-6.0,,,,,,,,,,,
encoding,value,25,19520637,19526651,19521419.0,19522463.0,1045.0,1045.0,1936.6,658.5,1920.0,1460.0,Object_Land_Pattern_Small,7.369003833038732,13.382156833074989,5.0,Object_Land_Pattern_Small,-6.0,,,,,,,,,,,
encoding,value,25,19520637,19526651,19522480.0,19522775.0,296.0,296.0,1921.8,565.4000000000001,1920.0,1460.0,Object_Land_Pattern_Small,7.369003833038732,13.382156833074989,5.0,Object_Land_Pattern_Small,-6.0,,,,,,,,,,,
encoding,value,25,19520637,19526651,19522796.0,19523563.0,768.0,768.0,1923.1,672.0999999999999,1920.0,1460.0,Object_Land_Pattern_Small,7.369003833038732,13.382156833074989,5.0,Object_Land_Pattern_Small,-6.0,,,,,,,,,,,
encoding,value,25,19520637,19526651,19523825.0,19524242.0,418.0,418.0,1933.0,652.5,1920.0,1460.0,Object_Land_Pattern_Small,7.369003833038732,13.382156833074989,5.0,Object_Land_Pattern_Small,-6.0,,,,,,,,,,,
encoding,value,25,19520637,19526651,19524257.0,19524780.0,524.0,524.0,1924.4,573.0999999999999,1920.0,1460.0,Object_Land_Pattern_Small,7.369003833038732,13.382156833074989,5.0,Object_Land_Pattern_Small,-6.0,,,,,,,,,,,
encoding,value,25,19520637,19526651,19524796.0,19525644.0,849.0,849.0,1921.7,651.2,1920.0,1460.0,Object_Land_Pattern_Small,7.369003833038732,13.382156833074989,5.0,Object_Land_Pattern_Small,-6.0,,,,,,,,,,,
encoding,value,25,19520637,19526651,19525661.0,19526168.0,508.0,508.0,1926.4,548.9000000000001,1920.0,1460.0,Object_Land_Pattern_Small,7.369003833038732,13.382156833074989,5.0,Object_Land_Pattern_Small,-6.0,,,,,,,,,,,
encoding,attention,25,19526651,19529672,19526656.0,19527203.0,548.0,548.0,1905.2,486.79999999999995,,,none,13.38227237504907,16.40305675007403,5.0,Object_Land_Pattern_Small,-6.0,-6.0,1.0,2.476086833048612,,,,,,,,
encoding,attention,25,19526651,19529672,19527219.0,19527556.0,338.0,338.0,1986.4,491.20000000000005,,,none,13.38227237504907,16.40305675007403,5.0,Object_Land_Pattern_Small,-6.0,-6.0,1.0,2.476086833048612,,,,,,,,
encoding,attention,25,19526651,19529672,19527596.0,19527859.0,264.0,264.0,1927.2,637.9000000000001,1920.0,1460.0,Object_Land_Pattern_Small,13.38227237504907,16.40305675007403,5.0,Object_Land_Pattern_Small,-6.0,-6.0,1.0,2.476086833048612,,,,,,,,
encoding,attention,25,19526651,19529672,19527874.0,19528019.0,146.0,146.0,1937.5,698.3,1920.0,1460.0,Object_Land_Pattern_Small,13.38227237504907,16.40305675007403,5.0,Object_Land_Pattern_Small,-6.0,-6.0,1.0,2.476086833048612,,,,,,,,
encoding,attention,25,19526651,19529672,19528038.0,19528627.0,590.0,590.0,1914.8,646.0999999999999,1920.0,1460.0,Object_Land_Pattern_Small,13.38227237504907,16.40305675007403,5.0,Object_Land_Pattern_Small,-6.0,-6.0,1.0,2.476086833048612,,,,,,,,
encoding,attention,25,19526651,19529672,19528926.0,19529054.0,129.0,129.0,1996.4,1067.5,2249.0,1269.0,Animal_Land_Pattern_Small,13.38227237504907,16.40305675007403,5.0,Object_Land_Pattern_Small,-6.0,-6.0,1.0,2.476086833048612,,,,,,,,
encoding,attention,25,19526651,19529672,19529070.0,19529449.0,380.0,380.0,1911.7,1033.6,1920.0,1080.0,fixation,13.38227237504907,16.40305675007403,5.0,Object_Land_Pattern_Small,-6.0,-6.0,1.0,2.476086833048612,,,,,,,,
encoding,fixation,26,19529672,19530677,19529780.0,19529911.0,132.0,132.0,1917.9,654.3,1920.0,1460.0,Object_Land_Pattern_Small,16.40333604090847,17.408477457938716,5.0,Object_Sea_Solid_Large,5.0,,,,,,,,,,,
encoding,fixation,26,19529672,19530677,19529948.0,19530314.0,367.0,367.0,1912.0,1014.0,1920.0,1080.0,fixation,16.40333604090847,17.408477457938716,5.0,Object_Sea_Solid_Large,5.0,,,,,,,,,,,
encoding,fixation,26,19529672,19530677,19530630.0,19530914.0,285.0,47.0,1929.0,947.7,1920.0,1460.0,Object_Land_Pattern_Small,16.40333604090847,17.408477457938716,5.0,Object_Sea_Solid_Large,5.0,,,,,,,,,,,
