phase,event,trial_number,eyetracker_onset,eyetracker_offset,fix_start,fix_end,fix_duration_full,fix_duration_bounded,fix_x,fix_y,roi_x,roi_y,roi_content,onset,offset,game,image,outcome,choice,correct,rt,letter,match,response,option,true_value,true_position,recalled_position,Unnamed: 18
encoding,fixation,1,2787785,2789056,2787967.0,2787992.0,26.0,26.0,1786.1,1224.6,1591.0,891.0,Animal_Sea_Solid_Small,11.797998917056248,13.06810645898804,1.0,Object_Land_Pattern_Large,-3.0,,,,,,,,,,,
encoding,fixation,1,2787785,2789056,2788001.0,2788085.0,85.0,85.0,1785.6,1143.3,1591.0,891.0,Animal_Sea_Solid_Small,11.797998917056248,13.06810645898804,1.0,Object_Land_Pattern_Large,-3.0,,,,,,,,,,,
encoding,fixation,1,2787785,2789056,2788104.0,2788567.0,464.0,464.0,1864.2,1155.5,1591.0,891.0,Animal_Sea_Solid_Small,11.797998917056248,13.06810645898804,1.0,Object_Land_Pattern_Large,-3.0,,,,,,,,,,,
encoding,fixation,1,2787785,2789056,2788783.0,2789062.0,280.0,273.0,1900.2,1239.6,1920.0,700.0,Object_Land_Pattern_Large,11.797998917056248,13.06810645898804,1.0,Object_Land_Pattern_Large,-3.0,,,,,,,,,,,
encoding,image,1,2789056,2790080,2789083.0,2789255.0,173.0,173.0,1881.5,1121.3,1920.0,1080.0,fixation,13.06825283402577,14.09268983406946,1.0,Object_Land_Pattern_Large,-3.0,,,,,,,,,,,
encoding,image,1,2789056,2790080,2789303.0,2789510.0,208.0,208.0,1898.1,1485.6,1920.0,700.0,Object_Land_Pattern_Large,13.06825283402577,14.09268983406946,1.0,Object_Land_Pattern_Large,-3.0,,,,,,,,,,,
encoding,image,1,2789056,2790080,2789518.0,2790270.0,753.0,562.0,1891.6,1463.3,1920.0,700.0,Object_Land_Pattern_Large,13.06825283402577,14.09268983406946,1.0,Object_Land_Pattern_Large,-3.0,,,,,,,,,,,
encoding,value,1,2790080,2796098,2790290.0,2791467.0,1178.0,1178.0,1871.4,1397.4,1920.0,700.0,Object_Land_Pattern_Large,14.092803166946396,20.11025141691789,1.0,Object_Land_Pattern_Large,-3.0,,,,,,,,,,,
encoding,value,1,2790080,2796098,2791486.0,2792114.0,629.0,629.0,1880.2,1486.6,1920.0,700.0,Object_Land_Pattern_Large,14.092803166946396,20.11025141691789,1.0,Object_Land_Pattern_Large,-3.0,,,,,,,,,,,
encoding,value,1,2790080,2796098,2792136.0,2792904.0,769.0,769.0,1868.1,1391.0,1920.0,700.0,Object_Land_Pattern_Large,14.092803166946396,20.11025141691789,1.0,Object_Land_Pattern_Large,-3.0,,,,,,,,,,,
encoding,value,1,2790080,2796098,2793050.0,2793230.0,181.0,181.0,1855.9,1470.6,1920.0,700.0,Object_Land_Pattern_Large,14.092803166946396,20.11025141691789,1.0,Object_Land_Pattern_Large,-3.0,,,,,,,,,,,
encoding,value,1,2790080,2796098,2793244.0,2793734.0,491.0,491.0,1873.4,1411.3,1920.0,700.0,Object_Land_Pattern_Large,14.092803166946396,20.11025141691789,1.0,Object_Land_Pattern_Large,-3.0,,,,,,,,,,,
encoding,value,1,2790080,2796098,2793904.0,2794194.0,291.0,291.0,1863.6,1438.5,1920.0,700.0,Object_Land_Pattern_Large,14.092803166946396,20.11025141691789,1.0,Object_Land_Pattern_Large,-3.0,,,,,,,,,,,
encoding,value,1,2790080,2796098,2794208.0,2794816.0,609.0,609.0,1897.4,1475.2,1920.0,700.0,Object_Land_Pattern_Large,14.092803166946396,20.11025141691789,1.0,Object_Land_Pattern_Large,-3.0,,,,,,,,,,,
encoding,value,1,2790080,2796098,2794837.0,2795616.0,780.0,780.0,1873.9,1396.8,1920.0,700.0,Object_Land_Pattern_Large,14.092803166946396,20.11025141691789,1.0,Object_Land_Pattern_Large,-3.0,,,,,,,,,,,
encoding,value,1,2790080,2796098,2795637.0,2796311.0,675.0,461.0,1908.9,1494.0,1920.0,700.0,Object_Land_Pattern_Large,14.092803166946396,20.11025141691789,1.0,Object_Land_Pattern_Large,-3.0,,,,,,,,,,,
encoding,attention,1,2796098,2799116,2796328.0,2796969.0,642.0,642.0,1902.7,1412.5,1920.0,700.0,Object_Land_Pattern_Large,20.11037812498398,23.128155624959614,1.0,Object_Land_Pattern_Large,-3.0,-3.0,1.0,2.951350332936272,,,,,,,,
encoding,attention,1,2796098,2799116,2796989.0,2797309.0,321.0,321.0,1851.3,1404.9,1920.0,700.0,Object_Land_Pattern_Large,20.11037812498398,23.128155624959614,1.0,Object_Land_Pattern_Large,-3.0,-3.0,1.0,2.951350332936272,,,,,,,,
encoding,attention,1,2796098,2799116,2797475.0,2797702.0,228.0,228.0,1839.4,1426.8,1920.0,700.0,Object_Land_Pattern_Large,20.11037812498398,23.128155624959614,1.0,Object_Land_Pattern_Large,-3.0,-3.0,1.0,2.951350332936272,,,,,,,,
encoding,attention,1,2796098,2799116,2798505.0,2798633.0,129.0,129.0,1865.1,1581.8,1920.0,700.0,Object_Land_Pattern_Large,20.11037812498398,23.128155624959614,1.0,Object_Land_Pattern_Large,-3.0,-3.0,1.0,2.951350332936272,,,,,,,,
encoding,attention,1,2796098,2799116,2798659.0,2799039.0,381.0,381.0,1880.5,1403.8,1920.0,700.0,Object_Land_Pattern_Large,20.11037812498398,23.128155624959614,1.0,Object_Land_Pattern_Large,-3.0,-3.0,1.0,2.951350332936272,,,,,,,,
encoding,fixation,2,2799116,2800121,2799453.0,2799972.0,520.0,520.0,1908.2,1131.2,1920.0,1080.0,fixation,23.128287167055532,24.133194042136893,1.0,Animal_Sea_Pattern_Small,5.0,,,,,,,,,,,
encoding,fixation,2,2799116,2800121,2800002.0,2800136.0,135.0,119.0,1950.6,1408.8,1920.0,700.0,Object_Land_Pattern_Large,23.128287167055532,24.133194042136893,1.0,Animal_Sea_Pattern_Small,5.0,,,,,,,,,,,
encoding,image,2,2800121,2801131,2800302.0,2800407.0,106.0,106.0,1938.8,1428.5,1920.0,700.0,Object_Land_Pattern_Large,24.133297834079713,25.143531542038545,1.0,Animal_Sea_Pattern_Small,5.0,,,,,,,,,,,
encoding,image,2,2800121,2801131,2800455.0,2800552.0,98.0,98.0,1674.0,988.9000000000001,1591.0,1269.0,Animal_Sea_Pattern_Small,24.133297834079713,25.143531542038545,1.0,Animal_Sea_Pattern_Small,5.0,,,,,,,,,,,
encoding,image,2,2800121,2801131,2800574.0,2800859.0,286.0,286.0,1585.2,914.9000000000001,1591.0,1269.0,Animal_Sea_Pattern_Small,24.133297834079713,25.143531542038545,1.0,Animal_Sea_Pattern_Small,5.0,,,,,,,,,,,
encoding,image,2,2800121,2801131,2800868.0,2801066.0,199.0,199.0,1621.3,909.5,1591.0,1269.0,Animal_Sea_Pattern_Small,24.133297834079713,25.143531542038545,1.0,Animal_Sea_Pattern_Small,5.0,,,,,,,,,,,
encoding,value,2,2801132,2807145,2801304.0,2801334.0,31.0,31.0,1583.3,1087.9,1591.0,891.0,Animal_Sea_Solid_Small,25.14371370896697,31.156440125079826,1.0,Animal_Sea_Pattern_Small,5.0,,,,,,,,,,,
encoding,value,2,2801132,2807145,2801372.0,2801433.0,62.0,62.0,1592.0,969.0999999999999,1591.0,1269.0,Animal_Sea_Pattern_Small,25.14371370896697,31.156440125079826,1.0,Animal_Sea_Pattern_Small,5.0,,,,,,,,,,,
encoding,value,2,2801132,2807145,2801457.0,2801973.0,517.0,517.0,1571.0,812.7,1591.0,1269.0,Animal_Sea_Pattern_Small,25.14371370896697,31.156440125079826,1.0,Animal_Sea_Pattern_Small,5.0,,,,,,,,,,,
encoding,value,2,2801132,2807145,2801996.0,2805050.0,3055.0,3055.0,1590.1,924.0,1591.0,1269.0,Animal_Sea_Pattern_Small,25.14371370896697,31.156440125079826,1.0,Animal_Sea_Pattern_Small,5.0,,,,,,,,,,,
encoding,value,2,2801132,2807145,2805062.0,2806030.0,969.0,969.0,1574.2,821.5,1591.0,1269.0,Animal_Sea_Pattern_Small,25.14371370896697,31.156440125079826,1.0,Animal_Sea_Pattern_Small,5.0,,,,,,,,,,,
encoding,value,2,2801132,2807145,2806222.0,2806255.0,34.0,34.0,1506.1,885.5,1591.0,1269.0,Animal_Sea_Pattern_Small,25.14371370896697,31.156440125079826,1.0,Animal_Sea_Pattern_Small,5.0,,,,,,,,,,,
encoding,value,2,2801132,2807145,2806704.0,2806765.0,62.0,62.0,1505.4,857.5999999999999,1591.0,1269.0,Animal_Sea_Pattern_Small,25.14371370896697,31.156440125079826,1.0,Animal_Sea_Pattern_Small,5.0,,,,,,,,,,,
encoding,value,2,2801132,2807145,2806838.0,2806863.0,26.0,26.0,1551.8,977.7,1591.0,1269.0,Animal_Sea_Pattern_Small,25.14371370896697,31.156440125079826,1.0,Animal_Sea_Pattern_Small,5.0,,,,,,,,,,,
encoding,value,2,2801132,2807145,2806996.0,2807016.0,21.0,21.0,1555.6,981.0,1591.0,1269.0,Animal_Sea_Pattern_Small,25.14371370896697,31.156440125079826,1.0,Animal_Sea_Pattern_Small,5.0,,,,,,,,,,,
encoding,value,2,2801132,2807145,2807063.0,2807693.0,631.0,82.0,1598.0,839.2,1591.0,1269.0,Animal_Sea_Pattern_Small,25.14371370896697,31.156440125079826,1.0,Animal_Sea_Pattern_Small,5.0,,,,,,,,,,,
encoding,attention,2,2807145,2810162,2808205.0,2808256.0,52.0,52.0,1478.0,841.4000000000001,1591.0,1269.0,Animal_Sea_Pattern_Small,31.156539791962132,34.17405312508345,1.0,Animal_Sea_Pattern_Small,5.0,5.0,1.0,1.395115708000958,,,,,,,,
encoding,attention,2,2807145,2810162,2808543.0,2808571.0,29.0,29.0,1605.8,956.8,1591.0,1269.0,Animal_Sea_Pattern_Small,31.156539791962132,34.17405312508345,1.0,Animal_Sea_Pattern_Small,5.0,5.0,1.0,1.395115708000958,,,,,,,,
encoding,attention,2,2807145,2810162,2808703.0,2808975.0,273.0,273.0,1619.3,838.3,1591.0,1269.0,Animal_Sea_Pattern_Small,31.156539791962132,34.17405312508345,1.0,Animal_Sea_Pattern_Small,5.0,5.0,1.0,1.395115708000958,,,,,,,,
encoding,attention,2,2807145,2810162,2809001.0,2809528.0,528.0,528.0,1583.4,913.2,1591.0,1269.0,Animal_Sea_Pattern_Small,31.156539791962132,34.17405312508345,1.0,Animal_Sea_Pattern_Small,5.0,5.0,1.0,1.395115708000958,,,,,,,,
encoding,attention,2,2807145,2810162,2809546.0,2810134.0,589.0,589.0,1628.7,817.0999999999999,1591.0,1269.0,Animal_Sea_Pattern_Small,31.156539791962132,34.17405312508345,1.0,Animal_Sea_Pattern_Small,5.0,5.0,1.0,1.395115708000958,,,,,,,,
encoding,fixation,3,2810162,2811419,2810460.0,2810537.0,78.0,78.0,1886.9,1097.7,1920.0,1080.0,fixation,34.17421929212287,35.43068120907992,1.0,Object_Sea_Solid_Small,-5.0,,,,,,,,,,,
encoding,fixation,3,2810162,2811419,2810831.0,2810864.0,34.0,34.0,1846.2,1199.5,1591.0,891.0,Animal_Sea_Solid_Small,34.17421929212287,35.43068120907992,1.0,Object_Sea_Solid_Small,-5.0,,,,,,,,,,,
encoding,fixation,3,2810162,2811419,2810889.0,2811674.0,786.0,530.0,1896.7,1120.5,1920.0,1080.0,fixation,34.17421929212287,35.43068120907992,1.0,Object_Sea_Solid_Small,-5.0,,,,,,,,,,,
encoding,image,3,2811419,2812429,2811709.0,2814121.0,2413.0,720.0,2238.1,1289.5,2249.0,891.0,Object_Sea_Solid_Small,35.43078249995597,36.44080908410251,1.0,Object_Sea_Solid_Small,-5.0,,,,,,,,,,,
encoding,value,3,2812429,2818441,2814198.0,2814633.0,436.0,436.0,2243.4,1230.4,2249.0,891.0,Object_Sea_Solid_Small,36.44091737503186,42.45195333403535,1.0,Object_Sea_Solid_Small,-5.0,,,,,,,,,,,
encoding,value,3,2812429,2818441,2814651.0,2814905.0,255.0,255.0,2208.6,1312.2,2249.0,891.0,Object_Sea_Solid_Small,36.44091737503186,42.45195333403535,1.0,Object_Sea_Solid_Small,-5.0,,,,,,,,,,,
encoding,value,3,2812429,2818441,2814927.0,2816465.0,1539.0,1539.0,2206.6,1189.8,2249.0,891.0,Object_Sea_Solid_Small,36.44091737503186,42.45195333403535,1.0,Object_Sea_Solid_Small,-5.0,,,,,,,,,,,
encoding,value,3,2812429,2818441,2816488.0,2816919.0,432.0,432.0,2213.2,1305.7,2249.0,891.0,Object_Sea_Solid_Small,36.44091737503186,42.45195333403535,1.0,Object_Sea_Solid_Small,-5.0,,,,,,,,,,,
encoding,value,3,2812429,2818441,2816939.0,2817479.0,541.0,541.0,2201.1,1218.0,2249.0,891.0,Object_Sea_Solid_Small,36.44091737503186,42.45195333403535,1.0,Object_Sea_Solid_Small,-5.0,,,,,,,,,,,
encoding,value,3,2812429,2818441,2817498.0,2817920.0,423.0,423.0,2188.4,1317.8,2249.0,891.0,Object_Sea_Solid_Small,36.44091737503186,42.45195333403535,1.0,Object_Sea_Solid_Small,-5.0,,,,,,,,,,,
encoding,value,3,2812429,2818441,2817941.0,2818466.0,526.0,500.0,2205.4,1206.7,2249.0,891.0,Object_Sea_Solid_Small,36.44091737503186,42.45195333403535,1.0,Object_Sea_Solid_Small,-5.0,,,,,,,,,,,
encoding,attention,3,2818441,2821459,2818597.0,2818779.0,183.0,183.0,2204.3,1257.9,2249.0,891.0,Object_Sea_Solid_Small,42.45208008401096,45.470188667066395,1.0,Object_Sea_Solid_Small,-5.0,-5.0,1.0,2.7234574160538614,,,,,,,,
encoding,attention,3,2818441,2821459,2818791.0,2819113.0,323.0,323.0,2254.6,1212.0,2249.0,891.0,Object_Sea_Solid_Small,42.45208008401096,45.470188667066395,1.0,Object_Sea_Solid_Small,-5.0,-5.0,1.0,2.7234574160538614,,,,,,,,
encoding,attention,3,2818441,2821459,2819130.0,2819548.0,419.0,419.0,2225.5,1294.4,2249.0,891.0,Object_Sea_Solid_Small,42.45208008401096,45.470188667066395,1.0,Object_Sea_Solid_Small,-5.0,-5.0,1.0,2.7234574160538614,,,,,,,,
encoding,attention,3,2818441,2821459,2819565.0,2819775.0,211.0,211.0,2185.3,1214.4,2249.0,891.0,Object_Sea_Solid_Small,42.45208008401096,45.470188667066395,1.0,Object_Sea_Solid_Small,-5.0,-5.0,1.0,2.7234574160538614,,,,,,,,
encoding,attention,3,2818441,2821459,2820618.0,2820928.0,311.0,311.0,2200.6,1264.4,2249.0,891.0,Object_Sea_Solid_Small,42.45208008401096,45.470188667066395,1.0,Object_Sea_Solid_Small,-5.0,-5.0,1.0,2.7234574160538614,,,,,,,,
encoding,fixation,4,2821459,2822964,2821680.0,2823171.0,1492.0,1284.0,1903.3,1107.9,1920.0,1080.0,fixation,45.470337042119354,46.97514008404687,1.0,Object_Land_Solid_Large,9.0,,,,,,,,,,,
encoding,image,4,2822964,2823975,2823211.0,2823362.0,152.0,152.0,2172.8,989.2,2249.0,1269.0,Object_Land_Solid_Large,46.97525358409621,47.98600645898841,1.0,Object_Land_Solid_Large,9.0,,,,,,,,,,,
encoding,image,4,2822964,2823975,2823383.0,2823626.0,244.0,244.0,2240.7,909.8,2249.0,1269.0,Object_Land_Solid_Large,46.97525358409621,47.98600645898841,1.0,Object_Land_Solid_Large,9.0,,,,,,,,,,,
encoding,image,4,2822964,2823975,2823654.0,2824782.0,1129.0,321.0,1918.4,1098.6,1920.0,1080.0,fixation,46.97525358409621,47.98600645898841,1.0,Object_Land_Solid_Large,9.0,,,,,,,,,,,
encoding,value,4,2823975,2829989,2824814.0,2824990.0,177.0,177.0,2242.9,827.0,2249.0,1269.0,Object_Land_Solid_Large,47.98610954196192,53.99990520905703,1.0,Object_Land_Solid_Large,9.0,,,,,,,,,,,
encoding,value,4,2823975,2829989,2825200.0,2827087.0,1888.0,1888.0,2253.3,898.8,2249.0,1269.0,Object_Land_Solid_Large,47.98610954196192,53.99990520905703,1.0,Object_Land_Solid_Large,9.0,,,,,,,,,,,
encoding,value,4,2823975,2829989,2827105.0,2830262.0,3158.0,2884.0,2233.7,816.0999999999999,2249.0,1269.0,Object_Land_Solid_Large,47.98610954196192,53.99990520905703,1.0,Object_Land_Solid_Large,9.0,,,,,,,,,,,
encoding,attention,4,2829989,2833006,2830270.0,2830685.0,416.0,416.0,2249.4,834.7,2249.0,1269.0,Object_Land_Solid_Large,54.00000762497075,57.016337167005986,1.0,Object_Land_Solid_Large,9.0,9.0,1.0,1.920409250073135,,,,,,,,
encoding,attention,4,2829989,2833006,2830867.0,2831554.0,688.0,688.0,2186.7,860.9000000000001,2249.0,1269.0,Object_Land_Solid_Large,54.00000762497075,57.016337167005986,1.0,Object_Land_Solid_Large,9.0,9.0,1.0,1.920409250073135,,,,,,,,
encoding,attention,4,2829989,2833006,2831572.0,2832196.0,625.0,625.0,2195.0,867.2,2249.0,1269.0,Object_Land_Solid_Large,54.00000762497075,57.016337167005986,1.0,Object_Land_Solid_Large,9.0,9.0,1.0,1.920409250073135,,,,,,,,
encoding,fixation,5,2833006,2834511,2833222.0,2833491.0,270.0,270.0,1901.8,1128.3,1920.0,1080.0,fixation,57.016495584044605,58.52132137492299,1.0,Animal_Land_Pattern_Large,-8.0,,,,,,,,,,,
encoding,fixation,5,2833006,2834511,2833657.0,2834095.0,439.0,439.0,1894.3,1194.4,1920.0,700.0,Object_Land_Pattern_Large,57.016495584044605,58.52132137492299,1.0,Animal_Land_Pattern_Large,-8.0,,,,,,,,,,,
encoding,fixation,5,2833006,2834511,2834114.0,2834883.0,770.0,397.0,1882.3,1116.1,1920.0,1080.0,fixation,57.016495584044605,58.52132137492299,1.0,Animal_Land_Pattern_Large,-8.0,,,,,,,,,,,
encoding,image,5,2834511,2835523,2834892.0,2835102.0,211.0,211.0,1865.6,1155.4,1591.0,891.0,Animal_Sea_Solid_Small,58.521436041919515,59.53335537505336,1.0,Animal_Land_Pattern_Large,-8.0,,,,,,,,,,,
encoding,image,5,2834511,2835523,2835157.0,2835322.0,166.0,166.0,1878.4,800.3,1920.0,1460.0,Animal_Land_Pattern_Large,58.521436041919515,59.53335537505336,1.0,Animal_Land_Pattern_Large,-8.0,,,,,,,,,,,
encoding,image,5,2834511,2835523,2835334.0,2837946.0,2613.0,189.0,1847.2,764.8,1920.0,1460.0,Animal_Land_Pattern_Large,58.521436041919515,59.53335537505336,1.0,Animal_Land_Pattern_Large,-8.0,,,,,,,,,,,
encoding,value,5,2835523,2841535,2837960.0,2838383.0,424.0,424.0,1882.9,790.9000000000001,1920.0,1460.0,Animal_Land_Pattern_Large,59.53347408398986,65.54480812512338,1.0,Animal_Land_Pattern_Large,-8.0,,,,,,,,,,,
encoding,value,5,2835523,2841535,2838394.0,2838469.0,76.0,76.0,1844.0,771.9000000000001,1920.0,1460.0,Animal_Land_Pattern_Large,59.53347408398986,65.54480812512338,1.0,Animal_Land_Pattern_Large,-8.0,,,,,,,,,,,
encoding,value,5,2835523,2841535,2838625.0,2838649.0,25.0,25.0,1839.6,856.5,1920.0,1460.0,Animal_Land_Pattern_Large,59.53347408398986,65.54480812512338,1.0,Animal_Land_Pattern_Large,-8.0,,,,,,,,,,,
encoding,value,5,2835523,2841535,2838656.0,2839976.0,1321.0,1321.0,1884.8,726.8,1920.0,1460.0,Animal_Land_Pattern_Large,59.53347408398986,65.54480812512338,1.0,Animal_Land_Pattern_Large,-8.0,,,,,,,,,,,
encoding,value,5,2835523,2841535,2839994.0,2840607.0,614.0,614.0,1907.1,600.4000000000001,1920.0,1460.0,Animal_Land_Pattern_Large,59.53347408398986,65.54480812512338,1.0,Animal_Land_Pattern_Large,-8.0,,,,,,,,,,,
encoding,value,5,2835523,2841535,2840625.0,2841782.0,1158.0,910.0,1895.9,714.5999999999999,1920.0,1460.0,Animal_Land_Pattern_Large,59.53347408398986,65.54480812512338,1.0,Animal_Land_Pattern_Large,-8.0,,,,,,,,,,,
encoding,attention,5,2841535,2844595,2841799.0,2841926.0,128.0,128.0,1941.3,633.4000000000001,1920.0,1460.0,Animal_Land_Pattern_Large,65.5449215839617,68.60537629202008,1.0,Animal_Land_Pattern_Large,-8.0,-8.0,1.0,1.4274857079144567,,,,,,,,
encoding,attention,5,2841535,2844595,2842137.0,2842520.0,384.0,384.0,1933.3,669.7,1920.0,1460.0,Animal_Land_Pattern_Large,65.5449215839617,68.60537629202008,1.0,Animal_Land_Pattern_Large,-8.0,-8.0,1.0,1.4274857079144567,,,,,,,,
encoding,fixation,6,2844596,2845850,2844830.0,2845897.0,1068.0,1020.0,1900.3,1106.0,1920.0,1080.0,fixation,68.60551566700451,69.86051566712558,1.0,Animal_Sea_Solid_Small,1.0,,,,,,,,,,,
encoding,image,6,2845851,2846862,2846091.0,2846119.0,29.0,29.0,1840.8,1125.1,1591.0,891.0,Animal_Sea_Solid_Small,69.86071070912294,70.87177670910023,1.0,Animal_Sea_Solid_Small,1.0,,,,,,,,,,,
encoding,image,6,2845851,2846862,2846148.0,2846485.0,338.0,338.0,1609.3,1285.6,1591.0,891.0,Animal_Sea_Solid_Small,69.86071070912294,70.87177670910023,1.0,Animal_Sea_Solid_Small,1.0,,,,,,,,,,,
encoding,image,6,2845851,2846862,2846503.0,2847429.0,927.0,359.0,1573.5,1291.4,1591.0,891.0,Animal_Sea_Solid_Small,69.86071070912294,70.87177670910023,1.0,Animal_Sea_Solid_Small,1.0,,,,,,,,,,,
encoding,value,6,2846862,2852874,2847595.0,2848050.0,456.0,456.0,1568.9,1286.7,1591.0,891.0,Animal_Sea_Solid_Small,70.87187833408825,76.88415850000456,1.0,Animal_Sea_Solid_Small,1.0,,,,,,,,,,,
encoding,value,6,2846862,2852874,2848068.0,2848446.0,379.0,379.0,1574.0,1182.7,1591.0,891.0,Animal_Sea_Solid_Small,70.87187833408825,76.88415850000456,1.0,Animal_Sea_Solid_Small,1.0,,,,,,,,,,,
encoding,value,6,2846862,2852874,2848471.0,2848759.0,289.0,289.0,1581.6,1316.8,1591.0,891.0,Animal_Sea_Solid_Small,70.87187833408825,76.88415850000456,1.0,Animal_Sea_Solid_Small,1.0,,,,,,,,,,,
encoding,value,6,2846862,2852874,2848787.0,2851098.0,2312.0,2312.0,1570.8,1181.2,1591.0,891.0,Animal_Sea_Solid_Small,70.87187833408825,76.88415850000456,1.0,Animal_Sea_Solid_Small,1.0,,,,,,,,,,,
encoding,value,6,2846862,2852874,2851114.0,2851481.0,368.0,368.0,1557.2,1232.2,1591.0,891.0,Animal_Sea_Solid_Small,70.87187833408825,76.88415850000456,1.0,Animal_Sea_Solid_Small,1.0,,,,,,,,,,,
encoding,value,6,2846862,2852874,2851512.0,2851598.0,87.0,87.0,1490.5,1265.5,1591.0,891.0,Animal_Sea_Solid_Small,70.87187833408825,76.88415850000456,1.0,Animal_Sea_Solid_Small,1.0,,,,,,,,,,,
encoding,value,6,2846862,2852874,2851609.0,2852863.0,1255.0,1255.0,1592.4,1218.9,1591.0,891.0,Animal_Sea_Solid_Small,70.87187833408825,76.88415850000456,1.0,Animal_Sea_Solid_Small,1.0,,,,,,,,,,,
encoding,value,6,2846862,2852874,2852871.0,2853484.0,614.0,3.0,1607.2,1232.7,1591.0,891.0,Animal_Sea_Solid_Small,70.87187833408825,76.88415850000456,1.0,Animal_Sea_Solid_Small,1.0,,,,,,,,,,,
encoding,attention,6,2852875,2855895,2853501.0,2853830.0,330.0,330.0,1563.7,1277.9,1591.0,891.0,Animal_Sea_Solid_Small,76.88429191708565,79.90487570897676,1.0,Animal_Sea_Solid_Small,1.0,1.0,1.0,1.6977319170255214,,,,,,,,
encoding,attention,6,2852875,2855895,2854016.0,2854347.0,332.0,332.0,1551.2,1351.6,1591.0,891.0,Animal_Sea_Solid_Small,76.88429191708565,79.90487570897676,1.0,Animal_Sea_Solid_Small,1.0,1.0,1.0,1.6977319170255214,,,,,,,,
encoding,attention,6,2852875,2855895,2854367.0,2855712.0,1346.0,1346.0,1547.1,1201.8,1591.0,891.0,Animal_Sea_Solid_Small,76.88429191708565,79.90487570897676,1.0,Animal_Sea_Solid_Small,1.0,1.0,1.0,1.6977319170255214,,,,,,,,
encoding,fixation,7,3311781,3312536,3311864.0,3312077.0,214.0,214.0,1778.4,1334.1,1920.0,700.0,Object_Sea_Pattern_Large,6.318418582901359,7.073777874931693,2.0,Animal_Land_Solid_Large,8.0,,,,,,,,,,,
encoding,fixation,7,3311781,3312536,3312103.0,3312691.0,589.0,433.0,1902.4,1115.5,1920.0,1080.0,fixation,6.318418582901359,7.073777874931693,2.0,Animal_Land_Solid_Large,8.0,,,,,,,,,,,
encoding,image,7,3312536,3313549,3312717.0,3312825.0,109.0,109.0,1635.1,991.0999999999999,1591.0,1269.0,Animal_Land_Solid_Large,7.073884749785066,8.086374832782894,2.0,Animal_Land_Solid_Large,8.0,,,,,,,,,,,
encoding,image,7,3312536,3313549,3312839.0,3313745.0,907.0,710.0,1587.8,942.5999999999999,1591.0,1269.0,Animal_Land_Solid_Large,7.073884749785066,8.086374832782894,2.0,Animal_Land_Solid_Large,8.0,,,,,,,,,,,
encoding,value,7,3313549,3319563,3313766.0,3314091.0,326.0,326.0,1569.9,834.9000000000001,1591.0,1269.0,Animal_Land_Solid_Large,8.086472749942914,14.100178291788325,2.0,Animal_Land_Solid_Large,8.0,,,,,,,,,,,
encoding,value,7,3313549,3319563,3314291.0,3314416.0,126.0,126.0,1561.6,892.4000000000001,1591.0,1269.0,Animal_Land_Solid_Large,8.086472749942914,14.100178291788325,2.0,Animal_Land_Solid_Large,8.0,,,,,,,,,,,
encoding,value,7,3313549,3319563,3314432.0,3315552.0,1121.0,1121.0,1581.7,950.9000000000001,1591.0,1269.0,Animal_Land_Solid_Large,8.086472749942914,14.100178291788325,2.0,Animal_Land_Solid_Large,8.0,,,,,,,,,,,
encoding,value,7,3313549,3319563,3315560.0,3318471.0,2912.0,2912.0,1579.7,955.5,1591.0,1269.0,Animal_Land_Solid_Large,8.086472749942914,14.100178291788325,2.0,Animal_Land_Solid_Large,8.0,,,,,,,,,,,
encoding,value,7,3313549,3319563,3318490.0,3318947.0,458.0,458.0,1569.2,835.5999999999999,1591.0,1269.0,Animal_Land_Solid_Large,8.086472749942914,14.100178291788325,2.0,Animal_Land_Solid_Large,8.0,,,,,,,,,,,
encoding,value,7,3313549,3319563,3319147.0,3319172.0,26.0,26.0,1539.9,941.7,1591.0,1269.0,Animal_Land_Solid_Large,8.086472749942914,14.100178291788325,2.0,Animal_Land_Solid_Large,8.0,,,,,,,,,,,
encoding,value,7,3313549,3319563,3319193.0,3319214.0,22.0,22.0,1530.8,1065.5,1591.0,1269.0,Animal_Land_Solid_Large,8.086472749942914,14.100178291788325,2.0,Animal_Land_Solid_Large,8.0,,,,,,,,,,,
encoding,value,7,3313549,3319563,3319233.0,3319903.0,671.0,330.0,1590.6,950.5,1591.0,1269.0,Animal_Land_Solid_Large,8.086472749942914,14.100178291788325,2.0,Animal_Land_Solid_Large,8.0,,,,,,,,,,,
encoding,attention,7,3319563,3322582,3319920.0,3320270.0,351.0,351.0,1609.1,829.8,1591.0,1269.0,Animal_Land_Solid_Large,14.100293457973748,17.119177457876503,2.0,Animal_Land_Solid_Large,8.0,8.0,1.0,1.8609837079420688,,,,,,,,
encoding,attention,7,3319563,3322582,3320283.0,3320730.0,448.0,448.0,1531.2,825.5999999999999,1591.0,1269.0,Animal_Land_Solid_Large,14.100293457973748,17.119177457876503,2.0,Animal_Land_Solid_Large,8.0,8.0,1.0,1.8609837079420688,,,,,,,,
encoding,attention,7,3319563,3322582,3320983.0,3321022.0,40.0,40.0,1502.9,830.9000000000001,1591.0,1269.0,Animal_Land_Solid_Large,14.100293457973748,17.119177457876503,2.0,Animal_Land_Solid_Large,8.0,8.0,1.0,1.8609837079420688,,,,,,,,
encoding,attention,7,3319563,3322582,3321165.0,3321200.0,36.0,36.0,1492.1,1014.0999999999999,1591.0,1269.0,Animal_Land_Solid_Large,14.100293457973748,17.119177457876503,2.0,Animal_Land_Solid_Large,8.0,8.0,1.0,1.8609837079420688,,,,,,,,
encoding,fixation,8,3322582,3323588,3322784.0,3323727.0,944.0,804.0,1896.1,1141.3,1920.0,1080.0,fixation,17.1193402078934,18.1246312498115,2.0,Object_Land_Solid_Small,-8.0,,,,,,,,,,,
encoding,image,8,3323588,3324599,3323754.0,3324092.0,339.0,339.0,1593.4,1330.3,1591.0,891.0,Object_Land_Solid_Small,18.12473312485963,19.136088624829423,2.0,Object_Land_Solid_Small,-8.0,,,,,,,,,,,
encoding,image,8,3323588,3324599,3324230.0,3324288.0,59.0,59.0,1549.7,1399.3,1591.0,891.0,Object_Land_Solid_Small,18.12473312485963,19.136088624829423,2.0,Object_Land_Solid_Small,-8.0,,,,,,,,,,,
encoding,image,8,3323588,3324599,3324481.0,3324789.0,309.0,118.0,1569.8,1327.1,1591.0,891.0,Object_Land_Solid_Small,18.12473312485963,19.136088624829423,2.0,Object_Land_Solid_Small,-8.0,,,,,,,,,,,
encoding,value,8,3324599,3330612,3324805.0,3327695.0,2891.0,2891.0,1546.2,1219.2,1591.0,891.0,Object_Land_Solid_Small,19.136207291856408,25.148572041885927,2.0,Object_Land_Solid_Small,-8.0,,,,,,,,,,,
encoding,value,8,3324599,3330612,3327712.0,3328198.0,487.0,487.0,1588.3,1294.0,1591.0,891.0,Object_Land_Solid_Small,19.136207291856408,25.148572041885927,2.0,Object_Land_Solid_Small,-8.0,,,,,,,,,,,
encoding,value,8,3324599,3330612,3328211.0,3328954.0,744.0,744.0,1567.5,1319.6,1591.0,891.0,Object_Land_Solid_Small,19.136207291856408,25.148572041885927,2.0,Object_Land_Solid_Small,-8.0,,,,,,,,,,,
encoding,value,8,3324599,3330612,3329055.0,3329084.0,30.0,30.0,1508.0,1254.5,1591.0,891.0,Object_Land_Solid_Small,19.136207291856408,25.148572041885927,2.0,Object_Land_Solid_Small,-8.0,,,,,,,,,,,
encoding,value,8,3324599,3330612,3329101.0,3329420.0,320.0,320.0,1572.9,1250.4,1591.0,891.0,Object_Land_Solid_Small,19.136207291856408,25.148572041885927,2.0,Object_Land_Solid_Small,-8.0,,,,,,,,,,,
encoding,value,8,3324599,3330612,3329436.0,3330560.0,1125.0,1125.0,1563.8,1284.2,1591.0,891.0,Object_Land_Solid_Small,19.136207291856408,25.148572041885927,2.0,Object_Land_Solid_Small,-8.0,,,,,,,,,,,
encoding,value,8,3324599,3330612,3330573.0,3331420.0,848.0,39.0,1582.6,1204.2,1591.0,891.0,Object_Land_Solid_Small,19.136207291856408,25.148572041885927,2.0,Object_Land_Solid_Small,-8.0,,,,,,,,,,,
encoding,attention,8,3330612,3333632,,,,,,,,,none,25.148686499800533,28.1682674579788,2.0,Object_Land_Solid_Small,-8.0,-8.0,1.0,1.0371346669271588,,,,,,,,
encoding,fixation,9,3333632,3334887,3334166.0,3334572.0,407.0,407.0,1801.6,1337.2,1920.0,700.0,Object_Sea_Pattern_Large,28.168405041797087,29.423499832861125,2.0,Object_Sea_Pattern_Large,8.0,,,,,,,,,,,
encoding,fixation,9,3333632,3334887,3334692.0,3335066.0,375.0,195.0,1784.6,1387.7,1920.0,700.0,Object_Sea_Pattern_Large,28.168405041797087,29.423499832861125,2.0,Object_Sea_Pattern_Large,8.0,,,,,,,,,,,
encoding,image,9,3334887,3335899,3335085.0,3335617.0,533.0,533.0,1901.8,1453.0,1920.0,700.0,Object_Sea_Pattern_Large,29.4236259998288,30.435439791996032,2.0,Object_Sea_Pattern_Large,8.0,,,,,,,,,,,
encoding,image,9,3334887,3335899,3335793.0,3336083.0,291.0,106.0,1910.3,1477.0,1920.0,700.0,Object_Sea_Pattern_Large,29.4236259998288,30.435439791996032,2.0,Object_Sea_Pattern_Large,8.0,,,,,,,,,,,
encoding,value,9,3335899,3341911,3336264.0,3341700.0,5437.0,5437.0,1899.1,1396.6,1920.0,700.0,Object_Sea_Pattern_Large,30.435541541781276,36.44751729187555,2.0,Object_Sea_Pattern_Large,8.0,,,,,,,,,,,
encoding,value,9,3335899,3341911,3341718.0,3342278.0,561.0,193.0,1896.0,1485.3,1920.0,700.0,Object_Sea_Pattern_Large,30.435541541781276,36.44751729187555,2.0,Object_Sea_Pattern_Large,8.0,,,,,,,,,,,
encoding,attention,9,3341912,3344924,3342297.0,3342599.0,303.0,303.0,1913.3,1391.9,1920.0,700.0,Object_Sea_Pattern_Large,36.44764249981381,39.460393166868016,2.0,Object_Sea_Pattern_Large,8.0,,,,,,,,,,,
encoding,attention,9,3341912,3344924,3342620.0,3342940.0,321.0,321.0,1833.2,1387.8,1920.0,700.0,Object_Sea_Pattern_Large,36.44764249981381,39.460393166868016,2.0,Object_Sea_Pattern_Large,8.0,,,,,,,,,,,
encoding,attention,9,3341912,3344924,3342961.0,3343349.0,389.0,389.0,1884.5,1292.8,1920.0,700.0,Object_Sea_Pattern_Large,36.44764249981381,39.460393166868016,2.0,Object_Sea_Pattern_Large,8.0,,,,,,,,,,,
encoding,attention,9,3341912,3344924,3343365.0,3344375.0,1011.0,1011.0,1856.6,1340.9,1920.0,700.0,Object_Sea_Pattern_Large,36.44764249981381,39.460393166868016,2.0,Object_Sea_Pattern_Large,8.0,,,,,,,,,,,
encoding,fixation,10,3344924,3345679,3344970.0,3345377.0,408.0,408.0,1896.2,1315.0,1920.0,700.0,Object_Sea_Pattern_Large,39.46051462483592,40.21539262495935,2.0,Animal_Sea_Pattern_Large,-3.0,,,,,,,,,,,
encoding,fixation,10,3344924,3345679,3345512.0,3345875.0,364.0,167.0,1877.1,1401.7,1920.0,700.0,Object_Sea_Pattern_Large,39.46051462483592,40.21539262495935,2.0,Animal_Sea_Pattern_Large,-3.0,,,,,,,,,,,
encoding,image,10,3345679,3346690,3345911.0,3346650.0,740.0,740.0,2180.4,1293.2,2249.0,891.0,Animal_Sea_Pattern_Large,40.21554295788519,41.226130791939795,2.0,Animal_Sea_Pattern_Large,-3.0,,,,,,,,,,,
encoding,value,10,3346690,3352701,3346833.0,3347472.0,640.0,640.0,2215.1,1199.1,2249.0,891.0,Animal_Sea_Pattern_Large,41.226259666960686,47.237220166949555,2.0,Animal_Sea_Pattern_Large,-3.0,,,,,,,,,,,
encoding,value,10,3346690,3352701,3347491.0,3349384.0,1894.0,1894.0,2175.7,1293.8,2249.0,891.0,Animal_Sea_Pattern_Large,41.226259666960686,47.237220166949555,2.0,Animal_Sea_Pattern_Large,-3.0,,,,,,,,,,,
encoding,value,10,3346690,3352701,3349392.0,3349789.0,398.0,398.0,2144.9,1298.6,2249.0,891.0,Animal_Sea_Pattern_Large,41.226259666960686,47.237220166949555,2.0,Animal_Sea_Pattern_Large,-3.0,,,,,,,,,,,
encoding,value,10,3346690,3352701,3349809.0,3350774.0,966.0,966.0,2205.5,1198.9,2249.0,891.0,Animal_Sea_Pattern_Large,41.226259666960686,47.237220166949555,2.0,Animal_Sea_Pattern_Large,-3.0,,,,,,,,,,,
encoding,value,10,3346690,3352701,3350890.0,3351849.0,960.0,960.0,2216.7,1186.4,2249.0,891.0,Animal_Sea_Pattern_Large,41.226259666960686,47.237220166949555,2.0,Animal_Sea_Pattern_Large,-3.0,,,,,,,,,,,
encoding,value,10,3346690,3352701,3351987.0,3352214.0,228.0,228.0,2168.3,1284.7,2249.0,891.0,Animal_Sea_Pattern_Large,41.226259666960686,47.237220166949555,2.0,Animal_Sea_Pattern_Large,-3.0,,,,,,,,,,,
encoding,value,10,3346690,3352701,3352233.0,3352897.0,665.0,468.0,2216.7,1186.9,2249.0,891.0,Animal_Sea_Pattern_Large,41.226259666960686,47.237220166949555,2.0,Animal_Sea_Pattern_Large,-3.0,,,,,,,,,,,
encoding,attention,10,3352702,3355719,3352907.0,3353239.0,333.0,333.0,2267.1,1180.1,2249.0,891.0,Animal_Sea_Pattern_Large,47.23736487491988,50.25412045791745,2.0,Animal_Sea_Pattern_Large,-3.0,-3.0,1.0,0.6616256248671561,,,,,,,,
encoding,attention,10,3352702,3355719,3353254.0,3353633.0,380.0,380.0,2204.4,1206.3,2249.0,891.0,Animal_Sea_Pattern_Large,47.23736487491988,50.25412045791745,2.0,Animal_Sea_Pattern_Large,-3.0,-3.0,1.0,0.6616256248671561,,,,,,,,
encoding,attention,10,3352702,3355719,3353863.0,3354711.0,849.0,849.0,2209.0,1287.4,2249.0,891.0,Animal_Sea_Pattern_Large,47.23736487491988,50.25412045791745,2.0,Animal_Sea_Pattern_Large,-3.0,-3.0,1.0,0.6616256248671561,,,,,,,,
encoding,attention,10,3352702,3355719,3354719.0,3355374.0,656.0,656.0,2186.3,1291.3,2249.0,891.0,Animal_Sea_Pattern_Large,47.23736487491988,50.25412045791745,2.0,Animal_Sea_Pattern_Large,-3.0,-3.0,1.0,0.6616256248671561,,,,,,,,
encoding,fixation,11,3355719,3356724,3355867.0,3355995.0,129.0,129.0,2142.7,1265.2,2249.0,891.0,Animal_Sea_Pattern_Large,50.25431245798245,51.25940083293244,2.0,Animal_Land_Solid_Small,4.0,,,,,,,,,,,
encoding,fixation,11,3355719,3356724,3356188.0,3356955.0,768.0,536.0,2102.9,1489.7,1920.0,700.0,Object_Sea_Pattern_Large,50.25431245798245,51.25940083293244,2.0,Animal_Land_Solid_Small,4.0,,,,,,,,,,,
encoding,image,11,3356724,3357734,3357001.0,3357489.0,489.0,489.0,2216.5,968.8,2249.0,1269.0,Animal_Land_Solid_Small,51.2595266669523,52.26967495796271,2.0,Animal_Land_Solid_Small,4.0,,,,,,,,,,,
encoding,image,11,3356724,3357734,3357510.0,3357770.0,261.0,224.0,2234.8,800.7,2249.0,1269.0,Animal_Land_Solid_Small,51.2595266669523,52.26967495796271,2.0,Animal_Land_Solid_Small,4.0,,,,,,,,,,,
encoding,value,11,3357734,3363746,3357780.0,3357956.0,177.0,177.0,2236.6,830.9000000000001,2249.0,1269.0,Animal_Land_Solid_Small,52.269782999996096,58.28108545788564,2.0,Animal_Land_Solid_Small,4.0,,,,,,,,,,,
encoding,value,11,3357734,3363746,3357969.0,3358436.0,468.0,468.0,2259.9,779.9000000000001,2249.0,1269.0,Animal_Land_Solid_Small,52.269782999996096,58.28108545788564,2.0,Animal_Land_Solid_Small,4.0,,,,,,,,,,,
encoding,value,11,3357734,3363746,3358456.0,3359338.0,883.0,883.0,2233.1,910.8,2249.0,1269.0,Animal_Land_Solid_Small,52.269782999996096,58.28108545788564,2.0,Animal_Land_Solid_Small,4.0,,,,,,,,,,,
encoding,value,11,3357734,3363746,3359348.0,3360148.0,801.0,801.0,2251.9,934.4000000000001,2249.0,1269.0,Animal_Land_Solid_Small,52.269782999996096,58.28108545788564,2.0,Animal_Land_Solid_Small,4.0,,,,,,,,,,,
encoding,value,11,3357734,3363746,3360160.0,3360696.0,537.0,537.0,2223.5,919.2,2249.0,1269.0,Animal_Land_Solid_Small,52.269782999996096,58.28108545788564,2.0,Animal_Land_Solid_Small,4.0,,,,,,,,,,,
encoding,value,11,3357734,3363746,3360706.0,3361140.0,435.0,435.0,2240.4,962.4000000000001,2249.0,1269.0,Animal_Land_Solid_Small,52.269782999996096,58.28108545788564,2.0,Animal_Land_Solid_Small,4.0,,,,,,,,,,,
encoding,value,11,3357734,3363746,3361147.0,3362398.0,1252.0,1252.0,2260.1,971.4000000000001,2249.0,1269.0,Animal_Land_Solid_Small,52.269782999996096,58.28108545788564,2.0,Animal_Land_Solid_Small,4.0,,,,,,,,,,,
encoding,value,11,3357734,3363746,3362417.0,3362692.0,276.0,276.0,2239.9,860.0999999999999,2249.0,1269.0,Animal_Land_Solid_Small,52.269782999996096,58.28108545788564,2.0,Animal_Land_Solid_Small,4.0,,,,,,,,,,,
encoding,value,11,3357734,3363746,3362709.0,3363213.0,505.0,505.0,2241.7,915.0,2249.0,1269.0,Animal_Land_Solid_Small,52.269782999996096,58.28108545788564,2.0,Animal_Land_Solid_Small,4.0,,,,,,,,,,,
encoding,value,11,3357734,3363746,3363230.0,3363401.0,172.0,172.0,2214.1,817.4000000000001,2249.0,1269.0,Animal_Land_Solid_Small,52.269782999996096,58.28108545788564,2.0,Animal_Land_Solid_Small,4.0,,,,,,,,,,,
encoding,value,11,3357734,3363746,3363411.0,3364244.0,834.0,335.0,2233.4,784.5,2249.0,1269.0,Animal_Land_Solid_Small,52.269782999996096,58.28108545788564,2.0,Animal_Land_Solid_Small,4.0,,,,,,,,,,,
encoding,attention,11,3363746,3366763,3364266.0,3364814.0,549.0,549.0,2251.4,926.4000000000001,2249.0,1269.0,Animal_Land_Solid_Small,58.2812193329446,61.2979327919893,2.0,Animal_Land_Solid_Small,4.0,4.0,1.0,0.6993200839497149,,,,,,,,
encoding,attention,11,3363746,3366763,3365011.0,3365070.0,60.0,60.0,2231.7,952.7,2249.0,1269.0,Animal_Land_Solid_Small,58.2812193329446,61.2979327919893,2.0,Animal_Land_Solid_Small,4.0,4.0,1.0,0.6993200839497149,,,,,,,,
encoding,attention,11,3363746,3366763,3365079.0,3366096.0,1018.0,1018.0,2286.2,917.4000000000001,2249.0,1269.0,Animal_Land_Solid_Small,58.2812193329446,61.2979327919893,2.0,Animal_Land_Solid_Small,4.0,4.0,1.0,0.6993200839497149,,,,,,,,
encoding,attention,11,3363746,3366763,3366305.0,3366640.0,336.0,336.0,2254.5,927.7,2249.0,1269.0,Animal_Land_Solid_Small,58.2812193329446,61.2979327919893,2.0,Animal_Land_Solid_Small,4.0,4.0,1.0,0.6993200839497149,,,,,,,,
encoding,fixation,12,3366763,3368018,3366877.0,3367313.0,437.0,437.0,2285.9,796.2,2249.0,1269.0,Animal_Land_Solid_Small,61.29807837493718,62.55310787493363,2.0,Object_Sea_Pattern_Small,3.0,,,,,,,,,,,
encoding,fixation,12,3366763,3368018,3367348.0,3368279.0,932.0,670.0,1916.1,1072.3,1920.0,1080.0,fixation,61.29807837493718,62.55310787493363,2.0,Object_Sea_Pattern_Small,3.0,,,,,,,,,,,
encoding,image,12,3368018,3369029,3368307.0,3368458.0,152.0,152.0,1908.4,797.2,1920.0,1460.0,Object_Sea_Pattern_Small,62.55321874981746,63.56439904193394,2.0,Object_Sea_Pattern_Small,3.0,,,,,,,,,,,
encoding,image,12,3368018,3369029,3368472.0,3369431.0,960.0,557.0,1893.0,734.2,1920.0,1460.0,Object_Sea_Pattern_Small,62.55321874981746,63.56439904193394,2.0,Object_Sea_Pattern_Small,3.0,,,,,,,,,,,
encoding,value,12,3369030,3375042,3369468.0,3369989.0,522.0,522.0,1883.6,607.2,1920.0,1460.0,Object_Sea_Pattern_Small,63.564518082886934,69.57660024985671,2.0,Object_Sea_Pattern_Small,3.0,,,,,,,,,,,
encoding,value,12,3369030,3375042,3370035.0,3370283.0,249.0,249.0,1910.7,974.7,1920.0,1460.0,Object_Sea_Pattern_Small,63.564518082886934,69.57660024985671,2.0,Object_Sea_Pattern_Small,3.0,,,,,,,,,,,
encoding,value,12,3369030,3375042,3370476.0,3370977.0,502.0,502.0,1970.8,1052.9,1920.0,1080.0,fixation,63.564518082886934,69.57660024985671,2.0,Object_Sea_Pattern_Small,3.0,,,,,,,,,,,
encoding,value,12,3369030,3375042,3371030.0,3371698.0,669.0,669.0,1898.5,703.8,1920.0,1460.0,Object_Sea_Pattern_Small,63.564518082886934,69.57660024985671,2.0,Object_Sea_Pattern_Small,3.0,,,,,,,,,,,
encoding,value,12,3369030,3375042,3371712.0,3372551.0,840.0,840.0,1905.0,640.4000000000001,1920.0,1460.0,Object_Sea_Pattern_Small,63.564518082886934,69.57660024985671,2.0,Object_Sea_Pattern_Small,3.0,,,,,,,,,,,
encoding,value,12,3369030,3375042,3372571.0,3373201.0,631.0,631.0,1888.6,744.7,1920.0,1460.0,Object_Sea_Pattern_Small,63.564518082886934,69.57660024985671,2.0,Object_Sea_Pattern_Small,3.0,,,,,,,,,,,
encoding,value,12,3369030,3375042,3373211.0,3376138.0,2928.0,1831.0,1910.7,742.8,1920.0,1460.0,Object_Sea_Pattern_Small,63.564518082886934,69.57660024985671,2.0,Object_Sea_Pattern_Small,3.0,,,,,,,,,,,
encoding,attention,12,3375042,3378059,3376172.0,3376843.0,672.0,672.0,1901.6,727.3,1920.0,1460.0,Object_Sea_Pattern_Small,69.57672516698949,72.59348591696471,2.0,Object_Sea_Pattern_Small,3.0,3.0,1.0,2.07643675012514,,,,,,,,
encoding,attention,12,3375042,3378059,3376857.0,3377374.0,518.0,518.0,1849.5,626.2,1920.0,1460.0,Object_Sea_Pattern_Small,69.57672516698949,72.59348591696471,2.0,Object_Sea_Pattern_Small,3.0,3.0,1.0,2.07643675012514,,,,,,,,
encoding,attention,12,3375042,3378059,3377395.0,3377790.0,396.0,396.0,1893.8,730.8,1920.0,1460.0,Object_Sea_Pattern_Small,69.57672516698949,72.59348591696471,2.0,Object_Sea_Pattern_Small,3.0,3.0,1.0,2.07643675012514,,,,,,,,
encoding,fixation,13,3741873,3743380,3742083.0,3742153.0,71.0,71.0,1866.4,1220.8,1920.0,700.0,Object_Land_Pattern_Large,13.604455249849709,15.111299542011691,3.0,Object_Land_Pattern_Large,-4.0,,,,,,,,,,,
encoding,fixation,13,3741873,3743380,3742390.0,3742993.0,604.0,604.0,1907.4,1112.5,1920.0,1080.0,fixation,13.604455249849709,15.111299542011691,3.0,Object_Land_Pattern_Large,-4.0,,,,,,,,,,,
encoding,fixation,13,3741873,3743380,3743217.0,3743353.0,137.0,137.0,1868.6,1186.1,1920.0,700.0,Object_Land_Pattern_Large,13.604455249849709,15.111299542011691,3.0,Object_Land_Pattern_Large,-4.0,,,,,,,,,,,
encoding,fixation,13,3741873,3743380,3743368.0,3743535.0,168.0,12.0,1863.4,1100.1,1920.0,1080.0,fixation,13.604455249849709,15.111299542011691,3.0,Object_Land_Pattern_Large,-4.0,,,,,,,,,,,
encoding,image,13,3743380,3744392,3743569.0,3743776.0,208.0,208.0,1882.2,1442.7,1920.0,700.0,Object_Land_Pattern_Large,15.111414916813374,16.123714291956276,3.0,Object_Land_Pattern_Large,-4.0,,,,,,,,,,,
encoding,image,13,3743380,3744392,3743784.0,3744224.0,441.0,441.0,1897.9,1464.7,1920.0,700.0,Object_Land_Pattern_Large,15.111414916813374,16.123714291956276,3.0,Object_Land_Pattern_Large,-4.0,,,,,,,,,,,
encoding,image,13,3743380,3744392,3744365.0,3744577.0,213.0,27.0,1893.0,1444.0,1920.0,700.0,Object_Land_Pattern_Large,15.111414916813374,16.123714291956276,3.0,Object_Land_Pattern_Large,-4.0,,,,,,,,,,,
encoding,value,13,3744392,3750408,3744592.0,3745073.0,482.0,482.0,1878.9,1390.1,1920.0,700.0,Object_Land_Pattern_Large,16.123832291923463,22.138731666840613,3.0,Object_Land_Pattern_Large,-4.0,,,,,,,,,,,
encoding,value,13,3744392,3750408,3745211.0,3746279.0,1069.0,1069.0,1893.2,1469.8,1920.0,700.0,Object_Land_Pattern_Large,16.123832291923463,22.138731666840613,3.0,Object_Land_Pattern_Large,-4.0,,,,,,,,,,,
encoding,value,13,3744392,3750408,3746287.0,3746758.0,472.0,472.0,1881.8,1467.4,1920.0,700.0,Object_Land_Pattern_Large,16.123832291923463,22.138731666840613,3.0,Object_Land_Pattern_Large,-4.0,,,,,,,,,,,
encoding,value,13,3744392,3750408,3746774.0,3747182.0,409.0,409.0,1896.3,1405.3,1920.0,700.0,Object_Land_Pattern_Large,16.123832291923463,22.138731666840613,3.0,Object_Land_Pattern_Large,-4.0,,,,,,,,,,,
encoding,value,13,3744392,3750408,3747201.0,3747551.0,351.0,351.0,1903.8,1493.2,1920.0,700.0,Object_Land_Pattern_Large,16.123832291923463,22.138731666840613,3.0,Object_Land_Pattern_Large,-4.0,,,,,,,,,,,
encoding,value,13,3744392,3750408,3747571.0,3748192.0,622.0,622.0,1898.1,1409.6,1920.0,700.0,Object_Land_Pattern_Large,16.123832291923463,22.138731666840613,3.0,Object_Land_Pattern_Large,-4.0,,,,,,,,,,,
encoding,value,13,3744392,3750408,3748339.0,3749994.0,1656.0,1656.0,1892.6,1415.7,1920.0,700.0,Object_Land_Pattern_Large,16.123832291923463,22.138731666840613,3.0,Object_Land_Pattern_Large,-4.0,,,,,,,,,,,
encoding,value,13,3744392,3750408,3750004.0,3750268.0,265.0,265.0,1914.6,1473.1,1920.0,700.0,Object_Land_Pattern_Large,16.123832291923463,22.138731666840613,3.0,Object_Land_Pattern_Large,-4.0,,,,,,,,,,,
encoding,attention,13,3750408,3753427,3750413.0,3751019.0,607.0,607.0,1885.9,1421.2,1920.0,700.0,Object_Land_Pattern_Large,22.13888383284211,25.157805499853566,3.0,Object_Land_Pattern_Large,-4.0,-4.0,1.0,1.012466415995732,,,,,,,,
encoding,attention,13,3750408,3753427,3751203.0,3751923.0,721.0,721.0,1907.3,1429.6,1920.0,700.0,Object_Land_Pattern_Large,22.13888383284211,25.157805499853566,3.0,Object_Land_Pattern_Large,-4.0,-4.0,1.0,1.012466415995732,,,,,,,,
encoding,attention,13,3750408,3753427,3751937.0,3752397.0,461.0,461.0,1935.5,1437.2,1920.0,700.0,Object_Land_Pattern_Large,22.13888383284211,25.157805499853566,3.0,Object_Land_Pattern_Large,-4.0,-4.0,1.0,1.012466415995732,,,,,,,,
encoding,fixation,14,3753427,3753932,,,,,,,,,none,25.15795954200439,25.663541791960597,3.0,Animal_Sea_Solid_Small,-5.0,,,,,,,,,,,
encoding,image,14,3753933,3754944,3754025.0,3754147.0,123.0,123.0,1999.9,1432.7,1920.0,700.0,Object_Land_Pattern_Large,25.66371133294888,26.675074291881177,3.0,Animal_Sea_Solid_Small,-5.0,,,,,,,,,,,
encoding,image,14,3753933,3754944,3754189.0,3754441.0,253.0,253.0,1606.5,1343.2,1591.0,891.0,Animal_Sea_Solid_Small,25.66371133294888,26.675074291881177,3.0,Animal_Sea_Solid_Small,-5.0,,,,,,,,,,,
encoding,image,14,3753933,3754944,3754450.0,3755302.0,853.0,494.0,1592.9,1308.8,1591.0,891.0,Animal_Sea_Solid_Small,25.66371133294888,26.675074291881177,3.0,Animal_Sea_Solid_Small,-5.0,,,,,,,,,,,
encoding,value,14,3754944,3760957,3755320.0,3755567.0,248.0,248.0,1555.0,1206.9,1591.0,891.0,Animal_Sea_Solid_Small,26.675182458013296,32.6874985829927,3.0,Animal_Sea_Solid_Small,-5.0,,,,,,,,,,,
encoding,value,14,3754944,3760957,3755849.0,3756566.0,718.0,718.0,1548.0,1236.0,1591.0,891.0,Animal_Sea_Solid_Small,26.675182458013296,32.6874985829927,3.0,Animal_Sea_Solid_Small,-5.0,,,,,,,,,,,
encoding,value,14,3754944,3760957,3756805.0,3758110.0,1306.0,1306.0,1580.6,1255.6,1591.0,891.0,Animal_Sea_Solid_Small,26.675182458013296,32.6874985829927,3.0,Animal_Sea_Solid_Small,-5.0,,,,,,,,,,,
encoding,value,14,3754944,3760957,3758304.0,3758343.0,40.0,40.0,1573.9,1343.9,1591.0,891.0,Animal_Sea_Solid_Small,26.675182458013296,32.6874985829927,3.0,Animal_Sea_Solid_Small,-5.0,,,,,,,,,,,
encoding,value,14,3754944,3760957,3758349.0,3759393.0,1045.0,1045.0,1570.4,1270.7,1591.0,891.0,Animal_Sea_Solid_Small,26.675182458013296,32.6874985829927,3.0,Animal_Sea_Solid_Small,-5.0,,,,,,,,,,,
encoding,value,14,3754944,3760957,3759409.0,3759674.0,266.0,266.0,1566.8,1186.2,1591.0,891.0,Animal_Sea_Solid_Small,26.675182458013296,32.6874985829927,3.0,Animal_Sea_Solid_Small,-5.0,,,,,,,,,,,
encoding,value,14,3754944,3760957,3759905.0,3759982.0,78.0,78.0,1492.4,1246.3,1591.0,891.0,Animal_Sea_Solid_Small,26.675182458013296,32.6874985829927,3.0,Animal_Sea_Solid_Small,-5.0,,,,,,,,,,,
encoding,value,14,3754944,3760957,3759994.0,3760194.0,201.0,201.0,1552.5,1276.5,1591.0,891.0,Animal_Sea_Solid_Small,26.675182458013296,32.6874985829927,3.0,Animal_Sea_Solid_Small,-5.0,,,,,,,,,,,
encoding,value,14,3754944,3760957,3760208.0,3760540.0,333.0,333.0,1591.5,1267.2,1591.0,891.0,Animal_Sea_Solid_Small,26.675182458013296,32.6874985829927,3.0,Animal_Sea_Solid_Small,-5.0,,,,,,,,,,,
encoding,value,14,3754944,3760957,3760551.0,3760938.0,388.0,388.0,1555.6,1229.7,1591.0,891.0,Animal_Sea_Solid_Small,26.675182458013296,32.6874985829927,3.0,Animal_Sea_Solid_Small,-5.0,,,,,,,,,,,
encoding,value,14,3754944,3760957,3760950.0,3761358.0,409.0,7.0,1571.2,1176.4,1591.0,891.0,Animal_Sea_Solid_Small,26.675182458013296,32.6874985829927,3.0,Animal_Sea_Solid_Small,-5.0,,,,,,,,,,,
encoding,attention,14,3760957,3763975,3761547.0,3761600.0,54.0,54.0,1514.3,1208.2,1591.0,891.0,Animal_Sea_Solid_Small,32.68761166697368,35.70543641690165,3.0,Animal_Sea_Solid_Small,-5.0,-5.0,1.0,1.7762401250656694,,,,,,,,
encoding,attention,14,3760957,3763975,3761617.0,3761869.0,253.0,253.0,1580.5,1260.2,1591.0,891.0,Animal_Sea_Solid_Small,32.68761166697368,35.70543641690165,3.0,Animal_Sea_Solid_Small,-5.0,-5.0,1.0,1.7762401250656694,,,,,,,,
encoding,attention,14,3760957,3763975,3761882.0,3762826.0,945.0,945.0,1547.5,1253.8,1591.0,891.0,Animal_Sea_Solid_Small,32.68761166697368,35.70543641690165,3.0,Animal_Sea_Solid_Small,-5.0,-5.0,1.0,1.7762401250656694,,,,,,,,
encoding,attention,14,3760957,3763975,3762844.0,3763394.0,551.0,551.0,1586.8,1216.4,1591.0,891.0,Animal_Sea_Solid_Small,32.68761166697368,35.70543641690165,3.0,Animal_Sea_Solid_Small,-5.0,-5.0,1.0,1.7762401250656694,,,,,,,,
encoding,fixation,15,3763975,3764981,3764619.0,3764970.0,352.0,352.0,1872.8,1263.9,1920.0,700.0,Object_Land_Pattern_Large,35.705594749888405,36.71107624983415,3.0,Object_Land_Pattern_Small,-8.0,,,,,,,,,,,
encoding,image,15,3764981,3765992,3764992.0,3765166.0,175.0,175.0,1690.8,1283.8,1591.0,891.0,Animal_Sea_Solid_Small,36.71123670786619,37.72263720794581,3.0,Object_Land_Pattern_Small,-8.0,,,,,,,,,,,
encoding,image,15,3764981,3765992,3765219.0,3765621.0,403.0,403.0,2216.9,1323.6,2249.0,891.0,Object_Land_Pattern_Small,36.71123670786619,37.72263720794581,3.0,Object_Land_Pattern_Small,-8.0,,,,,,,,,,,
encoding,image,15,3764981,3765992,3765801.0,3765976.0,176.0,176.0,2174.1,1340.5,2249.0,891.0,Object_Land_Pattern_Small,36.71123670786619,37.72263720794581,3.0,Object_Land_Pattern_Small,-8.0,,,,,,,,,,,
encoding,image,15,3764981,3765992,3765986.0,3766196.0,211.0,6.0,2215.4,1315.2,2249.0,891.0,Object_Land_Pattern_Small,36.71123670786619,37.72263720794581,3.0,Object_Land_Pattern_Small,-8.0,,,,,,,,,,,
encoding,value,15,3765992,3772006,3766218.0,3766867.0,650.0,650.0,2222.1,1223.8,2249.0,891.0,Object_Land_Pattern_Small,37.72273949999362,43.73557179188356,3.0,Object_Land_Pattern_Small,-8.0,,,,,,,,,,,
encoding,value,15,3765992,3772006,3767065.0,3767645.0,581.0,581.0,2195.5,1242.2,2249.0,891.0,Object_Land_Pattern_Small,37.72273949999362,43.73557179188356,3.0,Object_Land_Pattern_Small,-8.0,,,,,,,,,,,
encoding,value,15,3765992,3772006,3767656.0,3768344.0,689.0,689.0,2199.8,1280.1,2249.0,891.0,Object_Land_Pattern_Small,37.72273949999362,43.73557179188356,3.0,Object_Land_Pattern_Small,-8.0,,,,,,,,,,,
encoding,value,15,3765992,3772006,3768361.0,3768983.0,623.0,623.0,2220.0,1224.2,2249.0,891.0,Object_Land_Pattern_Small,37.72273949999362,43.73557179188356,3.0,Object_Land_Pattern_Small,-8.0,,,,,,,,,,,
encoding,value,15,3765992,3772006,3769212.0,3770967.0,1756.0,1756.0,2203.6,1207.0,2249.0,891.0,Object_Land_Pattern_Small,37.72273949999362,43.73557179188356,3.0,Object_Land_Pattern_Small,-8.0,,,,,,,,,,,
encoding,value,15,3765992,3772006,3770987.0,3771006.0,20.0,20.0,2227.5,1216.8,2249.0,891.0,Object_Land_Pattern_Small,37.72273949999362,43.73557179188356,3.0,Object_Land_Pattern_Small,-8.0,,,,,,,,,,,
encoding,value,15,3765992,3772006,3771018.0,3771928.0,911.0,911.0,2207.0,1220.2,2249.0,891.0,Object_Land_Pattern_Small,37.72273949999362,43.73557179188356,3.0,Object_Land_Pattern_Small,-8.0,,,,,,,,,,,
encoding,attention,15,3772006,3775025,3772162.0,3772332.0,171.0,171.0,2193.1,1228.4,2249.0,891.0,Object_Land_Pattern_Small,43.73577862489037,46.755200791871175,3.0,Object_Land_Pattern_Small,-8.0,-8.0,1.0,2.711797875119373,,,,,,,,
encoding,attention,15,3772006,3775025,3772343.0,3773072.0,730.0,730.0,2260.8,1217.6,2249.0,891.0,Object_Land_Pattern_Small,43.73577862489037,46.755200791871175,3.0,Object_Land_Pattern_Small,-8.0,-8.0,1.0,2.711797875119373,,,,,,,,
encoding,attention,15,3772006,3775025,3773090.0,3773854.0,765.0,765.0,2188.1,1295.8,2249.0,891.0,Object_Land_Pattern_Small,43.73577862489037,46.755200791871175,3.0,Object_Land_Pattern_Small,-8.0,-8.0,1.0,2.711797875119373,,,,,,,,
encoding,attention,15,3772006,3775025,3774753.0,3774856.0,104.0,104.0,2294.0,1222.7,2249.0,891.0,Object_Land_Pattern_Small,43.73577862489037,46.755200791871175,3.0,Object_Land_Pattern_Small,-8.0,-8.0,1.0,2.711797875119373,,,,,,,,
encoding,fixation,16,3775025,3775531,,,,,,,,,none,46.75534649984911,47.26069649984129,3.0,Animal_Sea_Solid_Large,-2.0,,,,,,,,,,,
encoding,image,16,3775531,3776541,3775631.0,3775876.0,246.0,246.0,2187.4,1394.2,2249.0,891.0,Object_Land_Pattern_Small,47.260818749899045,48.27130674989894,3.0,Animal_Sea_Solid_Large,-2.0,,,,,,,,,,,
encoding,image,16,3775531,3776541,3775922.0,3776140.0,219.0,219.0,1890.6,796.3,1920.0,1460.0,Animal_Sea_Solid_Large,47.260818749899045,48.27130674989894,3.0,Animal_Sea_Solid_Large,-2.0,,,,,,,,,,,
encoding,image,16,3775531,3776541,3776156.0,3776427.0,272.0,272.0,1925.8,730.3,1920.0,1460.0,Animal_Sea_Solid_Large,47.260818749899045,48.27130674989894,3.0,Animal_Sea_Solid_Large,-2.0,,,,,,,,,,,
encoding,image,16,3775531,3776541,3776440.0,3776778.0,339.0,101.0,1904.4,762.0,1920.0,1460.0,Animal_Sea_Solid_Large,47.260818749899045,48.27130674989894,3.0,Animal_Sea_Solid_Large,-2.0,,,,,,,,,,,
encoding,value,16,3776541,3782554,3776796.0,3777201.0,406.0,406.0,1901.5,642.5,1920.0,1460.0,Animal_Sea_Solid_Large,48.27140812482685,54.28346895799041,3.0,Animal_Sea_Solid_Large,-2.0,,,,,,,,,,,
encoding,value,16,3776541,3782554,3777219.0,3777647.0,429.0,429.0,1904.1,749.8,1920.0,1460.0,Animal_Sea_Solid_Large,48.27140812482685,54.28346895799041,3.0,Animal_Sea_Solid_Large,-2.0,,,,,,,,,,,
encoding,value,16,3776541,3782554,3777885.0,3778048.0,164.0,164.0,1877.8,687.4000000000001,1920.0,1460.0,Animal_Sea_Solid_Large,48.27140812482685,54.28346895799041,3.0,Animal_Sea_Solid_Large,-2.0,,,,,,,,,,,
encoding,value,16,3776541,3782554,3778069.0,3778256.0,188.0,188.0,1867.6,737.4000000000001,1920.0,1460.0,Animal_Sea_Solid_Large,48.27140812482685,54.28346895799041,3.0,Animal_Sea_Solid_Large,-2.0,,,,,,,,,,,
encoding,value,16,3776541,3782554,3778288.0,3778312.0,25.0,25.0,1868.3,727.5,1920.0,1460.0,Animal_Sea_Solid_Large,48.27140812482685,54.28346895799041,3.0,Animal_Sea_Solid_Large,-2.0,,,,,,,,,,,
encoding,value,16,3776541,3782554,3778373.0,3778423.0,51.0,51.0,1858.1,881.8,1920.0,1460.0,Animal_Sea_Solid_Large,48.27140812482685,54.28346895799041,3.0,Animal_Sea_Solid_Large,-2.0,,,,,,,,,,,
encoding,value,16,3776541,3782554,3778443.0,3778593.0,151.0,151.0,1852.6,891.0,1920.0,1460.0,Animal_Sea_Solid_Large,48.27140812482685,54.28346895799041,3.0,Animal_Sea_Solid_Large,-2.0,,,,,,,,,,,
encoding,value,16,3776541,3782554,3778654.0,3778772.0,119.0,119.0,1851.5,886.0999999999999,1920.0,1460.0,Animal_Sea_Solid_Large,48.27140812482685,54.28346895799041,3.0,Animal_Sea_Solid_Large,-2.0,,,,,,,,,,,
encoding,value,16,3776541,3782554,3778795.0,3778956.0,162.0,162.0,1849.6,876.4000000000001,1920.0,1460.0,Animal_Sea_Solid_Large,48.27140812482685,54.28346895799041,3.0,Animal_Sea_Solid_Large,-2.0,,,,,,,,,,,
encoding,value,16,3776541,3782554,3779003.0,3779219.0,217.0,217.0,1857.4,867.5,1920.0,1460.0,Animal_Sea_Solid_Large,48.27140812482685,54.28346895799041,3.0,Animal_Sea_Solid_Large,-2.0,,,,,,,,,,,
encoding,value,16,3776541,3782554,3779247.0,3779330.0,84.0,84.0,1857.2,873.5999999999999,1920.0,1460.0,Animal_Sea_Solid_Large,48.27140812482685,54.28346895799041,3.0,Animal_Sea_Solid_Large,-2.0,,,,,,,,,,,
encoding,value,16,3776541,3782554,3779393.0,3779466.0,74.0,74.0,1863.5,856.0999999999999,1920.0,1460.0,Animal_Sea_Solid_Large,48.27140812482685,54.28346895799041,3.0,Animal_Sea_Solid_Large,-2.0,,,,,,,,,,,
encoding,value,16,3776541,3782554,3779482.0,3779629.0,148.0,148.0,1863.4,850.3,1920.0,1460.0,Animal_Sea_Solid_Large,48.27140812482685,54.28346895799041,3.0,Animal_Sea_Solid_Large,-2.0,,,,,,,,,,,
encoding,value,16,3776541,3782554,3779644.0,3779828.0,185.0,185.0,1862.7,847.8,1920.0,1460.0,Animal_Sea_Solid_Large,48.27140812482685,54.28346895799041,3.0,Animal_Sea_Solid_Large,-2.0,,,,,,,,,,,
encoding,value,16,3776541,3782554,3779936.0,3780115.0,180.0,180.0,1857.7,857.5,1920.0,1460.0,Animal_Sea_Solid_Large,48.27140812482685,54.28346895799041,3.0,Animal_Sea_Solid_Large,-2.0,,,,,,,,,,,
encoding,value,16,3776541,3782554,3780133.0,3780160.0,28.0,28.0,1853.8,838.7,1920.0,1460.0,Animal_Sea_Solid_Large,48.27140812482685,54.28346895799041,3.0,Animal_Sea_Solid_Large,-2.0,,,,,,,,,,,
encoding,value,16,3776541,3782554,3780185.0,3780401.0,217.0,217.0,1847.5,731.8,1920.0,1460.0,Animal_Sea_Solid_Large,48.27140812482685,54.28346895799041,3.0,Animal_Sea_Solid_Large,-2.0,,,,,,,,,,,
encoding,value,16,3776541,3782554,3780422.0,3780670.0,249.0,249.0,1836.4,820.5,1920.0,1460.0,Animal_Sea_Solid_Large,48.27140812482685,54.28346895799041,3.0,Animal_Sea_Solid_Large,-2.0,,,,,,,,,,,
encoding,value,16,3776541,3782554,3780684.0,3781472.0,789.0,789.0,1853.7,873.2,1920.0,1460.0,Animal_Sea_Solid_Large,48.27140812482685,54.28346895799041,3.0,Animal_Sea_Solid_Large,-2.0,,,,,,,,,,,
encoding,value,16,3776541,3782554,3781487.0,3781954.0,468.0,468.0,1867.8,883.2,1920.0,1460.0,Animal_Sea_Solid_Large,48.27140812482685,54.28346895799041,3.0,Animal_Sea_Solid_Large,-2.0,,,,,,,,,,,
encoding,value,16,3776541,3782554,3781972.0,3782510.0,539.0,539.0,1869.9,870.9000000000001,1920.0,1460.0,Animal_Sea_Solid_Large,48.27140812482685,54.28346895799041,3.0,Animal_Sea_Solid_Large,-2.0,,,,,,,,,,,
encoding,value,16,3776541,3782554,3782552.0,3782679.0,128.0,2.0,1879.9,890.8,1920.0,1460.0,Animal_Sea_Solid_Large,48.27140812482685,54.28346895799041,3.0,Animal_Sea_Solid_Large,-2.0,,,,,,,,,,,
encoding,attention,16,3782554,3785571,3782690.0,3782764.0,75.0,75.0,1868.5,898.7,1920.0,1460.0,Animal_Sea_Solid_Large,54.28359074983746,57.30059837503359,3.0,Animal_Sea_Solid_Large,-2.0,-2.0,1.0,1.1171989999711514,,,,,,,,
encoding,attention,16,3782554,3785571,3782819.0,3782929.0,111.0,111.0,1889.8,788.9000000000001,1920.0,1460.0,Animal_Sea_Solid_Large,54.28359074983746,57.30059837503359,3.0,Animal_Sea_Solid_Large,-2.0,-2.0,1.0,1.1171989999711514,,,,,,,,
encoding,attention,16,3782554,3785571,3782939.0,3783248.0,310.0,310.0,1925.2,744.5,1920.0,1460.0,Animal_Sea_Solid_Large,54.28359074983746,57.30059837503359,3.0,Animal_Sea_Solid_Large,-2.0,-2.0,1.0,1.1171989999711514,,,,,,,,
encoding,attention,16,3782554,3785571,3783293.0,3783927.0,635.0,635.0,1820.2,714.7,1920.0,1460.0,Animal_Sea_Solid_Large,54.28359074983746,57.30059837503359,3.0,Animal_Sea_Solid_Large,-2.0,-2.0,1.0,1.1171989999711514,,,,,,,,
encoding,attention,16,3782554,3785571,3784176.0,3784197.0,22.0,22.0,1744.9,526.0,,,none,54.28359074983746,57.30059837503359,3.0,Animal_Sea_Solid_Large,-2.0,-2.0,1.0,1.1171989999711514,,,,,,,,
encoding,attention,16,3782554,3785571,3784235.0,3784294.0,60.0,60.0,1872.7,764.5,1920.0,1460.0,Animal_Sea_Solid_Large,54.28359074983746,57.30059837503359,3.0,Animal_Sea_Solid_Large,-2.0,-2.0,1.0,1.1171989999711514,,,,,,,,
encoding,attention,16,3782554,3785571,3784316.0,3784406.0,91.0,91.0,1885.5,840.5999999999999,1920.0,1460.0,Animal_Sea_Solid_Large,54.28359074983746,57.30059837503359,3.0,Animal_Sea_Solid_Large,-2.0,-2.0,1.0,1.1171989999711514,,,,,,,,
encoding,fixation,17,3785571,3786076,3785659.0,3785843.0,185.0,185.0,1835.2,684.5,1920.0,1460.0,Animal_Sea_Solid_Large,57.300775500014424,57.8056495829951,3.0,Object_Land_Solid_Large,8.0,,,,,,,,,,,
encoding,fixation,17,3785571,3786076,3785895.0,3786179.0,285.0,181.0,1872.0,1156.0,1591.0,891.0,Animal_Sea_Solid_Small,57.300775500014424,57.8056495829951,3.0,Object_Land_Solid_Large,8.0,,,,,,,,,,,
encoding,image,17,3786076,3787086,3786186.0,3786303.0,118.0,118.0,1862.7,1128.4,1591.0,891.0,Animal_Sea_Solid_Small,57.8057429168839,58.815737541997805,3.0,Object_Land_Solid_Large,8.0,,,,,,,,,,,
encoding,image,17,3786076,3787086,3786330.0,3787138.0,809.0,756.0,2169.8,906.3,2249.0,1269.0,Object_Land_Solid_Large,57.8057429168839,58.815737541997805,3.0,Object_Land_Solid_Large,8.0,,,,,,,,,,,
encoding,value,17,3787086,3793097,3787325.0,3787708.0,384.0,384.0,2197.5,946.5999999999999,2249.0,1269.0,Object_Land_Solid_Large,58.81584654189646,64.82594962487929,3.0,Object_Land_Solid_Large,8.0,,,,,,,,,,,
encoding,value,17,3787086,3793097,3787730.0,3787938.0,209.0,209.0,2235.3,811.3,2249.0,1269.0,Object_Land_Solid_Large,58.81584654189646,64.82594962487929,3.0,Object_Land_Solid_Large,8.0,,,,,,,,,,,
encoding,value,17,3787086,3793097,3787946.0,3789334.0,1389.0,1389.0,2218.6,839.9000000000001,2249.0,1269.0,Object_Land_Solid_Large,58.81584654189646,64.82594962487929,3.0,Object_Land_Solid_Large,8.0,,,,,,,,,,,
encoding,value,17,3787086,3793097,3789352.0,3789934.0,583.0,583.0,2158.6,938.0999999999999,2249.0,1269.0,Object_Land_Solid_Large,58.81584654189646,64.82594962487929,3.0,Object_Land_Solid_Large,8.0,,,,,,,,,,,
encoding,value,17,3787086,3793097,3789943.0,3791006.0,1064.0,1064.0,2203.2,957.9000000000001,2249.0,1269.0,Object_Land_Solid_Large,58.81584654189646,64.82594962487929,3.0,Object_Land_Solid_Large,8.0,,,,,,,,,,,
encoding,value,17,3787086,3793097,3791023.0,3791282.0,260.0,260.0,2208.7,886.7,2249.0,1269.0,Object_Land_Solid_Large,58.81584654189646,64.82594962487929,3.0,Object_Land_Solid_Large,8.0,,,,,,,,,,,
encoding,value,17,3787086,3793097,3791299.0,3791459.0,161.0,161.0,2212.9,972.3,2249.0,1269.0,Object_Land_Solid_Large,58.81584654189646,64.82594962487929,3.0,Object_Land_Solid_Large,8.0,,,,,,,,,,,
encoding,value,17,3787086,3793097,3791654.0,3792380.0,727.0,727.0,2196.3,981.4000000000001,2249.0,1269.0,Object_Land_Solid_Large,58.81584654189646,64.82594962487929,3.0,Object_Land_Solid_Large,8.0,,,,,,,,,,,
encoding,value,17,3787086,3793097,3792401.0,3792995.0,595.0,595.0,2202.6,883.0999999999999,2249.0,1269.0,Object_Land_Solid_Large,58.81584654189646,64.82594962487929,3.0,Object_Land_Solid_Large,8.0,,,,,,,,,,,
encoding,value,17,3787086,3793097,3793007.0,3793297.0,291.0,90.0,2183.3,907.2,2249.0,1269.0,Object_Land_Solid_Large,58.81584654189646,64.82594962487929,3.0,Object_Land_Solid_Large,8.0,,,,,,,,,,,
encoding,attention,17,3793097,3796113,3793308.0,3793638.0,331.0,331.0,2216.0,861.2,2249.0,1269.0,Object_Land_Solid_Large,64.8260697920341,67.84203366702422,3.0,Object_Land_Solid_Large,8.0,8.0,1.0,1.3913936249446124,,,,,,,,
encoding,attention,17,3793097,3796113,3793651.0,3794143.0,493.0,493.0,2168.1,857.9000000000001,2249.0,1269.0,Object_Land_Solid_Large,64.8260697920341,67.84203366702422,3.0,Object_Land_Solid_Large,8.0,8.0,1.0,1.3913936249446124,,,,,,,,
encoding,attention,17,3793097,3796113,3794345.0,3794905.0,561.0,561.0,2148.9,868.5,2249.0,1269.0,Object_Land_Solid_Large,64.8260697920341,67.84203366702422,3.0,Object_Land_Solid_Large,8.0,8.0,1.0,1.3913936249446124,,,,,,,,
encoding,attention,17,3793097,3796113,3794925.0,3795325.0,401.0,401.0,2217.9,937.9000000000001,2249.0,1269.0,Object_Land_Solid_Large,64.8260697920341,67.84203366702422,3.0,Object_Land_Solid_Large,8.0,8.0,1.0,1.3913936249446124,,,,,,,,
encoding,attention,17,3793097,3796113,3795343.0,3795864.0,522.0,522.0,2197.7,832.7,2249.0,1269.0,Object_Land_Solid_Large,64.8260697920341,67.84203366702422,3.0,Object_Land_Solid_Large,8.0,8.0,1.0,1.3913936249446124,,,,,,,,
encoding,fixation,18,3796113,3796868,3796311.0,3796428.0,118.0,118.0,1985.2,1092.9,1920.0,1080.0,fixation,67.8421811668668,68.59753150003962,3.0,Animal_Sea_Pattern_Small,8.0,,,,,,,,,,,
encoding,fixation,18,3796113,3796868,3796773.0,3797010.0,238.0,95.0,1951.6,1197.9,1920.0,700.0,Object_Land_Pattern_Large,67.8421811668668,68.59753150003962,3.0,Animal_Sea_Pattern_Small,8.0,,,,,,,,,,,
encoding,image,18,3796869,3797881,3797047.0,3797173.0,127.0,127.0,1624.1,992.5,1591.0,1269.0,Animal_Sea_Pattern_Small,68.59764354187064,69.6095582919661,3.0,Animal_Sea_Pattern_Small,8.0,,,,,,,,,,,
encoding,image,18,3796869,3797881,3797190.0,3798174.0,985.0,691.0,1558.0,912.9000000000001,1591.0,1269.0,Animal_Sea_Pattern_Small,68.59764354187064,69.6095582919661,3.0,Animal_Sea_Pattern_Small,8.0,,,,,,,,,,,
encoding,value,18,3797881,3803892,3798193.0,3798354.0,162.0,162.0,1586.1,788.9000000000001,1591.0,1269.0,Animal_Sea_Pattern_Small,69.6097365419846,75.62114883284084,3.0,Animal_Sea_Pattern_Small,8.0,,,,,,,,,,,
encoding,value,18,3797881,3803892,3798534.0,3798585.0,52.0,52.0,1506.7,905.0,1591.0,1269.0,Animal_Sea_Pattern_Small,69.6097365419846,75.62114883284084,3.0,Animal_Sea_Pattern_Small,8.0,,,,,,,,,,,
encoding,value,18,3797881,3803892,3798602.0,3798986.0,385.0,385.0,1568.7,907.5999999999999,1591.0,1269.0,Animal_Sea_Pattern_Small,69.6097365419846,75.62114883284084,3.0,Animal_Sea_Pattern_Small,8.0,,,,,,,,,,,
encoding,value,18,3797881,3803892,3799040.0,3800088.0,1049.0,1049.0,1574.4,931.8,1591.0,1269.0,Animal_Sea_Pattern_Small,69.6097365419846,75.62114883284084,3.0,Animal_Sea_Pattern_Small,8.0,,,,,,,,,,,
encoding,value,18,3797881,3803892,3800100.0,3800888.0,789.0,789.0,1596.4,872.5999999999999,1591.0,1269.0,Animal_Sea_Pattern_Small,69.6097365419846,75.62114883284084,3.0,Animal_Sea_Pattern_Small,8.0,,,,,,,,,,,
encoding,value,18,3797881,3803892,3800903.0,3801873.0,971.0,971.0,1573.9,825.2,1591.0,1269.0,Animal_Sea_Pattern_Small,69.6097365419846,75.62114883284084,3.0,Animal_Sea_Pattern_Small,8.0,,,,,,,,,,,
encoding,value,18,3797881,3803892,3802079.0,3802395.0,317.0,317.0,1496.0,928.9000000000001,1591.0,1269.0,Animal_Sea_Pattern_Small,69.6097365419846,75.62114883284084,3.0,Animal_Sea_Pattern_Small,8.0,,,,,,,,,,,
encoding,value,18,3797881,3803892,3802629.0,3802727.0,99.0,99.0,1578.5,928.4000000000001,1591.0,1269.0,Animal_Sea_Pattern_Small,69.6097365419846,75.62114883284084,3.0,Animal_Sea_Pattern_Small,8.0,,,,,,,,,,,
encoding,value,18,3797881,3803892,3802827.0,3802907.0,81.0,81.0,1547.5,911.0,1591.0,1269.0,Animal_Sea_Pattern_Small,69.6097365419846,75.62114883284084,3.0,Animal_Sea_Pattern_Small,8.0,,,,,,,,,,,
encoding,value,18,3797881,3803892,3802951.0,3803039.0,89.0,89.0,1543.4,919.5999999999999,1591.0,1269.0,Animal_Sea_Pattern_Small,69.6097365419846,75.62114883284084,3.0,Animal_Sea_Pattern_Small,8.0,,,,,,,,,,,
encoding,value,18,3797881,3803892,3803048.0,3803132.0,85.0,85.0,1553.8,920.9000000000001,1591.0,1269.0,Animal_Sea_Pattern_Small,69.6097365419846,75.62114883284084,3.0,Animal_Sea_Pattern_Small,8.0,,,,,,,,,,,
encoding,value,18,3797881,3803892,3803214.0,3803330.0,117.0,117.0,1557.0,929.0999999999999,1591.0,1269.0,Animal_Sea_Pattern_Small,69.6097365419846,75.62114883284084,3.0,Animal_Sea_Pattern_Small,8.0,,,,,,,,,,,
encoding,value,18,3797881,3803892,3803340.0,3803553.0,214.0,214.0,1566.9,929.0999999999999,1591.0,1269.0,Animal_Sea_Pattern_Small,69.6097365419846,75.62114883284084,3.0,Animal_Sea_Pattern_Small,8.0,,,,,,,,,,,
encoding,value,18,3797881,3803892,3803572.0,3804099.0,528.0,320.0,1582.2,1026.9,1591.0,1269.0,Animal_Sea_Pattern_Small,69.6097365419846,75.62114883284084,3.0,Animal_Sea_Pattern_Small,8.0,,,,,,,,,,,
encoding,attention,18,3803893,3806910,3804185.0,3804412.0,228.0,228.0,1586.4,816.7,1591.0,1269.0,Animal_Sea_Pattern_Small,75.62127424986102,78.63853970798664,3.0,Animal_Sea_Pattern_Small,8.0,8.0,1.0,0.93052599998191,,,,,,,,
encoding,attention,18,3803893,3806910,3804430.0,3805087.0,658.0,658.0,1526.1,893.2,1591.0,1269.0,Animal_Sea_Pattern_Small,75.62127424986102,78.63853970798664,3.0,Animal_Sea_Pattern_Small,8.0,8.0,1.0,0.93052599998191,,,,,,,,
encoding,attention,18,3803893,3806910,3805330.0,3805423.0,94.0,94.0,1534.6,945.7,1591.0,1269.0,Animal_Sea_Pattern_Small,75.62127424986102,78.63853970798664,3.0,Animal_Sea_Pattern_Small,8.0,8.0,1.0,0.93052599998191,,,,,,,,
encoding,attention,18,3803893,3806910,3805441.0,3805522.0,82.0,82.0,1620.9,1066.7,1591.0,1269.0,Animal_Sea_Pattern_Small,75.62127424986102,78.63853970798664,3.0,Animal_Sea_Pattern_Small,8.0,8.0,1.0,0.93052599998191,,,,,,,,
encoding,attention,18,3803893,3806910,3805537.0,3805680.0,144.0,144.0,1640.0,973.0,1591.0,1269.0,Animal_Sea_Pattern_Small,75.62127424986102,78.63853970798664,3.0,Animal_Sea_Pattern_Small,8.0,8.0,1.0,0.93052599998191,,,,,,,,
encoding,attention,18,3803893,3806910,3805711.0,3806026.0,316.0,316.0,1893.8,1087.5,1920.0,1080.0,fixation,75.62127424986102,78.63853970798664,3.0,Animal_Sea_Pattern_Small,8.0,8.0,1.0,0.93052599998191,,,,,,,,
encoding,attention,18,3803893,3806910,3806035.0,3806430.0,396.0,396.0,1926.9,1108.6,1920.0,1080.0,fixation,75.62127424986102,78.63853970798664,3.0,Animal_Sea_Pattern_Small,8.0,8.0,1.0,0.93052599998191,,,,,,,,
encoding,attention,18,3803893,3806910,3806460.0,3806840.0,381.0,381.0,1699.2,928.0999999999999,1591.0,1269.0,Animal_Sea_Pattern_Small,75.62127424986102,78.63853970798664,3.0,Animal_Sea_Pattern_Small,8.0,8.0,1.0,0.93052599998191,,,,,,,,
encoding,fixation,19,4081593,4082349,4081846.0,4082202.0,357.0,357.0,1872.8,1120.4,1920.0,1080.0,fixation,8.213106291834265,8.968842959031463,4.0,Animal_Land_Pattern_Large,-8.0,,,,,,,,,,,
encoding,image,19,4082349,4083361,4082387.0,4082529.0,143.0,143.0,1954.4,1299.8,1920.0,700.0,Object_Land_Pattern_Large,8.968953458825126,9.980502791935578,4.0,Animal_Land_Pattern_Large,-8.0,,,,,,,,,,,
encoding,image,19,4082349,4083361,4082562.0,4082735.0,174.0,174.0,1859.5,830.5999999999999,1920.0,1460.0,Animal_Land_Pattern_Large,8.968953458825126,9.980502791935578,4.0,Animal_Land_Pattern_Large,-8.0,,,,,,,,,,,
encoding,image,19,4082349,4083361,4082752.0,4083526.0,775.0,609.0,1862.6,756.7,1920.0,1460.0,Animal_Land_Pattern_Large,8.968953458825126,9.980502791935578,4.0,Animal_Land_Pattern_Large,-8.0,,,,,,,,,,,
encoding,value,19,4083361,4089376,4083546.0,4084228.0,683.0,683.0,1865.6,662.9000000000001,1920.0,1460.0,Animal_Land_Pattern_Large,9.980611542006956,15.995931583922356,4.0,Animal_Land_Pattern_Large,-8.0,,,,,,,,,,,
encoding,value,19,4083361,4089376,4084251.0,4085399.0,1149.0,1149.0,1813.1,772.4000000000001,1920.0,1460.0,Animal_Land_Pattern_Large,9.980611542006956,15.995931583922356,4.0,Animal_Land_Pattern_Large,-8.0,,,,,,,,,,,
encoding,value,19,4083361,4089376,4085421.0,4088104.0,2684.0,2684.0,1855.3,661.0999999999999,1920.0,1460.0,Animal_Land_Pattern_Large,9.980611542006956,15.995931583922356,4.0,Animal_Land_Pattern_Large,-8.0,,,,,,,,,,,
encoding,value,19,4083361,4089376,4088114.0,4088334.0,221.0,221.0,1856.4,697.0,1920.0,1460.0,Animal_Land_Pattern_Large,9.980611542006956,15.995931583922356,4.0,Animal_Land_Pattern_Large,-8.0,,,,,,,,,,,
encoding,value,19,4083361,4089376,4088343.0,4088969.0,627.0,627.0,1861.1,661.5999999999999,1920.0,1460.0,Animal_Land_Pattern_Large,9.980611542006956,15.995931583922356,4.0,Animal_Land_Pattern_Large,-8.0,,,,,,,,,,,
encoding,value,19,4083361,4089376,4088993.0,4089235.0,243.0,243.0,1843.5,787.4000000000001,1920.0,1460.0,Animal_Land_Pattern_Large,9.980611542006956,15.995931583922356,4.0,Animal_Land_Pattern_Large,-8.0,,,,,,,,,,,
encoding,value,19,4083361,4089376,4089243.0,4089587.0,345.0,133.0,1823.7,764.4000000000001,1920.0,1460.0,Animal_Land_Pattern_Large,9.980611542006956,15.995931583922356,4.0,Animal_Land_Pattern_Large,-8.0,,,,,,,,,,,
encoding,attention,19,4089377,4092395,4089606.0,4090358.0,753.0,753.0,1907.7,675.7,1920.0,1460.0,Animal_Land_Pattern_Large,15.996057834010571,19.013997583882883,4.0,Animal_Land_Pattern_Large,-8.0,-8.0,1.0,0.7228979580104351,,,,,,,,
encoding,attention,19,4089377,4092395,4090557.0,4090696.0,140.0,140.0,1803.8,861.4000000000001,1920.0,1460.0,Animal_Land_Pattern_Large,15.996057834010571,19.013997583882883,4.0,Animal_Land_Pattern_Large,-8.0,-8.0,1.0,0.7228979580104351,,,,,,,,
encoding,attention,19,4089377,4092395,4090716.0,4090782.0,67.0,67.0,1813.6,855.3,1920.0,1460.0,Animal_Land_Pattern_Large,15.996057834010571,19.013997583882883,4.0,Animal_Land_Pattern_Large,-8.0,-8.0,1.0,0.7228979580104351,,,,,,,,
encoding,attention,19,4089377,4092395,4090818.0,4092216.0,1399.0,1399.0,1835.7,769.5999999999999,1920.0,1460.0,Animal_Land_Pattern_Large,15.996057834010571,19.013997583882883,4.0,Animal_Land_Pattern_Large,-8.0,-8.0,1.0,0.7228979580104351,,,,,,,,
encoding,fixation,20,4092395,4092900,4092601.0,4092718.0,118.0,118.0,1832.9,1188.5,1591.0,891.0,Animal_Sea_Solid_Small,19.01414083386771,19.519179709022865,4.0,Animal_Sea_Solid_Small,2.0,,,,,,,,,,,
encoding,fixation,20,4092395,4092900,4092734.0,4092892.0,159.0,159.0,1849.2,1123.2,1591.0,891.0,Animal_Sea_Solid_Small,19.01414083386771,19.519179709022865,4.0,Animal_Sea_Solid_Small,2.0,,,,,,,,,,,
encoding,image,20,4092900,4093911,4093029.0,4093131.0,103.0,103.0,1870.2,1161.6,1591.0,891.0,Animal_Sea_Solid_Small,19.51929383398965,20.530467999866232,4.0,Animal_Sea_Solid_Small,2.0,,,,,,,,,,,
encoding,image,20,4092900,4093911,4093171.0,4094071.0,901.0,740.0,1569.8,1320.0,1591.0,891.0,Animal_Sea_Solid_Small,19.51929383398965,20.530467999866232,4.0,Animal_Sea_Solid_Small,2.0,,,,,,,,,,,
encoding,value,20,4093911,4099923,4094094.0,4094426.0,333.0,333.0,1559.7,1195.3,1591.0,891.0,Animal_Sea_Solid_Small,20.530587208922952,26.54218141688034,4.0,Animal_Sea_Solid_Small,2.0,,,,,,,,,,,
encoding,value,20,4093911,4099923,4094642.0,4094663.0,22.0,22.0,1461.1,1296.4,1591.0,891.0,Animal_Sea_Solid_Small,20.530587208922952,26.54218141688034,4.0,Animal_Sea_Solid_Small,2.0,,,,,,,,,,,
encoding,value,20,4093911,4099923,4094680.0,4094838.0,159.0,159.0,1533.6,1297.0,1591.0,891.0,Animal_Sea_Solid_Small,20.530587208922952,26.54218141688034,4.0,Animal_Sea_Solid_Small,2.0,,,,,,,,,,,
encoding,value,20,4093911,4099923,4094851.0,4095712.0,862.0,862.0,1539.0,1301.3,1591.0,891.0,Animal_Sea_Solid_Small,20.530587208922952,26.54218141688034,4.0,Animal_Sea_Solid_Small,2.0,,,,,,,,,,,
encoding,value,20,4093911,4099923,4095729.0,4096216.0,488.0,488.0,1544.4,1217.9,1591.0,891.0,Animal_Sea_Solid_Small,20.530587208922952,26.54218141688034,4.0,Animal_Sea_Solid_Small,2.0,,,,,,,,,,,
encoding,value,20,4093911,4099923,4096238.0,4096777.0,540.0,540.0,1541.4,1320.4,1591.0,891.0,Animal_Sea_Solid_Small,20.530587208922952,26.54218141688034,4.0,Animal_Sea_Solid_Small,2.0,,,,,,,,,,,
encoding,value,20,4093911,4099923,4096797.0,4097296.0,500.0,500.0,1536.5,1208.7,1591.0,891.0,Animal_Sea_Solid_Small,20.530587208922952,26.54218141688034,4.0,Animal_Sea_Solid_Small,2.0,,,,,,,,,,,
encoding,value,20,4093911,4099923,4097496.0,4097583.0,88.0,88.0,1462.4,1259.4,1591.0,891.0,Animal_Sea_Solid_Small,20.530587208922952,26.54218141688034,4.0,Animal_Sea_Solid_Small,2.0,,,,,,,,,,,
encoding,value,20,4093911,4099923,4097595.0,4098126.0,532.0,532.0,1541.0,1250.1,1591.0,891.0,Animal_Sea_Solid_Small,20.530587208922952,26.54218141688034,4.0,Animal_Sea_Solid_Small,2.0,,,,,,,,,,,
encoding,value,20,4093911,4099923,4098144.0,4099406.0,1263.0,1263.0,1538.9,1314.4,1591.0,891.0,Animal_Sea_Solid_Small,20.530587208922952,26.54218141688034,4.0,Animal_Sea_Solid_Small,2.0,,,,,,,,,,,
encoding,value,20,4093911,4099923,4099425.0,4099708.0,284.0,284.0,1550.9,1205.9,1591.0,891.0,Animal_Sea_Solid_Small,20.530587208922952,26.54218141688034,4.0,Animal_Sea_Solid_Small,2.0,,,,,,,,,,,
encoding,value,20,4093911,4099923,4099901.0,4099933.0,33.0,22.0,1464.8,1261.4,1591.0,891.0,Animal_Sea_Solid_Small,20.530587208922952,26.54218141688034,4.0,Animal_Sea_Solid_Small,2.0,,,,,,,,,,,
encoding,attention,20,4099923,4102941,4099950.0,4100133.0,184.0,184.0,1529.5,1257.4,1591.0,891.0,Animal_Sea_Solid_Small,26.54229487502016,29.55979349999689,4.0,Animal_Sea_Solid_Small,2.0,2.0,1.0,0.5913218329660594,,,,,,,,
encoding,attention,20,4099923,4102941,4100143.0,4100778.0,636.0,636.0,1589.3,1218.1,1591.0,891.0,Animal_Sea_Solid_Small,26.54229487502016,29.55979349999689,4.0,Animal_Sea_Solid_Small,2.0,2.0,1.0,0.5913218329660594,,,,,,,,
encoding,fixation,21,4102941,4104196,4103201.0,4103310.0,110.0,110.0,1881.4,1121.5,1920.0,1080.0,fixation,29.5599531668704,30.81504770903848,4.0,Object_Land_Solid_Large,4.0,,,,,,,,,,,
encoding,fixation,21,4102941,4104196,4103676.0,4104346.0,671.0,520.0,1856.8,1236.2,1920.0,700.0,Object_Land_Pattern_Large,29.5599531668704,30.81504770903848,4.0,Object_Land_Solid_Large,4.0,,,,,,,,,,,
encoding,image,21,4104196,4105207,4104377.0,4104650.0,274.0,274.0,2190.3,953.4000000000001,2249.0,1269.0,Object_Land_Solid_Large,30.815150334034115,31.82526945904829,4.0,Object_Land_Solid_Large,4.0,,,,,,,,,,,
encoding,image,21,4104196,4105207,4104672.0,4104935.0,264.0,264.0,2242.2,902.5999999999999,2249.0,1269.0,Object_Land_Solid_Large,30.815150334034115,31.82526945904829,4.0,Object_Land_Solid_Large,4.0,,,,,,,,,,,
encoding,image,21,4104196,4105207,4104952.0,4105569.0,618.0,255.0,2224.2,819.8,2249.0,1269.0,Object_Land_Solid_Large,30.815150334034115,31.82526945904829,4.0,Object_Land_Solid_Large,4.0,,,,,,,,,,,
encoding,value,21,4105207,4111219,4105780.0,4107167.0,1388.0,1388.0,2178.8,938.5,2249.0,1269.0,Object_Land_Solid_Large,31.82537570898421,37.837132500018924,4.0,Object_Land_Solid_Large,4.0,,,,,,,,,,,
encoding,value,21,4105207,4111219,4107185.0,4107365.0,181.0,181.0,2219.7,977.5999999999999,2249.0,1269.0,Object_Land_Solid_Large,31.82537570898421,37.837132500018924,4.0,Object_Land_Solid_Large,4.0,,,,,,,,,,,
encoding,value,21,4105207,4111219,4107378.0,4107732.0,355.0,355.0,2196.1,948.5999999999999,2249.0,1269.0,Object_Land_Solid_Large,31.82537570898421,37.837132500018924,4.0,Object_Land_Solid_Large,4.0,,,,,,,,,,,
encoding,value,21,4105207,4111219,4107936.0,4108271.0,336.0,336.0,2162.8,935.2,2249.0,1269.0,Object_Land_Solid_Large,31.82537570898421,37.837132500018924,4.0,Object_Land_Solid_Large,4.0,,,,,,,,,,,
encoding,value,21,4105207,4111219,4108292.0,4110100.0,1809.0,1809.0,2217.8,835.3,2249.0,1269.0,Object_Land_Solid_Large,31.82537570898421,37.837132500018924,4.0,Object_Land_Solid_Large,4.0,,,,,,,,,,,
encoding,value,21,4105207,4111219,4110120.0,4110928.0,809.0,809.0,2195.3,933.2,2249.0,1269.0,Object_Land_Solid_Large,31.82537570898421,37.837132500018924,4.0,Object_Land_Solid_Large,4.0,,,,,,,,,,,
encoding,value,21,4105207,4111219,4110945.0,4111447.0,503.0,274.0,2209.6,846.5,2249.0,1269.0,Object_Land_Solid_Large,31.82537570898421,37.837132500018924,4.0,Object_Land_Solid_Large,4.0,,,,,,,,,,,
encoding,attention,21,4111219,4114236,4111455.0,4112431.0,977.0,977.0,2260.3,843.9000000000001,2249.0,1269.0,Object_Land_Solid_Large,37.837265791837126,40.854460624977946,4.0,Object_Land_Solid_Large,4.0,4.0,1.0,0.923334375023842,,,,,,,,
encoding,fixation,22,4114236,4115742,4114708.0,4114806.0,99.0,99.0,1844.9,1062.7,1591.0,1269.0,Animal_Sea_Pattern_Small,40.85463070892729,42.35983974998817,4.0,Object_Sea_Solid_Small,-7.0,,,,,,,,,,,
encoding,fixation,22,4114236,4115742,4115051.0,4115099.0,49.0,49.0,1787.5,1009.9000000000001,1591.0,1269.0,Animal_Sea_Pattern_Small,40.85463070892729,42.35983974998817,4.0,Object_Sea_Solid_Small,-7.0,,,,,,,,,,,
encoding,fixation,22,4114236,4115742,4115132.0,4115285.0,154.0,154.0,1875.0,1194.2,1920.0,700.0,Object_Land_Pattern_Large,40.85463070892729,42.35983974998817,4.0,Object_Sea_Solid_Small,-7.0,,,,,,,,,,,
encoding,fixation,22,4114236,4115742,4115298.0,4115902.0,605.0,444.0,1855.4,1184.1,1591.0,891.0,Animal_Sea_Solid_Small,40.85463070892729,42.35983974998817,4.0,Object_Sea_Solid_Small,-7.0,,,,,,,,,,,
encoding,image,22,4115742,4116752,4115930.0,4116218.0,289.0,289.0,2188.2,1285.4,2249.0,891.0,Object_Sea_Solid_Small,42.36002083402127,43.37021833402105,4.0,Object_Sea_Solid_Small,-7.0,,,,,,,,,,,
encoding,image,22,4115742,4116752,4116229.0,4116455.0,227.0,227.0,2210.8,1319.5,2249.0,891.0,Object_Sea_Solid_Small,42.36002083402127,43.37021833402105,4.0,Object_Sea_Solid_Small,-7.0,,,,,,,,,,,
encoding,image,22,4115742,4116752,4116478.0,4117270.0,793.0,274.0,2208.1,1183.5,2249.0,891.0,Object_Sea_Solid_Small,42.36002083402127,43.37021833402105,4.0,Object_Sea_Solid_Small,-7.0,,,,,,,,,,,
encoding,value,22,4116752,4122764,4117477.0,4118108.0,632.0,632.0,2206.5,1315.7,2249.0,891.0,Object_Sea_Solid_Small,43.370325583964586,49.381949041970074,4.0,Object_Sea_Solid_Small,-7.0,,,,,,,,,,,
encoding,value,22,4116752,4122764,4118123.0,4118431.0,309.0,309.0,2166.7,1229.2,2249.0,891.0,Object_Sea_Solid_Small,43.370325583964586,49.381949041970074,4.0,Object_Sea_Solid_Small,-7.0,,,,,,,,,,,
encoding,value,22,4116752,4122764,4118450.0,4118882.0,433.0,433.0,2208.0,1216.8,2249.0,891.0,Object_Sea_Solid_Small,43.370325583964586,49.381949041970074,4.0,Object_Sea_Solid_Small,-7.0,,,,,,,,,,,
encoding,value,22,4116752,4122764,4119092.0,4119229.0,138.0,138.0,2087.2,1291.4,2249.0,891.0,Object_Sea_Solid_Small,43.370325583964586,49.381949041970074,4.0,Object_Sea_Solid_Small,-7.0,,,,,,,,,,,
encoding,value,22,4116752,4122764,4119245.0,4119597.0,353.0,353.0,2172.7,1263.5,2249.0,891.0,Object_Sea_Solid_Small,43.370325583964586,49.381949041970074,4.0,Object_Sea_Solid_Small,-7.0,,,,,,,,,,,
encoding,value,22,4116752,4122764,4119607.0,4120293.0,687.0,687.0,2193.6,1229.0,2249.0,891.0,Object_Sea_Solid_Small,43.370325583964586,49.381949041970074,4.0,Object_Sea_Solid_Small,-7.0,,,,,,,,,,,
encoding,value,22,4116752,4122764,4120314.0,4121170.0,857.0,857.0,2186.0,1320.5,2249.0,891.0,Object_Sea_Solid_Small,43.370325583964586,49.381949041970074,4.0,Object_Sea_Solid_Small,-7.0,,,,,,,,,,,
encoding,value,22,4116752,4122764,4121195.0,4121848.0,654.0,654.0,2199.5,1208.3,2249.0,891.0,Object_Sea_Solid_Small,43.370325583964586,49.381949041970074,4.0,Object_Sea_Solid_Small,-7.0,,,,,,,,,,,
encoding,value,22,4116752,4122764,4122123.0,4122475.0,353.0,353.0,2193.2,1204.4,2249.0,891.0,Object_Sea_Solid_Small,43.370325583964586,49.381949041970074,4.0,Object_Sea_Solid_Small,-7.0,,,,,,,,,,,
encoding,value,22,4116752,4122764,4122486.0,4122972.0,487.0,278.0,2183.3,1218.6,2249.0,891.0,Object_Sea_Solid_Small,43.370325583964586,49.381949041970074,4.0,Object_Sea_Solid_Small,-7.0,,,,,,,,,,,
encoding,attention,22,4122764,4125781,4122985.0,4123295.0,311.0,311.0,2255.2,1209.6,2249.0,891.0,Object_Sea_Solid_Small,49.38207166688517,52.39933308400214,4.0,Object_Sea_Solid_Small,-7.0,-7.0,1.0,0.85643779207021,,,,,,,,
encoding,attention,22,4122764,4125781,4123316.0,4123571.0,256.0,256.0,2174.7,1223.0,2249.0,891.0,Object_Sea_Solid_Small,49.38207166688517,52.39933308400214,4.0,Object_Sea_Solid_Small,-7.0,-7.0,1.0,0.85643779207021,,,,,,,,
encoding,fixation,23,4125782,4126287,4126143.0,4126434.0,292.0,144.0,1886.2,1176.6,1920.0,700.0,Object_Land_Pattern_Large,52.39953950000927,52.90455620898865,4.0,Animal_Sea_Pattern_Small,2.0,,,,,,,,,,,
encoding,image,23,4126287,4127298,4126480.0,4126607.0,128.0,128.0,1597.2,960.5,1591.0,1269.0,Animal_Sea_Pattern_Small,52.90465366700664,53.915642083855346,4.0,Animal_Sea_Pattern_Small,2.0,,,,,,,,,,,
encoding,image,23,4126287,4127298,4126622.0,4127171.0,550.0,550.0,1537.1,899.9000000000001,1591.0,1269.0,Animal_Sea_Pattern_Small,52.90465366700664,53.915642083855346,4.0,Animal_Sea_Pattern_Small,2.0,,,,,,,,,,,
encoding,image,23,4126287,4127298,4127182.0,4127391.0,210.0,116.0,1608.3,896.4000000000001,1591.0,1269.0,Animal_Sea_Pattern_Small,52.90465366700664,53.915642083855346,4.0,Animal_Sea_Pattern_Small,2.0,,,,,,,,,,,
encoding,value,23,4127298,4133313,4127401.0,4127557.0,157.0,157.0,1576.8,869.8,1591.0,1269.0,Animal_Sea_Pattern_Small,53.915751666994765,59.93021483393386,4.0,Animal_Sea_Pattern_Small,2.0,,,,,,,,,,,
encoding,value,23,4127298,4133313,4127573.0,4127766.0,194.0,194.0,1568.2,771.0,1591.0,1269.0,Animal_Sea_Pattern_Small,53.915751666994765,59.93021483393386,4.0,Animal_Sea_Pattern_Small,2.0,,,,,,,,,,,
encoding,value,23,4127298,4133313,4128034.0,4128109.0,76.0,76.0,1476.5,805.5,1591.0,1269.0,Animal_Sea_Pattern_Small,53.915751666994765,59.93021483393386,4.0,Animal_Sea_Pattern_Small,2.0,,,,,,,,,,,
encoding,value,23,4127298,4133313,4128126.0,4128225.0,100.0,100.0,1565.7,886.3,1591.0,1269.0,Animal_Sea_Pattern_Small,53.915751666994765,59.93021483393386,4.0,Animal_Sea_Pattern_Small,2.0,,,,,,,,,,,
encoding,value,23,4127298,4133313,4128235.0,4129717.0,1483.0,1483.0,1560.2,818.5,1591.0,1269.0,Animal_Sea_Pattern_Small,53.915751666994765,59.93021483393386,4.0,Animal_Sea_Pattern_Small,2.0,,,,,,,,,,,
encoding,value,23,4127298,4133313,4129740.0,4130406.0,667.0,667.0,1554.2,940.5,1591.0,1269.0,Animal_Sea_Pattern_Small,53.915751666994765,59.93021483393386,4.0,Animal_Sea_Pattern_Small,2.0,,,,,,,,,,,
encoding,value,23,4127298,4133313,4130427.0,4131302.0,876.0,876.0,1548.5,804.5999999999999,1591.0,1269.0,Animal_Sea_Pattern_Small,53.915751666994765,59.93021483393386,4.0,Animal_Sea_Pattern_Small,2.0,,,,,,,,,,,
encoding,value,23,4127298,4133313,4131317.0,4131707.0,391.0,391.0,1567.2,861.8,1591.0,1269.0,Animal_Sea_Pattern_Small,53.915751666994765,59.93021483393386,4.0,Animal_Sea_Pattern_Small,2.0,,,,,,,,,,,
encoding,value,23,4127298,4133313,4131718.0,4132709.0,992.0,992.0,1544.2,825.2,1591.0,1269.0,Animal_Sea_Pattern_Small,53.915751666994765,59.93021483393386,4.0,Animal_Sea_Pattern_Small,2.0,,,,,,,,,,,
encoding,value,23,4127298,4133313,4132720.0,4132916.0,197.0,197.0,1587.6,856.4000000000001,1591.0,1269.0,Animal_Sea_Pattern_Small,53.915751666994765,59.93021483393386,4.0,Animal_Sea_Pattern_Small,2.0,,,,,,,,,,,
encoding,value,23,4127298,4133313,4132922.0,4133347.0,426.0,391.0,1555.3,858.0,1591.0,1269.0,Animal_Sea_Pattern_Small,53.915751666994765,59.93021483393386,4.0,Animal_Sea_Pattern_Small,2.0,,,,,,,,,,,
encoding,attention,23,4133313,4136331,4133364.0,4133637.0,274.0,274.0,1581.3,922.7,1591.0,1269.0,Animal_Sea_Pattern_Small,59.93035254185088,62.94838529196568,4.0,Animal_Sea_Pattern_Small,2.0,2.0,1.0,2.252605958841741,,,,,,,,
encoding,attention,23,4133313,4136331,4133655.0,4133980.0,326.0,326.0,1624.8,820.5,1591.0,1269.0,Animal_Sea_Pattern_Small,59.93035254185088,62.94838529196568,4.0,Animal_Sea_Pattern_Small,2.0,2.0,1.0,2.252605958841741,,,,,,,,
encoding,attention,23,4133313,4136331,4134287.0,4134313.0,27.0,27.0,1583.2,1067.3,1591.0,1269.0,Animal_Sea_Pattern_Small,59.93035254185088,62.94838529196568,4.0,Animal_Sea_Pattern_Small,2.0,2.0,1.0,2.252605958841741,,,,,,,,
encoding,attention,23,4133313,4136331,4134341.0,4134921.0,581.0,581.0,1558.7,936.4000000000001,1591.0,1269.0,Animal_Sea_Pattern_Small,59.93035254185088,62.94838529196568,4.0,Animal_Sea_Pattern_Small,2.0,2.0,1.0,2.252605958841741,,,,,,,,
encoding,attention,23,4133313,4136331,4134941.0,4135222.0,282.0,282.0,1654.1,837.5,1591.0,1269.0,Animal_Sea_Pattern_Small,59.93035254185088,62.94838529196568,4.0,Animal_Sea_Pattern_Small,2.0,2.0,1.0,2.252605958841741,,,,,,,,
encoding,attention,23,4133313,4136331,4135246.0,4135770.0,525.0,525.0,1583.8,1069.7,1591.0,1269.0,Animal_Sea_Pattern_Small,59.93035254185088,62.94838529196568,4.0,Animal_Sea_Pattern_Small,2.0,2.0,1.0,2.252605958841741,,,,,,,,
encoding,attention,23,4133313,4136331,4135794.0,4136175.0,382.0,382.0,1580.3,899.7,1591.0,1269.0,Animal_Sea_Pattern_Small,59.93035254185088,62.94838529196568,4.0,Animal_Sea_Pattern_Small,2.0,2.0,1.0,2.252605958841741,,,,,,,,
encoding,fixation,24,4136331,4137336,4136519.0,4136649.0,131.0,131.0,1853.4,1160.1,1591.0,891.0,Animal_Sea_Solid_Small,62.94854679191485,63.95338320895098,4.0,Object_Land_Pattern_Large,5.0,,,,,,,,,,,
encoding,fixation,24,4136331,4137336,4136931.0,4137032.0,102.0,102.0,1940.7,1257.3,1920.0,700.0,Object_Land_Pattern_Large,62.94854679191485,63.95338320895098,4.0,Object_Land_Pattern_Large,5.0,,,,,,,,,,,
encoding,fixation,24,4136331,4137336,4137052.0,4137571.0,520.0,284.0,1762.2,1224.2,1591.0,891.0,Animal_Sea_Solid_Small,62.94854679191485,63.95338320895098,4.0,Object_Land_Pattern_Large,5.0,,,,,,,,,,,
encoding,image,24,4137336,4138348,4137602.0,4138185.0,584.0,584.0,1896.1,1472.7,1920.0,700.0,Object_Land_Pattern_Large,63.95349470898509,64.96540216682479,4.0,Object_Land_Pattern_Large,5.0,,,,,,,,,,,
encoding,image,24,4137336,4138348,4138206.0,4138469.0,264.0,142.0,1882.8,1354.0,1920.0,700.0,Object_Land_Pattern_Large,63.95349470898509,64.96540216682479,4.0,Object_Land_Pattern_Large,5.0,,,,,,,,,,,
encoding,value,24,4138348,4144362,4138487.0,4141740.0,3254.0,3254.0,1876.9,1410.6,1920.0,700.0,Object_Land_Pattern_Large,64.9655044998508,70.97952454187907,4.0,Object_Land_Pattern_Large,5.0,,,,,,,,,,,
encoding,value,24,4138348,4144362,4141754.0,4142022.0,269.0,269.0,1890.3,1463.9,1920.0,700.0,Object_Land_Pattern_Large,64.9655044998508,70.97952454187907,4.0,Object_Land_Pattern_Large,5.0,,,,,,,,,,,
encoding,value,24,4138348,4144362,4142035.0,4142930.0,896.0,896.0,1866.3,1412.5,1920.0,700.0,Object_Land_Pattern_Large,64.9655044998508,70.97952454187907,4.0,Object_Land_Pattern_Large,5.0,,,,,,,,,,,
encoding,value,24,4138348,4144362,4142949.0,4144621.0,1673.0,1413.0,1904.4,1503.5,1920.0,700.0,Object_Land_Pattern_Large,64.9655044998508,70.97952454187907,4.0,Object_Land_Pattern_Large,5.0,,,,,,,,,,,
encoding,attention,24,4144363,4147381,4144636.0,4145454.0,819.0,819.0,1914.7,1423.7,1920.0,700.0,Object_Land_Pattern_Large,70.97969612502493,73.99813012499362,4.0,Object_Land_Pattern_Large,5.0,5.0,1.0,2.0206005829386413,,,,,,,,
encoding,attention,24,4144363,4147381,4145470.0,4146764.0,1295.0,1295.0,1832.6,1421.9,1920.0,700.0,Object_Land_Pattern_Large,70.97969612502493,73.99813012499362,4.0,Object_Land_Pattern_Large,5.0,5.0,1.0,2.0206005829386413,,,,,,,,
encoding,attention,24,4144363,4147381,4146777.0,4147075.0,299.0,299.0,1908.0,1433.1,1920.0,700.0,Object_Land_Pattern_Large,70.97969612502493,73.99813012499362,4.0,Object_Land_Pattern_Large,5.0,5.0,1.0,2.0206005829386413,,,,,,,,
encoding,fixation,25,4458968,4460474,4459215.0,4459365.0,151.0,151.0,1873.4,1139.3,1591.0,891.0,Object_Land_Solid_Small,11.106115333037453,12.612216332927346,5.0,Object_Land_Solid_Small,8.0,,,,,,,,,,,
encoding,fixation,25,4458968,4460474,4459607.0,4460042.0,436.0,436.0,1860.8,1314.1,1920.0,700.0,Animal_Land_Pattern_Small,11.106115333037453,12.612216332927346,5.0,Object_Land_Solid_Small,8.0,,,,,,,,,,,
encoding,fixation,25,4458968,4460474,4460067.0,4460365.0,299.0,299.0,1953.2,1495.7,1920.0,700.0,Animal_Land_Pattern_Small,11.106115333037453,12.612216332927346,5.0,Object_Land_Solid_Small,8.0,,,,,,,,,,,
encoding,fixation,25,4458968,4460474,4460383.0,4460618.0,236.0,91.0,1854.1,1433.6,1920.0,700.0,Animal_Land_Pattern_Small,11.106115333037453,12.612216332927346,5.0,Object_Land_Solid_Small,8.0,,,,,,,,,,,
encoding,image,25,4460475,4461487,4460642.0,4460777.0,136.0,136.0,1625.2,1287.7,1591.0,891.0,Object_Land_Solid_Small,12.612331375014035,13.624680415960029,5.0,Object_Land_Solid_Small,8.0,,,,,,,,,,,
encoding,image,25,4460475,4461487,4460790.0,4461135.0,346.0,346.0,1562.6,1295.5,1591.0,891.0,Object_Land_Solid_Small,12.612331375014035,13.624680415960029,5.0,Object_Land_Solid_Small,8.0,,,,,,,,,,,
encoding,image,25,4460475,4461487,4461161.0,4461434.0,274.0,274.0,1687.2,1149.4,1591.0,891.0,Object_Land_Solid_Small,12.612331375014035,13.624680415960029,5.0,Object_Land_Solid_Small,8.0,,,,,,,,,,,
encoding,image,25,4460475,4461487,4461453.0,4461656.0,204.0,34.0,1590.6,1229.1,1591.0,891.0,Object_Land_Solid_Small,12.612331375014035,13.624680415960029,5.0,Object_Land_Solid_Small,8.0,,,,,,,,,,,
encoding,value,25,4461487,4467500,4461673.0,4462042.0,370.0,370.0,1566.1,1171.1,1591.0,891.0,Object_Land_Solid_Small,13.62483283295296,19.637865457916632,5.0,Object_Land_Solid_Small,8.0,,,,,,,,,,,
encoding,value,25,4461487,4467500,4462064.0,4462522.0,459.0,459.0,1560.9,1313.4,1591.0,891.0,Object_Land_Solid_Small,13.62483283295296,19.637865457916632,5.0,Object_Land_Solid_Small,8.0,,,,,,,,,,,
encoding,value,25,4461487,4467500,4462785.0,4463314.0,530.0,530.0,1550.2,1311.1,1591.0,891.0,Object_Land_Solid_Small,13.62483283295296,19.637865457916632,5.0,Object_Land_Solid_Small,8.0,,,,,,,,,,,
encoding,value,25,4461487,4467500,4463333.0,4464540.0,1208.0,1208.0,1574.0,1211.4,1591.0,891.0,Object_Land_Solid_Small,13.62483283295296,19.637865457916632,5.0,Object_Land_Solid_Small,8.0,,,,,,,,,,,
encoding,value,25,4461487,4467500,4464551.0,4464725.0,175.0,175.0,1593.4,1246.1,1591.0,891.0,Object_Land_Solid_Small,13.62483283295296,19.637865457916632,5.0,Object_Land_Solid_Small,8.0,,,,,,,,,,,
encoding,value,25,4461487,4467500,4464736.0,4465137.0,402.0,402.0,1560.5,1218.4,1591.0,891.0,Object_Land_Solid_Small,13.62483283295296,19.637865457916632,5.0,Object_Land_Solid_Small,8.0,,,,,,,,,,,
encoding,value,25,4461487,4467500,4465148.0,4465437.0,290.0,290.0,1584.4,1245.1,1591.0,891.0,Object_Land_Solid_Small,13.62483283295296,19.637865457916632,5.0,Object_Land_Solid_Small,8.0,,,,,,,,,,,
encoding,value,25,4461487,4467500,4465444.0,4465993.0,550.0,550.0,1569.7,1222.3,1591.0,891.0,Object_Land_Solid_Small,13.62483283295296,19.637865457916632,5.0,Object_Land_Solid_Small,8.0,,,,,,,,,,,
encoding,value,25,4461487,4467500,4466014.0,4466519.0,506.0,506.0,1575.3,1314.7,1591.0,891.0,Object_Land_Solid_Small,13.62483283295296,19.637865457916632,5.0,Object_Land_Solid_Small,8.0,,,,,,,,,,,
encoding,value,25,4461487,4467500,4466536.0,4467060.0,525.0,525.0,1585.4,1200.7,1591.0,891.0,Object_Land_Solid_Small,13.62483283295296,19.637865457916632,5.0,Object_Land_Solid_Small,8.0,,,,,,,,,,,
encoding,value,25,4461487,4467500,4467072.0,4467452.0,381.0,381.0,1586.3,1243.7,1591.0,891.0,Object_Land_Solid_Small,13.62483283295296,19.637865457916632,5.0,Object_Land_Solid_Small,8.0,,,,,,,,,,,
encoding,attention,25,4467500,4470518,4467649.0,4467709.0,61.0,61.0,1482.8,1309.3,1591.0,891.0,Object_Land_Solid_Small,19.637989124981686,22.65522587485611,5.0,Object_Land_Solid_Small,8.0,8.0,1.0,0.9999637498985976,,,,,,,,
encoding,attention,25,4467500,4470518,4467725.0,4467818.0,94.0,94.0,1549.8,1341.7,1591.0,891.0,Object_Land_Solid_Small,19.637989124981686,22.65522587485611,5.0,Object_Land_Solid_Small,8.0,8.0,1.0,0.9999637498985976,,,,,,,,
encoding,attention,25,4467500,4470518,4467834.0,4468938.0,1105.0,1105.0,1604.3,1227.6,1591.0,891.0,Object_Land_Solid_Small,19.637989124981686,22.65522587485611,5.0,Object_Land_Solid_Small,8.0,8.0,1.0,0.9999637498985976,,,,,,,,
encoding,fixation,26,4470518,4471273,4470749.0,4471490.0,742.0,524.0,1902.8,1101.2,1920.0,1080.0,fixation,22.655373290879652,23.41083504096605,5.0,Object_Sea_Solid_Large,-7.0,,,,,,,,,,,
encoding,image,26,4471273,4472286,4471524.0,4471822.0,299.0,299.0,2277.6,869.3,2249.0,1269.0,Object_Sea_Solid_Large,23.410956790903583,24.42328408290632,5.0,Object_Sea_Solid_Large,-7.0,,,,,,,,,,,
encoding,image,26,4471273,4472286,4471830.0,4471978.0,149.0,149.0,2251.5,888.7,2249.0,1269.0,Object_Sea_Solid_Large,23.410956790903583,24.42328408290632,5.0,Object_Sea_Solid_Large,-7.0,,,,,,,,,,,
encoding,image,26,4471273,4472286,4472234.0,4472502.0,269.0,52.0,2274.2,879.5,2249.0,1269.0,Object_Sea_Solid_Large,23.410956790903583,24.42328408290632,5.0,Object_Sea_Solid_Large,-7.0,,,,,,,,,,,
encoding,value,26,4472286,4478299,4472517.0,4473117.0,601.0,601.0,2259.7,802.3,2249.0,1269.0,Object_Sea_Solid_Large,24.423415540950373,30.436349999858063,5.0,Object_Sea_Solid_Large,-7.0,,,,,,,,,,,
encoding,value,26,4472286,4478299,4473139.0,4473523.0,385.0,385.0,2247.0,907.9000000000001,2249.0,1269.0,Object_Sea_Solid_Large,24.423415540950373,30.436349999858063,5.0,Object_Sea_Solid_Large,-7.0,,,,,,,,,,,
encoding,value,26,4472286,4478299,4473570.0,4473971.0,402.0,402.0,1865.9,1238.7,1920.0,700.0,Animal_Land_Pattern_Small,24.423415540950373,30.436349999858063,5.0,Object_Sea_Solid_Large,-7.0,,,,,,,,,,,
encoding,value,26,4472286,4478299,4474005.0,4474549.0,545.0,545.0,2243.1,863.3,2249.0,1269.0,Object_Sea_Solid_Large,24.423415540950373,30.436349999858063,5.0,Object_Sea_Solid_Large,-7.0,,,,,,,,,,,
encoding,value,26,4472286,4478299,4474560.0,4475749.0,1190.0,1190.0,2236.9,910.7,2249.0,1269.0,Object_Sea_Solid_Large,24.423415540950373,30.436349999858063,5.0,Object_Sea_Solid_Large,-7.0,,,,,,,,,,,
encoding,value,26,4472286,4478299,4475767.0,4476160.0,394.0,394.0,2251.7,852.5,2249.0,1269.0,Object_Sea_Solid_Large,24.423415540950373,30.436349999858063,5.0,Object_Sea_Solid_Large,-7.0,,,,,,,,,,,
encoding,value,26,4472286,4478299,4476175.0,4477419.0,1245.0,1245.0,2216.0,903.2,2249.0,1269.0,Object_Sea_Solid_Large,24.423415540950373,30.436349999858063,5.0,Object_Sea_Solid_Large,-7.0,,,,,,,,,,,
encoding,value,26,4472286,4478299,4477437.0,4478383.0,947.0,862.0,2252.8,810.7,2249.0,1269.0,Object_Sea_Solid_Large,24.423415540950373,30.436349999858063,5.0,Object_Sea_Solid_Large,-7.0,,,,,,,,,,,
encoding,attention,26,4478299,4481319,4478401.0,4478556.0,156.0,156.0,2245.6,909.4000000000001,2249.0,1269.0,Object_Sea_Solid_Large,30.436462207930163,33.45621974999085,5.0,Object_Sea_Solid_Large,-7.0,-7.0,1.0,1.5918888750020417,,,,,,,,
encoding,attention,26,4478299,4481319,4478576.0,4478810.0,235.0,235.0,2289.7,826.8,2249.0,1269.0,Object_Sea_Solid_Large,30.436462207930163,33.45621974999085,5.0,Object_Sea_Solid_Large,-7.0,-7.0,1.0,1.5918888750020417,,,,,,,,
encoding,attention,26,4478299,4481319,4479071.0,4479302.0,232.0,232.0,2212.7,909.0999999999999,2249.0,1269.0,Object_Sea_Solid_Large,30.436462207930163,33.45621974999085,5.0,Object_Sea_Solid_Large,-7.0,-7.0,1.0,1.5918888750020417,,,,,,,,
encoding,attention,26,4478299,4481319,4479322.0,4480499.0,1178.0,1178.0,2185.5,816.9000000000001,2249.0,1269.0,Object_Sea_Solid_Large,30.436462207930163,33.45621974999085,5.0,Object_Sea_Solid_Large,-7.0,-7.0,1.0,1.5918888750020417,,,,,,,,
encoding,attention,26,4478299,4481319,4480519.0,4481148.0,630.0,630.0,2258.5,901.7,2249.0,1269.0,Object_Sea_Solid_Large,30.436462207930163,33.45621974999085,5.0,Object_Sea_Solid_Large,-7.0,-7.0,1.0,1.5918888750020417,,,,,,,,
encoding,fixation,27,4481319,4482076,4481587.0,4482201.0,615.0,489.0,1917.3,1119.5,1920.0,1080.0,fixation,33.45639062486589,34.21279999986291,5.0,Object_Sea_Pattern_Small,-3.0,,,,,,,,,,,
encoding,image,27,4482076,4483087,4482223.0,4482334.0,112.0,112.0,1940.3,1179.4,1920.0,700.0,Animal_Land_Pattern_Small,34.21291529084556,35.22371562500484,5.0,Object_Sea_Pattern_Small,-3.0,,,,,,,,,,,
encoding,image,27,4482076,4483087,4482367.0,4482768.0,402.0,402.0,1893.1,737.7,1920.0,1460.0,Object_Sea_Pattern_Small,34.21291529084556,35.22371562500484,5.0,Object_Sea_Pattern_Small,-3.0,,,,,,,,,,,
encoding,image,27,4482076,4483087,4482784.0,4483699.0,916.0,303.0,1905.0,615.7,1920.0,1460.0,Object_Sea_Pattern_Small,34.21291529084556,35.22371562500484,5.0,Object_Sea_Pattern_Small,-3.0,,,,,,,,,,,
encoding,value,27,4483087,4489099,4483719.0,4484795.0,1077.0,1077.0,1900.2,736.5999999999999,1920.0,1460.0,Object_Sea_Pattern_Small,35.22382504097186,41.23541399999522,5.0,Object_Sea_Pattern_Small,-3.0,,,,,,,,,,,
encoding,value,27,4483087,4489099,4484809.0,4485012.0,204.0,204.0,1946.4,658.0,1920.0,1460.0,Object_Sea_Pattern_Small,35.22382504097186,41.23541399999522,5.0,Object_Sea_Pattern_Small,-3.0,,,,,,,,,,,
encoding,value,27,4483087,4489099,4485025.0,4485607.0,583.0,583.0,1904.5,693.0999999999999,1920.0,1460.0,Object_Sea_Pattern_Small,35.22382504097186,41.23541399999522,5.0,Object_Sea_Pattern_Small,-3.0,,,,,,,,,,,
encoding,value,27,4483087,4489099,4485621.0,4486363.0,743.0,743.0,1884.1,633.5,1920.0,1460.0,Object_Sea_Pattern_Small,35.22382504097186,41.23541399999522,5.0,Object_Sea_Pattern_Small,-3.0,,,,,,,,,,,
encoding,value,27,4483087,4489099,4486384.0,4487317.0,934.0,934.0,1914.7,766.9000000000001,1920.0,1460.0,Object_Sea_Pattern_Small,35.22382504097186,41.23541399999522,5.0,Object_Sea_Pattern_Small,-3.0,,,,,,,,,,,
encoding,value,27,4483087,4489099,4487340.0,4487773.0,434.0,434.0,1906.4,631.2,1920.0,1460.0,Object_Sea_Pattern_Small,35.22382504097186,41.23541399999522,5.0,Object_Sea_Pattern_Small,-3.0,,,,,,,,,,,
encoding,value,27,4483087,4489099,4487792.0,4488394.0,603.0,603.0,1899.4,704.9000000000001,1920.0,1460.0,Object_Sea_Pattern_Small,35.22382504097186,41.23541399999522,5.0,Object_Sea_Pattern_Small,-3.0,,,,,,,,,,,
encoding,value,27,4483087,4489099,4488405.0,4488804.0,400.0,400.0,1896.4,643.7,1920.0,1460.0,Object_Sea_Pattern_Small,35.22382504097186,41.23541399999522,5.0,Object_Sea_Pattern_Small,-3.0,,,,,,,,,,,
encoding,value,27,4483087,4489099,4488821.0,4489302.0,482.0,278.0,1892.4,732.3,1920.0,1460.0,Object_Sea_Pattern_Small,35.22382504097186,41.23541399999522,5.0,Object_Sea_Pattern_Small,-3.0,,,,,,,,,,,
encoding,attention,27,4489099,4492117,4489320.0,4489822.0,503.0,503.0,1934.1,642.7,1920.0,1460.0,Object_Sea_Pattern_Small,41.23554691602476,44.25376516603865,5.0,Object_Sea_Pattern_Small,-3.0,-3.0,1.0,2.265253874938935,,,,,,,,
encoding,attention,27,4489099,4492117,4490034.0,4490105.0,72.0,72.0,1695.8,408.79999999999995,,,none,41.23554691602476,44.25376516603865,5.0,Object_Sea_Pattern_Small,-3.0,-3.0,1.0,2.265253874938935,,,,,,,,
encoding,attention,27,4489099,4492117,4490214.0,4490337.0,124.0,124.0,1850.5,784.0999999999999,1920.0,1460.0,Object_Sea_Pattern_Small,41.23554691602476,44.25376516603865,5.0,Object_Sea_Pattern_Small,-3.0,-3.0,1.0,2.265253874938935,,,,,,,,
encoding,attention,27,4489099,4492117,4490351.0,4490491.0,141.0,141.0,1841.0,748.7,1920.0,1460.0,Object_Sea_Pattern_Small,41.23554691602476,44.25376516603865,5.0,Object_Sea_Pattern_Small,-3.0,-3.0,1.0,2.265253874938935,,,,,,,,
encoding,attention,27,4489099,4492117,4490511.0,4490764.0,254.0,254.0,1847.1,672.0999999999999,1920.0,1460.0,Object_Sea_Pattern_Small,41.23554691602476,44.25376516603865,5.0,Object_Sea_Pattern_Small,-3.0,-3.0,1.0,2.265253874938935,,,,,,,,
encoding,attention,27,4489099,4492117,4490778.0,4491202.0,425.0,425.0,1937.7,687.0999999999999,1920.0,1460.0,Object_Sea_Pattern_Small,41.23554691602476,44.25376516603865,5.0,Object_Sea_Pattern_Small,-3.0,-3.0,1.0,2.265253874938935,,,,,,,,
encoding,attention,27,4489099,4492117,4491219.0,4491483.0,265.0,265.0,1843.0,707.0999999999999,1920.0,1460.0,Object_Sea_Pattern_Small,41.23554691602476,44.25376516603865,5.0,Object_Sea_Pattern_Small,-3.0,-3.0,1.0,2.265253874938935,,,,,,,,
encoding,attention,27,4489099,4492117,4491494.0,4491566.0,73.0,73.0,1839.0,727.8,1920.0,1460.0,Object_Sea_Pattern_Small,41.23554691602476,44.25376516603865,5.0,Object_Sea_Pattern_Small,-3.0,-3.0,1.0,2.265253874938935,,,,,,,,
encoding,attention,27,4489099,4492117,4491619.0,4491771.0,153.0,153.0,1833.8,728.3,1920.0,1460.0,Object_Sea_Pattern_Small,41.23554691602476,44.25376516603865,5.0,Object_Sea_Pattern_Small,-3.0,-3.0,1.0,2.265253874938935,,,,,,,,
encoding,attention,27,4489099,4492117,4491788.0,4492086.0,299.0,299.0,1851.3,652.5,1920.0,1460.0,Object_Sea_Pattern_Small,41.23554691602476,44.25376516603865,5.0,Object_Sea_Pattern_Small,-3.0,-3.0,1.0,2.265253874938935,,,,,,,,
encoding,fixation,28,4492117,4493622,4492380.0,4492492.0,113.0,113.0,1891.7,1128.1,1920.0,1080.0,fixation,44.25391924986616,45.7588396249339,5.0,Animal_Sea_Pattern_Large,8.0,,,,,,,,,,,
encoding,fixation,28,4492117,4493622,4492736.0,4493682.0,947.0,886.0,1881.8,1137.7,1920.0,1080.0,fixation,44.25391924986616,45.7588396249339,5.0,Animal_Sea_Pattern_Large,8.0,,,,,,,,,,,
encoding,image,28,4493622,4494633,4493707.0,4493817.0,111.0,111.0,1960.9,1349.0,1920.0,700.0,Animal_Land_Pattern_Small,45.75896112504415,46.76934429095127,5.0,Animal_Sea_Pattern_Large,8.0,,,,,,,,,,,
encoding,image,28,4493622,4494633,4493842.0,4494792.0,951.0,791.0,2217.1,1290.2,2249.0,891.0,Animal_Sea_Pattern_Large,45.75896112504415,46.76934429095127,5.0,Animal_Sea_Pattern_Large,8.0,,,,,,,,,,,
encoding,value,28,4494633,4500644,4494813.0,4495248.0,436.0,436.0,2227.9,1195.8,2249.0,891.0,Animal_Sea_Pattern_Large,46.769432332832366,52.78039779094979,5.0,Animal_Sea_Pattern_Large,8.0,,,,,,,,,,,
encoding,value,28,4494633,4500644,4495497.0,4496151.0,655.0,655.0,2191.3,1273.4,2249.0,891.0,Animal_Sea_Pattern_Large,46.769432332832366,52.78039779094979,5.0,Animal_Sea_Pattern_Large,8.0,,,,,,,,,,,
encoding,value,28,4494633,4500644,4496348.0,4496970.0,623.0,623.0,2166.0,1324.8,2249.0,891.0,Animal_Sea_Pattern_Large,46.769432332832366,52.78039779094979,5.0,Animal_Sea_Pattern_Large,8.0,,,,,,,,,,,
encoding,value,28,4494633,4500644,4496986.0,4497522.0,537.0,537.0,2225.8,1297.2,2249.0,891.0,Animal_Sea_Pattern_Large,46.769432332832366,52.78039779094979,5.0,Animal_Sea_Pattern_Large,8.0,,,,,,,,,,,
encoding,value,28,4494633,4500644,4497542.0,4498322.0,781.0,781.0,2217.6,1194.1,2249.0,891.0,Animal_Sea_Pattern_Large,46.769432332832366,52.78039779094979,5.0,Animal_Sea_Pattern_Large,8.0,,,,,,,,,,,
encoding,value,28,4494633,4500644,4498338.0,4498600.0,263.0,263.0,2205.4,1272.2,2249.0,891.0,Animal_Sea_Pattern_Large,46.769432332832366,52.78039779094979,5.0,Animal_Sea_Pattern_Large,8.0,,,,,,,,,,,
encoding,value,28,4494633,4500644,4498617.0,4499204.0,588.0,588.0,2222.2,1203.0,2249.0,891.0,Animal_Sea_Pattern_Large,46.769432332832366,52.78039779094979,5.0,Animal_Sea_Pattern_Large,8.0,,,,,,,,,,,
