phase,event,onset,offset,trial_number,game,image,outcome,choice,correct,rt,letter,match,response,option,true_value,true_position,recalled_position,
encoding,fixation,11.797998917056248,13.06810645898804,1,1,Object_Land_Pattern_Large,-3,,,,,,,,,,,
encoding,image,13.06825283402577,14.09268983406946,1,1,Object_Land_Pattern_Large,-3,,,,,,,,,,,
encoding,value,14.092803166946396,20.11025141691789,1,1,Object_Land_Pattern_Large,-3,,,,,,,,,,,
encoding,attention,20.11037812498398,23.128155624959618,1,1,Object_Land_Pattern_Large,-3,-3,1,2.951350332936272,,,,,,,,
encoding,fixation,23.128287167055532,24.133194042136893,2,1,Animal_Sea_Pattern_Small,5,,,,,,,,,,,
encoding,image,24.133297834079713,25.143531542038545,2,1,Animal_Sea_Pattern_Small,5,,,,,,,,,,,
encoding,value,25.14371370896697,31.156440125079826,2,1,Animal_Sea_Pattern_Small,5,,,,,,,,,,,
encoding,attention,31.156539791962132,34.17405312508345,2,1,Animal_Sea_Pattern_Small,5,+5,1,1.395115708000958,,,,,,,,
encoding,fixation,34.17421929212287,35.43068120907992,3,1,Object_Sea_Solid_Small,-5,,,,,,,,,,,
encoding,image,35.43078249995597,36.44080908410251,3,1,Object_Sea_Solid_Small,-5,,,,,,,,,,,
encoding,value,36.44091737503186,42.45195333403535,3,1,Object_Sea_Solid_Small,-5,,,,,,,,,,,
encoding,attention,42.45208008401096,45.470188667066395,3,1,Object_Sea_Solid_Small,-5,-5,1,2.7234574160538614,,,,,,,,
encoding,fixation,45.470337042119354,46.97514008404687,4,1,Object_Land_Solid_Large,9,,,,,,,,,,,
encoding,image,46.97525358409621,47.98600645898841,4,1,Object_Land_Solid_Large,9,,,,,,,,,,,
encoding,value,47.98610954196192,53.99990520905703,4,1,Object_Land_Solid_Large,9,,,,,,,,,,,
encoding,attention,54.00000762497075,57.016337167005986,4,1,Object_Land_Solid_Large,9,+9,1,1.920409250073135,,,,,,,,
encoding,fixation,57.016495584044605,58.52132137492299,5,1,Animal_Land_Pattern_Large,-8,,,,,,,,,,,
encoding,image,58.521436041919515,59.53335537505336,5,1,Animal_Land_Pattern_Large,-8,,,,,,,,,,,
encoding,value,59.53347408398986,65.54480812512338,5,1,Animal_Land_Pattern_Large,-8,,,,,,,,,,,
encoding,attention,65.5449215839617,68.60537629202008,5,1,Animal_Land_Pattern_Large,-8,-8,1,1.4274857079144567,,,,,,,,
encoding,fixation,68.60551566700451,69.86051566712558,6,1,Animal_Sea_Solid_Small,1,,,,,,,,,,,
encoding,image,69.86071070912294,70.87177670910023,6,1,Animal_Sea_Solid_Small,1,,,,,,,,,,,
encoding,value,70.87187833408825,76.88415850000456,6,1,Animal_Sea_Solid_Small,1,,,,,,,,,,,
encoding,attention,76.88429191708565,79.90487570897676,6,1,Animal_Sea_Solid_Small,1,+1,1,1.6977319170255214,,,,,,,,
n-back,,,,1,1,,,,0,None,Z,True,None,,,,,
n-back,,,,2,1,,,,1,None,C,False,None,,,,,
n-back,,,,3,1,,,,1,None,B,False,None,,,,,
n-back,,,,4,1,,,,1,None,X,False,None,,,,,
n-back,,,,5,1,,,,1,None,Z,False,None,,,,,
n-back,,,,6,1,,,,1,1.1669143331237137,X,True,1,,,,,
n-back,,,,7,1,,,,1,None,N,False,None,,,,,
n-back,,,,8,1,,,,1,None,Z,False,None,,,,,
n-back,,,,9,1,,,,1,None,X,False,None,,,,,
n-back,,,,10,1,,,,1,None,B,False,None,,,,,
n-back,,,,11,1,,,,1,None,B,False,None,,,,,
n-back,,,,12,1,,,,1,None,V,False,None,,,,,
n-back,,,,13,1,,,,1,None,C,False,None,,,,,
n-back,,,,14,1,,,,1,0.6553145418874919,V,True,1,,,,,
n-back,,,,15,1,,,,1,None,X,False,None,,,,,
n-back,,,,16,1,,,,0,None,V,True,None,,,,,
n-back,,,,17,1,,,,1,None,N,False,None,,,,,
n-back,,,,18,1,,,,1,None,X,False,None,,,,,
n-back,,,,19,1,,,,1,None,X,False,None,,,,,
n-back,,,,20,1,,,,1,0.5766615001484752,X,True,1,,,,,
n-back,,,,21,1,,,,1,None,N,False,None,,,,,
n-back,,,,22,1,,,,1,None,N,False,None,,,,,
n-back,,,,23,1,,,,1,None,C,False,None,,,,,
n-back,,,,24,1,,,,1,0.39493533316999674,N,True,1,,,,,
n-back,,,,25,1,,,,0,None,C,True,None,,,,,
n-back,,,,26,1,,,,1,None,Z,False,None,,,,,
n-back,,,,27,1,,,,1,None,X,False,None,,,,,
n-back,,,,28,1,,,,1,0.4642303748987615,Z,True,1,,,,,
n-back,,,,29,1,,,,0,None,X,True,None,,,,,
n-back,,,,30,1,,,,1,0.6975159591529518,Z,True,1,,,,,
choice,fixation,168.21974541712552,169.47603866714053,1,1,,,,,,,,,Solid,,,,
choice,option,169.48552650003694,170.70270304195583,1,1,,,,,,,,,Solid,,,,
choice,choice,170.70282954210415,183.0499154170975,1,1,,,1,1,11.335592957912013,,,,Solid,,,,
choice,fixation,183.05003316700459,183.55504870903678,2,1,,,,,,,,,Land,,,,
choice,option,183.5641227499582,184.5925724999979,2,1,,,,,,,,,Land,,,,
choice,choice,184.592730833916,192.14420537510887,2,1,,,2,1,6.53906058287248,,,,Land,,,,
choice,fixation,192.14440966700204,192.9008000420872,3,1,,,,,,,,,Object,,,,
choice,option,192.91040583397262,193.93770237499848,3,1,,,,,,,,,Object,,,,
choice,choice,193.9378124170471,208.02140433411114,3,1,,,2,0,13.0729735000059,,,,Object,,,,
choice,fixation,208.02152845892124,208.77668595896102,4,1,,,,,,,,,Small,,,,
choice,option,208.7855862090364,209.8128530839458,4,1,,,,,,,,,Small,,,,
choice,choice,209.81296787504107,213.06702391710132,4,1,,,1,1,2.241690833121538,,,,Small,,,,
choice,fixation,213.06714358413592,213.5723417501431,5,1,,,,,,,,,Animal,,,,
choice,option,213.58253645896912,214.60970445908606,5,1,,,,,,,,,Animal,,,,
choice,choice,214.60980650014244,221.18509741709568,5,1,,,1,0,5.565580290975049,,,,Animal,,,,
choice,fixation,221.1852136249654,222.19099341705441,6,1,,,,,,,,,Sea,,,,
choice,option,222.19962245901115,223.2269141669385,6,1,,,,,,,,,Sea,,,,
choice,choice,223.22702695894986,230.19391929195262,6,1,,,1,1,5.956377957947552,,,,Sea,,,,
choice,fixation,230.19404695904814,231.70051779202186,7,1,,,,,,,,,Pattern,,,,
choice,option,231.70972037501633,232.73811158398166,7,1,,,,,,,,,Pattern,,,,
choice,choice,232.73822987498716,237.08914733398706,7,1,,,2,1,3.3413581249769777,,,,Pattern,,,,
choice,fixation,237.08927258406766,238.59421512507834,8,1,,,,,,,,,Large,,,,
choice,option,238.60345012508333,239.6327792920638,8,1,,,,,,,,,Large,,,,
choice,choice,239.63289041700773,243.6572954589501,8,1,,,2,1,3.014820500044152,,,,Large,,,,
memory,free_recall,313.22779670893215,331.1502049169503,0,1,,,,,,,,,,,,,
memory,value_recall,376.52251375000924,380.70015024999157,1,1,Animal_Sea_Solid_Small,,,,4.173656958155334,,,,,1,,,
memory,value_recall,382.2507601249963,386.701039833948,2,1,Animal_Land_Pattern_Large,,,,4.446077041095123,,,,,-8,,,
memory,value_recall,388.75032079196535,390.41829650010914,3,1,Object_Land_Pattern_Large,,,,1.6640036669559777,,,,,-3,,,
memory,value_recall,392.46428225003183,395.47543662507087,4,1,Object_Land_Solid_Large,,,,3.0072305828798562,,,,,9,,,
memory,value_recall,397.5236520001199,401.61506225005724,5,1,Animal_Sea_Pattern_Small,,,,4.086956124985591,,,,,5,,,
memory,value_recall,402.6620612919796,405.3620695839636,6,1,Object_Sea_Solid_Small,,,,2.6965253751259297,,,,,-5,,,
memory,spatial_recall,430.5512186670676,436.393081584014,6,1,Object_Land_Solid_Large,,,1,5.838581457966939,,,,,,"[329, -190]","[329, -190]",
memory,spatial_recall,437.9500787919387,442.0236183749512,6,1,Animal_Sea_Solid_Small,,,0,4.069550167070702,,,,,,"[-329, 190]","[-329, -190]",
memory,spatial_recall,444.0824798340909,448.9903645000886,6,1,Animal_Land_Pattern_Large,,,1,4.904001708142459,,,,,,"[0, -380]","[0, -380]",
memory,spatial_recall,450.7996223750524,455.4015823339578,6,1,Animal_Sea_Pattern_Small,,,0,4.59799520811066,,,,,,"[-329, -190]","[-329, 190]",
memory,spatial_recall,456.7119887089357,458.57714512501843,6,1,Object_Land_Pattern_Large,,,1,1.8613148329313844,,,,,,"[0, 380]","[0, 380]",
memory,spatial_recall,460.1301164999604,462.14339733403176,6,1,Object_Sea_Solid_Small,,,1,2.0093420001212507,,,,,,"[329, 189]","[329, 189]",
encoding,fixation,6.318418582901359,7.073777874931693,7,2,Animal_Land_Solid_Large,8,,,,,,,,,,,
encoding,image,7.073884749785066,8.086374832782894,7,2,Animal_Land_Solid_Large,8,,,,,,,,,,,
encoding,value,8.086472749942914,14.100178291788325,7,2,Animal_Land_Solid_Large,8,,,,,,,,,,,
encoding,attention,14.100293457973748,17.119177457876503,7,2,Animal_Land_Solid_Large,8,+8,1,1.8609837079420686,,,,,,,,
encoding,fixation,17.1193402078934,18.1246312498115,8,2,Object_Land_Solid_Small,-8,,,,,,,,,,,
encoding,image,18.12473312485963,19.136088624829426,8,2,Object_Land_Solid_Small,-8,,,,,,,,,,,
encoding,value,19.136207291856408,25.148572041885927,8,2,Object_Land_Solid_Small,-8,,,,,,,,,,,
encoding,attention,25.148686499800533,28.1682674579788,8,2,Object_Land_Solid_Small,-8,-8,1,1.0371346669271588,,,,,,,,
encoding,fixation,28.168405041797087,29.423499832861125,9,2,Object_Sea_Pattern_Large,8,,,,,,,,,,,
encoding,image,29.4236259998288,30.435439791996032,9,2,Object_Sea_Pattern_Large,8,,,,,,,,,,,
encoding,value,30.435541541781276,36.447517291875556,9,2,Object_Sea_Pattern_Large,8,,,,,,,,,,,
encoding,attention,36.44764249981381,39.460393166868016,9,2,Object_Sea_Pattern_Large,8,None,None,None,,,,,,,,
encoding,fixation,39.46051462483592,40.21539262495935,10,2,Animal_Sea_Pattern_Large,-3,,,,,,,,,,,
encoding,image,40.21554295788519,41.226130791939795,10,2,Animal_Sea_Pattern_Large,-3,,,,,,,,,,,
encoding,value,41.226259666960686,47.237220166949555,10,2,Animal_Sea_Pattern_Large,-3,,,,,,,,,,,
encoding,attention,47.23736487491988,50.25412045791745,10,2,Animal_Sea_Pattern_Large,-3,-3,1,0.6616256248671561,,,,,,,,
encoding,fixation,50.25431245798245,51.25940083293244,11,2,Animal_Land_Solid_Small,4,,,,,,,,,,,
encoding,image,51.2595266669523,52.26967495796271,11,2,Animal_Land_Solid_Small,4,,,,,,,,,,,
encoding,value,52.269782999996096,58.28108545788564,11,2,Animal_Land_Solid_Small,4,,,,,,,,,,,
encoding,attention,58.2812193329446,61.2979327919893,11,2,Animal_Land_Solid_Small,4,+4,1,0.6993200839497149,,,,,,,,
encoding,fixation,61.29807837493718,62.55310787493363,12,2,Object_Sea_Pattern_Small,3,,,,,,,,,,,
encoding,image,62.55321874981746,63.56439904193394,12,2,Object_Sea_Pattern_Small,3,,,,,,,,,,,
encoding,value,63.564518082886934,69.57660024985671,12,2,Object_Sea_Pattern_Small,3,,,,,,,,,,,
encoding,attention,69.57672516698949,72.59348591696471,12,2,Object_Sea_Pattern_Small,3,+3,1,2.07643675012514,,,,,,,,
n-back,,,,31,2,,,,1,None,C,False,None,,,,,
n-back,,,,32,2,,,,1,None,V,False,None,,,,,
n-back,,,,33,2,,,,1,None,Z,False,None,,,,,
n-back,,,,34,2,,,,0,None,V,True,None,,,,,
n-back,,,,35,2,,,,1,None,N,False,None,,,,,
n-back,,,,36,2,,,,1,0.3756573749706149,V,True,1,,,,,
n-back,,,,37,2,,,,1,None,Z,False,None,,,,,
n-back,,,,38,2,,,,1,None,C,False,None,,,,,
n-back,,,,39,2,,,,1,None,C,False,None,,,,,
n-back,,,,40,2,,,,1,None,B,False,None,,,,,
n-back,,,,41,2,,,,1,0.37585179205052555,C,True,1,,,,,
n-back,,,,42,2,,,,0,None,B,True,None,,,,,
n-back,,,,43,2,,,,1,1.0359913751017302,C,True,1,,,,,
n-back,,,,44,2,,,,0,None,B,True,None,,,,,
n-back,,,,45,2,,,,1,None,Z,False,None,,,,,
n-back,,,,46,2,,,,1,None,Z,False,None,,,,,
n-back,,,,47,2,,,,1,0.5142661668360233,Z,True,1,,,,,
n-back,,,,48,2,,,,1,None,V,False,None,,,,,
n-back,,,,49,2,,,,1,None,C,False,None,,,,,
n-back,,,,50,2,,,,1,None,Z,False,None,,,,,
n-back,,,,51,2,,,,1,None,B,False,None,,,,,
n-back,,,,52,2,,,,0,0.33760479209013283,C,False,1,,,,,
n-back,,,,53,2,,,,1,None,V,False,None,,,,,
n-back,,,,54,2,,,,0,None,C,True,None,,,,,
n-back,,,,55,2,,,,1,0.5580817919690162,V,True,1,,,,,
n-back,,,,56,2,,,,0,None,C,True,None,,,,,
n-back,,,,57,2,,,,1,None,N,False,None,,,,,
n-back,,,,58,2,,,,1,None,Z,False,None,,,,,
n-back,,,,59,2,,,,1,None,V,False,None,,,,,
n-back,,,,60,2,,,,1,None,V,False,None,,,,,
choice,fixation,149.93132070777938,151.1850997498259,9,2,,,,,,,,,Pattern,,,,
choice,option,151.1943490828853,152.22329629189335,9,2,,,,,,,,,Pattern,,,,
choice,choice,152.2234369998332,158.71719316695817,9,2,,,2,0,5.481511708116159,,,,Pattern,,,,
choice,fixation,158.71733695780858,159.9723379998468,10,2,,,,,,,,,Land,,,,
choice,option,159.98098520794883,161.00820749998093,10,2,,,,,,,,,Land,,,,
choice,choice,161.00831029191613,167.3399526248686,10,2,,,2,0,5.321933750063181,,,,Land,,,,
choice,fixation,167.34009283292107,168.59872104180977,11,2,,,,,,,,,Small,,,,
choice,option,168.60752716683783,169.63456716691144,11,2,,,,,,,,,Small,,,,
choice,choice,169.63469074992463,180.63101008278318,11,2,,,2,1,9.985274583101273,,,,Small,,,,
choice,fixation,180.6311172079295,181.88616849994287,12,2,,,,,,,,,Large,,,,
choice,option,181.89475820795633,182.92152474983595,12,2,,,,,,,,,Large,,,,
choice,choice,182.9216242497787,188.18835699977353,12,2,,,1,1,4.257110208971426,,,,Large,,,,
choice,fixation,188.1884973749984,188.69343212479725,13,2,,,,,,,,,Animal,,,,
choice,option,188.70267516677268,189.73131429194473,13,2,,,,,,,,,Animal,,,,
choice,choice,189.7314359578304,192.58712699986063,13,2,,,1,1,1.845184792065993,,,,Animal,,,,
choice,fixation,192.58725508279167,193.84219187498093,14,2,,,,,,,,,Solid,,,,
choice,option,193.85195762477815,194.88051262497902,14,2,,,,,,,,,Solid,,,,
choice,choice,194.88063966692425,203.6135898749344,14,2,,,2,0,7.722794457804412,,,,Solid,,,,
choice,fixation,203.6137219578959,204.3687791249249,15,2,,,,,,,,,Object,,,,
choice,option,204.37802295782603,205.40511858300306,15,2,,,,,,,,,Object,,,,
choice,choice,205.40524766687304,216.3099026249256,15,2,,,2,0,9.894512166036293,,,,Object,,,,
choice,fixation,216.31005974998698,217.31521445792168,16,2,,,,,,,,,Sea,,,,
choice,option,217.32335049984977,218.3496169168502,16,2,,,,,,,,,Sea,,,,
choice,choice,218.34972479194403,227.4443234167993,16,2,,,1,1,8.0845186249353,,,,Sea,,,,
memory,free_recall,251.80008533294313,293.51910608285107,6,2,,,,,,,,,,,,,
memory,value_recall,318.6579835829325,323.8398817079142,7,2,Object_Sea_Pattern_Large,,,,5.17776491609402,,,,,8,,,
memory,value_recall,324.8895726248156,327.5198209169321,8,2,Animal_Land_Solid_Small,,,,2.626482249936089,,,,,4,,,
memory,value_recall,329.56720566679724,332.02314154198393,9,2,Animal_Land_Solid_Large,,,,2.4518430829048157,,,,,8,,,
memory,value_recall,333.07192066684365,338.1923698328901,10,2,Object_Sea_Pattern_Small,,,,5.11703541688621,,,,,3,,,
memory,value_recall,339.9904707497917,343.1679010828957,11,2,Animal_Sea_Pattern_Large,,,,3.1715837500523776,,,,,-3,,,
memory,value_recall,345.21451308298856,347.1504982498009,12,2,Object_Land_Solid_Small,,,,1.9319605419877917,,,,,-8,,,
memory,spatial_recall,356.46367970784195,360.04947233293205,12,2,Object_Sea_Pattern_Large,,,1,3.58175891591236,,,,,,"[0, 380]","[0, 380]",
memory,spatial_recall,361.35895945783705,365.72452874993905,12,2,Animal_Land_Solid_Small,,,1,4.361206458881497,,,,,,"[329, -190]","[329, -190]",
memory,spatial_recall,367.03060687496327,370.55800137482584,12,2,Animal_Land_Solid_Large,,,1,3.5233968750108033,,,,,,"[-329, -190]","[-329, -190]",
memory,spatial_recall,372.3656920418143,374.4315542499535,12,2,Object_Sea_Pattern_Small,,,1,2.0619506251532584,,,,,,"[0, -380]","[0, -380]",
memory,spatial_recall,375.4868896668777,377.97444533277303,12,2,Animal_Sea_Pattern_Large,,,1,2.483258082997054,,,,,,"[329, 189]","[329, 189]",
memory,spatial_recall,379.03104774979874,380.431814749958,12,2,Object_Land_Solid_Small,,,1,1.3982090831268579,,,,,,"[-329, 190]","[-329, 190]",
encoding,fixation,13.604455249849707,15.111299542011693,13,3,Object_Land_Pattern_Large,-4,,,,,,,,,,,
encoding,image,15.111414916813374,16.123714291956276,13,3,Object_Land_Pattern_Large,-4,,,,,,,,,,,
encoding,value,16.123832291923463,22.138731666840613,13,3,Object_Land_Pattern_Large,-4,,,,,,,,,,,
encoding,attention,22.13888383284211,25.157805499853566,13,3,Object_Land_Pattern_Large,-4,-4,1,1.012466415995732,,,,,,,,
encoding,fixation,25.15795954200439,25.663541791960597,14,3,Animal_Sea_Solid_Small,-5,,,,,,,,,,,
encoding,image,25.66371133294888,26.675074291881174,14,3,Animal_Sea_Solid_Small,-5,,,,,,,,,,,
encoding,value,26.675182458013296,32.6874985829927,14,3,Animal_Sea_Solid_Small,-5,,,,,,,,,,,
encoding,attention,32.68761166697368,35.70543641690165,14,3,Animal_Sea_Solid_Small,-5,-5,1,1.7762401250656694,,,,,,,,
encoding,fixation,35.705594749888405,36.71107624983415,15,3,Object_Land_Pattern_Small,-8,,,,,,,,,,,
encoding,image,36.71123670786619,37.72263720794581,15,3,Object_Land_Pattern_Small,-8,,,,,,,,,,,
encoding,value,37.72273949999362,43.73557179188356,15,3,Object_Land_Pattern_Small,-8,,,,,,,,,,,
encoding,attention,43.73577862489037,46.755200791871175,15,3,Object_Land_Pattern_Small,-8,-8,1,2.711797875119373,,,,,,,,
encoding,fixation,46.75534649984911,47.26069649984129,16,3,Animal_Sea_Solid_Large,-2,,,,,,,,,,,
encoding,image,47.260818749899045,48.27130674989894,16,3,Animal_Sea_Solid_Large,-2,,,,,,,,,,,
encoding,value,48.27140812482685,54.28346895799041,16,3,Animal_Sea_Solid_Large,-2,,,,,,,,,,,
encoding,attention,54.28359074983746,57.30059837503359,16,3,Animal_Sea_Solid_Large,-2,-2,1,1.1171989999711514,,,,,,,,
encoding,fixation,57.300775500014424,57.8056495829951,17,3,Object_Land_Solid_Large,8,,,,,,,,,,,
encoding,image,57.8057429168839,58.815737541997805,17,3,Object_Land_Solid_Large,8,,,,,,,,,,,
encoding,value,58.81584654189646,64.82594962487929,17,3,Object_Land_Solid_Large,8,,,,,,,,,,,
encoding,attention,64.8260697920341,67.84203366702422,17,3,Object_Land_Solid_Large,8,+8,1,1.3913936249446124,,,,,,,,
encoding,fixation,67.8421811668668,68.59753150003962,18,3,Animal_Sea_Pattern_Small,8,,,,,,,,,,,
encoding,image,68.59764354187064,69.6095582919661,18,3,Animal_Sea_Pattern_Small,8,,,,,,,,,,,
encoding,value,69.6097365419846,75.62114883284084,18,3,Animal_Sea_Pattern_Small,8,,,,,,,,,,,
encoding,attention,75.62127424986102,78.63853970798664,18,3,Animal_Sea_Pattern_Small,8,+8,1,0.93052599998191,,,,,,,,
n-back,,,,61,3,,,,1,None,Z,False,None,,,,,
n-back,,,,62,3,,,,0,None,N,True,None,,,,,
n-back,,,,63,3,,,,1,0.4132947919424623,Z,True,1,,,,,
n-back,,,,64,3,,,,1,None,C,False,None,,,,,
n-back,,,,65,3,,,,1,None,X,False,None,,,,,
n-back,,,,66,3,,,,1,None,B,False,None,,,,,
n-back,,,,67,3,,,,1,None,B,False,None,,,,,
n-back,,,,68,3,,,,1,0.5272632089909166,B,True,1,,,,,
n-back,,,,69,3,,,,1,None,X,False,None,,,,,
n-back,,,,70,3,,,,1,None,V,False,None,,,,,
n-back,,,,71,3,,,,1,None,N,False,None,,,,,
n-back,,,,72,3,,,,1,None,N,False,None,,,,,
n-back,,,,73,3,,,,1,None,V,False,None,,,,,
n-back,,,,74,3,,,,1,None,V,False,None,,,,,
n-back,,,,75,3,,,,1,None,B,False,None,,,,,
n-back,,,,76,3,,,,1,0.36316962516866624,V,True,1,,,,,
n-back,,,,77,3,,,,0,None,B,True,None,,,,,
n-back,,,,78,3,,,,1,None,C,False,None,,,,,
n-back,,,,79,3,,,,1,None,C,False,None,,,,,
n-back,,,,80,3,,,,1,0.37487537506967783,C,True,1,,,,,
n-back,,,,81,3,,,,1,None,N,False,None,,,,,
n-back,,,,82,3,,,,1,None,N,False,None,,,,,
n-back,,,,83,3,,,,1,0.4512507498729974,N,True,1,,,,,
n-back,,,,84,3,,,,1,None,Z,False,None,,,,,
n-back,,,,85,3,,,,1,None,V,False,None,,,,,
n-back,,,,86,3,,,,1,0.4595264168456197,Z,True,1,,,,,
n-back,,,,87,3,,,,0,None,V,True,None,,,,,
n-back,,,,88,3,,,,0,None,Z,True,None,,,,,
n-back,,,,89,3,,,,1,None,N,False,None,,,,,
n-back,,,,90,3,,,,1,None,B,False,None,,,,,
choice,fixation,150.90788208297454,152.16124762501568,17,3,,,,,,,,,Solid,,,,
choice,option,152.17018191702664,153.1983954999596,17,3,,,,,,,,,Solid,,,,
choice,choice,153.19851204194129,159.6594890418928,17,3,,,1,1,5.449447999941185,,,,Solid,,,,
choice,fixation,159.6596143329516,161.16499695787206,18,3,,,,,,,,,Animal,,,,
choice,option,161.17411416699179,162.20229399995878,18,3,,,,,,,,,Animal,,,,
choice,choice,162.20240158285014,165.0573990829289,18,3,,,1,1,1.8451766250655055,,,,Animal,,,,
choice,fixation,165.05759145785123,166.56260537495837,19,3,,,,,,,,,Sea,,,,
choice,option,166.5708927079104,167.59749075002037,19,3,,,,,,,,,Sea,,,,
choice,choice,167.59759904188104,169.05684895790182,19,3,,,1,1,0.4486947499681264,,,,Sea,,,,
choice,fixation,169.0569739579223,170.06155895791017,20,3,,,,,,,,,Large,,,,
choice,option,170.07016816688702,171.09698616690002,20,3,,,,,,,,,Large,,,,
choice,choice,171.09708445798606,173.98602987499908,20,3,,,2,0,1.878378874855116,,,,Large,,,,
choice,fixation,173.98619741690345,175.2431679170113,21,3,,,,,,,,,Land,,,,
choice,option,175.252040958032,176.27822008286603,21,3,,,,,,,,,Land,,,,
choice,choice,176.27832516701892,177.70493599982,21,3,,,2,1,0.417026124894619,,,,Land,,,,
choice,fixation,177.70507066696882,178.4610218750313,22,3,,,,,,,,,Pattern,,,,
choice,option,178.47009983286262,179.4967116669286,22,3,,,,,,,,,Pattern,,,,
choice,choice,179.49680687487125,181.92233370803297,22,3,,,1,0,1.4143717498518527,,,,Pattern,,,,
choice,fixation,181.92246429203078,182.42769216699526,23,3,,,,,,,,,Object,,,,
choice,option,182.43708645785227,183.46338824997656,23,3,,,,,,,,,Object,,,,
choice,choice,183.4634887080174,185.31657379190437,23,3,,,2,1,0.8436330419499427,,,,Object,,,,
choice,fixation,185.31668854202144,186.82190566696227,24,3,,,,,,,,,Small,,,,
choice,option,186.8313579580281,187.86057049990632,24,3,,,,,,,,,Small,,,,
choice,choice,187.86068349983543,189.33015445782803,24,3,,,1,0,0.4599133748561144,,,,Small,,,,
memory,free_recall,216.70940575003624,233.46873650001362,12,3,,,,,,,,,,,,,
memory,value_recall,255.41178549989127,259.9466191669926,13,3,Animal_Sea_Solid_Small,,,,4.531608209013939,,,,,-5,,,
memory,value_recall,261.24336083303206,264.9397129579447,14,3,Object_Land_Pattern_Small,,,,3.692249499959871,,,,,-8,,,
memory,value_recall,266.48575100000016,269.66080791689456,15,3,Object_Land_Pattern_Large,,,,3.170774291967973,,,,,-4,,,
memory,value_recall,271.207716624951,273.4600799579639,16,3,Animal_Sea_Solid_Large,,,,2.248234458034858,,,,,-2,,,
memory,value_recall,275.2564922920428,277.0845643749926,17,3,Animal_Sea_Pattern_Small,,,,1.823799000121653,,,,,8,,,
memory,value_recall,278.1303199578542,284.0192344170064,18,3,Object_Land_Solid_Large,,,,5.885604250011966,,,,,8,,,
memory,spatial_recall,292.2168993749656,297.73734587500803,18,3,Object_Land_Solid_Large,,,1,5.5160148330032825,,,,,,"[329, -190]","[329, -190]",
memory,spatial_recall,299.54630629182793,301.1339184169192,18,3,Animal_Sea_Solid_Small,,,1,1.583364208927378,,,,,,"[-329, 190]","[-329, 190]",
memory,spatial_recall,302.4417883330025,303.53706454182975,18,3,Animal_Sea_Pattern_Small,,,1,1.0912069999612868,,,,,,"[-329, -190]","[-329, -190]",
memory,spatial_recall,305.3443196248263,306.4873479169328,18,3,Object_Land_Pattern_Small,,,1,1.1387761670630425,,,,,,"[329, 189]","[329, 189]",
memory,spatial_recall,308.547918374883,309.7209220419172,18,3,Object_Land_Pattern_Large,,,1,1.1691009169444442,,,,,,"[0, 380]","[0, 380]",
memory,spatial_recall,311.77791199996136,313.35126862488687,18,3,Animal_Sea_Solid_Large,,,1,1.5693054581061006,,,,,,"[0, -380]","[0, -380]",
encoding,fixation,8.213106291834265,8.968842959031463,19,4,Animal_Land_Pattern_Large,-8,,,,,,,,,,,
encoding,image,8.968953458825126,9.980502791935578,19,4,Animal_Land_Pattern_Large,-8,,,,,,,,,,,
encoding,value,9.980611542006955,15.995931583922356,19,4,Animal_Land_Pattern_Large,-8,,,,,,,,,,,
encoding,attention,15.996057834010571,19.013997583882883,19,4,Animal_Land_Pattern_Large,-8,-8,1,0.7228979580104351,,,,,,,,
encoding,fixation,19.014140833867714,19.519179709022865,20,4,Animal_Sea_Solid_Small,2,,,,,,,,,,,
encoding,image,19.51929383398965,20.530467999866232,20,4,Animal_Sea_Solid_Small,2,,,,,,,,,,,
encoding,value,20.530587208922952,26.54218141688034,20,4,Animal_Sea_Solid_Small,2,,,,,,,,,,,
encoding,attention,26.54229487502016,29.559793499996886,20,4,Animal_Sea_Solid_Small,2,+2,1,0.5913218329660594,,,,,,,,
encoding,fixation,29.5599531668704,30.81504770903848,21,4,Object_Land_Solid_Large,4,,,,,,,,,,,
encoding,image,30.815150334034115,31.825269459048286,21,4,Object_Land_Solid_Large,4,,,,,,,,,,,
encoding,value,31.82537570898421,37.837132500018924,21,4,Object_Land_Solid_Large,4,,,,,,,,,,,
encoding,attention,37.837265791837126,40.854460624977946,21,4,Object_Land_Solid_Large,4,+4,1,0.9233343750238419,,,,,,,,
encoding,fixation,40.85463070892729,42.35983974998817,22,4,Object_Sea_Solid_Small,-7,,,,,,,,,,,
encoding,image,42.36002083402127,43.37021833402105,22,4,Object_Sea_Solid_Small,-7,,,,,,,,,,,
encoding,value,43.370325583964586,49.381949041970074,22,4,Object_Sea_Solid_Small,-7,,,,,,,,,,,
encoding,attention,49.38207166688517,52.39933308400214,22,4,Object_Sea_Solid_Small,-7,-7,1,0.85643779207021,,,,,,,,
encoding,fixation,52.39953950000927,52.90455620898865,23,4,Animal_Sea_Pattern_Small,2,,,,,,,,,,,
encoding,image,52.90465366700664,53.915642083855346,23,4,Animal_Sea_Pattern_Small,2,,,,,,,,,,,
encoding,value,53.915751666994765,59.93021483393386,23,4,Animal_Sea_Pattern_Small,2,,,,,,,,,,,
encoding,attention,59.93035254185088,62.94838529196568,23,4,Animal_Sea_Pattern_Small,2,+2,1,2.252605958841741,,,,,,,,
encoding,fixation,62.94854679191485,63.95338320895098,24,4,Object_Land_Pattern_Large,5,,,,,,,,,,,
encoding,image,63.95349470898509,64.96540216682479,24,4,Object_Land_Pattern_Large,5,,,,,,,,,,,
encoding,value,64.9655044998508,70.97952454187907,24,4,Object_Land_Pattern_Large,5,,,,,,,,,,,
encoding,attention,70.97969612502493,73.99813012499362,24,4,Object_Land_Pattern_Large,5,+5,1,2.0206005829386413,,,,,,,,
n-back,,,,91,4,,,,1,None,C,False,None,,,,,
n-back,,,,92,4,,,,1,None,C,False,None,,,,,
n-back,,,,93,4,,,,1,None,B,False,None,,,,,
n-back,,,,94,4,,,,1,None,X,False,None,,,,,
n-back,,,,95,4,,,,1,0.5081297501455992,B,True,1,,,,,
n-back,,,,96,4,,,,1,None,C,False,None,,,,,
n-back,,,,97,4,,,,0,None,B,True,None,,,,,
n-back,,,,98,4,,,,1,None,X,False,None,,,,,
n-back,,,,99,4,,,,1,None,C,False,None,,,,,
n-back,,,,100,4,,,,1,None,C,False,None,,,,,
n-back,,,,101,4,,,,1,None,X,False,None,,,,,
n-back,,,,102,4,,,,1,None,V,False,None,,,,,
n-back,,,,103,4,,,,1,0.7241404999513179,X,True,1,,,,,
n-back,,,,104,4,,,,1,None,Z,False,None,,,,,
n-back,,,,105,4,,,,0,None,X,True,None,,,,,
n-back,,,,106,4,,,,1,None,X,False,None,,,,,
n-back,,,,107,4,,,,1,None,V,False,None,,,,,
n-back,,,,108,4,,,,1,None,Z,False,None,,,,,
n-back,,,,109,4,,,,1,None,B,False,None,,,,,
n-back,,,,110,4,,,,1,0.4990893329959363,Z,True,1,,,,,
n-back,,,,111,4,,,,1,None,X,False,None,,,,,
n-back,,,,112,4,,,,1,None,B,False,None,,,,,
n-back,,,,113,4,,,,1,1.1473783750552684,X,True,1,,,,,
n-back,,,,114,4,,,,1,None,Z,False,None,,,,,
n-back,,,,115,4,,,,0,None,X,True,None,,,,,
n-back,,,,116,4,,,,1,None,X,False,None,,,,,
n-back,,,,117,4,,,,1,None,C,False,None,,,,,
n-back,,,,118,4,,,,1,0.36537516582757235,X,True,1,,,,,
n-back,,,,119,4,,,,0,None,C,True,None,,,,,
n-back,,,,120,4,,,,0,None,X,True,None,,,,,
choice,fixation,152.98432191694155,154.2377122498583,25,4,,,,,,,,,Small,,,,
choice,option,154.2461870838888,155.27577670896426,25,4,,,,,,,,,Small,,,,
choice,choice,155.2758895000443,163.25633154204115,25,4,,,1,0,6.970347000053152,,,,Small,,,,
choice,fixation,163.25647129188292,164.76271070889197,26,4,,,,,,,,,Animal,,,,
choice,option,164.77179395896383,165.7998213339597,26,4,,,,,,,,,Animal,,,,
choice,choice,165.79993462492712,167.7513889169786,26,4,,,1,0,0.9412903340999037,,,,Animal,,,,
choice,fixation,167.75153720891103,168.50656320899725,27,4,,,,,,,,,Sea,,,,
choice,option,168.5148893338628,169.54200916690752,27,4,,,,,,,,,Sea,,,,
choice,choice,169.54212550004013,171.42279412504286,27,4,,,1,0,0.8713591669220477,,,,Sea,,,,
choice,fixation,171.42293695895933,172.42932012490928,28,4,,,,,,,,,Object,,,,
choice,option,172.4382523340173,173.46459758398123,28,4,,,,,,,,,Object,,,,
choice,choice,173.46470233402215,181.04186187498271,28,4,,,1,1,6.566733625018969,,,,Object,,,,
choice,fixation,181.04201837489381,181.54794408404268,29,4,,,,,,,,,Land,,,,
choice,option,181.5568087499123,182.5837775419932,29,4,,,,,,,,,Land,,,,
choice,choice,182.5839275419712,185.4670300418511,29,4,,,1,1,1.8732384589966387,,,,Land,,,,
choice,fixation,185.46714770887047,186.47214762493968,30,4,,,,,,,,,Pattern,,,,
choice,option,186.48170274985023,187.5083114998415,30,4,,,,,,,,,Pattern,,,,
choice,choice,187.50842108391225,195.25023566698655,30,4,,,1,0,6.732054791878909,,,,Pattern,,,,
choice,fixation,195.2503595838789,196.5055427919142,31,4,,,,,,,,,Large,,,,
choice,option,196.51449187495746,197.5418195000384,31,4,,,,,,,,,Large,,,,
choice,choice,197.54196491697803,204.48128433385864,31,4,,,1,1,5.929588624974713,,,,Large,,,,
choice,fixation,204.48140774993226,205.7367433749605,32,4,,,,,,,,,Solid,,,,
choice,option,205.74610741692595,206.77310908399522,32,4,,,,,,,,,Solid,,,,
choice,choice,206.77320900000632,210.02453049994074,32,4,,,1,0,2.2393289578612894,,,,Solid,,,,
memory,free_recall,236.90613287501037,251.7635847919155,18,4,,,,,,,,,,,,,
memory,value_recall,266.246164833894,272.17955095903017,19,4,Animal_Land_Pattern_Large,,,,5.9292292080353945,,,,,-8,,,
memory,value_recall,273.72521483385935,282.3226637088228,20,4,Animal_Sea_Pattern_Small,,,,8.59333995799534,,,,,2,,,
memory,value_recall,284.1225402089767,287.8132093339227,21,4,Object_Sea_Solid_Small,,,,3.686547250021249,,,,,-7,,,
memory,value_recall,289.85896787489764,292.77096058405004,22,4,Animal_Sea_Solid_Small,,,,2.907532500103116,,,,,2,,,
memory,value_recall,294.06664095888846,296.24405208393,23,4,Object_Land_Solid_Large,,,,2.173133083153516,,,,,4,,,
memory,value_recall,297.28955716686323,300.56374299991876,24,4,Object_Land_Pattern_Large,,,,3.2707789589185268,,,,,5,,,
memory,spatial_recall,307.9657614589669,310.54783479194157,24,4,Object_Land_Solid_Large,,,1,2.5781252500601113,,,,,,"[329, -190]","[329, -190]",
memory,spatial_recall,312.3650261249859,314.12049520900473,24,4,Object_Land_Pattern_Large,,,1,1.7515327078290284,,,,,,"[0, 380]","[0, 380]",
memory,spatial_recall,315.67961333389394,317.17818233394064,24,4,Animal_Sea_Pattern_Small,,,1,1.4944767500273883,,,,,,"[-329, -190]","[-329, -190]",
memory,spatial_recall,318.73467670893297,321.0731642500032,24,4,Object_Sea_Solid_Small,,,1,2.3343413749244064,,,,,,"[329, 189]","[329, 189]",
memory,spatial_recall,322.38049816689454,324.240305458894,24,4,Animal_Sea_Solid_Small,,,1,1.85575612494722,,,,,,"[-329, 190]","[-329, 190]",
memory,spatial_recall,325.54650679184124,326.9662867500447,24,4,Animal_Land_Pattern_Large,,,1,1.4154945418704301,,,,,,"[0, -380]","[0, -380]",
encoding,fixation,11.106115333037451,12.612216332927346,25,5,Object_Land_Solid_Small,8,,,,,,,,,,,
encoding,image,12.612331375014037,13.624680415960029,25,5,Object_Land_Solid_Small,8,,,,,,,,,,,
encoding,value,13.624832832952961,19.637865457916632,25,5,Object_Land_Solid_Small,8,,,,,,,,,,,
encoding,attention,19.637989124981686,22.655225874856114,25,5,Object_Land_Solid_Small,8,+8,1,0.9999637498985976,,,,,,,,
encoding,fixation,22.655373290879652,23.41083504096605,26,5,Object_Sea_Solid_Large,-7,,,,,,,,,,,
encoding,image,23.410956790903583,24.42328408290632,26,5,Object_Sea_Solid_Large,-7,,,,,,,,,,,
encoding,value,24.423415540950373,30.436349999858066,26,5,Object_Sea_Solid_Large,-7,,,,,,,,,,,
encoding,attention,30.436462207930163,33.45621974999085,26,5,Object_Sea_Solid_Large,-7,-7,1,1.5918888750020415,,,,,,,,
encoding,fixation,33.45639062486589,34.21279999986291,27,5,Object_Sea_Pattern_Small,-3,,,,,,,,,,,
encoding,image,34.21291529084556,35.22371562500484,27,5,Object_Sea_Pattern_Small,-3,,,,,,,,,,,
encoding,value,35.22382504097186,41.23541399999522,27,5,Object_Sea_Pattern_Small,-3,,,,,,,,,,,
encoding,attention,41.23554691602476,44.25376516603865,27,5,Object_Sea_Pattern_Small,-3,-3,1,2.265253874938935,,,,,,,,
encoding,fixation,44.25391924986616,45.7588396249339,28,5,Animal_Sea_Pattern_Large,8,,,,,,,,,,,
encoding,image,45.75896112504415,46.76934429095127,28,5,Animal_Sea_Pattern_Large,8,,,,,,,,,,,
encoding,value,46.769432332832366,52.78039779094979,28,5,Animal_Sea_Pattern_Large,8,,,,,,,,,,,
encoding,attention,52.780520875006914,55.79785720794462,28,5,Animal_Sea_Pattern_Large,8,+8,1,0.8731451670173556,,,,,,,,
encoding,fixation,55.79800912505016,56.803946665953845,29,5,Animal_Land_Solid_Large,-8,,,,,,,,,,,
encoding,image,56.804050541017205,57.81580370804295,29,5,Animal_Land_Solid_Large,-8,,,,,,,,,,,
encoding,value,57.81589970784262,63.82801429089159,29,5,Animal_Land_Solid_Large,-8,,,,,,,,,,,
encoding,attention,63.82813379098661,66.84760245797224,29,5,Animal_Land_Solid_Large,-8,-8,1,0.6001926669850945,,,,,,,,
encoding,fixation,66.84776429086924,68.35281116585247,30,5,Animal_Land_Pattern_Small,-3,,,,,,,,,,,
encoding,image,68.35292016598396,69.36387829086743,30,5,Animal_Land_Pattern_Small,-3,,,,,,,,,,,
encoding,value,69.36403208295815,75.37554258294404,30,5,Animal_Land_Pattern_Small,-3,,,,,,,,,,,
encoding,attention,75.3756571249105,78.39254437503405,30,5,Animal_Land_Pattern_Small,-3,-3,1,1.701951582916081,,,,,,,,
n-back,,,,121,5,,,,1,None,C,False,None,,,,,
n-back,,,,122,5,,,,0,None,X,True,None,,,,,
n-back,,,,123,5,,,,1,None,N,False,None,,,,,
n-back,,,,124,5,,,,1,None,V,False,None,,,,,
n-back,,,,125,5,,,,1,0.43391250004060566,N,True,1,,,,,
n-back,,,,126,5,,,,0,None,V,True,None,,,,,
n-back,,,,127,5,,,,1,None,Z,False,None,,,,,
n-back,,,,128,5,,,,1,0.5557611251715571,V,True,1,,,,,
n-back,,,,129,5,,,,1,None,N,False,None,,,,,
n-back,,,,130,5,,,,1,None,B,False,None,,,,,
n-back,,,,131,5,,,,1,0.6760580418631434,N,True,1,,,,,
n-back,,,,132,5,,,,0,None,B,True,None,,,,,
n-back,,,,133,5,,,,1,None,Z,False,None,,,,,
n-back,,,,134,5,,,,1,None,N,False,None,,,,,
n-back,,,,135,5,,,,1,0.8866820831317455,Z,True,1,,,,,
n-back,,,,136,5,,,,0,None,N,True,None,,,,,
n-back,,,,137,5,,,,1,None,N,False,None,,,,,
n-back,,,,138,5,,,,1,None,B,False,None,,,,,
n-back,,,,139,5,,,,1,None,B,False,None,,,,,
n-back,,,,140,5,,,,1,None,N,False,None,,,,,
n-back,,,,141,5,,,,1,None,N,False,None,,,,,
n-back,,,,142,5,,,,1,None,X,False,None,,,,,
n-back,,,,143,5,,,,1,None,B,False,None,,,,,
n-back,,,,144,5,,,,1,0.39614983391948044,X,True,1,,,,,
n-back,,,,145,5,,,,1,None,Z,False,None,,,,,
n-back,,,,146,5,,,,0,None,X,True,None,,,,,
n-back,,,,147,5,,,,1,None,V,False,None,,,,,
n-back,,,,148,5,,,,1,None,V,False,None,,,,,
n-back,,,,149,5,,,,1,None,X,False,None,,,,,
n-back,,,,150,5,,,,1,None,C,False,None,,,,,
choice,fixation,155.05446675000712,155.55765633285046,33,5,,,,,,,,,Small,,,,
choice,option,155.56693258299492,156.59367087483406,33,5,,,,,,,,,Small,,,,
choice,choice,156.59380625002086,159.99021399999037,33,5,,,1,1,2.386208541924134,,,,Small,,,,
choice,fixation,159.99032929097302,160.74749083304778,34,5,,,,,,,,,Large,,,,
choice,option,160.7559421248734,161.78382016601972,34,5,,,,,,,,,Large,,,,
choice,choice,161.78392424993217,168.56011783285066,34,5,,,1,0,5.765923250000924,,,,Large,,,,
choice,fixation,168.56024924991652,169.06539920787327,35,5,,,,,,,,,Sea,,,,
choice,option,169.0737609998323,170.1012597498484,35,5,,,,,,,,,Sea,,,,
choice,choice,170.1013635408599,172.5837002079934,35,5,,,1,0,1.4727825419977307,,,,Sea,,,,
choice,fixation,172.5838208750356,173.58879937487654,36,5,,,,,,,,,Pattern,,,,
choice,option,173.59798458288424,174.62446924997494,36,5,,,,,,,,,Pattern,,,,
choice,choice,174.6245685829781,186.4639929998666,36,5,,,2,0,10.828728625085205,,,,Pattern,,,,
choice,fixation,186.46412920788862,187.46912770788185,37,5,,,,,,,,,Land,,,,
choice,option,187.47779024997726,188.50474816584028,37,5,,,,,,,,,Land,,,,
choice,choice,188.50496691605076,195.51102554099634,37,5,,,2,1,5.995405999943614,,,,Land,,,,
choice,fixation,195.5111528330017,196.51616712496616,38,5,,,,,,,,,Solid,,,,
choice,option,196.5254444158636,197.55224529094994,38,5,,,,,,,,,Solid,,,,
choice,choice,197.55244795791805,203.59041149984114,38,5,,,1,0,5.02746191713959,,,,Solid,,,,
choice,fixation,203.59053487493657,204.59899308299646,39,5,,,,,,,,,Animal,,,,
choice,option,204.6080560409464,205.63638562499546,39,5,,,,,,,,,Animal,,,,
choice,choice,205.6365007078275,208.96921262494288,39,5,,,2,1,2.3226409589406103,,,,Animal,,,,
choice,fixation,208.9693399160169,210.22426462499425,40,5,,,,,,,,,Object,,,,
choice,option,210.23326520784758,211.25990937487222,40,5,,,,,,,,,Object,,,,
choice,choice,211.26005066605285,219.871804791037,40,5,,,1,0,7.6014821249991655,,,,Object,,,,
memory,free_recall,239.2251131250523,257.45631266594864,24,5,,,,,,,,,,,,,
memory,value_recall,272.56995737482794,275.6740022080485,25,5,Object_Land_Solid_Small,,,,3.0999567499384284,,,,,8,,,
memory,value_recall,276.72302112495527,279.20806287485175,26,5,Object_Sea_Pattern_Small,,,,2.481465208111331,,,,,-3,,,
memory,value_recall,281.00639912486076,284.17027662484907,27,5,Animal_Land_Pattern_Small,,,,3.1596103329211473,,,,,-3,,,
memory,value_recall,285.21699516591616,287.88861108291894,28,5,Object_Sea_Solid_Large,,,,2.669159834040329,,,,,-7,,,
memory,value_recall,288.93406570795923,291.94789824984036,29,5,Animal_Land_Solid_Large,,,,3.0106835409533232,,,,,-8,,,
memory,value_recall,293.99458987498656,296.4325986248441,30,5,Animal_Sea_Pattern_Large,,,,2.433778916951269,,,,,8,,,
memory,spatial_recall,303.928249332821,311.38292804104276,30,5,Animal_Land_Solid_Large,,,0,7.45055495784618,,,,,,"[-329, -190]","[-329, 190]",
memory,spatial_recall,312.4435917499941,314.2917073329445,30,5,Object_Land_Solid_Small,,,0,1.843873499892652,,,,,,"[-329, 190]","[-329, -190]",
memory,spatial_recall,315.84948604088277,318.6117002910469,30,5,Object_Sea_Solid_Large,,,1,2.758181249955669,,,,,,"[329, -190]","[329, -190]",
memory,spatial_recall,319.92452962487005,321.5669555000495,30,5,Animal_Land_Pattern_Small,,,1,1.637005708180368,,,,,,"[0, 380]","[0, 380]",
memory,spatial_recall,322.87111512501724,324.1252703750506,30,5,Animal_Sea_Pattern_Large,,,1,1.2501196670345962,,,,,,"[329, 189]","[329, 189]",
memory,spatial_recall,326.18205037503503,328.4411982910242,30,5,Object_Sea_Pattern_Small,,,1,2.2550713748205453,,,,,,"[0, -380]","[0, -380]",
encoding,fixation,7.513412333093584,8.01960266707465,31,6,Animal_Sea_Solid_Large,5,,,,,,,,,,,
encoding,image,8.019723542034626,9.032492249971256,31,6,Animal_Sea_Solid_Large,5,,,,,,,,,,,
encoding,value,9.032609082991257,15.045881625032052,31,6,Animal_Sea_Solid_Large,5,,,,,,,,,,,
encoding,attention,15.045987042132765,18.064220500178635,31,6,Animal_Sea_Solid_Large,5,+5,1,0.5972720419522375,,,,,,,,
encoding,fixation,18.064364457968622,19.070297833066434,32,6,Object_Land_Solid_Large,-2,,,,,,,,,,,
encoding,image,19.07041491707787,20.08154799998738,32,6,Object_Land_Solid_Large,-2,,,,,,,,,,,
encoding,value,20.08166641695425,26.092977666994557,32,6,Object_Land_Solid_Large,-2,,,,,,,,,,,
encoding,attention,26.093111792113632,29.109140708111227,32,6,Object_Land_Solid_Large,-2,-2,1,0.7347429161891341,,,,,,,,
encoding,fixation,29.10928887501359,30.614660625113174,33,6,Object_Land_Pattern_Small,9,,,,,,,,,,,
encoding,image,30.614813458174467,31.626222833059728,33,6,Object_Land_Pattern_Small,9,,,,,,,,,,,
encoding,value,31.626335583161563,37.63850750005804,33,6,Object_Land_Pattern_Small,9,,,,,,,,,,,
encoding,attention,37.638672625180334,40.66273825010285,33,6,Object_Land_Pattern_Small,9,+9,1,0.859446374932304,,,,,,,,
encoding,fixation,40.662943500094116,41.66939033311792,34,6,Animal_Sea_Solid_Small,-1,,,,,,,,,,,
encoding,image,41.66951150004752,42.681347750127316,34,6,Animal_Sea_Solid_Small,-1,,,,,,,,,,,
encoding,value,42.681474667042494,48.69499225006439,34,6,Animal_Sea_Solid_Small,-1,,,,,,,,,,,
encoding,attention,48.69510750006884,51.719679125119,34,6,Animal_Sea_Solid_Small,-1,-1,1,1.4975160001777112,,,,,,,,
encoding,fixation,51.71984508307651,52.4768582500983,35,6,Object_Land_Pattern_Large,-5,,,,,,,,,,,
encoding,image,52.4769579579588,53.48877833317965,35,6,Object_Land_Pattern_Large,-5,,,,,,,,,,,
encoding,value,53.48889287514612,59.50154337496497,35,6,Object_Land_Pattern_Large,-5,,,,,,,,,,,
encoding,attention,59.50170454196632,62.526588750071824,35,6,Object_Land_Pattern_Large,-5,-5,1,1.0412232500966638,,,,,,,,
encoding,fixation,62.52674329211004,63.0336476250086,36,6,Animal_Sea_Pattern_Small,-2,,,,,,,,,,,
encoding,image,63.03374766698107,64.04520216700621,36,6,Animal_Sea_Pattern_Small,-2,,,,,,,,,,,
encoding,value,64.04530066717416,70.0582244170364,36,6,Animal_Sea_Pattern_Small,-2,,,,,,,,,,,
encoding,attention,70.05834212503396,73.07792020798661,36,6,Animal_Sea_Pattern_Small,-2,-2,1,2.543960666982457,,,,,,,,
n-back,,,,151,6,,,,1,None,V,False,None,,,,,
n-back,,,,152,6,,,,0,None,V,True,None,,,,,
n-back,,,,153,6,,,,1,None,B,False,None,,,,,
n-back,,,,154,6,,,,1,None,Z,False,None,,,,,
n-back,,,,155,6,,,,1,None,X,False,None,,,,,
n-back,,,,156,6,,,,1,0.4171092079486698,Z,True,1,,,,,
n-back,,,,157,6,,,,1,None,B,False,None,,,,,
n-back,,,,158,6,,,,1,None,X,False,None,,,,,
n-back,,,,159,6,,,,1,None,V,False,None,,,,,
n-back,,,,160,6,,,,1,None,V,False,None,,,,,
n-back,,,,161,6,,,,1,None,B,False,None,,,,,
n-back,,,,162,6,,,,1,None,N,False,None,,,,,
n-back,,,,163,6,,,,1,0.4194652079604566,B,True,1,,,,,
n-back,,,,164,6,,,,0,None,N,True,None,,,,,
n-back,,,,165,6,,,,1,None,X,False,None,,,,,
n-back,,,,166,6,,,,1,None,X,False,None,,,,,
n-back,,,,167,6,,,,1,None,V,False,None,,,,,
n-back,,,,168,6,,,,1,None,V,False,None,,,,,
n-back,,,,169,6,,,,1,None,B,False,None,,,,,
n-back,,,,170,6,,,,1,0.36957162502221763,V,True,1,,,,,
n-back,,,,171,6,,,,1,None,X,False,None,,,,,
n-back,,,,172,6,,,,0,None,V,True,None,,,,,
n-back,,,,173,6,,,,1,0.7867994580883533,X,True,1,,,,,
n-back,,,,174,6,,,,0,None,V,True,None,,,,,
n-back,,,,175,6,,,,0,None,X,True,None,,,,,
n-back,,,,176,6,,,,1,None,N,False,None,,,,,
n-back,,,,177,6,,,,0,None,X,True,None,,,,,
n-back,,,,178,6,,,,1,None,C,False,None,,,,,
n-back,,,,179,6,,,,1,None,N,False,None,,,,,
n-back,,,,180,6,,,,1,None,X,False,None,,,,,
choice,fixation,152.1853156669531,152.68890833295882,41,6,,,,,,,,,Object,,,,
choice,option,152.6990898749791,153.88438716717064,41,6,,,,,,,,,Object,,,,
choice,choice,153.8844899169635,155.8071709170472,41,6,,,1,1,0.913111750036478,,,,Object,,,,
choice,fixation,155.8072955829557,157.0628887079656,42,6,,,,,,,,,Small,,,,
choice,option,157.07233345811255,158.10127075016499,42,6,,,,,,,,,Small,,,,
choice,choice,158.10139233316295,161.0792838751804,42,6,,,1,1,1.9675482499878854,,,,Small,,,,
choice,fixation,161.07939929212444,162.0845862501301,43,6,,,,,,,,,Large,,,,
choice,option,162.0931592080742,163.12240100000054,43,6,,,,,,,,,Large,,,,
choice,choice,163.12252062512562,165.4943087080028,43,6,,,2,1,1.3614590000361204,,,,Large,,,,
choice,fixation,165.49444062495604,166.4995569579769,44,6,,,,,,,,,Land,,,,
choice,option,166.50825316715054,167.53789141704328,44,6,,,,,,,,,Land,,,,
choice,choice,167.53800333314575,172.32817804208025,44,6,,,1,1,3.7772629158571362,,,,Land,,,,
choice,fixation,172.32832808303647,172.83395637501962,45,6,,,,,,,,,Solid,,,,
choice,option,172.85020787501708,173.87735595810227,45,6,,,,,,,,,Solid,,,,
choice,choice,173.87747712503187,177.03917562495917,45,6,,,2,0,2.150622625136748,,,,Solid,,,,
choice,fixation,177.03932233317755,177.5470264579635,46,6,,,,,,,,,Animal,,,,
choice,option,177.55727683310397,178.58554900018498,46,6,,,,,,,,,Animal,,,,
choice,choice,178.5856620001141,182.22066404204816,46,6,,,2,0,2.6246920418925583,,,,Animal,,,,
choice,fixation,182.22087075002491,183.22641966701485,47,6,,,,,,,,,Sea,,,,
choice,option,183.23498358298093,184.26296299998648,47,6,,,,,,,,,Sea,,,,
choice,choice,184.2630663330201,186.94131441717036,47,6,,,2,0,1.6683530830778182,,,,Sea,,,,
choice,fixation,186.94144050008617,187.94675879203714,48,6,,,,,,,,,Pattern,,,,
choice,option,187.95695179211907,188.9862478331197,48,6,,,,,,,,,Pattern,,,,
choice,choice,188.9863457500469,195.37705529201776,48,6,,,1,1,5.377789083868265,,,,Pattern,,,,
memory,free_recall,209.2054449170828,227.6889839579817,30,6,,,,,,,,,,,,,
memory,value_recall,236.43268095818348,238.80835841712542,31,6,Animal_Sea_Solid_Large,,,,2.3714468751568347,,,,,5,,,
memory,value_recall,240.60689208307303,244.19138674996793,32,6,Animal_Sea_Solid_Small,,,,3.580176457995549,,,,,-1,,,
memory,value_recall,245.4934714171104,248.76751883304678,33,6,Object_Land_Pattern_Large,,,,3.269824624992907,,,,,-5,,,
memory,value_recall,250.31517291697673,252.39255187497474,34,6,Object_Land_Pattern_Small,,,,2.0727734158281237,,,,,9,,,
memory,value_recall,253.9398507080041,256.00854275003076,35,6,Object_Land_Solid_Large,,,,2.0644446248188615,,,,,-2,,,
memory,value_recall,257.30547866714187,259.56813137512654,36,6,Animal_Sea_Pattern_Small,,,,2.2581170829944313,,,,,-2,,,
memory,spatial_recall,266.64591445797123,271.94252170808613,36,6,Object_Land_Solid_Large,,,1,5.2925621250178665,,,,,,"[329, -190]","[329, -190]",
memory,spatial_recall,273.5057099170517,275.1495439580176,36,6,Object_Land_Pattern_Large,,,1,1.6394518751185387,,,,,,"[0, 380]","[0, 380]",
memory,spatial_recall,276.710372333182,278.03440570808016,36,6,Object_Land_Pattern_Small,,,1,1.3200641670264304,,,,,,"[329, 189]","[329, 189]",
memory,spatial_recall,280.09356191707775,288.9588818331249,36,6,Animal_Sea_Solid_Large,,,0,8.860624250024557,,,,,,"[0, -380]","[-329, -190]",
memory,spatial_recall,290.5171787920408,292.1928464581724,36,6,Animal_Sea_Pattern_Small,,,0,1.6716249999590218,,,,,,"[-329, -190]","[-329, 190]",
memory,spatial_recall,293.25055341701955,294.9896846669726,36,6,Animal_Sea_Solid_Small,,,0,1.7367279168684036,,,,,,"[-329, 190]","[0, -380]",
encoding,fixation,5.214358041062951,6.220471791224554,37,7,Object_Sea_Pattern_Large,6,,,,,,,,,,,
encoding,image,6.220620916225016,7.233494458021596,37,7,Object_Sea_Pattern_Large,6,,,,,,,,,,,
encoding,value,7.233617958147079,13.247277833055705,37,7,Object_Sea_Pattern_Large,6,,,,,,,,,,,
encoding,attention,13.247382333036512,16.264601791044697,37,7,Object_Sea_Pattern_Large,6,+6,1,0.8991811668965966,,,,,,,,
encoding,fixation,16.26476295804605,17.52012520818971,38,7,Object_Land_Solid_Small,-8,,,,,,,,,,,
encoding,image,17.520230708178133,18.53139283321798,38,7,Object_Land_Solid_Small,-8,,,,,,,,,,,
encoding,value,18.531500458018854,24.543700291076675,38,7,Object_Land_Solid_Small,-8,,,,,,,,,,,
encoding,attention,24.543813583208248,27.562837166013196,38,7,Object_Land_Solid_Small,-8,-8,1,0.6006044170353562,,,,,,,,
encoding,fixation,27.56298958300613,29.067279000068083,39,7,Object_Sea_Pattern_Small,1,,,,,,,,,,,
encoding,image,29.06749325012788,30.078296833205968,39,7,Object_Sea_Pattern_Small,1,,,,,,,,,,,
encoding,value,30.078398750163615,36.09204366616905,39,7,Object_Sea_Pattern_Small,1,,,,,,,,,,,
encoding,attention,36.09217745810747,39.111772208008915,39,7,Object_Sea_Pattern_Small,1,+1,1,0.8146068751811981,,,,,,,,
encoding,fixation,39.111971208127216,40.61746225017123,40,7,Animal_Land_Solid_Large,3,,,,,,,,,,,
encoding,image,40.617569166002795,41.629210458137095,40,7,Animal_Land_Solid_Large,3,,,,,,,,,,,
encoding,value,41.62932066619396,47.64098804118112,40,7,Animal_Land_Solid_Large,3,,,,,,,,,,,
encoding,attention,47.641118000028655,50.65941537520848,40,7,Animal_Land_Solid_Large,3,+3,1,0.5220919591374695,,,,,,,,
encoding,fixation,50.65956729114987,52.164675125153735,41,7,Animal_Land_Solid_Small,1,,,,,,,,,,,
encoding,image,52.16479762503877,53.17619370808825,41,7,Animal_Land_Solid_Small,1,,,,,,,,,,,
encoding,value,53.17633533314802,59.18773075006902,41,7,Animal_Land_Solid_Small,1,,,,,,,,,,,
encoding,attention,59.18783679115586,62.205218208022416,41,7,Animal_Land_Solid_Small,1,+1,1,0.7261259160004556,,,,,,,,
encoding,fixation,62.20537429116666,62.71162129100412,42,7,Animal_Sea_Pattern_Large,-8,,,,,,,,,,,
encoding,image,62.71174891619012,63.722368291113526,42,7,Animal_Sea_Pattern_Large,-8,,,,,,,,,,,
encoding,value,63.72248145821504,69.73318279115483,42,7,Animal_Sea_Pattern_Large,-8,,,,,,,,,,,
encoding,attention,69.73332050000317,72.75097637507133,42,7,Animal_Sea_Pattern_Large,-8,-8,1,2.2940724578220397,,,,,,,,
n-back,,,,181,7,,,,0,None,X,True,None,,,,,
n-back,,,,182,7,,,,0,None,V,True,None,,,,,
n-back,,,,183,7,,,,1,None,V,False,None,,,,,
n-back,,,,184,7,,,,1,None,C,False,None,,,,,
n-back,,,,185,7,,,,1,None,Z,False,None,,,,,
n-back,,,,186,7,,,,1,0.34011333412490785,C,True,1,,,,,
n-back,,,,187,7,,,,1,None,B,False,None,,,,,
n-back,,,,188,7,,,,0,None,C,True,None,,,,,
n-back,,,,189,7,,,,1,0.6242962919641286,B,True,1,,,,,
n-back,,,,190,7,,,,1,None,B,False,None,,,,,
n-back,,,,191,7,,,,1,None,N,False,None,,,,,
n-back,,,,192,7,,,,1,0.48301070812158287,B,True,1,,,,,
n-back,,,,193,7,,,,1,None,C,False,None,,,,,
n-back,,,,194,7,,,,1,None,N,False,None,,,,,
n-back,,,,195,7,,,,1,None,N,False,None,,,,,
n-back,,,,196,7,,,,1,None,C,False,None,,,,,
n-back,,,,197,7,,,,1,None,B,False,None,,,,,
n-back,,,,198,7,,,,1,0.3915073750540614,C,True,1,,,,,
n-back,,,,199,7,,,,1,None,Z,False,None,,,,,
n-back,,,,200,7,,,,1,None,X,False,None,,,,,
n-back,,,,201,7,,,,1,None,V,False,None,,,,,
n-back,,,,202,7,,,,1,None,B,False,None,,,,,
n-back,,,,203,7,,,,1,None,X,False,None,,,,,
n-back,,,,204,7,,,,1,None,V,False,None,,,,,
n-back,,,,205,7,,,,1,None,V,False,None,,,,,
n-back,,,,206,7,,,,1,0.6734729998279363,V,True,1,,,,,
n-back,,,,207,7,,,,1,None,B,False,None,,,,,
n-back,,,,208,7,,,,0,None,V,True,None,,,,,
n-back,,,,209,7,,,,1,0.4499493751209229,B,True,1,,,,,
n-back,,,,210,7,,,,1,None,Z,False,None,,,,,
choice,fixation,142.15605904115364,142.90963354101405,49,7,,,,,,,,,Sea,,,,
choice,option,142.9183089581784,143.94537037517875,49,7,,,,,,,,,Sea,,,,
choice,choice,143.94551041605882,148.11618083319627,49,7,,,2,1,3.1608024169690907,,,,Sea,,,,
choice,fixation,148.11637645820156,149.62142829108052,50,7,,,,,,,,,Pattern,,,,
choice,option,149.6303062501829,150.66231770813465,50,7,,,,,,,,,Pattern,,,,
choice,choice,150.66241837502457,161.7975747080054,50,7,,,2,1,10.124778083059937,,,,Pattern,,,,
choice,fixation,161.79769133310765,162.3028098330833,51,7,,,,,,,,,Object,,,,
choice,option,162.31278112507425,163.34200808312744,51,7,,,,,,,,,Object,,,,
choice,choice,163.3421144161839,172.22980683320202,51,7,,,1,0,7.8777170409448445,,,,Object,,,,
choice,fixation,172.2299528750591,172.7361218330916,52,7,,,,,,,,,Land,,,,
choice,option,172.74506004108116,173.77298141620122,52,7,,,,,,,,,Land,,,,
choice,choice,173.77310387510806,178.90840025013313,52,7,,,1,0,4.124851249856874,,,,Land,,,,
choice,fixation,178.9085196251981,179.6640045410022,53,7,,,,,,,,,Animal,,,,
choice,option,179.6734690410085,180.70054537500255,53,7,,,,,,,,,Animal,,,,
choice,choice,180.700644625118,188.39764529117383,53,7,,,2,1,6.68713766685687,,,,Animal,,,,
choice,fixation,188.39776862505823,189.15278837503865,54,7,,,,,,,,,Solid,,,,
choice,option,189.16209783311933,190.1895563751459,54,7,,,,,,,,,Solid,,,,
choice,choice,190.1896666660905,198.26285800011829,54,7,,,2,1,7.063101082807407,,,,Solid,,,,
choice,fixation,198.26298466604203,199.7684459160082,55,7,,,,,,,,,Small,,,,
choice,option,199.77740062517114,200.80548758315854,55,7,,,,,,,,,Small,,,,
choice,choice,200.8056098751258,207.77253779117018,55,7,,,2,1,5.957133458927274,,,,Small,,,,
choice,fixation,207.77273875009269,209.02783479122445,56,7,,,,,,,,,Large,,,,
choice,option,209.03664275002666,210.064614625182,56,7,,,,,,,,,Large,,,,
choice,choice,210.06473795813508,216.556997833075,56,7,,,1,1,5.482392292004079,,,,Large,,,,
memory,free_recall,227.57591404113919,243.69582200003788,36,7,,,,,,,,,,,,,
memory,value_recall,254.8481179580558,257.918255666038,37,7,Object_Sea_Pattern_Large,,,,3.065565333934501,,,,,6,,,
memory,value_recall,259.96676312503405,262.4577932502143,38,7,Animal_Land_Solid_Small,,,,2.4867490420583636,,,,,1,,,
memory,value_recall,264.5043059580494,267.6039984161034,39,7,Animal_Sea_Pattern_Large,,,,3.095122375059873,,,,,-8,,,
memory,value_recall,269.1493557500653,273.8784629581496,40,7,Object_Sea_Pattern_Small,,,,4.724469875218347,,,,,1,,,
memory,value_recall,275.42657050001435,277.83982375008054,41,7,Animal_Land_Solid_Large,,,,2.4089848750736564,,,,,3,,,
memory,value_recall,279.637109833071,281.9438421661034,42,7,Object_Land_Solid_Small,,,,2.302449750015512,,,,,-8,,,
memory,spatial_recall,289.1315375410486,292.16648320807144,42,7,Object_Land_Solid_Small,,,1,3.031013124855235,,,,,,"[-329, 190]","[-329, 190]",
memory,spatial_recall,293.4760691660922,295.152972541051,42,7,Animal_Land_Solid_Large,,,1,1.6727884171996266,,,,,,"[-329, -190]","[-329, -190]",
memory,spatial_recall,297.2081055410672,299.08634216617793,42,7,Animal_Sea_Pattern_Large,,,1,1.8731914160307497,,,,,,"[329, 189]","[329, 189]",
memory,spatial_recall,300.14243245800026,301.870221166173,42,7,Object_Sea_Pattern_Small,,,1,1.7252791251521558,,,,,,"[0, -380]","[0, -380]",
memory,spatial_recall,303.42552641616203,304.64949758304283,42,7,Animal_Land_Solid_Small,,,1,1.2197950421832502,,,,,,"[329, -190]","[329, -190]",
memory,spatial_recall,306.20780625008047,307.45270216604695,42,7,Object_Sea_Pattern_Large,,,1,1.2408747500739992,,,,,,"[0, 380]","[0, 380]",
