phase,event,onset,offset,trial_number,game,image,outcome,choice,correct,rt,letter,match,response,option,true_value,true_position,recalled_position,
encoding,fixation,15.667098375037313,16.68304945784621,1,1,Animal_Sea_Solid_Small,6,,,,,,,,,,,
encoding,image,16.683178582927212,17.70497041591443,1,1,Animal_Sea_Solid_Small,6,,,,,,,,,,,
encoding,value,17.705088957911357,23.72106379107572,1,1,Animal_Sea_Solid_Small,6,,,,,,,,,,,
encoding,attention,23.72117833304219,26.738704290939495,1,1,Animal_Sea_Solid_Small,6,+6,1,2.67358437506482,,,,,,,,
encoding,fixation,26.738866582978517,27.243746457854286,2,1,Object_Land_Pattern_Small,2,,,,,,,,,,,
encoding,image,27.24394454085268,28.254458624869585,2,1,Object_Land_Pattern_Small,2,,,,,,,,,,,
encoding,value,28.254569041077048,34.266959625063464,2,1,Object_Land_Pattern_Small,2,,,,,,,,,,,
encoding,attention,34.26707937498577,37.28657520795241,2,1,Object_Land_Pattern_Small,2,+2,1,1.435111541999504,,,,,,,,
encoding,fixation,37.2867437498644,38.29207958304323,3,1,Animal_Land_Pattern_Large,-2,,,,,,,,,,,
encoding,image,38.29219862492755,39.30327683291398,3,1,Animal_Land_Pattern_Large,-2,,,,,,,,,,,
encoding,value,39.30345245799981,45.31565629085526,3,1,Animal_Land_Pattern_Large,-2,,,,,,,,,,,
encoding,attention,45.315766083076596,48.33327287505381,3,1,Animal_Land_Pattern_Large,-2,-2,1,1.2429254171438515,,,,,,,,
encoding,fixation,48.333431999897584,49.33861941588111,4,1,Object_Sea_Pattern_Large,1,,,,,,,,,,,
encoding,image,49.33872637501918,50.34982324996963,4,1,Object_Sea_Pattern_Large,1,,,,,,,,,,,
encoding,value,50.349932624958456,56.36116720805876,4,1,Object_Sea_Pattern_Large,1,,,,,,,,,,,
encoding,attention,56.36128520802595,59.38170608296059,4,1,Object_Sea_Pattern_Large,1,+1,1,1.0678049169946462,,,,,,,,
encoding,fixation,59.381866625044495,59.887262291042134,5,1,Animal_Land_Solid_Large,-3,,,,,,,,,,,
encoding,image,59.887373874895275,60.89917895803228,5,1,Animal_Land_Solid_Large,-3,,,,,,,,,,,
encoding,value,60.89930420788005,66.91194295790046,5,1,Animal_Land_Solid_Large,-3,,,,,,,,,,,
encoding,attention,66.91206245799549,69.97425283305347,5,1,Animal_Land_Solid_Large,-3,None,None,None,,,,,,,,
encoding,fixation,69.97437891596928,70.4821755408775,6,1,Object_Sea_Solid_Small,-6,,,,,,,,,,,
encoding,image,70.48228779085912,71.49265845795162,6,1,Object_Sea_Solid_Small,-6,,,,,,,,,,,
encoding,value,71.49277441599406,77.5032660830766,6,1,Object_Sea_Solid_Small,-6,,,,,,,,,,,
encoding,attention,77.5033880409319,80.52031795796938,6,1,Object_Sea_Solid_Small,-6,-6,1,0.7583910410758108,,,,,,,,
n-back,,,,1,1,,,,1,None,C,False,None,,,,,
n-back,,,,2,1,,,,1,None,V,False,None,,,,,
n-back,,,,3,1,,,,1,None,B,False,None,,,,,
n-back,,,,4,1,,,,1,0.7815649169497192,V,True,1,,,,,
n-back,,,,5,1,,,,1,None,V,False,None,,,,,
n-back,,,,6,1,,,,0,None,V,True,None,,,,,
n-back,,,,7,1,,,,1,None,N,False,None,,,,,
n-back,,,,8,1,,,,1,None,C,False,None,,,,,
n-back,,,,9,1,,,,1,0.673478625016287,N,True,1,,,,,
n-back,,,,10,1,,,,1,1.0301080839708447,C,True,1,,,,,
n-back,,,,11,1,,,,1,None,Z,False,None,,,,,
n-back,,,,12,1,,,,0,0.8001957079395652,N,False,1,,,,,
n-back,,,,13,1,,,,1,None,B,False,None,,,,,
n-back,,,,14,1,,,,1,0.7529984579887241,N,True,1,,,,,
n-back,,,,15,1,,,,1,0.9959201251622289,B,True,1,,,,,
n-back,,,,16,1,,,,1,None,B,False,None,,,,,
n-back,,,,17,1,,,,1,None,V,False,None,,,,,
n-back,,,,18,1,,,,1,None,C,False,None,,,,,
n-back,,,,19,1,,,,1,0.6336120420601219,V,True,1,,,,,
n-back,,,,20,1,,,,1,None,N,False,None,,,,,
n-back,,,,21,1,,,,0,None,V,True,None,,,,,
n-back,,,,22,1,,,,1,None,X,False,None,,,,,
n-back,,,,23,1,,,,1,1.1740537921432406,V,True,1,,,,,
n-back,,,,24,1,,,,1,None,C,False,None,,,,,
n-back,,,,25,1,,,,1,None,C,False,None,,,,,
n-back,,,,26,1,,,,1,None,Z,False,None,,,,,
n-back,,,,27,1,,,,1,None,N,False,None,,,,,
n-back,,,,28,1,,,,1,None,X,False,None,,,,,
n-back,,,,29,1,,,,1,None,X,False,None,,,,,
n-back,,,,30,1,,,,1,0.7017514579929411,X,True,1,,,,,
choice,fixation,164.6330705829896,165.13880091602914,1,1,,,,,,,,,Solid,,,,
choice,option,165.14823137503117,166.3830706658773,1,1,,,,,,,,,Solid,,,,
choice,choice,166.38318387488835,171.1275684160646,1,1,,,1,0,3.7345881250221282,,,,Solid,,,,
choice,fixation,171.12780637503602,172.38274612487294,2,1,,,,,,,,,Land,,,,
choice,option,172.39153666584753,173.4195342909079,2,1,,,,,,,,,Land,,,,
choice,choice,173.4196970409248,178.59097970789298,2,1,,,2,1,4.16148979216814,,,,Land,,,,
choice,fixation,178.59109883289784,179.10008162492886,3,1,,,,,,,,,Animal,,,,
choice,option,179.109574083006,180.13673137500882,3,1,,,,,,,,,Animal,,,,
choice,choice,180.13683479093015,184.3116291249171,3,1,,,1,1,3.165414375020191,,,,Animal,,,,
choice,fixation,184.31175062502734,185.8167565409094,4,1,,,,,,,,,Large,,,,
choice,option,185.82567599997856,186.85327962506562,4,1,,,,,,,,,Large,,,,
choice,choice,186.85339824995026,190.15448370785452,4,1,,,1,0,2.290864707902074,,,,Large,,,,
choice,fixation,190.15459766588174,191.15931195789017,5,1,,,,,,,,,Sea,,,,
choice,option,191.16769954096526,192.19437966588885,5,1,,,,,,,,,Sea,,,,
choice,choice,192.1944987499155,194.33601362491027,5,1,,,2,0,1.1324224169366062,,,,Sea,,,,
choice,fixation,194.33614658284932,194.84097087499686,6,1,,,,,,,,,Small,,,,
choice,option,194.8494559158571,195.87643779092468,6,1,,,,,,,,,Small,,,,
choice,choice,195.8765667078551,200.83151679090224,6,1,,,1,1,3.9426049578469247,,,,Small,,,,
choice,fixation,200.83165754098445,202.0865215829108,7,1,,,,,,,,,Object,,,,
choice,option,202.09608608298004,203.12326029106043,7,1,,,,,,,,,Object,,,,
choice,choice,203.12336570792831,205.46238737506792,7,1,,,2,1,1.3297192500904202,,,,Object,,,,
choice,fixation,205.46250099991448,206.96848266595043,8,1,,,,,,,,,Pattern,,,,
choice,option,206.97834099992178,208.00570075004362,8,1,,,,,,,,,Pattern,,,,
choice,choice,208.00582783296704,211.2073952499777,8,1,,,1,1,2.1916009578853846,,,,Pattern,,,,
memory,free_recall,271.85709366598167,292.5470453328453,0,1,,,,,,,,,,,,,
memory,value_recall,335.67590216593817,338.68925858289003,1,1,Object_Land_Pattern_Small,,,,3.0098954159766436,,,,,2,,,
memory,value_recall,340.4844848329667,343.28076649992727,2,1,Animal_Land_Solid_Large,,,,2.792439457960427,,,,,-3,,,
memory,value_recall,344.5785918328911,348.890865040943,3,1,Object_Sea_Pattern_Large,,,,4.308462375076488,,,,,1,,,
memory,value_recall,349.94168333290145,355.78539370791987,4,1,Animal_Sea_Solid_Small,,,,5.837991124950349,,,,,6,,,
memory,value_recall,357.83322120807134,361.43434458295815,5,1,Animal_Land_Pattern_Large,,,,3.5971000830177218,,,,,-2,,,
memory,value_recall,363.4815512499772,365.84931837487966,6,1,Object_Sea_Solid_Small,,,,2.363558583892882,,,,,-6,,,
memory,spatial_recall,384.15523024997674,391.74977354099974,6,1,Animal_Land_Pattern_Large,,,1,7.590824750019237,,,,,,"[0, 380]","[0, 380]",
memory,spatial_recall,393.5595608330332,397.1824598328676,6,1,Animal_Land_Solid_Large,,,1,3.6184710001107305,,,,,,"[329, -190]","[329, -190]",
memory,spatial_recall,398.739522916032,402.94790770788677,6,1,Animal_Sea_Solid_Small,,,1,4.204566291067749,,,,,,"[-329, -190]","[-329, -190]",
memory,spatial_recall,404.2539023749996,406.7497422499582,6,1,Object_Sea_Pattern_Large,,,1,2.4917996251024306,,,,,,"[329, 189]","[329, 189]",
memory,spatial_recall,408.30645412486047,409.9090699160006,6,1,Object_Land_Pattern_Small,,,1,1.5985679998993874,,,,,,"[0, -380]","[0, -380]",
memory,spatial_recall,411.2140829160344,412.8921602908522,6,1,Object_Sea_Solid_Small,,,1,1.6741321661975235,,,,,,"[-329, 190]","[-329, 190]",
encoding,fixation,15.120222332887352,15.62645912496373,7,2,Animal_Sea_Solid_Large,-7,,,,,,,,,,,
encoding,image,15.626594165805727,16.639334874926135,7,2,Animal_Sea_Solid_Large,-7,,,,,,,,,,,
encoding,value,16.639496207935736,22.652573375031352,7,2,Animal_Sea_Solid_Large,-7,,,,,,,,,,,
encoding,attention,22.652690957998857,25.67076754081063,7,2,Animal_Sea_Solid_Large,-7,-7,1,1.7215207091066986,,,,,,,,
encoding,fixation,25.670913540991023,26.176259957952425,8,2,Object_Sea_Pattern_Small,-1,,,,,,,,,,,
encoding,image,26.176370665896684,27.18843708280474,8,2,Object_Sea_Pattern_Small,-1,,,,,,,,,,,
encoding,value,27.18853929103352,33.20021649985574,8,2,Object_Sea_Pattern_Small,-1,,,,,,,,,,,
encoding,attention,33.20032687485218,36.21798787498847,8,2,Object_Sea_Pattern_Small,-1,-1,1,0.7799567910842597,,,,,,,,
encoding,fixation,36.21818595798686,37.72369908285327,9,2,Object_Land_Pattern_Large,-3,,,,,,,,,,,
encoding,image,37.72382529103197,38.73636908293702,9,2,Object_Land_Pattern_Large,-3,,,,,,,,,,,
encoding,value,38.73648937488906,44.74953691591509,9,2,Object_Land_Pattern_Large,-3,,,,,,,,,,,
encoding,attention,44.74964345782064,47.76889962493442,9,2,Object_Land_Pattern_Large,-3,-3,1,1.13121937494725,,,,,,,,
encoding,fixation,47.76908345799893,49.27510429080576,10,2,Animal_Land_Solid_Small,2,,,,,,,,,,,
encoding,image,49.27521420782432,50.286468165926635,10,2,Animal_Land_Solid_Small,2,,,,,,,,,,,
encoding,value,50.28660599980503,56.29791962495074,10,2,Animal_Land_Solid_Small,2,,,,,,,,,,,
encoding,attention,56.29802849981934,59.31461733300239,10,2,Animal_Land_Solid_Small,2,+2,1,0.9529292918741703,,,,,,,,
encoding,fixation,59.31479762494564,60.07361045782454,11,2,Animal_Land_Pattern_Small,3,,,,,,,,,,,
encoding,image,60.073738457867876,61.08549058297649,11,2,Animal_Land_Pattern_Small,3,,,,,,,,,,,
encoding,value,61.08561304095201,67.09772441582754,11,2,Animal_Land_Pattern_Small,3,,,,,,,,,,,
encoding,attention,67.09783254098147,70.1193777078297,11,2,Animal_Land_Pattern_Small,3,+3,1,2.1048618329223245,,,,,,,,
encoding,fixation,70.11952549987473,70.6244571658317,12,2,Object_Sea_Solid_Large,9,,,,,,,,,,,
encoding,image,70.62457020790316,71.63618087489158,12,2,Object_Sea_Solid_Large,9,,,,,,,,,,,
encoding,value,71.63630270794965,77.64887941582128,12,2,Object_Sea_Solid_Large,9,,,,,,,,,,,
encoding,attention,77.64900283282623,80.66710329102352,12,2,Object_Sea_Solid_Large,9,+9,1,1.178687416948378,,,,,,,,
n-back,,,,31,2,,,,1,None,C,False,None,,,,,
n-back,,,,32,2,,,,1,None,Z,False,None,,,,,
n-back,,,,33,2,,,,1,None,Z,False,None,,,,,
n-back,,,,34,2,,,,1,0.5801236249972135,Z,True,1,,,,,
n-back,,,,35,2,,,,1,None,N,False,None,,,,,
n-back,,,,36,2,,,,1,None,X,False,None,,,,,
n-back,,,,37,2,,,,1,0.6763962910044938,N,True,1,,,,,
n-back,,,,38,2,,,,1,None,V,False,None,,,,,
n-back,,,,39,2,,,,1,0.6675694580189884,N,True,1,,,,,
n-back,,,,40,2,,,,0,None,V,True,None,,,,,
n-back,,,,41,2,,,,1,None,Z,False,None,,,,,
n-back,,,,42,2,,,,1,None,N,False,None,,,,,
n-back,,,,43,2,,,,1,None,N,False,None,,,,,
n-back,,,,44,2,,,,0,0.8003314170055091,Z,False,1,,,,,
n-back,,,,45,2,,,,0,None,N,True,None,,,,,
n-back,,,,46,2,,,,1,None,C,False,None,,,,,
n-back,,,,47,2,,,,1,None,C,False,None,,,,,
n-back,,,,48,2,,,,1,None,N,False,None,,,,,
n-back,,,,49,2,,,,1,None,N,False,None,,,,,
n-back,,,,50,2,,,,1,None,C,False,None,,,,,
n-back,,,,51,2,,,,1,0.8208237499929965,N,True,1,,,,,
n-back,,,,52,2,,,,0,None,C,True,None,,,,,
n-back,,,,53,2,,,,1,None,C,False,None,,,,,
n-back,,,,54,2,,,,1,None,X,False,None,,,,,
n-back,,,,55,2,,,,1,None,Z,False,None,,,,,
n-back,,,,56,2,,,,0,0.7549167920369655,C,False,1,,,,,
n-back,,,,57,2,,,,1,1.3010154159273952,Z,True,1,,,,,
n-back,,,,58,2,,,,1,1.217633208958432,C,True,1,,,,,
n-back,,,,59,2,,,,0,None,Z,True,None,,,,,
n-back,,,,60,2,,,,1,None,Z,False,None,,,,,
choice,fixation,158.37730345781893,159.38092516595498,9,2,,,,,,,,,Animal,,,,
choice,option,159.3902364159003,160.41841766587459,9,2,,,,,,,,,Animal,,,,
choice,choice,160.41852816590108,166.14841124997474,9,2,,,2,1,4.719600582960993,,,,Animal,,,,
choice,fixation,166.1485357908532,167.4049620409496,10,2,,,,,,,,,Large,,,,
choice,option,167.4135917078238,168.4406023749616,10,2,,,,,,,,,Large,,,,
choice,choice,168.44071208289824,171.7583455829881,10,2,,,1,0,2.3083076658658683,,,,Large,,,,
choice,fixation,171.75846545794047,172.5134448329918,11,2,,,,,,,,,Object,,,,
choice,option,172.52345312503166,173.55160808283836,11,2,,,,,,,,,Object,,,,
choice,choice,173.55176570801996,178.86830787500367,11,2,,,1,1,4.306831584079191,,,,Object,,,,
choice,fixation,178.86844170792028,180.37344041583128,12,2,,,,,,,,,Sea,,,,
choice,option,180.38174512493424,181.40962699986994,12,2,,,,,,,,,Sea,,,,
choice,choice,181.40973833296448,185.5583303750027,12,2,,,2,0,3.1392363330814987,,,,Sea,,,,
choice,fixation,185.55846004094929,186.56346237496473,13,2,,,,,,,,,Pattern,,,,
choice,option,186.57263758289628,187.59978070785291,13,2,,,,,,,,,Pattern,,,,
choice,choice,187.59987879102118,190.716195957968,13,2,,,2,1,2.1063901658635587,,,,Pattern,,,,
choice,fixation,190.71631908300333,191.72326091583818,14,2,,,,,,,,,Small,,,,
choice,option,191.7319941248279,192.75861416594125,14,2,,,,,,,,,Small,,,,
choice,choice,192.75872512487695,199.25275133294053,14,2,,,1,1,5.484563166974112,,,,Small,,,,
choice,fixation,199.25290900003165,200.7580981659703,15,2,,,,,,,,,Solid,,,,
choice,option,200.7673099578824,201.7937569578644,15,2,,,,,,,,,Solid,,,,
choice,choice,201.79387704096735,206.03664999990724,15,2,,,1,1,3.2333931250032037,,,,Solid,,,,
choice,fixation,206.03678412502632,207.5417886248324,16,2,,,,,,,,,Land,,,,
choice,option,207.5500929998234,208.57667266600765,16,2,,,,,,,,,Land,,,,
choice,choice,208.57683149981312,214.55893158284016,16,2,,,2,0,4.971918625058606,,,,Land,,,,
memory,free_recall,243.96640424989164,262.7106575409416,6,2,,,,,,,,,,,,,
memory,value_recall,283.16890629101545,287.8731212078128,7,2,Animal_Land_Solid_Small,,,,4.7010779161937535,,,,,2,,,
memory,value_recall,289.6691532910336,293.54334720782936,8,2,Object_Sea_Solid_Large,,,,3.870122167048976,,,,,9,,,
memory,value_recall,294.5905344998464,297.19148787483573,9,2,Animal_Land_Pattern_Small,,,,2.598314832895994,,,,,3,,,
memory,value_recall,298.4892441248521,301.03992854082026,10,2,Object_Sea_Pattern_Small,,,,2.5464384160004556,,,,,-1,,,
memory,value_recall,302.58541966602206,305.5374988329131,11,2,Animal_Sea_Solid_Large,,,,2.9482545419596136,,,,,-7,,,
memory,value_recall,307.0836547908839,310.17500824993476,12,2,Object_Land_Pattern_Large,,,,3.0868207500316203,,,,,-3,,,
memory,spatial_recall,319.13956683292054,321.9720535830129,12,2,Animal_Land_Solid_Small,,,1,2.8284646668471396,,,,,,"[329, 189]","[329, 189]",
memory,spatial_recall,323.28261341596954,326.6366309998557,12,2,Animal_Sea_Solid_Large,,,1,3.3503273751121014,,,,,,"[0, -380]","[0, -380]",
memory,spatial_recall,327.9446428748779,329.3021421658341,12,2,Object_Sea_Solid_Large,,,1,1.3536739589180797,,,,,,"[329, -190]","[329, -190]",
memory,spatial_recall,331.3581669998821,334.1045256659854,12,2,Object_Sea_Pattern_Small,,,1,2.7423624999355525,,,,,,"[0, 380]","[0, 380]",
memory,spatial_recall,335.16307304101065,336.64955695788376,12,2,Object_Land_Pattern_Large,,,1,1.4840323750395328,,,,,,"[-329, 190]","[-329, 190]",
memory,spatial_recall,337.701048332965,340.5379532079678,12,2,Animal_Land_Pattern_Small,,,1,2.833086834056303,,,,,,"[-329, -190]","[-329, -190]",
encoding,fixation,10.615613125031814,12.123452249914408,13,3,Animal_Sea_Pattern_Large,-9,,,,,,,,,,,
encoding,image,12.123600041028112,13.135008499957621,13,3,Animal_Sea_Pattern_Large,-9,,,,,,,,,,,
encoding,value,13.135170083027333,19.14806512510404,13,3,Animal_Sea_Pattern_Large,-9,,,,,,,,,,,
encoding,attention,19.148189791012555,22.16529320809059,13,3,Animal_Sea_Pattern_Large,-9,-9,1,0.8789274590089917,,,,,,,,
encoding,fixation,22.16544516594149,22.923490332905203,14,3,Animal_Sea_Solid_Small,-9,,,,,,,,,,,
encoding,image,22.92360591609031,23.934458333067596,14,3,Animal_Sea_Solid_Small,-9,,,,,,,,,,,
encoding,value,23.93457358307205,29.94597829109989,14,3,Animal_Sea_Solid_Small,-9,,,,,,,,,,,
encoding,attention,29.94609362492338,32.9659922500141,14,3,Animal_Sea_Solid_Small,-9,-9,1,0.944962790934369,,,,,,,,
encoding,fixation,32.96615875000134,33.97316320799291,15,3,Object_Land_Solid_Large,1,,,,,,,,,,,
encoding,image,33.97328345803544,34.98425874998793,15,3,Object_Land_Solid_Large,1,,,,,,,,,,,
encoding,value,34.9843835409265,40.9958197909873,15,3,Object_Land_Solid_Large,1,,,,,,,,,,,
encoding,attention,40.99593816604465,44.01568670803681,15,3,Object_Land_Solid_Large,1,+1,1,1.549935958813876,,,,,,,,
encoding,fixation,44.015903499908745,44.77312866598368,16,3,Animal_Sea_Pattern_Small,9,,,,,,,,,,,
encoding,image,44.773256625048816,45.78453008295037,16,3,Animal_Sea_Pattern_Small,9,,,,,,,,,,,
encoding,value,45.784693124936894,51.79691587504931,16,3,Animal_Sea_Pattern_Small,9,,,,,,,,,,,
encoding,attention,51.79706583288498,54.81599483289756,16,3,Animal_Sea_Pattern_Small,9,+9,1,1.7485408748034388,,,,,,,,
encoding,fixation,54.81613779091276,56.32357658306137,17,3,Object_Land_Pattern_Large,2,,,,,,,,,,,
encoding,image,56.323708165902644,57.33584999991581,17,3,Object_Land_Pattern_Large,2,,,,,,,,,,,
encoding,value,57.335971290944144,63.34835895802826,17,3,Object_Land_Pattern_Large,2,,,,,,,,,,,
encoding,attention,63.348473249934614,66.36768583301455,17,3,Object_Land_Pattern_Large,2,+2,1,0.9907572090160102,,,,,,,,
encoding,fixation,66.36794045800343,67.12383079109713,18,3,Object_Land_Solid_Small,-7,,,,,,,,,,,
encoding,image,67.12395570799708,68.13560925005004,18,3,Object_Land_Solid_Small,-7,,,,,,,,,,,
encoding,value,68.13580237491988,74.14739624992944,18,3,Object_Land_Solid_Small,-7,,,,,,,,,,,
encoding,attention,74.14754341589287,77.16752158291638,18,3,Object_Land_Solid_Small,-7,-7,1,1.0382144169416279,,,,,,,,
n-back,,,,61,3,,,,1,None,B,False,None,,,,,
n-back,,,,62,3,,,,0,None,N,True,None,,,,,
n-back,,,,63,3,,,,1,None,V,False,None,,,,,
n-back,,,,64,3,,,,1,0.5413159581366926,N,True,1,,,,,
n-back,,,,65,3,,,,1,None,N,False,None,,,,,
n-back,,,,66,3,,,,0,None,N,True,None,,,,,
n-back,,,,67,3,,,,1,None,X,False,None,,,,,
n-back,,,,68,3,,,,1,None,X,False,None,,,,,
n-back,,,,69,3,,,,1,None,V,False,None,,,,,
n-back,,,,70,3,,,,1,None,C,False,None,,,,,
n-back,,,,71,3,,,,1,None,Z,False,None,,,,,
n-back,,,,72,3,,,,1,None,Z,False,None,,,,,
n-back,,,,73,3,,,,1,0.8226804998703301,Z,True,1,,,,,
n-back,,,,74,3,,,,1,None,B,False,None,,,,,
n-back,,,,75,3,,,,1,None,B,False,None,,,,,
n-back,,,,76,3,,,,1,0.57172583299689,B,True,1,,,,,
n-back,,,,77,3,,,,1,None,C,False,None,,,,,
n-back,,,,78,3,,,,1,None,V,False,None,,,,,
n-back,,,,79,3,,,,1,None,X,False,None,,,,,
n-back,,,,80,3,,,,1,0.5593164169695228,V,True,1,,,,,
n-back,,,,81,3,,,,1,None,N,False,None,,,,,
n-back,,,,82,3,,,,1,None,C,False,None,,,,,
n-back,,,,83,3,,,,1,1.0368280000984669,N,True,1,,,,,
n-back,,,,84,3,,,,1,None,Z,False,None,,,,,
n-back,,,,85,3,,,,1,0.6662579169496894,N,True,1,,,,,
n-back,,,,86,3,,,,1,1.0039986670017242,Z,True,1,,,,,
n-back,,,,87,3,,,,1,None,C,False,None,,,,,
n-back,,,,88,3,,,,1,None,N,False,None,,,,,
n-back,,,,89,3,,,,1,None,X,False,None,,,,,
n-back,,,,90,3,,,,1,0.8370903749018908,N,True,1,,,,,
choice,fixation,156.47676533297636,157.23016216605902,17,3,,,,,,,,,Large,,,,
choice,option,157.23871691594832,158.26744087506086,17,3,,,,,,,,,Large,,,,
choice,choice,158.26754404092208,165.07852074992843,17,3,,,1,0,5.801291249925271,,,,Large,,,,
choice,fixation,165.07865275000222,166.58348937495612,18,3,,,,,,,,,Object,,,,
choice,option,166.59306720807217,167.62014662497677,18,3,,,,,,,,,Object,,,,
choice,choice,167.62029566592537,174.8226342499256,18,3,,,1,0,6.1905450420454144,,,,Object,,,,
choice,fixation,174.8227624578867,175.32772708288394,19,3,,,,,,,,,Sea,,,,
choice,option,175.33604116598144,176.36383620789275,19,3,,,,,,,,,Sea,,,,
choice,choice,176.36395183298737,178.33211579103954,19,3,,,2,1,0.9583395000081509,,,,Sea,,,,
choice,fixation,178.33224054099992,179.58897612500004,20,3,,,,,,,,,Small,,,,
choice,option,179.59779745806009,180.62553175003268,20,3,,,,,,,,,Small,,,,
choice,choice,180.62563504092395,184.2784456249792,20,3,,,2,1,2.6436718329787254,,,,Small,,,,
choice,fixation,184.27856033295393,185.78340795799159,21,3,,,,,,,,,Pattern,,,,
choice,option,185.79262841609307,186.81901487498544,21,3,,,,,,,,,Pattern,,,,
choice,choice,186.81914724991657,190.05279941600747,21,3,,,1,1,2.223890000022948,,,,Pattern,,,,
choice,fixation,190.05293062492274,190.80778099992312,22,3,,,,,,,,,Land,,,,
choice,option,190.8164147080388,191.84295933297835,22,3,,,,,,,,,Land,,,,
choice,choice,191.84306570794433,195.8685590000823,22,3,,,1,0,3.0160829999949783,,,,Land,,,,
choice,fixation,195.86873158300295,196.6237622499466,23,3,,,,,,,,,Solid,,,,
choice,option,196.63329516607337,197.65927912504412,23,3,,,,,,,,,Solid,,,,
choice,choice,197.6593821658753,200.36518462491222,23,3,,,2,1,1.6961673749610782,,,,Solid,,,,
choice,fixation,200.36534045799635,200.87170579098165,24,3,,,,,,,,,Animal,,,,
choice,option,200.8806543329265,201.90780637506396,24,3,,,,,,,,,Animal,,,,
choice,choice,201.90798391588032,204.27964262501337,24,3,,,2,1,1.362520792055875,,,,Animal,,,,
memory,free_recall,226.38281408301555,243.3987114999909,12,3,,,,,,,,,,,,,
memory,value_recall,253.13937045796774,255.81514112488367,13,3,Animal_Sea_Solid_Small,,,,2.6717002920340747,,,,,-9,,,
memory,value_recall,257.11479054088704,259.09595012501813,14,3,Object_Land_Pattern_Large,,,,1.9748410838656127,,,,,2,,,
memory,value_recall,260.8924093749374,262.874145250069,15,3,Animal_Sea_Pattern_Large,,,,1.9776609579566866,,,,,-9,,,
memory,value_recall,264.66908916598186,267.3439113330096,16,3,Animal_Sea_Pattern_Small,,,,2.6708041250240058,,,,,9,,,
memory,value_recall,268.39019633294083,270.343758125091,17,3,Object_Land_Solid_Large,,,,1.9508884998504072,,,,,1,,,
memory,value_recall,272.390154707944,275.6741652910132,18,3,Object_Land_Solid_Small,,,,3.279895707964897,,,,,-7,,,
memory,spatial_recall,279.5360025409609,282.81589995790273,18,3,Object_Land_Solid_Large,,,1,3.277359833009541,,,,,,"[329, 189]","[329, 189]",
memory,spatial_recall,284.1281326659955,286.1226172079332,18,3,Animal_Sea_Pattern_Small,,,1,1.9908602079376578,,,,,,"[329, -190]","[329, -190]",
memory,spatial_recall,287.92982604098506,289.5892807908822,18,3,Object_Land_Solid_Small,,,1,1.6551403331104666,,,,,,"[0, -380]","[0, -380]",
memory,spatial_recall,290.8949845409952,293.0829867909197,18,3,Animal_Sea_Solid_Small,,,1,2.183904542122036,,,,,,"[-329, -190]","[-329, -190]",
memory,spatial_recall,294.64215116598643,296.21621945803054,18,3,Object_Land_Pattern_Large,,,1,1.570468374993652,,,,,,"[-329, 190]","[-329, 190]",
memory,spatial_recall,297.7724307079334,299.26619854103774,18,3,Animal_Sea_Pattern_Large,,,1,1.4896355839446187,,,,,,"[0, 380]","[0, 380]",
encoding,fixation,5.257003791863099,6.51308354199864,19,4,Object_Sea_Solid_Small,9,,,,,,,,,,,
encoding,image,6.513218041975051,7.5257783338893205,19,4,Object_Sea_Solid_Small,9,,,,,,,,,,,
encoding,value,7.525889166863635,13.538562083849683,19,4,Object_Sea_Solid_Small,9,,,,,,,,,,,
encoding,attention,13.538673541974276,16.557523749768734,19,4,Object_Sea_Solid_Small,9,+9,1,1.3155787498690188,,,,,,,,
encoding,fixation,16.557696416974068,18.062727166805416,20,4,Object_Sea_Pattern_Large,-1,,,,,,,,,,,
encoding,image,18.062837124802172,19.07361741689965,20,4,Object_Sea_Pattern_Large,-1,,,,,,,,,,,
encoding,value,19.073736499994993,25.08606829191558,20,4,Object_Sea_Pattern_Large,-1,,,,,,,,,,,
encoding,attention,25.086206583771855,28.10392004181631,20,4,Object_Sea_Pattern_Large,-1,-1,1,1.279031792189926,,,,,,,,
encoding,fixation,28.104080333840102,28.609191541792825,21,4,Object_Land_Pattern_Small,-7,,,,,,,,,,,
encoding,image,28.609301333781332,29.622738749952987,21,4,Object_Land_Pattern_Small,-7,,,,,,,,,,,
encoding,value,29.62286216695793,35.63500108383596,21,4,Object_Land_Pattern_Small,-7,,,,,,,,,,,
encoding,attention,35.63512637489475,38.65251108398661,21,4,Object_Land_Pattern_Small,-7,-7,1,1.1730406249407679,,,,,,,,
encoding,fixation,38.652732458896935,39.15795245883055,22,4,Animal_Sea_Solid_Small,-7,,,,,,,,,,,
encoding,image,39.15805829199962,40.16897683381103,22,4,Animal_Sea_Solid_Small,-7,,,,,,,,,,,
encoding,value,40.16910724993795,46.18035983387381,22,4,Animal_Sea_Solid_Small,-7,,,,,,,,,,,
encoding,attention,46.18052745889872,49.197697166819125,22,4,Animal_Sea_Solid_Small,-7,-7,1,0.7946953340433538,,,,,,,,
encoding,fixation,49.197859208798036,49.95600995887071,23,4,Animal_Land_Solid_Large,-3,,,,,,,,,,,
encoding,image,49.95611258386634,50.9677454167977,23,4,Animal_Land_Solid_Large,-3,,,,,,,,,,,
encoding,value,50.967857791809365,56.98041545879096,23,4,Animal_Land_Solid_Large,-3,,,,,,,,,,,
encoding,attention,56.980534583795816,59.99954316695221,23,4,Animal_Land_Solid_Large,-3,-3,1,2.144703249912709,,,,,,,,
encoding,fixation,59.99977816687897,61.2563404168468,24,4,Animal_Land_Pattern_Large,9,,,,,,,,,,,
encoding,image,61.25645320885815,62.267763583920896,24,4,Animal_Land_Pattern_Large,9,,,,,,,,,,,
encoding,value,62.267906583845615,68.27927712490782,24,4,Animal_Land_Pattern_Large,9,,,,,,,,,,,
encoding,attention,68.27939524990506,71.29717999999411,24,4,Animal_Land_Pattern_Large,9,+9,1,1.6853517920244485,,,,,,,,
n-back,,,,91,4,,,,0,None,N,True,None,,,,,
n-back,,,,92,4,,,,1,None,N,False,None,,,,,
n-back,,,,93,4,,,,1,None,X,False,None,,,,,
n-back,,,,94,4,,,,1,None,C,False,None,,,,,
n-back,,,,95,4,,,,1,None,N,False,None,,,,,
n-back,,,,96,4,,,,1,0.5277355420403183,C,True,1,,,,,
n-back,,,,97,4,,,,1,None,X,False,None,,,,,
n-back,,,,98,4,,,,1,1.2985957921482623,C,True,1,,,,,
n-back,,,,99,4,,,,1,0.856357250129804,X,True,1,,,,,
n-back,,,,100,4,,,,1,None,N,False,None,,,,,
n-back,,,,101,4,,,,1,None,V,False,None,,,,,
n-back,,,,102,4,,,,1,None,V,False,None,,,,,
n-back,,,,103,4,,,,1,None,C,False,None,,,,,
n-back,,,,104,4,,,,1,0.6535198751371354,V,True,1,,,,,
n-back,,,,105,4,,,,1,None,Z,False,None,,,,,
n-back,,,,106,4,,,,0,0.6892991249915212,C,False,1,,,,,
n-back,,,,107,4,,,,1,0.9962476249784231,Z,True,1,,,,,
n-back,,,,108,4,,,,1,None,Z,False,None,,,,,
n-back,,,,109,4,,,,1,None,N,False,None,,,,,
n-back,,,,110,4,,,,1,None,V,False,None,,,,,
n-back,,,,111,4,,,,1,None,V,False,None,,,,,
n-back,,,,112,4,,,,1,0.8729799999855459,V,True,1,,,,,
n-back,,,,113,4,,,,1,None,N,False,None,,,,,
n-back,,,,114,4,,,,1,0.7414730829186738,V,True,1,,,,,
n-back,,,,115,4,,,,1,1.025612291879952,N,True,1,,,,,
n-back,,,,116,4,,,,1,None,X,False,None,,,,,
n-back,,,,117,4,,,,1,None,C,False,None,,,,,
n-back,,,,118,4,,,,1,0.5448537080083042,X,True,1,,,,,
n-back,,,,119,4,,,,1,None,N,False,None,,,,,
n-back,,,,120,4,,,,1,None,V,False,None,,,,,
choice,fixation,145.75526849995367,146.5085880837869,25,4,,,,,,,,,Small,,,,
choice,option,146.51813912484795,147.5454624169506,25,4,,,,,,,,,Small,,,,
choice,choice,147.54556508385576,152.40019845892675,25,4,,,2,1,3.8449129580985755,,,,Small,,,,
choice,fixation,152.40033129183576,152.90528324991465,26,4,,,,,,,,,Pattern,,,,
choice,option,152.91430604178458,153.94124074978754,26,4,,,,,,,,,Pattern,,,,
choice,choice,153.9413424169179,157.83867174992338,26,4,,,1,1,2.887308083008975,,,,Pattern,,,,
choice,fixation,157.8388079169672,158.5939067499712,27,4,,,,,,,,,Large,,,,
choice,option,158.60263649979606,159.6298804169055,27,4,,,,,,,,,Large,,,,
choice,choice,159.63000654196367,162.15989229199477,27,4,,,1,1,1.5205261250957847,,,,Large,,,,
choice,fixation,162.16001666686498,163.66521841683425,28,4,,,,,,,,,Sea,,,,
choice,option,163.67366454191506,164.70067016687244,28,4,,,,,,,,,Sea,,,,
choice,choice,164.70079279178753,166.03877854184248,28,4,,,2,0,0.32865908392705023,,,,Sea,,,,
choice,fixation,166.03890854190104,167.29373554186895,29,4,,,,,,,,,Object,,,,
choice,option,167.30309866694734,168.32954983389936,29,4,,,,,,,,,Object,,,,
choice,choice,168.3296549997758,174.23178954189643,29,4,,,1,1,4.892189041012898,,,,Object,,,,
choice,fixation,174.23191845882684,174.98902024980634,30,4,,,,,,,,,Animal,,,,
choice,option,174.99830312491395,176.02517212484963,30,4,,,,,,,,,Animal,,,,
choice,choice,176.0252805838827,177.90947554190643,30,4,,,2,1,0.8748842079658061,,,,Animal,,,,
choice,fixation,177.9096009999048,179.41575537482277,31,4,,,,,,,,,Solid,,,,
choice,option,179.42493129195645,180.4518463748973,31,4,,,,,,,,,Solid,,,,
choice,choice,180.4519477498252,183.72796966694295,31,4,,,1,0,2.2661486249417067,,,,Solid,,,,
choice,fixation,183.72810170892626,184.4830356668681,32,4,,,,,,,,,Land,,,,
choice,option,184.4920637088362,185.51821445883252,32,4,,,,,,,,,Land,,,,
choice,choice,185.51833304180764,187.702199208783,32,4,,,2,1,1.1745513749774545,,,,Land,,,,
memory,free_recall,205.77731149992906,225.8560296248179,18,4,,,,,,,,,,,,,
memory,value_recall,233.4562885419,239.23313862481155,19,4,Animal_Land_Pattern_Large,,,,5.7723817909136415,,,,,9,,,
memory,value_recall,240.78029945888557,243.1452176249586,20,4,Object_Land_Pattern_Small,,,,2.3611166670452803,,,,,-7,,,
memory,value_recall,244.94022758398205,247.77757224999368,21,4,Animal_Sea_Solid_Small,,,,2.8333420001436025,,,,,-7,,,
memory,value_recall,249.0733839168679,251.8092053339351,22,4,Animal_Land_Solid_Large,,,,2.731603416148573,,,,,-3,,,
memory,value_recall,253.85562895890325,256.26440362492576,23,4,Object_Sea_Pattern_Large,,,,2.404602084076032,,,,,-1,,,
memory,value_recall,258.06178083387204,260.4968807089608,24,4,Object_Sea_Solid_Small,,,,2.431172874988988,,,,,9,,,
memory,spatial_recall,264.52150258398615,268.97405212488957,24,4,Object_Sea_Solid_Small,,,1,4.448829666012898,,,,,,"[-329, 190]","[-329, 190]",
memory,spatial_recall,270.0386054168921,272.971910166787,24,4,Animal_Sea_Solid_Small,,,1,2.9308402501046658,,,,,,"[-329, -190]","[-329, -190]",
memory,spatial_recall,275.0297771249898,276.43992824992165,24,4,Animal_Land_Solid_Large,,,1,1.4055500000249594,,,,,,"[329, -190]","[329, -190]",
memory,spatial_recall,278.50500166695565,280.88244745880365,24,4,Object_Land_Pattern_Small,,,1,2.3733890000730753,,,,,,"[0, -380]","[0, -380]",
memory,spatial_recall,282.9411418749951,288.06597037496977,24,4,Animal_Land_Pattern_Large,,,1,5.121219250140712,,,,,,"[0, 380]","[0, 380]",
memory,spatial_recall,289.6235235838685,291.07062729191966,24,4,Object_Sea_Pattern_Large,,,1,1.4434858339373022,,,,,,"[329, 189]","[329, 189]",
encoding,fixation,11.383902583969757,12.139973708894104,25,5,Object_Sea_Pattern_Small,2,,,,,,,,,,,
encoding,image,12.140098874922842,13.151638875016943,25,5,Object_Sea_Pattern_Small,2,,,,,,,,,,,
encoding,value,13.151757458923385,19.164593084016815,25,5,Object_Sea_Pattern_Small,2,,,,,,,,,,,
encoding,attention,19.164720333879814,22.182999667013064,25,5,Object_Sea_Pattern_Small,2,+2,1,0.8612265419214964,,,,,,,,
encoding,fixation,22.183152209036052,22.938972333911806,26,5,Animal_Land_Pattern_Small,-5,,,,,,,,,,,
encoding,image,22.93908008397557,23.949687500018626,26,5,Animal_Land_Pattern_Small,-5,,,,,,,,,,,
encoding,value,23.949791458901018,29.964383292011917,26,5,Animal_Land_Pattern_Small,-5,,,,,,,,,,,
encoding,attention,29.964590874966234,32.976924541871995,26,5,Animal_Land_Pattern_Small,-5,None,None,None,,,,,,,,
encoding,fixation,32.977062166901305,33.482562500052154,27,5,Object_Sea_Solid_Large,-6,,,,,,,,,,,
encoding,image,33.48267233395018,34.49390245904215,27,5,Object_Sea_Solid_Large,-6,,,,,,,,,,,
encoding,value,34.49403745890595,40.50727141695097,27,5,Object_Sea_Solid_Large,-6,,,,,,,,,,,
encoding,attention,40.507400959031656,43.525560166919604,27,5,Object_Sea_Solid_Large,-6,-6,1,1.7763043749146163,,,,,,,,
encoding,fixation,43.525710958987474,44.531061166897416,28,5,Animal_Land_Solid_Small,5,,,,,,,,,,,
encoding,image,44.53116604196839,45.54170333384536,28,5,Animal_Land_Solid_Small,5,,,,,,,,,,,
encoding,value,45.541838167002425,51.55309850000776,28,5,Animal_Land_Solid_Small,5,,,,,,,,,,,
encoding,attention,51.55320787499659,54.56989558390342,28,5,Animal_Land_Solid_Small,5,+5,1,1.0652616249863058,,,,,,,,
encoding,fixation,54.57004062505439,55.325289624975994,29,5,Object_Land_Pattern_Large,2,,,,,,,,,,,
encoding,image,55.32539091701619,56.3373123339843,29,5,Object_Land_Pattern_Large,2,,,,,,,,,,,
encoding,value,56.337416667025536,62.349633750040084,29,5,Object_Land_Pattern_Large,2,,,,,,,,,,,
encoding,attention,62.34976520901546,65.36992445890792,29,5,Object_Land_Pattern_Large,2,+2,1,1.041452792007476,,,,,,,,
encoding,fixation,65.37007229193114,65.87532633403316,30,5,Animal_Sea_Solid_Large,2,,,,,,,,,,,
encoding,image,65.87543937494047,66.88659283402376,30,5,Animal_Sea_Solid_Large,2,,,,,,,,,,,
encoding,value,66.88670604187064,72.89880712493323,30,5,Animal_Sea_Solid_Large,2,,,,,,,,,,,
encoding,attention,72.89892416703515,75.92051491700113,30,5,Animal_Sea_Solid_Large,2,+2,1,1.4770132501143962,,,,,,,,
n-back,,,,121,5,,,,1,None,B,False,None,,,,,
n-back,,,,122,5,,,,1,None,Z,False,None,,,,,
n-back,,,,123,5,,,,1,None,X,False,None,,,,,
n-back,,,,124,5,,,,1,None,V,False,None,,,,,
n-back,,,,125,5,,,,1,0.6901767081581056,X,True,1,,,,,
n-back,,,,126,5,,,,1,0.7799552080687135,V,True,1,,,,,
n-back,,,,127,5,,,,1,None,C,False,None,,,,,
n-back,,,,128,5,,,,1,None,Z,False,None,,,,,
n-back,,,,129,5,,,,1,None,B,False,None,,,,,
n-back,,,,130,5,,,,1,1.0579796668607742,Z,True,1,,,,,
n-back,,,,131,5,,,,1,0.5720980418846011,B,True,1,,,,,
n-back,,,,132,5,,,,1,None,V,False,None,,,,,
n-back,,,,133,5,,,,1,None,V,False,None,,,,,
n-back,,,,134,5,,,,1,None,Z,False,None,,,,,
n-back,,,,135,5,,,,1,None,Z,False,None,,,,,
n-back,,,,136,5,,,,1,0.5763027078937739,Z,True,1,,,,,
n-back,,,,137,5,,,,1,None,X,False,None,,,,,
n-back,,,,138,5,,,,1,None,X,False,None,,,,,
n-back,,,,139,5,,,,1,0.6816487079486251,X,True,1,,,,,
n-back,,,,140,5,,,,1,None,Z,False,None,,,,,
n-back,,,,141,5,,,,1,None,Z,False,None,,,,,
n-back,,,,142,5,,,,1,0.4032432909589261,Z,True,1,,,,,
n-back,,,,143,5,,,,0,None,Z,True,None,,,,,
n-back,,,,144,5,,,,1,0.62040154193528,Z,True,1,,,,,
n-back,,,,145,5,,,,1,None,X,False,None,,,,,
n-back,,,,146,5,,,,1,None,B,False,None,,,,,
n-back,,,,147,5,,,,1,0.8685055829118937,X,True,1,,,,,
n-back,,,,148,5,,,,1,None,X,False,None,,,,,
n-back,,,,149,5,,,,1,None,Z,False,None,,,,,
n-back,,,,150,5,,,,1,None,Z,False,None,,,,,
choice,fixation,151.49743758398108,152.00122787500732,33,5,,,,,,,,,Large,,,,
choice,option,152.00977674988098,153.03586708405055,33,5,,,,,,,,,Large,,,,
choice,choice,153.03598933387548,156.73391029192135,33,5,,,2,1,2.6881589589174837,,,,Large,,,,
choice,fixation,156.73409858392552,157.7389274169691,34,5,,,,,,,,,Animal,,,,
choice,option,157.74866966693662,158.77611800003797,34,5,,,,,,,,,Animal,,,,
choice,choice,158.77624466689304,160.73374220891856,34,5,,,1,1,0.947353582829237,,,,Animal,,,,
choice,fixation,160.7338668750599,161.73907324997708,35,5,,,,,,,,,Sea,,,,
choice,option,161.7478562090546,162.7746989999432,35,5,,,,,,,,,Sea,,,,
choice,choice,162.7748077500146,165.15647870884277,35,5,,,2,1,1.37158358306624,,,,Sea,,,,
choice,fixation,165.1566613339819,166.41418691701256,36,5,,,,,,,,,Solid,,,,
choice,option,166.42334620887414,167.4502724588383,36,5,,,,,,,,,Solid,,,,
choice,choice,167.45041954191402,169.18755874992348,36,5,,,2,0,0.7276292080059648,,,,Solid,,,,
choice,fixation,169.18768087495118,170.69278004206717,37,5,,,,,,,,,Pattern,,,,
choice,option,170.70161095890217,171.72794641694054,37,5,,,,,,,,,Pattern,,,,
choice,choice,171.72804512502626,175.51815650006756,37,5,,,2,1,2.7805506670847535,,,,Pattern,,,,
choice,fixation,175.5182804169599,176.02329925005324,38,5,,,,,,,,,Land,,,,
choice,option,176.03171029197983,177.05799766699784,38,5,,,,,,,,,Land,,,,
choice,choice,177.05810424988158,180.13405162491836,38,5,,,1,1,2.0652224998921156,,,,Land,,,,
choice,fixation,180.13418429205194,180.63935249997303,39,5,,,,,,,,,Small,,,,
choice,option,180.64824216696434,181.6743835839443,39,5,,,,,,,,,Small,,,,
choice,choice,181.67449179198593,184.10913012502715,39,5,,,1,1,1.4242567080073059,,,,Small,,,,
choice,fixation,184.10925187496468,185.11427675001323,40,5,,,,,,,,,Object,,,,
choice,option,185.1232454169076,186.15004937490448,40,5,,,,,,,,,Object,,,,
choice,choice,186.1501560418401,188.45461050001904,40,5,,,2,1,1.2952759170439094,,,,Object,,,,
memory,free_recall,215.67029341706075,230.7291652499698,24,5,,,,,,,,,,,,,
memory,value_recall,237.03200583392754,241.2464047500398,25,5,Animal_Land_Solid_Small,,,,4.210840499959886,,,,,5,,,
memory,value_recall,242.54301204206422,245.27100154198706,26,5,Object_Sea_Solid_Large,,,,2.72422116715461,,,,,-6,,,
memory,value_recall,247.3165042088367,249.55874362494797,27,5,Animal_Land_Pattern_Small,,,,2.2381890409160405,,,,,-5,,,
memory,value_recall,251.10464254184626,252.47113641700707,28,5,Object_Land_Pattern_Large,,,,1.3626715841237456,,,,,2,,,
memory,value_recall,254.26664624991827,255.84701216686517,29,5,Object_Sea_Pattern_Small,,,,1.5761279170401394,,,,,2,,,
memory,value_recall,257.1426470419392,259.60581229184754,30,5,Animal_Sea_Solid_Large,,,,2.4591868750285357,,,,,2,,,
memory,spatial_recall,264.25829529203475,266.4818510420155,30,5,Object_Land_Pattern_Large,,,1,2.218612500000745,,,,,,"[-329, 190]","[-329, 190]",
memory,spatial_recall,268.04748987499624,269.92885033390485,30,5,Animal_Land_Pattern_Small,,,1,1.877224582945928,,,,,,"[-329, -190]","[-329, -190]",
memory,spatial_recall,271.2353441249579,272.49938770895824,30,5,Object_Sea_Pattern_Small,,,1,1.2597190421074629,,,,,,"[0, 380]","[0, 380]",
memory,spatial_recall,274.56488474993967,277.258048083866,30,5,Animal_Sea_Solid_Large,,,1,2.689082791097462,,,,,,"[0, -380]","[0, -380]",
memory,spatial_recall,278.3183146249503,280.09126641694456,30,5,Object_Sea_Solid_Large,,,1,1.7705137501470745,,,,,,"[329, -190]","[329, -190]",
memory,spatial_recall,281.90079437498935,283.7665539588779,30,5,Animal_Land_Solid_Small,,,1,1.860795499989763,,,,,,"[329, 189]","[329, 189]",
encoding,fixation,4.207153707975522,4.7133784159086645,31,6,Animal_Sea_Pattern_Small,-6,,,,,,,,,,,
encoding,image,4.713492624927312,5.7246210409794,31,6,Animal_Sea_Pattern_Small,-6,,,,,,,,,,,
encoding,value,5.724740999983624,11.738216041121632,31,6,Animal_Sea_Pattern_Small,-6,,,,,,,,,,,
encoding,attention,11.738341625081375,14.756053207907826,31,6,Animal_Sea_Pattern_Small,-6,-6,1,1.0395425839815289,,,,,,,,
encoding,fixation,14.75620066607371,16.261484707938507,32,6,Object_Land_Solid_Small,2,,,,,,,,,,,
encoding,image,16.261661750031635,17.273803583113477,32,6,Object_Land_Solid_Small,2,,,,,,,,,,,
encoding,value,17.273899500025436,23.28578675002791,32,6,Object_Land_Solid_Small,2,,,,,,,,,,,
encoding,attention,23.285909957950935,26.303566915914416,32,6,Object_Land_Solid_Small,2,+2,1,0.9243025409523398,,,,,,,,
encoding,fixation,26.303729041013867,27.309065625071526,33,6,Animal_Sea_Pattern_Large,5,,,,,,,,,,,
encoding,image,27.309178333031014,28.31909350003116,33,6,Animal_Sea_Pattern_Large,5,,,,,,,,,,,
encoding,value,28.319227790925652,34.332153582945466,33,6,Animal_Sea_Pattern_Large,5,,,,,,,,,,,
encoding,attention,34.33227799995802,37.34922641608864,33,6,Animal_Sea_Pattern_Large,5,+5,1,1.1269277911633253,,,,,,,,
encoding,fixation,37.349367916118354,38.60432658297941,34,6,Object_Land_Solid_Large,-6,,,,,,,,,,,
encoding,image,38.60442483308725,39.61573520791717,34,6,Object_Land_Solid_Large,-6,,,,,,,,,,,
encoding,value,39.6158239999786,45.62692816602066,34,6,Object_Land_Solid_Large,-6,,,,,,,,,,,
encoding,attention,45.627050375100225,48.644252041121945,34,6,Object_Land_Solid_Large,-6,-6,1,1.4481025841087103,,,,,,,,
encoding,fixation,48.64440575009212,50.14955837512389,35,6,Object_Land_Pattern_Large,3,,,,,,,,,,,
encoding,image,50.14966466603801,51.161417541094124,35,6,Object_Land_Pattern_Large,3,,,,,,,,,,,
encoding,value,51.161525999894366,57.174469749908894,35,6,Object_Land_Pattern_Large,3,,,,,,,,,,,
encoding,attention,57.17458237498067,60.19326520804316,35,6,Object_Land_Pattern_Large,3,+3,1,0.9617289160378277,,,,,,,,
encoding,fixation,60.19340925011784,61.69871124997735,36,6,Animal_Sea_Solid_Small,2,,,,,,,,,,,
encoding,image,61.69884316599928,62.7106557500083,36,6,Animal_Sea_Solid_Small,2,,,,,,,,,,,
encoding,value,62.71074991603382,68.72223591594957,36,6,Animal_Sea_Solid_Small,2,,,,,,,,,,,
encoding,attention,68.72233770810999,71.73418845795095,36,6,Animal_Sea_Solid_Small,2,None,None,None,,,,,,,,
n-back,,,,151,6,,,,1,None,N,False,None,,,,,
n-back,,,,152,6,,,,1,None,X,False,None,,,,,
n-back,,,,153,6,,,,1,None,B,False,None,,,,,
n-back,,,,154,6,,,,1,None,N,False,None,,,,,
n-back,,,,155,6,,,,1,None,N,False,None,,,,,
n-back,,,,156,6,,,,1,0.3650332500692457,N,True,1,,,,,
n-back,,,,157,6,,,,0,None,N,True,None,,,,,
n-back,,,,158,6,,,,1,0.6935256249271333,N,True,1,,,,,
n-back,,,,159,6,,,,1,None,V,False,None,,,,,
n-back,,,,160,6,,,,1,None,V,False,None,,,,,
n-back,,,,161,6,,,,1,0.4181089580524713,V,True,1,,,,,
n-back,,,,162,6,,,,1,None,B,False,None,,,,,
n-back,,,,163,6,,,,1,None,N,False,None,,,,,
n-back,,,,164,6,,,,1,None,N,False,None,,,,,
n-back,,,,165,6,,,,1,None,V,False,None,,,,,
n-back,,,,166,6,,,,1,None,B,False,None,,,,,
n-back,,,,167,6,,,,1,None,X,False,None,,,,,
n-back,,,,168,6,,,,1,None,V,False,None,,,,,
n-back,,,,169,6,,,,1,0.7125527921598405,X,True,1,,,,,
n-back,,,,170,6,,,,1,None,X,False,None,,,,,
n-back,,,,171,6,,,,0,None,X,True,None,,,,,
n-back,,,,172,6,,,,1,0.7406416670419276,X,True,1,,,,,
n-back,,,,173,6,,,,0,None,X,True,None,,,,,
n-back,,,,174,6,,,,0,None,X,True,None,,,,,
n-back,,,,175,6,,,,1,None,C,False,None,,,,,
n-back,,,,176,6,,,,1,None,V,False,None,,,,,
n-back,,,,177,6,,,,0,0.8366452499758452,V,False,1,,,,,
n-back,,,,178,6,,,,1,None,B,False,None,,,,,
n-back,,,,179,6,,,,1,None,X,False,None,,,,,
n-back,,,,180,6,,,,1,0.6851935421582311,B,True,1,,,,,
choice,fixation,140.11870937491767,141.123980415985,41,6,,,,,,,,,Animal,,,,
choice,option,141.13327829097398,142.15927483304404,41,6,,,,,,,,,Animal,,,,
choice,choice,142.1593961250037,146.97215962503105,41,6,,,2,0,3.8018869580700994,,,,Animal,,,,
choice,fixation,146.9723014580086,147.72716554091312,42,6,,,,,,,,,Small,,,,
choice,option,147.73614012496546,148.76605970808305,42,6,,,,,,,,,Small,,,,
choice,choice,148.7661556659732,150.83723783306777,42,6,,,2,1,1.0621086668688804,,,,Small,,,,
choice,fixation,150.83736620796844,151.34213274996728,43,6,,,,,,,,,Object,,,,
choice,option,151.3511854580138,152.37878587492742,43,6,,,,,,,,,Object,,,,
choice,choice,152.37896850006655,154.87059995811433,43,6,,,1,0,1.4823277918621898,,,,Object,,,,
choice,fixation,154.87071799999103,155.62596408301033,44,6,,,,,,,,,Sea,,,,
choice,option,155.6347020829562,156.66087387502193,44,6,,,,,,,,,Sea,,,,
choice,choice,156.6609771659132,159.25325787509792,44,6,,,1,1,1.5829937090165913,,,,Sea,,,,
choice,fixation,159.2533829580061,160.25826737494208,45,6,,,,,,,,,Pattern,,,,
choice,option,160.26752283307724,161.2945980001241,45,6,,,,,,,,,Pattern,,,,
choice,choice,161.29470654111356,165.30247962498106,45,6,,,1,1,2.9984324579127133,,,,Pattern,,,,
choice,fixation,165.30260075000115,166.3076208329294,46,6,,,,,,,,,Solid,,,,
choice,option,166.31706179096363,167.343872416066,46,6,,,,,,,,,Solid,,,,
choice,choice,167.3439778329339,168.73901350004598,46,6,,,2,1,0.3854725419078022,,,,Solid,,,,
choice,fixation,168.7391842501238,170.24414729094133,47,6,,,,,,,,,Large,,,,
choice,option,170.25309858308174,171.2799709578976,47,6,,,,,,,,,Large,,,,
choice,choice,171.28012883290648,173.77267220802605,47,6,,,1,1,1.4830155409872532,,,,Large,,,,
choice,fixation,173.7728121660184,174.52766633289866,48,6,,,,,,,,,Land,,,,
choice,option,174.53637133305892,175.56291775009595,48,6,,,,,,,,,Land,,,,
choice,choice,175.56303683295846,178.35631691594608,48,6,,,2,1,1.7835699159186333,,,,Land,,,,
memory,free_recall,207.01448475010693,218.8697111250367,30,6,,,,,,,,,,,,,
memory,value_recall,225.00000345800072,227.81594183295965,31,6,Object_Land_Solid_Large,,,,2.811487666098401,,,,,-6,,,
memory,value_recall,229.86148041603155,232.95011687511578,32,6,Object_Land_Pattern_Large,,,,3.0849450000096112,,,,,3,,,
memory,value_recall,234.74611616600305,236.68087216606364,33,6,Animal_Sea_Solid_Small,,,,1.9308993329759687,,,,,2,,,
memory,value_recall,238.4762363329064,240.55000466597266,34,6,Animal_Sea_Pattern_Small,,,,2.0697247500065714,,,,,-6,,,
memory,value_recall,241.84559949999675,246.10228941589594,35,6,Object_Land_Solid_Small,,,,4.252985333092511,,,,,2,,,
memory,value_recall,248.1488406250719,250.11974987504072,36,6,Animal_Sea_Pattern_Large,,,,1.9666117909364402,,,,,5,,,
memory,spatial_recall,253.49342995812185,258.1593358749524,36,6,Animal_Sea_Pattern_Small,,,1,4.662839666940272,,,,,,"[329, -190]","[329, -190]",
memory,spatial_recall,259.71710316604003,261.4501066249795,36,6,Animal_Sea_Pattern_Large,,,1,1.7286257080268115,,,,,,"[0, 380]","[0, 380]",
memory,spatial_recall,262.5149595409166,265.4093010830693,36,6,Object_Land_Solid_Small,,,1,2.8901654169894755,,,,,,"[0, -380]","[0, -380]",
memory,spatial_recall,267.2187167080119,268.79819637490436,36,6,Animal_Sea_Solid_Small,,,1,1.5753604581113905,,,,,,"[-329, -190]","[-329, -190]",
memory,spatial_recall,270.8585837909486,272.9339318750426,36,6,Object_Land_Pattern_Large,,,1,2.0685638750437647,,,,,,"[-329, 190]","[-329, 190]",
memory,spatial_recall,274.9930216250941,276.9151256249752,36,6,Object_Land_Solid_Large,,,1,1.9172062498982996,,,,,,"[329, 189]","[329, 189]",
encoding,fixation,2.3326331661082804,3.589017749996856,37,7,Animal_Land_Pattern_Small,-3,,,,,,,,,,,
encoding,image,3.589128833031282,4.602101416094229,37,7,Animal_Land_Pattern_Small,-3,,,,,,,,,,,
encoding,value,4.602210791083053,10.6153420410119,37,7,Animal_Land_Pattern_Small,-3,,,,,,,,,,,
encoding,attention,10.615454166196287,13.633489166153595,37,7,Animal_Land_Pattern_Small,-3,-3,1,1.2021296250168234,,,,,,,,
encoding,fixation,13.633641832973808,15.138647958170623,38,7,Object_Sea_Pattern_Large,-5,,,,,,,,,,,
encoding,image,15.13876491598785,16.149805332999676,38,7,Object_Sea_Pattern_Large,-5,,,,,,,,,,,
encoding,value,16.14993195817806,22.16222658311017,38,7,Object_Sea_Pattern_Large,-5,,,,,,,,,,,
encoding,attention,22.16233779117465,25.180072708055377,38,7,Object_Sea_Pattern_Large,-5,-5,1,0.7509152498096228,,,,,,,,
encoding,fixation,25.1802287499886,26.685466333059594,39,7,Animal_Sea_Pattern_Large,9,,,,,,,,,,,
encoding,image,26.685568916145712,27.695860958192497,39,7,Animal_Sea_Pattern_Large,9,,,,,,,,,,,
encoding,value,27.695982665987685,33.70771595812403,39,7,Animal_Sea_Pattern_Large,9,,,,,,,,,,,
encoding,attention,33.70783841609955,36.72518508299254,39,7,Animal_Sea_Pattern_Large,9,+9,1,1.4702584999613464,,,,,,,,
encoding,fixation,36.72533679101616,37.9830141661223,40,7,Animal_Land_Solid_Large,-1,,,,,,,,,,,
encoding,image,37.98315537511371,38.99529474996962,40,7,Animal_Land_Solid_Large,-1,,,,,,,,,,,
encoding,value,38.99546137498692,45.00851458311081,40,7,Animal_Land_Solid_Large,-1,,,,,,,,,,,
encoding,attention,45.008618250023574,48.03083000006154,40,7,Animal_Land_Solid_Large,-1,-1,1,1.0864597500767559,,,,,,,,
encoding,fixation,48.03099795803428,49.036308208014816,41,7,Object_Land_Solid_Small,8,,,,,,,,,,,
encoding,image,49.03642608318478,50.0485282081645,41,7,Object_Land_Solid_Small,8,,,,,,,,,,,
encoding,value,50.04862641612999,56.060295125003904,41,7,Object_Land_Solid_Small,8,,,,,,,,,,,
encoding,attention,56.06041254103184,59.079584249993786,41,7,Object_Land_Solid_Small,8,+8,1,0.8688457920216024,,,,,,,,
encoding,fixation,59.0797511250712,60.08504262496717,42,7,Object_Sea_Solid_Small,-2,,,,,,,,,,,
encoding,image,60.08515475015156,61.095533333020285,42,7,Object_Sea_Solid_Small,-2,,,,,,,,,,,
encoding,value,61.0956625000108,67.10743529116735,42,7,Object_Sea_Solid_Small,-2,,,,,,,,,,,
encoding,attention,67.1075495830737,70.12394466600381,42,7,Object_Sea_Solid_Small,-2,-2,1,1.4797222909983248,,,,,,,,
n-back,,,,181,7,,,,0,None,V,True,None,,,,,
n-back,,,,182,7,,,,0,None,X,True,None,,,,,
n-back,,,,183,7,,,,1,None,C,False,None,,,,,
n-back,,,,184,7,,,,1,0.49719195789657533,X,True,1,,,,,
n-back,,,,185,7,,,,1,None,X,False,None,,,,,
n-back,,,,186,7,,,,1,None,V,False,None,,,,,
n-back,,,,187,7,,,,1,None,N,False,None,,,,,
n-back,,,,188,7,,,,1,0.5887275838758796,V,True,1,,,,,
n-back,,,,189,7,,,,1,None,V,False,None,,,,,
n-back,,,,190,7,,,,1,None,X,False,None,,,,,
n-back,,,,191,7,,,,1,None,B,False,None,,,,,
n-back,,,,192,7,,,,1,None,N,False,None,,,,,
n-back,,,,193,7,,,,1,0.5805084169842303,B,True,1,,,,,
n-back,,,,194,7,,,,1,None,B,False,None,,,,,
n-back,,,,195,7,,,,1,None,V,False,None,,,,,
n-back,,,,196,7,,,,1,None,V,False,None,,,,,
n-back,,,,197,7,,,,1,None,Z,False,None,,,,,
n-back,,,,198,7,,,,1,None,C,False,None,,,,,
n-back,,,,199,7,,,,1,None,X,False,None,,,,,
n-back,,,,200,7,,,,1,None,N,False,None,,,,,
n-back,,,,201,7,,,,1,None,N,False,None,,,,,
n-back,,,,202,7,,,,1,0.6143652920145541,N,True,1,,,,,
n-back,,,,203,7,,,,0,None,N,True,None,,,,,
n-back,,,,204,7,,,,1,None,Z,False,None,,,,,
n-back,,,,205,7,,,,1,None,V,False,None,,,,,
n-back,,,,206,7,,,,1,0.6414119580294937,Z,True,1,,,,,
n-back,,,,207,7,,,,1,0.7956439589615911,V,True,1,,,,,
n-back,,,,208,7,,,,1,None,X,False,None,,,,,
n-back,,,,209,7,,,,1,None,Z,False,None,,,,,
n-back,,,,210,7,,,,1,0.6325215001124889,X,True,1,,,,,
choice,fixation,146.1256463751197,147.38249137508683,49,7,,,,,,,,,Animal,,,,
choice,option,147.39168175007217,148.4222137501929,49,7,,,,,,,,,Animal,,,,
choice,choice,148.42234520800412,157.22698004101403,49,7,,,1,1,7.794646500144154,,,,Animal,,,,
choice,fixation,157.22711525019258,158.7321965410374,50,7,,,,,,,,,Object,,,,
choice,option,158.74156837514602,159.76957341609523,50,7,,,,,,,,,Object,,,,
choice,choice,159.7696825831663,170.195199750131,50,7,,,1,1,9.414294499903917,,,,Object,,,,
choice,fixation,170.19542745803483,171.2003370001912,51,7,,,,,,,,,Small,,,,
choice,option,171.20922629116103,172.23653766606003,51,7,,,,,,,,,Small,,,,
choice,choice,172.23664570809342,176.91719991597347,51,7,,,1,1,3.6670242911204696,,,,Small,,,,
choice,fixation,176.91731462511234,178.42233220813796,52,7,,,,,,,,,Solid,,,,
choice,option,178.43156787496991,179.45853800000623,52,7,,,,,,,,,Solid,,,,
choice,choice,179.45864320802502,185.78814870817587,52,7,,,1,1,5.318324124906212,,,,Solid,,,,
choice,fixation,185.78826545807533,186.54313437500969,53,7,,,,,,,,,Large,,,,
choice,option,186.5520429580938,187.57887533307076,53,7,,,,,,,,,Large,,,,
choice,choice,187.5789985000156,205.15446100011468,53,7,,,1,1,16.56477445899509,,,,Large,,,,
choice,fixation,205.15465512499213,205.65968637517653,54,7,,,,,,,,,Pattern,,,,
choice,option,205.6690660000313,206.69658883311786,54,7,,,,,,,,,Pattern,,,,
choice,choice,206.696691500023,216.5711894580163,54,7,,,1,1,8.86412441614084,,,,Pattern,,,,
choice,fixation,216.57138541596942,217.57676733308472,55,7,,,,,,,,,Sea,,,,
choice,option,217.5854095001705,218.61312150000595,55,7,,,,,,,,,Sea,,,,
choice,choice,218.61324991611764,227.2751134580467,55,7,,,2,0,7.65190549986437,,,,Sea,,,,
choice,fixation,227.2752525410615,228.5337047080975,56,7,,,,,,,,,Land,,,,
choice,option,228.5427286659833,229.56930708303116,56,7,,,,,,,,,Land,,,,
choice,choice,229.56941570807248,234.73942520818673,56,7,,,1,1,4.160117333987728,,,,Land,,,,
memory,free_recall,267.09144295798615,279.9238257911056,36,7,,,,,,,,,,,,,
memory,value_recall,287.1456770831719,290.46764491614886,37,7,Animal_Land_Pattern_Small,,,,3.3177677080966532,,,,,-3,,,
memory,value_recall,291.59958799998276,293.4518074581865,38,7,Object_Sea_Solid_Small,,,,1.849317334126681,,,,,-2,,,
memory,value_recall,294.74892124999315,298.0039139580913,39,7,Object_Sea_Pattern_Large,,,,3.250196708831936,,,,,-5,,,
memory,value_recall,299.0496472911909,303.0515967910178,40,7,Animal_Land_Solid_Large,,,,3.9984926669858396,,,,,-1,,,
memory,value_recall,304.0991140000988,306.57277266611345,41,7,Object_Land_Solid_Small,,,,2.470370499882847,,,,,8,,,
memory,value_recall,307.6183725001756,309.7885505410377,42,7,Animal_Sea_Pattern_Large,,,,2.1669642080087215,,,,,9,,,
memory,spatial_recall,313.00338137499057,315.3828361250926,42,7,Animal_Land_Solid_Large,,,1,2.3760146249551326,,,,,,"[329, -190]","[329, -190]",
memory,spatial_recall,316.69865904096514,318.8331589580048,42,7,Object_Land_Solid_Small,,,1,2.130380750168115,,,,,,"[0, -380]","[0, -380]",
memory,spatial_recall,320.39287766604684,322.62970737507567,42,7,Object_Sea_Solid_Small,,,1,2.23217925010249,,,,,,"[-329, 190]","[-329, 190]",
memory,spatial_recall,324.43558200006373,326.23168920818716,42,7,Animal_Land_Pattern_Small,,,1,1.791947458172217,,,,,,"[-329, -190]","[-329, -190]",
memory,spatial_recall,327.2900097910315,330.3004855001345,42,7,Object_Sea_Pattern_Large,,,1,3.0074141658842564,,,,,,"[329, 189]","[329, 189]",
memory,spatial_recall,331.3589740830939,334.2479600831866,42,7,Animal_Sea_Pattern_Large,,,1,2.885936791775748,,,,,,"[0, 380]","[0, 380]",
