phase,event,trial_number,eyetracker_onset,eyetracker_offset,fix_start,fix_end,fix_duration_full,fix_duration_bounded,fix_x,fix_y,roi_x,roi_y,roi_content,onset,offset,game,image,outcome,choice,correct,rt,letter,match,response,option,true_value,true_position,recalled_position,Unnamed: 18
encoding,fixation,1,31462967,31463983,31463012.0,31463204.0,193.0,193.0,2148.8,856.8,2249.0,1269.0,Animal_Land_Solid_Large,15.667098375037313,16.68304945784621,1.0,Animal_Sea_Solid_Small,6.0,,,,,,,,,,,
encoding,fixation,1,31462967,31463983,31463237.0,31463442.0,206.0,206.0,1839.0,1138.4,1591.0,891.0,Object_Sea_Solid_Small,15.667098375037313,16.68304945784621,1.0,Animal_Sea_Solid_Small,6.0,,,,,,,,,,,
encoding,fixation,1,31462967,31463983,31463453.0,31464185.0,733.0,530.0,1896.1,1125.0,1920.0,1080.0,fixation,15.667098375037313,16.68304945784621,1.0,Animal_Sea_Solid_Small,6.0,,,,,,,,,,,
encoding,image,1,31463983,31465005,31464223.0,31464397.0,175.0,175.0,1554.6,899.8,1591.0,1269.0,Animal_Sea_Solid_Small,16.683178582927212,17.70497041591443,1.0,Animal_Sea_Solid_Small,6.0,,,,,,,,,,,
encoding,image,1,31463983,31465005,31464630.0,31465046.0,417.0,375.0,1557.2,915.0999999999999,1591.0,1269.0,Animal_Sea_Solid_Small,16.683178582927212,17.70497041591443,1.0,Animal_Sea_Solid_Small,6.0,,,,,,,,,,,
encoding,value,1,31465005,31471021,31465058.0,31465223.0,166.0,166.0,1622.5,927.0999999999999,1591.0,1269.0,Animal_Sea_Solid_Small,17.705088957911357,23.72106379107572,1.0,Animal_Sea_Solid_Small,6.0,,,,,,,,,,,
encoding,value,1,31465005,31471021,31465246.0,31465527.0,282.0,282.0,1541.7,802.5,1591.0,1269.0,Animal_Sea_Solid_Small,17.705088957911357,23.72106379107572,1.0,Animal_Sea_Solid_Small,6.0,,,,,,,,,,,
encoding,value,1,31465005,31471021,31465774.0,31466301.0,528.0,528.0,1547.4,796.8,1591.0,1269.0,Animal_Sea_Solid_Small,17.705088957911357,23.72106379107572,1.0,Animal_Sea_Solid_Small,6.0,,,,,,,,,,,
encoding,value,1,31465005,31471021,31466533.0,31467570.0,1038.0,1038.0,1567.3,911.0,1591.0,1269.0,Animal_Sea_Solid_Small,17.705088957911357,23.72106379107572,1.0,Animal_Sea_Solid_Small,6.0,,,,,,,,,,,
encoding,value,1,31465005,31471021,31467782.0,31469074.0,1293.0,1293.0,1567.5,895.2,1591.0,1269.0,Animal_Sea_Solid_Small,17.705088957911357,23.72106379107572,1.0,Animal_Sea_Solid_Small,6.0,,,,,,,,,,,
encoding,value,1,31465005,31471021,31469094.0,31469420.0,327.0,327.0,1570.3,803.8,1591.0,1269.0,Animal_Sea_Solid_Small,17.705088957911357,23.72106379107572,1.0,Animal_Sea_Solid_Small,6.0,,,,,,,,,,,
encoding,value,1,31465005,31471021,31469653.0,31470016.0,364.0,364.0,1544.3,871.2,1591.0,1269.0,Animal_Sea_Solid_Small,17.705088957911357,23.72106379107572,1.0,Animal_Sea_Solid_Small,6.0,,,,,,,,,,,
encoding,value,1,31465005,31471021,31470030.0,31470238.0,209.0,209.0,1556.0,813.5,1591.0,1269.0,Animal_Sea_Solid_Small,17.705088957911357,23.72106379107572,1.0,Animal_Sea_Solid_Small,6.0,,,,,,,,,,,
encoding,value,1,31465005,31471021,31470258.0,31471264.0,1007.0,763.0,1533.6,888.4000000000001,1591.0,1269.0,Animal_Sea_Solid_Small,17.705088957911357,23.72106379107572,1.0,Animal_Sea_Solid_Small,6.0,,,,,,,,,,,
encoding,attention,1,31471021,31474039,31471285.0,31471408.0,124.0,124.0,1548.8,797.5999999999999,1591.0,1269.0,Animal_Sea_Solid_Small,23.72117833304219,26.738704290939495,1.0,Animal_Sea_Solid_Small,6.0,6.0,1.0,2.67358437506482,,,,,,,,
encoding,attention,1,31471021,31474039,31471625.0,31472655.0,1031.0,1031.0,1535.0,785.8,1591.0,1269.0,Animal_Sea_Solid_Small,23.72117833304219,26.738704290939495,1.0,Animal_Sea_Solid_Small,6.0,6.0,1.0,2.67358437506482,,,,,,,,
encoding,attention,1,31471021,31474039,31472691.0,31472786.0,96.0,96.0,1498.7,748.0,1591.0,1269.0,Animal_Sea_Solid_Small,23.72117833304219,26.738704290939495,1.0,Animal_Sea_Solid_Small,6.0,6.0,1.0,2.67358437506482,,,,,,,,
encoding,attention,1,31471021,31474039,31473555.0,31473659.0,105.0,105.0,1445.9,643.3,,,none,23.72117833304219,26.738704290939495,1.0,Animal_Sea_Solid_Small,6.0,6.0,1.0,2.67358437506482,,,,,,,,
encoding,fixation,2,31474039,31474544,31474332.0,31474740.0,409.0,212.0,1868.8,1061.2,1920.0,1080.0,fixation,26.738866582978517,27.24374645785429,1.0,Object_Land_Pattern_Small,2.0,,,,,,,,,,,
encoding,image,2,31474544,31475555,31474784.0,31474931.0,148.0,148.0,1893.0,662.8,1920.0,1460.0,Object_Land_Pattern_Small,27.24394454085268,28.254458624869585,1.0,Object_Land_Pattern_Small,2.0,,,,,,,,,,,
encoding,image,2,31474544,31475555,31475157.0,31475841.0,685.0,398.0,1893.6,737.9000000000001,1920.0,1460.0,Object_Land_Pattern_Small,27.24394454085268,28.254458624869585,1.0,Object_Land_Pattern_Small,2.0,,,,,,,,,,,
encoding,value,2,31475555,31481568,31475864.0,31476036.0,173.0,173.0,1914.5,611.3,1920.0,1460.0,Object_Land_Pattern_Small,28.254569041077048,34.266959625063464,1.0,Object_Land_Pattern_Small,2.0,,,,,,,,,,,
encoding,value,2,31475555,31481568,31476252.0,31476685.0,434.0,434.0,1920.5,591.7,1920.0,1460.0,Object_Land_Pattern_Small,28.254569041077048,34.266959625063464,1.0,Object_Land_Pattern_Small,2.0,,,,,,,,,,,
encoding,value,2,31475555,31481568,31476708.0,31476851.0,144.0,144.0,1878.1,757.5,1920.0,1460.0,Object_Land_Pattern_Small,28.254569041077048,34.266959625063464,1.0,Object_Land_Pattern_Small,2.0,,,,,,,,,,,
encoding,value,2,31475555,31481568,31477092.0,31477939.0,848.0,848.0,1881.1,743.9000000000001,1920.0,1460.0,Object_Land_Pattern_Small,28.254569041077048,34.266959625063464,1.0,Object_Land_Pattern_Small,2.0,,,,,,,,,,,
encoding,value,2,31475555,31481568,31478143.0,31479010.0,868.0,868.0,1893.6,749.0999999999999,1920.0,1460.0,Object_Land_Pattern_Small,28.254569041077048,34.266959625063464,1.0,Object_Land_Pattern_Small,2.0,,,,,,,,,,,
encoding,value,2,31475555,31481568,31479031.0,31479192.0,162.0,162.0,1912.5,651.2,1920.0,1460.0,Object_Land_Pattern_Small,28.254569041077048,34.266959625063464,1.0,Object_Land_Pattern_Small,2.0,,,,,,,,,,,
encoding,value,2,31475555,31481568,31479201.0,31479422.0,222.0,222.0,1927.4,619.0,1920.0,1460.0,Object_Land_Pattern_Small,28.254569041077048,34.266959625063464,1.0,Object_Land_Pattern_Small,2.0,,,,,,,,,,,
encoding,value,2,31475555,31481568,31479651.0,31480447.0,797.0,797.0,1893.5,617.4000000000001,1920.0,1460.0,Object_Land_Pattern_Small,28.254569041077048,34.266959625063464,1.0,Object_Land_Pattern_Small,2.0,,,,,,,,,,,
encoding,value,2,31475555,31481568,31480668.0,31480821.0,154.0,154.0,1909.4,647.9000000000001,1920.0,1460.0,Object_Land_Pattern_Small,28.254569041077048,34.266959625063464,1.0,Object_Land_Pattern_Small,2.0,,,,,,,,,,,
encoding,value,2,31475555,31481568,31480833.0,31481503.0,671.0,671.0,1891.9,754.7,1920.0,1460.0,Object_Land_Pattern_Small,28.254569041077048,34.266959625063464,1.0,Object_Land_Pattern_Small,2.0,,,,,,,,,,,
encoding,attention,2,31481568,31484587,31481737.0,31481960.0,224.0,224.0,1898.2,749.8,1920.0,1460.0,Object_Land_Pattern_Small,34.26707937498577,37.28657520795241,1.0,Object_Land_Pattern_Small,2.0,2.0,1.0,1.435111541999504,,,,,,,,
encoding,attention,2,31481568,31484587,31481981.0,31483288.0,1308.0,1308.0,1873.5,622.2,1920.0,1460.0,Object_Land_Pattern_Small,34.26707937498577,37.28657520795241,1.0,Object_Land_Pattern_Small,2.0,2.0,1.0,1.435111541999504,,,,,,,,
encoding,attention,2,31481568,31484587,31483526.0,31483781.0,256.0,256.0,1906.7,670.4000000000001,1920.0,1460.0,Object_Land_Pattern_Small,34.26707937498577,37.28657520795241,1.0,Object_Land_Pattern_Small,2.0,2.0,1.0,1.435111541999504,,,,,,,,
encoding,fixation,3,31484587,31485593,31484992.0,31485787.0,796.0,601.0,1875.0,1081.2,1920.0,1080.0,fixation,37.2867437498644,38.29207958304323,1.0,Animal_Land_Pattern_Large,-2.0,,,,,,,,,,,
encoding,image,3,31485593,31486604,31485837.0,31486273.0,437.0,437.0,1874.4,1446.6,1920.0,700.0,Animal_Land_Pattern_Large,38.29219862492755,39.30327683291398,1.0,Animal_Land_Pattern_Large,-2.0,,,,,,,,,,,
encoding,image,3,31485593,31486604,31486479.0,31486824.0,346.0,125.0,1890.4,1318.6,1920.0,700.0,Animal_Land_Pattern_Large,38.29219862492755,39.30327683291398,1.0,Animal_Land_Pattern_Large,-2.0,,,,,,,,,,,
encoding,value,3,31486605,31492617,31486835.0,31487208.0,374.0,374.0,1920.8,1361.0,1920.0,700.0,Animal_Land_Pattern_Large,39.30345245799981,45.31565629085526,1.0,Animal_Land_Pattern_Large,-2.0,,,,,,,,,,,
encoding,value,3,31486605,31492617,31487230.0,31487935.0,706.0,706.0,1867.6,1479.2,1920.0,700.0,Animal_Land_Pattern_Large,39.30345245799981,45.31565629085526,1.0,Animal_Land_Pattern_Large,-2.0,,,,,,,,,,,
encoding,value,3,31486605,31492617,31487947.0,31488857.0,911.0,911.0,1894.2,1465.8,1920.0,700.0,Animal_Land_Pattern_Large,39.30345245799981,45.31565629085526,1.0,Animal_Land_Pattern_Large,-2.0,,,,,,,,,,,
encoding,value,3,31486605,31492617,31488878.0,31490216.0,1339.0,1339.0,1905.8,1360.4,1920.0,700.0,Animal_Land_Pattern_Large,39.30345245799981,45.31565629085526,1.0,Animal_Land_Pattern_Large,-2.0,,,,,,,,,,,
encoding,value,3,31486605,31492617,31490429.0,31491268.0,840.0,840.0,1873.7,1454.4,1920.0,700.0,Animal_Land_Pattern_Large,39.30345245799981,45.31565629085526,1.0,Animal_Land_Pattern_Large,-2.0,,,,,,,,,,,
encoding,value,3,31486605,31492617,31491292.0,31491644.0,353.0,353.0,1890.4,1333.3,1920.0,700.0,Animal_Land_Pattern_Large,39.30345245799981,45.31565629085526,1.0,Animal_Land_Pattern_Large,-2.0,,,,,,,,,,,
encoding,value,3,31486605,31492617,31491844.0,31494358.0,2515.0,773.0,1855.1,1350.1,1920.0,700.0,Animal_Land_Pattern_Large,39.30345245799981,45.31565629085526,1.0,Animal_Land_Pattern_Large,-2.0,,,,,,,,,,,
encoding,attention,3,31492617,31495635,,,,,,,,,none,45.31576608307659,48.33327287505381,1.0,Animal_Land_Pattern_Large,-2.0,-2.0,1.0,1.2429254171438515,,,,,,,,
encoding,fixation,4,31495635,31496640,31495870.0,31496032.0,163.0,163.0,1878.7,1113.6,1920.0,1080.0,fixation,48.333431999897584,49.33861941588111,1.0,Object_Sea_Pattern_Large,1.0,,,,,,,,,,,
encoding,fixation,4,31495635,31496640,31496228.0,31496840.0,613.0,412.0,1868.5,1098.5,1920.0,1080.0,fixation,48.333431999897584,49.33861941588111,1.0,Object_Sea_Pattern_Large,1.0,,,,,,,,,,,
encoding,image,4,31496640,31497651,31496880.0,31497110.0,231.0,231.0,2212.4,1274.3,2249.0,891.0,Object_Sea_Pattern_Large,49.33872637501918,50.34982324996963,1.0,Object_Sea_Pattern_Large,1.0,,,,,,,,,,,
encoding,image,4,31496640,31497651,31497280.0,31497938.0,659.0,371.0,2206.3,1237.3,2249.0,891.0,Object_Sea_Pattern_Large,49.33872637501918,50.34982324996963,1.0,Object_Sea_Pattern_Large,1.0,,,,,,,,,,,
encoding,value,4,31497651,31503663,31498194.0,31498456.0,263.0,263.0,2201.9,1211.7,2249.0,891.0,Object_Sea_Pattern_Large,50.349932624958456,56.36116720805876,1.0,Object_Sea_Pattern_Large,1.0,,,,,,,,,,,
encoding,value,4,31497651,31503663,31498469.0,31498986.0,518.0,518.0,2203.6,1260.9,2249.0,891.0,Object_Sea_Pattern_Large,50.349932624958456,56.36116720805876,1.0,Object_Sea_Pattern_Large,1.0,,,,,,,,,,,
encoding,value,4,31497651,31503663,31499201.0,31499826.0,626.0,626.0,2214.9,1236.3,2249.0,891.0,Object_Sea_Pattern_Large,50.349932624958456,56.36116720805876,1.0,Object_Sea_Pattern_Large,1.0,,,,,,,,,,,
encoding,value,4,31497651,31503663,31499838.0,31500324.0,487.0,487.0,2214.7,1198.2,2249.0,891.0,Object_Sea_Pattern_Large,50.349932624958456,56.36116720805876,1.0,Object_Sea_Pattern_Large,1.0,,,,,,,,,,,
encoding,value,4,31497651,31503663,31500561.0,31501262.0,702.0,702.0,2196.6,1258.6,2249.0,891.0,Object_Sea_Pattern_Large,50.349932624958456,56.36116720805876,1.0,Object_Sea_Pattern_Large,1.0,,,,,,,,,,,
encoding,value,4,31497651,31503663,31501274.0,31505230.0,3957.0,2389.0,2206.1,1192.6,2249.0,891.0,Object_Sea_Pattern_Large,50.349932624958456,56.36116720805876,1.0,Object_Sea_Pattern_Large,1.0,,,,,,,,,,,
encoding,attention,4,31503663,31506684,31505248.0,31505521.0,274.0,274.0,2229.3,1269.2,2249.0,891.0,Object_Sea_Pattern_Large,56.36128520802595,59.38170608296059,1.0,Object_Sea_Pattern_Large,1.0,1.0,1.0,1.0678049169946462,,,,,,,,
encoding,fixation,5,31506684,31507189,31506944.0,31507125.0,182.0,182.0,1921.2,1139.0,1920.0,1080.0,fixation,59.381866625044495,59.887262291042134,1.0,Animal_Land_Solid_Large,-3.0,,,,,,,,,,,
encoding,fixation,5,31506684,31507189,31507136.0,31507268.0,133.0,53.0,1891.3,1101.0,1920.0,1080.0,fixation,59.381866625044495,59.887262291042134,1.0,Animal_Land_Solid_Large,-3.0,,,,,,,,,,,
encoding,image,5,31507189,31508201,31507464.0,31507531.0,68.0,68.0,2162.5,1003.0,2249.0,1269.0,Animal_Land_Solid_Large,59.887373874895275,60.89917895803228,1.0,Animal_Land_Solid_Large,-3.0,,,,,,,,,,,
encoding,image,5,31507189,31508201,31507550.0,31508234.0,685.0,651.0,2232.5,926.8,2249.0,1269.0,Animal_Land_Solid_Large,59.887373874895275,60.89917895803228,1.0,Animal_Land_Solid_Large,-3.0,,,,,,,,,,,
encoding,value,5,31508201,31514214,31508481.0,31508631.0,151.0,151.0,2188.5,849.0999999999999,2249.0,1269.0,Animal_Land_Solid_Large,60.89930420788005,66.91194295790046,1.0,Animal_Land_Solid_Large,-3.0,,,,,,,,,,,
encoding,value,5,31508201,31514214,31508644.0,31509192.0,549.0,549.0,2225.9,805.8,2249.0,1269.0,Animal_Land_Solid_Large,60.89930420788005,66.91194295790046,1.0,Animal_Land_Solid_Large,-3.0,,,,,,,,,,,
encoding,value,5,31508201,31514214,31509458.0,31509684.0,227.0,227.0,2222.7,838.3,2249.0,1269.0,Animal_Land_Solid_Large,60.89930420788005,66.91194295790046,1.0,Animal_Land_Solid_Large,-3.0,,,,,,,,,,,
encoding,value,5,31508201,31514214,31509701.0,31510246.0,546.0,546.0,2244.6,925.5,2249.0,1269.0,Animal_Land_Solid_Large,60.89930420788005,66.91194295790046,1.0,Animal_Land_Solid_Large,-3.0,,,,,,,,,,,
encoding,value,5,31508201,31514214,31510500.0,31511180.0,681.0,681.0,2251.8,925.5,2249.0,1269.0,Animal_Land_Solid_Large,60.89930420788005,66.91194295790046,1.0,Animal_Land_Solid_Large,-3.0,,,,,,,,,,,
encoding,value,5,31508201,31514214,31511401.0,31511590.0,190.0,190.0,2221.3,858.8,2249.0,1269.0,Animal_Land_Solid_Large,60.89930420788005,66.91194295790046,1.0,Animal_Land_Solid_Large,-3.0,,,,,,,,,,,
encoding,value,5,31508201,31514214,31511604.0,31512217.0,614.0,614.0,2241.0,925.4000000000001,2249.0,1269.0,Animal_Land_Solid_Large,60.89930420788005,66.91194295790046,1.0,Animal_Land_Solid_Large,-3.0,,,,,,,,,,,
encoding,value,5,31508201,31514214,31512445.0,31513752.0,1308.0,1308.0,2239.2,936.9000000000001,2249.0,1269.0,Animal_Land_Solid_Large,60.89930420788005,66.91194295790046,1.0,Animal_Land_Solid_Large,-3.0,,,,,,,,,,,
encoding,value,5,31508201,31514214,31513947.0,31514708.0,762.0,267.0,2208.9,821.7,2249.0,1269.0,Animal_Land_Solid_Large,60.89930420788005,66.91194295790046,1.0,Animal_Land_Solid_Large,-3.0,,,,,,,,,,,
encoding,attention,5,31514214,31517276,31514946.0,31516031.0,1086.0,1086.0,2161.4,799.8,2249.0,1269.0,Animal_Land_Solid_Large,66.91206245799549,69.97425283305347,1.0,Animal_Land_Solid_Large,-3.0,,,,,,,,,,,
encoding,attention,5,31514214,31517276,31516250.0,31517130.0,881.0,881.0,2157.9,820.0,2249.0,1269.0,Animal_Land_Solid_Large,66.91206245799549,69.97425283305347,1.0,Animal_Land_Solid_Large,-3.0,,,,,,,,,,,
encoding,fixation,6,31517277,31517784,31517321.0,31517750.0,430.0,430.0,2181.7,793.7,2249.0,1269.0,Animal_Land_Solid_Large,69.97437891596928,70.4821755408775,1.0,Object_Sea_Solid_Small,-6.0,,,,,,,,,,,
encoding,image,6,31517784,31518795,31517791.0,31517984.0,194.0,194.0,1916.8,1141.7,1920.0,1080.0,fixation,70.48228779085912,71.49265845795162,1.0,Object_Sea_Solid_Small,-6.0,,,,,,,,,,,
encoding,image,6,31517784,31518795,31518002.0,31518050.0,49.0,49.0,1808.8,1131.3,1591.0,891.0,Object_Sea_Solid_Small,70.48228779085912,71.49265845795162,1.0,Object_Sea_Solid_Small,-6.0,,,,,,,,,,,
encoding,image,6,31517784,31518795,31518084.0,31518627.0,544.0,544.0,1551.6,1283.5,1591.0,891.0,Object_Sea_Solid_Small,70.48228779085912,71.49265845795162,1.0,Object_Sea_Solid_Small,-6.0,,,,,,,,,,,
encoding,value,6,31518795,31524806,31518842.0,31518997.0,156.0,156.0,1578.6,1255.0,1591.0,891.0,Object_Sea_Solid_Small,71.49277441599406,77.5032660830766,1.0,Object_Sea_Solid_Small,-6.0,,,,,,,,,,,
encoding,value,6,31518795,31524806,31519015.0,31519229.0,215.0,215.0,1550.8,1161.6,1591.0,891.0,Object_Sea_Solid_Small,71.49277441599406,77.5032660830766,1.0,Object_Sea_Solid_Small,-6.0,,,,,,,,,,,
encoding,value,6,31518795,31524806,31519459.0,31519665.0,207.0,207.0,1552.2,1234.5,1591.0,891.0,Object_Sea_Solid_Small,71.49277441599406,77.5032660830766,1.0,Object_Sea_Solid_Small,-6.0,,,,,,,,,,,
encoding,value,6,31518795,31524806,31519680.0,31520009.0,330.0,330.0,1565.5,1172.0,1591.0,891.0,Object_Sea_Solid_Small,71.49277441599406,77.5032660830766,1.0,Object_Sea_Solid_Small,-6.0,,,,,,,,,,,
encoding,value,6,31518795,31524806,31520222.0,31520687.0,466.0,466.0,1554.3,1187.5,1591.0,891.0,Object_Sea_Solid_Small,71.49277441599406,77.5032660830766,1.0,Object_Sea_Solid_Small,-6.0,,,,,,,,,,,
encoding,value,6,31518795,31524806,31520705.0,31521098.0,394.0,394.0,1550.1,1271.7,1591.0,891.0,Object_Sea_Solid_Small,71.49277441599406,77.5032660830766,1.0,Object_Sea_Solid_Small,-6.0,,,,,,,,,,,
encoding,value,6,31518795,31524806,31521339.0,31522814.0,1476.0,1476.0,1540.1,1173.4,1591.0,891.0,Object_Sea_Solid_Small,71.49277441599406,77.5032660830766,1.0,Object_Sea_Solid_Small,-6.0,,,,,,,,,,,
encoding,value,6,31518795,31524806,31523018.0,31525146.0,2129.0,1788.0,1556.6,1163.4,1591.0,891.0,Object_Sea_Solid_Small,71.49277441599406,77.5032660830766,1.0,Object_Sea_Solid_Small,-6.0,,,,,,,,,,,
encoding,attention,6,31524806,31527823,31525369.0,31526028.0,660.0,660.0,1516.0,1166.1,1591.0,891.0,Object_Sea_Solid_Small,77.5033880409319,80.52031795796938,1.0,Object_Sea_Solid_Small,-6.0,-6.0,1.0,0.7583910410758108,,,,,,,,
encoding,attention,6,31524806,31527823,31526053.0,31527188.0,1136.0,1136.0,1563.3,1272.4,1591.0,891.0,Object_Sea_Solid_Small,77.5033880409319,80.52031795796938,1.0,Object_Sea_Solid_Small,-6.0,-6.0,1.0,0.7583910410758108,,,,,,,,
encoding,fixation,7,31921066,31921572,31921355.0,31921771.0,417.0,217.0,1893.6,1099.7,1920.0,1080.0,fixation,15.120222332887352,15.62645912496373,2.0,Animal_Sea_Solid_Large,-7.0,,,,,,,,,,,
encoding,image,7,31921572,31922585,31921810.0,31921934.0,125.0,125.0,1918.4,680.0,1920.0,1460.0,Animal_Sea_Solid_Large,15.626594165805727,16.639334874926135,2.0,Animal_Sea_Solid_Large,-7.0,,,,,,,,,,,
encoding,image,7,31921572,31922585,31921943.0,31922101.0,159.0,159.0,1897.3,726.9000000000001,1920.0,1460.0,Animal_Sea_Solid_Large,15.626594165805727,16.639334874926135,2.0,Animal_Sea_Solid_Large,-7.0,,,,,,,,,,,
encoding,image,7,31921572,31922585,31922110.0,31922469.0,360.0,360.0,1896.1,758.9000000000001,1920.0,1460.0,Animal_Sea_Solid_Large,15.626594165805727,16.639334874926135,2.0,Animal_Sea_Solid_Large,-7.0,,,,,,,,,,,
encoding,image,7,31921572,31922585,31922484.0,31922769.0,286.0,101.0,1873.9,692.5,1920.0,1460.0,Animal_Sea_Solid_Large,15.626594165805727,16.639334874926135,2.0,Animal_Sea_Solid_Large,-7.0,,,,,,,,,,,
encoding,value,7,31922585,31928599,31922784.0,31922953.0,170.0,170.0,1910.8,629.7,1920.0,1460.0,Animal_Sea_Solid_Large,16.639496207935736,22.652573375031352,2.0,Animal_Sea_Solid_Large,-7.0,,,,,,,,,,,
encoding,value,7,31922585,31928599,31923178.0,31923424.0,247.0,247.0,1920.9,594.8,1920.0,1460.0,Animal_Sea_Solid_Large,16.639496207935736,22.652573375031352,2.0,Animal_Sea_Solid_Large,-7.0,,,,,,,,,,,
encoding,value,7,31922585,31928599,31923444.0,31923661.0,218.0,218.0,1865.4,730.5999999999999,1920.0,1460.0,Animal_Sea_Solid_Large,16.639496207935736,22.652573375031352,2.0,Animal_Sea_Solid_Large,-7.0,,,,,,,,,,,
encoding,value,7,31922585,31928599,31923683.0,31923925.0,243.0,243.0,1904.4,630.8,1920.0,1460.0,Animal_Sea_Solid_Large,16.639496207935736,22.652573375031352,2.0,Animal_Sea_Solid_Large,-7.0,,,,,,,,,,,
encoding,value,7,31922585,31928599,31924170.0,31925025.0,856.0,856.0,1880.1,747.7,1920.0,1460.0,Animal_Sea_Solid_Large,16.639496207935736,22.652573375031352,2.0,Animal_Sea_Solid_Large,-7.0,,,,,,,,,,,
encoding,value,7,31922585,31928599,31925224.0,31925379.0,156.0,156.0,1903.4,626.5999999999999,1920.0,1460.0,Animal_Sea_Solid_Large,16.639496207935736,22.652573375031352,2.0,Animal_Sea_Solid_Large,-7.0,,,,,,,,,,,
encoding,value,7,31922585,31928599,31925389.0,31926712.0,1324.0,1324.0,1905.9,628.0999999999999,1920.0,1460.0,Animal_Sea_Solid_Large,16.639496207935736,22.652573375031352,2.0,Animal_Sea_Solid_Large,-7.0,,,,,,,,,,,
encoding,value,7,31922585,31928599,31926928.0,31928882.0,1955.0,1671.0,1880.2,629.4000000000001,1920.0,1460.0,Animal_Sea_Solid_Large,16.639496207935736,22.652573375031352,2.0,Animal_Sea_Solid_Large,-7.0,,,,,,,,,,,
encoding,attention,7,31928599,31931617,31928890.0,31928969.0,80.0,80.0,1844.7,615.8,1920.0,1460.0,Animal_Sea_Solid_Large,22.652690957998857,25.67076754081063,2.0,Animal_Sea_Solid_Large,-7.0,-7.0,1.0,1.7215207091066986,,,,,,,,
encoding,attention,7,31928599,31931617,31929200.0,31929777.0,578.0,578.0,1840.8,609.5999999999999,1920.0,1460.0,Animal_Sea_Solid_Large,22.652690957998857,25.67076754081063,2.0,Animal_Sea_Solid_Large,-7.0,-7.0,1.0,1.7215207091066986,,,,,,,,
encoding,attention,7,31928599,31931617,31930040.0,31930803.0,764.0,764.0,1841.8,608.2,1920.0,1460.0,Animal_Sea_Solid_Large,22.652690957998857,25.67076754081063,2.0,Animal_Sea_Solid_Large,-7.0,-7.0,1.0,1.7215207091066986,,,,,,,,
encoding,attention,7,31928599,31931617,31930818.0,31931134.0,317.0,317.0,1943.2,625.9000000000001,1920.0,1460.0,Animal_Sea_Solid_Large,22.652690957998857,25.67076754081063,2.0,Animal_Sea_Solid_Large,-7.0,-7.0,1.0,1.7215207091066986,,,,,,,,
encoding,fixation,8,31931617,31932123,31932045.0,31932183.0,139.0,78.0,1894.7,1124.7,1920.0,1080.0,fixation,25.670913540991023,26.176259957952425,2.0,Object_Sea_Pattern_Small,-1.0,,,,,,,,,,,
encoding,image,8,31932123,31933135,31932192.0,31932385.0,194.0,194.0,1870.7,1089.5,1920.0,1080.0,fixation,26.176370665896684,27.18843708280474,2.0,Object_Sea_Pattern_Small,-1.0,,,,,,,,,,,
encoding,image,8,31932123,31933135,31932434.0,31932801.0,368.0,368.0,1895.5,1432.9,1920.0,700.0,Object_Sea_Pattern_Small,26.176370665896684,27.18843708280474,2.0,Object_Sea_Pattern_Small,-1.0,,,,,,,,,,,
encoding,image,8,31932123,31933135,31932820.0,31933067.0,248.0,248.0,1885.1,1348.4,1920.0,700.0,Object_Sea_Pattern_Small,26.176370665896684,27.18843708280474,2.0,Object_Sea_Pattern_Small,-1.0,,,,,,,,,,,
encoding,value,8,31933135,31939147,31933278.0,31934035.0,758.0,758.0,1878.4,1331.2,1920.0,700.0,Object_Sea_Pattern_Small,27.18853929103352,33.20021649985574,2.0,Object_Sea_Pattern_Small,-1.0,,,,,,,,,,,
encoding,value,8,31933135,31939147,31934231.0,31934576.0,346.0,346.0,1875.2,1339.6,1920.0,700.0,Object_Sea_Pattern_Small,27.18853929103352,33.20021649985574,2.0,Object_Sea_Pattern_Small,-1.0,,,,,,,,,,,
encoding,value,8,31933135,31939147,31934598.0,31934806.0,209.0,209.0,1840.9,1237.5,1920.0,700.0,Object_Sea_Pattern_Small,27.18853929103352,33.20021649985574,2.0,Object_Sea_Pattern_Small,-1.0,,,,,,,,,,,
encoding,value,8,31933135,31939147,31934828.0,31935554.0,727.0,727.0,1874.9,1341.9,1920.0,700.0,Object_Sea_Pattern_Small,27.18853929103352,33.20021649985574,2.0,Object_Sea_Pattern_Small,-1.0,,,,,,,,,,,
encoding,value,8,31933135,31939147,31935615.0,31935640.0,26.0,26.0,1846.7,1033.4,1591.0,1269.0,Animal_Land_Pattern_Small,27.18853929103352,33.20021649985574,2.0,Object_Sea_Pattern_Small,-1.0,,,,,,,,,,,
encoding,value,8,31933135,31939147,31935813.0,31936102.0,290.0,290.0,1845.8,1303.1,1920.0,700.0,Object_Sea_Pattern_Small,27.18853929103352,33.20021649985574,2.0,Object_Sea_Pattern_Small,-1.0,,,,,,,,,,,
encoding,value,8,31933135,31939147,31936113.0,31936920.0,808.0,808.0,1871.1,1353.2,1920.0,700.0,Object_Sea_Pattern_Small,27.18853929103352,33.20021649985574,2.0,Object_Sea_Pattern_Small,-1.0,,,,,,,,,,,
encoding,value,8,31933135,31939147,31937090.0,31938315.0,1226.0,1226.0,1882.7,1348.3,1920.0,700.0,Object_Sea_Pattern_Small,27.18853929103352,33.20021649985574,2.0,Object_Sea_Pattern_Small,-1.0,,,,,,,,,,,
encoding,value,8,31933135,31939147,31938324.0,31938473.0,150.0,150.0,1880.0,1406.7,1920.0,700.0,Object_Sea_Pattern_Small,27.18853929103352,33.20021649985574,2.0,Object_Sea_Pattern_Small,-1.0,,,,,,,,,,,
encoding,value,8,31933135,31939147,31938675.0,31939557.0,883.0,472.0,1877.1,1342.8,1920.0,700.0,Object_Sea_Pattern_Small,27.18853929103352,33.20021649985574,2.0,Object_Sea_Pattern_Small,-1.0,,,,,,,,,,,
encoding,attention,8,31939147,31942165,31939572.0,31940197.0,626.0,626.0,1918.7,1348.6,1920.0,700.0,Object_Sea_Pattern_Small,33.20032687485218,36.21798787498847,2.0,Object_Sea_Pattern_Small,-1.0,-1.0,1.0,0.7799567910842597,,,,,,,,
encoding,fixation,9,31942165,31943671,31942579.0,31942695.0,117.0,117.0,1891.4,1139.7,1920.0,1080.0,fixation,36.21818595798686,37.72369908285327,2.0,Object_Land_Pattern_Large,-3.0,,,,,,,,,,,
encoding,fixation,9,31942165,31943671,31942709.0,31943869.0,1161.0,962.0,1888.1,1091.7,1920.0,1080.0,fixation,36.21818595798686,37.72369908285327,2.0,Object_Land_Pattern_Large,-3.0,,,,,,,,,,,
encoding,image,9,31943671,31944683,31943902.0,31944106.0,205.0,205.0,1609.2,1224.2,1591.0,891.0,Object_Land_Pattern_Large,37.72382529103197,38.73636908293702,2.0,Object_Land_Pattern_Large,-3.0,,,,,,,,,,,
encoding,image,9,31943671,31944683,31944348.0,31944878.0,531.0,335.0,1584.4,1248.3,1591.0,891.0,Object_Land_Pattern_Large,37.72382529103197,38.73636908293702,2.0,Object_Land_Pattern_Large,-3.0,,,,,,,,,,,
encoding,value,9,31944684,31950697,31944896.0,31945121.0,226.0,226.0,1569.7,1155.2,1591.0,891.0,Object_Land_Pattern_Large,38.73648937488906,44.74953691591509,2.0,Object_Land_Pattern_Large,-3.0,,,,,,,,,,,
encoding,value,9,31944684,31950697,31945368.0,31945762.0,395.0,395.0,1597.2,1244.5,1591.0,891.0,Object_Land_Pattern_Large,38.73648937488906,44.74953691591509,2.0,Object_Land_Pattern_Large,-3.0,,,,,,,,,,,
encoding,value,9,31944684,31950697,31946019.0,31946876.0,858.0,858.0,1586.9,1237.0,1591.0,891.0,Object_Land_Pattern_Large,38.73648937488906,44.74953691591509,2.0,Object_Land_Pattern_Large,-3.0,,,,,,,,,,,
encoding,value,9,31944684,31950697,31947089.0,31948244.0,1156.0,1156.0,1607.1,1257.0,1591.0,891.0,Object_Land_Pattern_Large,38.73648937488906,44.74953691591509,2.0,Object_Land_Pattern_Large,-3.0,,,,,,,,,,,
encoding,value,9,31944684,31950697,31948456.0,31950459.0,2004.0,2004.0,1557.4,1150.3,1591.0,891.0,Object_Land_Pattern_Large,38.73648937488906,44.74953691591509,2.0,Object_Land_Pattern_Large,-3.0,,,,,,,,,,,
encoding,value,9,31944684,31950697,31950649.0,31950895.0,247.0,48.0,1568.6,1182.1,1591.0,891.0,Object_Land_Pattern_Large,38.73648937488906,44.74953691591509,2.0,Object_Land_Pattern_Large,-3.0,,,,,,,,,,,
encoding,attention,9,31950697,31953716,31950903.0,31951093.0,191.0,191.0,1528.8,1155.3,1591.0,891.0,Object_Land_Pattern_Large,44.74964345782064,47.76889962493442,2.0,Object_Land_Pattern_Large,-3.0,-3.0,1.0,1.13121937494725,,,,,,,,
encoding,attention,9,31950697,31953716,31951103.0,31952105.0,1003.0,1003.0,1583.6,1138.9,1591.0,891.0,Object_Land_Pattern_Large,44.74964345782064,47.76889962493442,2.0,Object_Land_Pattern_Large,-3.0,-3.0,1.0,1.13121937494725,,,,,,,,
encoding,fixation,10,31953716,31955222,31954198.0,31954355.0,158.0,158.0,1916.6,1141.5,1920.0,1080.0,fixation,47.76908345799893,49.27510429080576,2.0,Animal_Land_Solid_Small,2.0,,,,,,,,,,,
encoding,fixation,10,31953716,31955222,31954369.0,31955429.0,1061.0,853.0,1862.2,1099.8,1920.0,1080.0,fixation,47.76908345799893,49.27510429080576,2.0,Animal_Land_Solid_Small,2.0,,,,,,,,,,,
encoding,image,10,31955223,31956234,31955469.0,31955667.0,199.0,199.0,2195.1,1260.0,2249.0,891.0,Animal_Land_Solid_Small,49.27521420782432,50.286468165926635,2.0,Animal_Land_Solid_Small,2.0,,,,,,,,,,,
encoding,image,10,31955223,31956234,31955895.0,31956688.0,794.0,339.0,2249.3,1306.6,2249.0,891.0,Animal_Land_Solid_Small,49.27521420782432,50.286468165926635,2.0,Animal_Land_Solid_Small,2.0,,,,,,,,,,,
encoding,value,10,31956234,31962246,31956921.0,31957599.0,679.0,679.0,2266.6,1309.7,2249.0,891.0,Animal_Land_Solid_Small,50.28660599980503,56.29791962495074,2.0,Animal_Land_Solid_Small,2.0,,,,,,,,,,,
encoding,value,10,31956234,31962246,31957827.0,31957986.0,160.0,160.0,2256.8,1271.9,2249.0,891.0,Animal_Land_Solid_Small,50.28660599980503,56.29791962495074,2.0,Animal_Land_Solid_Small,2.0,,,,,,,,,,,
encoding,value,10,31956234,31962246,31958009.0,31958313.0,305.0,305.0,2220.2,1188.1,2249.0,891.0,Animal_Land_Solid_Small,50.28660599980503,56.29791962495074,2.0,Animal_Land_Solid_Small,2.0,,,,,,,,,,,
encoding,value,10,31956234,31962246,31958535.0,31959118.0,584.0,584.0,2206.5,1180.4,2249.0,891.0,Animal_Land_Solid_Small,50.28660599980503,56.29791962495074,2.0,Animal_Land_Solid_Small,2.0,,,,,,,,,,,
encoding,value,10,31956234,31962246,31959333.0,31961111.0,1779.0,1779.0,2185.5,1196.7,2249.0,891.0,Animal_Land_Solid_Small,50.28660599980503,56.29791962495074,2.0,Animal_Land_Solid_Small,2.0,,,,,,,,,,,
encoding,value,10,31956234,31962246,31961137.0,31961387.0,251.0,251.0,2224.3,1303.6,2249.0,891.0,Animal_Land_Solid_Small,50.28660599980503,56.29791962495074,2.0,Animal_Land_Solid_Small,2.0,,,,,,,,,,,
encoding,value,10,31956234,31962246,31961585.0,31962361.0,777.0,661.0,2188.7,1185.5,2249.0,891.0,Animal_Land_Solid_Small,50.28660599980503,56.29791962495074,2.0,Animal_Land_Solid_Small,2.0,,,,,,,,,,,
encoding,attention,10,31962246,31965263,31962691.0,31963589.0,899.0,899.0,2237.8,1182.6,2249.0,891.0,Animal_Land_Solid_Small,56.29802849981934,59.31461733300239,2.0,Animal_Land_Solid_Small,2.0,2.0,1.0,0.9529292918741704,,,,,,,,
encoding,fixation,11,31965263,31966022,31965556.0,31966035.0,480.0,466.0,1787.6,1166.8,1591.0,891.0,Object_Land_Pattern_Large,59.31479762494564,60.07361045782454,2.0,Animal_Land_Pattern_Small,3.0,,,,,,,,,,,
encoding,image,11,31966022,31967034,31966278.0,31966438.0,161.0,161.0,1638.0,1196.8,1591.0,891.0,Object_Land_Pattern_Large,60.07373845786787,61.08549058297649,2.0,Animal_Land_Pattern_Small,3.0,,,,,,,,,,,
encoding,image,11,31966022,31967034,31966476.0,31966637.0,162.0,162.0,1549.3,925.2,1591.0,1269.0,Animal_Land_Pattern_Small,60.07373845786787,61.08549058297649,2.0,Animal_Land_Pattern_Small,3.0,,,,,,,,,,,
encoding,image,11,31966022,31967034,31966649.0,31966874.0,226.0,226.0,1578.5,884.7,1591.0,1269.0,Animal_Land_Pattern_Small,60.07373845786787,61.08549058297649,2.0,Animal_Land_Pattern_Small,3.0,,,,,,,,,,,
encoding,value,11,31967034,31973046,31967129.0,31967623.0,495.0,495.0,1574.0,884.8,1591.0,1269.0,Animal_Land_Pattern_Small,61.08561304095201,67.09772441582754,2.0,Animal_Land_Pattern_Small,3.0,,,,,,,,,,,
encoding,value,11,31967034,31973046,31967635.0,31967750.0,116.0,116.0,1552.5,857.4000000000001,1591.0,1269.0,Animal_Land_Pattern_Small,61.08561304095201,67.09772441582754,2.0,Animal_Land_Pattern_Small,3.0,,,,,,,,,,,
encoding,value,11,31967034,31973046,31968002.0,31968582.0,581.0,581.0,1567.8,854.7,1591.0,1269.0,Animal_Land_Pattern_Small,61.08561304095201,67.09772441582754,2.0,Animal_Land_Pattern_Small,3.0,,,,,,,,,,,
encoding,value,11,31967034,31973046,31968820.0,31969150.0,331.0,331.0,1558.8,818.3,1591.0,1269.0,Animal_Land_Pattern_Small,61.08561304095201,67.09772441582754,2.0,Animal_Land_Pattern_Small,3.0,,,,,,,,,,,
encoding,value,11,31967034,31973046,31969164.0,31969852.0,689.0,689.0,1548.5,899.7,1591.0,1269.0,Animal_Land_Pattern_Small,61.08561304095201,67.09772441582754,2.0,Animal_Land_Pattern_Small,3.0,,,,,,,,,,,
encoding,value,11,31967034,31973046,31970054.0,31970964.0,911.0,911.0,1551.6,920.5999999999999,1591.0,1269.0,Animal_Land_Pattern_Small,61.08561304095201,67.09772441582754,2.0,Animal_Land_Pattern_Small,3.0,,,,,,,,,,,
encoding,value,11,31967034,31973046,31970994.0,31971523.0,530.0,530.0,1565.9,783.4000000000001,1591.0,1269.0,Animal_Land_Pattern_Small,61.08561304095201,67.09772441582754,2.0,Animal_Land_Pattern_Small,3.0,,,,,,,,,,,
encoding,value,11,31967034,31973046,31971698.0,31973002.0,1305.0,1305.0,1571.6,790.8,1591.0,1269.0,Animal_Land_Pattern_Small,61.08561304095201,67.09772441582754,2.0,Animal_Land_Pattern_Small,3.0,,,,,,,,,,,
encoding,attention,11,31973046,31976068,31973213.0,31973488.0,276.0,276.0,1575.1,852.7,1591.0,1269.0,Animal_Land_Pattern_Small,67.09783254098147,70.1193777078297,2.0,Animal_Land_Pattern_Small,3.0,3.0,1.0,2.1048618329223245,,,,,,,,
encoding,attention,11,31973046,31976068,31973504.0,31974145.0,642.0,642.0,1566.6,802.8,1591.0,1269.0,Animal_Land_Pattern_Small,67.09783254098147,70.1193777078297,2.0,Animal_Land_Pattern_Small,3.0,3.0,1.0,2.1048618329223245,,,,,,,,
encoding,attention,11,31973046,31976068,31974993.0,31975618.0,626.0,626.0,1508.1,795.0999999999999,1591.0,1269.0,Animal_Land_Pattern_Small,67.09783254098147,70.1193777078297,2.0,Animal_Land_Pattern_Small,3.0,3.0,1.0,2.1048618329223245,,,,,,,,
encoding,fixation,12,31976068,31976573,31976508.0,31976653.0,146.0,65.0,1901.8,1122.1,1920.0,1080.0,fixation,70.11952549987473,70.6244571658317,2.0,Object_Sea_Solid_Large,9.0,,,,,,,,,,,
encoding,image,12,31976573,31977585,31976661.0,31976849.0,189.0,189.0,1874.4,1079.4,1920.0,1080.0,fixation,70.62457020790316,71.63618087489158,2.0,Object_Sea_Solid_Large,9.0,,,,,,,,,,,
encoding,image,12,31976573,31977585,31976889.0,31977095.0,207.0,207.0,2216.4,903.4000000000001,2249.0,1269.0,Object_Sea_Solid_Large,70.62457020790316,71.63618087489158,2.0,Object_Sea_Solid_Large,9.0,,,,,,,,,,,
encoding,image,12,31976573,31977585,31977374.0,31977669.0,296.0,211.0,2146.5,932.7,2249.0,1269.0,Object_Sea_Solid_Large,70.62457020790316,71.63618087489158,2.0,Object_Sea_Solid_Large,9.0,,,,,,,,,,,
encoding,value,12,31977585,31983598,31977899.0,31978043.0,145.0,145.0,2202.6,811.9000000000001,2249.0,1269.0,Object_Sea_Solid_Large,71.63630270794965,77.64887941582128,2.0,Object_Sea_Solid_Large,9.0,,,,,,,,,,,
encoding,value,12,31977585,31983598,31978052.0,31978496.0,445.0,445.0,2230.0,813.8,2249.0,1269.0,Object_Sea_Solid_Large,71.63630270794965,77.64887941582128,2.0,Object_Sea_Solid_Large,9.0,,,,,,,,,,,
encoding,value,12,31977585,31983598,31978720.0,31979101.0,382.0,382.0,2222.7,898.9000000000001,2249.0,1269.0,Object_Sea_Solid_Large,71.63630270794965,77.64887941582128,2.0,Object_Sea_Solid_Large,9.0,,,,,,,,,,,
encoding,value,12,31977585,31983598,31979108.0,31979381.0,274.0,274.0,2199.0,910.8,2249.0,1269.0,Object_Sea_Solid_Large,71.63630270794965,77.64887941582128,2.0,Object_Sea_Solid_Large,9.0,,,,,,,,,,,
encoding,value,12,31977585,31983598,31979611.0,31980228.0,618.0,618.0,2220.3,884.3,2249.0,1269.0,Object_Sea_Solid_Large,71.63630270794965,77.64887941582128,2.0,Object_Sea_Solid_Large,9.0,,,,,,,,,,,
encoding,value,12,31977585,31983598,31980246.0,31980354.0,109.0,109.0,2192.8,808.2,2249.0,1269.0,Object_Sea_Solid_Large,71.63630270794965,77.64887941582128,2.0,Object_Sea_Solid_Large,9.0,,,,,,,,,,,
encoding,value,12,31977585,31983598,31980362.0,31980405.0,44.0,44.0,2229.6,773.9000000000001,2249.0,1269.0,Object_Sea_Solid_Large,71.63630270794965,77.64887941582128,2.0,Object_Sea_Solid_Large,9.0,,,,,,,,,,,
encoding,value,12,31977585,31983598,31980622.0,31981555.0,934.0,934.0,2215.3,802.3,2249.0,1269.0,Object_Sea_Solid_Large,71.63630270794965,77.64887941582128,2.0,Object_Sea_Solid_Large,9.0,,,,,,,,,,,
encoding,value,12,31977585,31983598,31981774.0,31982938.0,1165.0,1165.0,2201.7,794.5999999999999,2249.0,1269.0,Object_Sea_Solid_Large,71.63630270794965,77.64887941582128,2.0,Object_Sea_Solid_Large,9.0,,,,,,,,,,,
encoding,value,12,31977585,31983598,31983157.0,31983876.0,720.0,441.0,2196.0,807.7,2249.0,1269.0,Object_Sea_Solid_Large,71.63630270794965,77.64887941582128,2.0,Object_Sea_Solid_Large,9.0,,,,,,,,,,,
encoding,attention,12,31983598,31986616,31984129.0,31985101.0,973.0,973.0,2178.1,805.0,2249.0,1269.0,Object_Sea_Solid_Large,77.64900283282623,80.66710329102352,2.0,Object_Sea_Solid_Large,9.0,9.0,1.0,1.178687416948378,,,,,,,,
encoding,attention,12,31983598,31986616,31985369.0,31985680.0,312.0,312.0,2196.3,909.8,2249.0,1269.0,Object_Sea_Solid_Large,77.64900283282623,80.66710329102352,2.0,Object_Sea_Solid_Large,9.0,9.0,1.0,1.178687416948378,,,,,,,,
encoding,attention,12,31983598,31986616,31985707.0,31985911.0,205.0,205.0,1928.3,1011.9000000000001,1920.0,1080.0,fixation,77.64900283282623,80.66710329102352,2.0,Object_Sea_Solid_Large,9.0,9.0,1.0,1.178687416948378,,,,,,,,
encoding,attention,12,31983598,31986616,31985920.0,31986065.0,146.0,146.0,1885.2,1048.8,1920.0,1080.0,fixation,77.64900283282623,80.66710329102352,2.0,Object_Sea_Solid_Large,9.0,9.0,1.0,1.178687416948378,,,,,,,,
encoding,fixation,13,32316779,32318287,32316839.0,32317027.0,189.0,189.0,2016.4,1133.7,2249.0,891.0,Object_Land_Solid_Large,10.615613125031814,12.123452249914408,3.0,Animal_Sea_Pattern_Large,-9.0,,,,,,,,,,,
encoding,fixation,13,32316779,32318287,32317044.0,32318486.0,1443.0,1243.0,1863.8,1120.7,1920.0,1080.0,fixation,10.615613125031814,12.123452249914408,3.0,Animal_Sea_Pattern_Large,-9.0,,,,,,,,,,,
encoding,image,13,32318287,32319298,32318523.0,32318710.0,188.0,188.0,1898.8,1418.4,1920.0,700.0,Animal_Sea_Pattern_Large,12.123600041028112,13.13500849995762,3.0,Animal_Sea_Pattern_Large,-9.0,,,,,,,,,,,
encoding,image,13,32318287,32319298,32318905.0,32319314.0,410.0,393.0,1884.4,1454.1,1920.0,700.0,Animal_Sea_Pattern_Large,12.123600041028112,13.13500849995762,3.0,Animal_Sea_Pattern_Large,-9.0,,,,,,,,,,,
encoding,value,13,32319298,32325311,32319346.0,32319580.0,235.0,235.0,1920.0,1322.7,1920.0,700.0,Animal_Sea_Pattern_Large,13.135170083027331,19.14806512510404,3.0,Animal_Sea_Pattern_Large,-9.0,,,,,,,,,,,
encoding,value,13,32319298,32325311,32319587.0,32319780.0,194.0,194.0,1906.5,1362.8,1920.0,700.0,Animal_Sea_Pattern_Large,13.135170083027331,19.14806512510404,3.0,Animal_Sea_Pattern_Large,-9.0,,,,,,,,,,,
encoding,value,13,32319298,32325311,32319987.0,32320409.0,423.0,423.0,1899.2,1350.5,1920.0,700.0,Animal_Sea_Pattern_Large,13.135170083027331,19.14806512510404,3.0,Animal_Sea_Pattern_Large,-9.0,,,,,,,,,,,
encoding,value,13,32319298,32325311,32320419.0,32320846.0,428.0,428.0,1856.9,1301.2,1920.0,700.0,Animal_Sea_Pattern_Large,13.135170083027331,19.14806512510404,3.0,Animal_Sea_Pattern_Large,-9.0,,,,,,,,,,,
encoding,value,13,32319298,32325311,32321003.0,32321648.0,646.0,646.0,1888.4,1335.6,1920.0,700.0,Animal_Sea_Pattern_Large,13.135170083027331,19.14806512510404,3.0,Animal_Sea_Pattern_Large,-9.0,,,,,,,,,,,
encoding,value,13,32319298,32325311,32321858.0,32323103.0,1246.0,1246.0,1893.9,1358.6,1920.0,700.0,Animal_Sea_Pattern_Large,13.135170083027331,19.14806512510404,3.0,Animal_Sea_Pattern_Large,-9.0,,,,,,,,,,,
encoding,value,13,32319298,32325311,32323249.0,32324141.0,893.0,893.0,1886.1,1346.7,1920.0,700.0,Animal_Sea_Pattern_Large,13.135170083027331,19.14806512510404,3.0,Animal_Sea_Pattern_Large,-9.0,,,,,,,,,,,
encoding,value,13,32319298,32325311,32324301.0,32325568.0,1268.0,1010.0,1892.3,1362.8,1920.0,700.0,Animal_Sea_Pattern_Large,13.135170083027331,19.14806512510404,3.0,Animal_Sea_Pattern_Large,-9.0,,,,,,,,,,,
encoding,attention,13,32325311,32328329,32325796.0,32326737.0,942.0,942.0,1842.6,1353.9,1920.0,700.0,Animal_Sea_Pattern_Large,19.148189791012555,22.16529320809059,3.0,Animal_Sea_Pattern_Large,-9.0,-9.0,1.0,0.8789274590089917,,,,,,,,
encoding,fixation,14,32328329,32329087,32328840.0,32329077.0,238.0,238.0,1878.7,1204.5,1920.0,700.0,Animal_Sea_Pattern_Large,22.16544516594149,22.923490332905203,3.0,Animal_Sea_Solid_Small,-9.0,,,,,,,,,,,
encoding,image,14,32329087,32330098,32329096.0,32329307.0,212.0,212.0,1889.9,1106.4,1920.0,1080.0,fixation,22.92360591609031,23.934458333067596,3.0,Animal_Sea_Solid_Small,-9.0,,,,,,,,,,,
encoding,image,14,32329087,32330098,32329345.0,32330294.0,950.0,753.0,1557.3,876.5999999999999,1591.0,1269.0,Animal_Sea_Solid_Small,22.92360591609031,23.934458333067596,3.0,Animal_Sea_Solid_Small,-9.0,,,,,,,,,,,
encoding,value,14,32330098,32336110,32330310.0,32330945.0,636.0,636.0,1561.1,789.9000000000001,1591.0,1269.0,Animal_Sea_Solid_Small,23.93457358307205,29.94597829109989,3.0,Animal_Sea_Solid_Small,-9.0,,,,,,,,,,,
encoding,value,14,32330098,32336110,32331142.0,32331329.0,188.0,188.0,1553.5,815.5,1591.0,1269.0,Animal_Sea_Solid_Small,23.93457358307205,29.94597829109989,3.0,Animal_Sea_Solid_Small,-9.0,,,,,,,,,,,
encoding,value,14,32330098,32336110,32331339.0,32332070.0,732.0,732.0,1549.2,885.5999999999999,1591.0,1269.0,Animal_Sea_Solid_Small,23.93457358307205,29.94597829109989,3.0,Animal_Sea_Solid_Small,-9.0,,,,,,,,,,,
encoding,value,14,32330098,32336110,32332294.0,32333125.0,832.0,832.0,1554.3,890.4000000000001,1591.0,1269.0,Animal_Sea_Solid_Small,23.93457358307205,29.94597829109989,3.0,Animal_Sea_Solid_Small,-9.0,,,,,,,,,,,
encoding,value,14,32330098,32336110,32333366.0,32334206.0,841.0,841.0,1553.4,877.7,1591.0,1269.0,Animal_Sea_Solid_Small,23.93457358307205,29.94597829109989,3.0,Animal_Sea_Solid_Small,-9.0,,,,,,,,,,,
encoding,value,14,32330098,32336110,32334223.0,32334735.0,513.0,513.0,1545.2,783.8,1591.0,1269.0,Animal_Sea_Solid_Small,23.93457358307205,29.94597829109989,3.0,Animal_Sea_Solid_Small,-9.0,,,,,,,,,,,
encoding,value,14,32330098,32336110,32334921.0,32336434.0,1514.0,1189.0,1545.1,777.5999999999999,1591.0,1269.0,Animal_Sea_Solid_Small,23.93457358307205,29.94597829109989,3.0,Animal_Sea_Solid_Small,-9.0,,,,,,,,,,,
encoding,attention,14,32336110,32339130,32336633.0,32337558.0,926.0,926.0,1502.1,780.3,1591.0,1269.0,Animal_Sea_Solid_Small,29.94609362492338,32.9659922500141,3.0,Animal_Sea_Solid_Small,-9.0,-9.0,1.0,0.944962790934369,,,,,,,,
encoding,attention,14,32336110,32339130,32337575.0,32337960.0,386.0,386.0,1540.6,874.0999999999999,1591.0,1269.0,Animal_Sea_Solid_Small,29.94609362492338,32.9659922500141,3.0,Animal_Sea_Solid_Small,-9.0,-9.0,1.0,0.944962790934369,,,,,,,,
encoding,fixation,15,32339130,32340137,32339627.0,32340393.0,767.0,510.0,1892.7,1106.8,1920.0,1080.0,fixation,32.96615875000134,33.97316320799291,3.0,Object_Land_Solid_Large,1.0,,,,,,,,,,,
encoding,image,15,32340137,32341148,32340432.0,32341315.0,884.0,716.0,2225.0,1279.3,2249.0,891.0,Object_Land_Solid_Large,33.97328345803544,34.98425874998793,3.0,Object_Land_Solid_Large,1.0,,,,,,,,,,,
encoding,value,15,32341148,32347160,32341332.0,32341430.0,99.0,99.0,2214.3,1193.4,2249.0,891.0,Object_Land_Solid_Large,34.9843835409265,40.9958197909873,3.0,Object_Land_Solid_Large,1.0,,,,,,,,,,,
encoding,value,15,32341148,32347160,32341669.0,32342062.0,394.0,394.0,2220.2,1202.6,2249.0,891.0,Object_Land_Solid_Large,34.9843835409265,40.9958197909873,3.0,Object_Land_Solid_Large,1.0,,,,,,,,,,,
encoding,value,15,32341148,32347160,32342315.0,32342953.0,639.0,639.0,2218.9,1282.7,2249.0,891.0,Object_Land_Solid_Large,34.9843835409265,40.9958197909873,3.0,Object_Land_Solid_Large,1.0,,,,,,,,,,,
encoding,value,15,32341148,32347160,32343215.0,32343595.0,381.0,381.0,2227.0,1201.7,2249.0,891.0,Object_Land_Solid_Large,34.9843835409265,40.9958197909873,3.0,Object_Land_Solid_Large,1.0,,,,,,,,,,,
encoding,value,15,32341148,32347160,32343614.0,32344133.0,520.0,520.0,2206.6,1291.1,2249.0,891.0,Object_Land_Solid_Large,34.9843835409265,40.9958197909873,3.0,Object_Land_Solid_Large,1.0,,,,,,,,,,,
encoding,value,15,32341148,32347160,32344359.0,32345515.0,1157.0,1157.0,2223.4,1292.3,2249.0,891.0,Object_Land_Solid_Large,34.9843835409265,40.9958197909873,3.0,Object_Land_Solid_Large,1.0,,,,,,,,,,,
encoding,value,15,32341148,32347160,32345714.0,32347094.0,1381.0,1381.0,2202.2,1315.7,2249.0,891.0,Object_Land_Solid_Large,34.9843835409265,40.9958197909873,3.0,Object_Land_Solid_Large,1.0,,,,,,,,,,,
encoding,attention,15,32347160,32350180,32347305.0,32347586.0,282.0,282.0,2194.0,1311.1,2249.0,891.0,Object_Land_Solid_Large,40.99593816604465,44.01568670803681,3.0,Object_Land_Solid_Large,1.0,1.0,1.0,1.549935958813876,,,,,,,,
encoding,attention,15,32347160,32350180,32347607.0,32347968.0,362.0,362.0,2151.9,1211.4,2249.0,891.0,Object_Land_Solid_Large,40.99593816604465,44.01568670803681,3.0,Object_Land_Solid_Large,1.0,1.0,1.0,1.549935958813876,,,,,,,,
encoding,attention,15,32347160,32350180,32348213.0,32348458.0,246.0,246.0,2238.6,1240.0,2249.0,891.0,Object_Land_Solid_Large,40.99593816604465,44.01568670803681,3.0,Object_Land_Solid_Large,1.0,1.0,1.0,1.549935958813876,,,,,,,,
encoding,attention,15,32347160,32350180,32348467.0,32349016.0,550.0,550.0,2229.8,1212.2,2249.0,891.0,Object_Land_Solid_Large,40.99593816604465,44.01568670803681,3.0,Object_Land_Solid_Large,1.0,1.0,1.0,1.549935958813876,,,,,,,,
encoding,fixation,16,32350180,32350938,32350646.0,32350784.0,139.0,139.0,1889.2,1154.2,1920.0,700.0,Animal_Sea_Pattern_Large,44.015903499908745,44.77312866598368,3.0,Animal_Sea_Pattern_Small,9.0,,,,,,,,,,,
encoding,fixation,16,32350180,32350938,32350797.0,32351233.0,437.0,141.0,1867.4,1102.1,1920.0,1080.0,fixation,44.015903499908745,44.77312866598368,3.0,Animal_Sea_Pattern_Small,9.0,,,,,,,,,,,
encoding,image,16,32350938,32351949,32351274.0,32351464.0,191.0,191.0,2184.0,932.3,2249.0,1269.0,Animal_Sea_Pattern_Small,44.773256625048816,45.78453008295037,3.0,Animal_Sea_Pattern_Small,9.0,,,,,,,,,,,
encoding,image,16,32350938,32351949,32351706.0,32352113.0,408.0,243.0,2220.6,912.7,2249.0,1269.0,Animal_Sea_Pattern_Small,44.773256625048816,45.78453008295037,3.0,Animal_Sea_Pattern_Small,9.0,,,,,,,,,,,
encoding,value,16,32351949,32357962,32352130.0,32352561.0,432.0,432.0,2215.3,809.0,2249.0,1269.0,Animal_Sea_Pattern_Small,45.784693124936894,51.79691587504931,3.0,Animal_Sea_Pattern_Small,9.0,,,,,,,,,,,
encoding,value,16,32351949,32357962,32352784.0,32352922.0,139.0,139.0,2209.8,817.0999999999999,2249.0,1269.0,Animal_Sea_Pattern_Small,45.784693124936894,51.79691587504931,3.0,Animal_Sea_Pattern_Small,9.0,,,,,,,,,,,
encoding,value,16,32351949,32357962,32352937.0,32353249.0,313.0,313.0,2202.7,924.5,2249.0,1269.0,Animal_Sea_Pattern_Small,45.784693124936894,51.79691587504931,3.0,Animal_Sea_Pattern_Small,9.0,,,,,,,,,,,
encoding,value,16,32351949,32357962,32353501.0,32354211.0,711.0,711.0,2231.5,905.8,2249.0,1269.0,Animal_Sea_Pattern_Small,45.784693124936894,51.79691587504931,3.0,Animal_Sea_Pattern_Small,9.0,,,,,,,,,,,
encoding,value,16,32351949,32357962,32354461.0,32355216.0,756.0,756.0,2231.8,912.5999999999999,2249.0,1269.0,Animal_Sea_Pattern_Small,45.784693124936894,51.79691587504931,3.0,Animal_Sea_Pattern_Small,9.0,,,,,,,,,,,
encoding,value,16,32351949,32357962,32355469.0,32356345.0,877.0,877.0,2212.4,929.5999999999999,2249.0,1269.0,Animal_Sea_Pattern_Small,45.784693124936894,51.79691587504931,3.0,Animal_Sea_Pattern_Small,9.0,,,,,,,,,,,
encoding,value,16,32351949,32357962,32356555.0,32357167.0,613.0,613.0,2229.1,809.8,2249.0,1269.0,Animal_Sea_Pattern_Small,45.784693124936894,51.79691587504931,3.0,Animal_Sea_Pattern_Small,9.0,,,,,,,,,,,
encoding,value,16,32351949,32357962,32357407.0,32358297.0,891.0,555.0,2221.4,889.5,2249.0,1269.0,Animal_Sea_Pattern_Small,45.784693124936894,51.79691587504931,3.0,Animal_Sea_Pattern_Small,9.0,,,,,,,,,,,
encoding,attention,16,32357962,32360981,32358506.0,32359012.0,507.0,507.0,2260.1,805.5999999999999,2249.0,1269.0,Animal_Sea_Pattern_Small,51.79706583288498,54.81599483289756,3.0,Animal_Sea_Pattern_Small,9.0,9.0,1.0,1.7485408748034388,,,,,,,,
encoding,attention,16,32357962,32360981,32359026.0,32359954.0,929.0,929.0,2167.4,798.3,2249.0,1269.0,Animal_Sea_Pattern_Small,51.79706583288498,54.81599483289756,3.0,Animal_Sea_Pattern_Small,9.0,9.0,1.0,1.7485408748034388,,,,,,,,
encoding,fixation,17,32360981,32362489,32361478.0,32361902.0,425.0,425.0,1924.7,1307.4,1920.0,700.0,Animal_Sea_Pattern_Large,54.81613779091276,56.32357658306137,3.0,Object_Land_Pattern_Large,2.0,,,,,,,,,,,
encoding,fixation,17,32360981,32362489,32361945.0,32361967.0,23.0,23.0,1838.6,1054.3,1591.0,1269.0,Animal_Sea_Solid_Small,54.81613779091276,56.32357658306137,3.0,Object_Land_Pattern_Large,2.0,,,,,,,,,,,
encoding,fixation,17,32360981,32362489,32362204.0,32362684.0,481.0,285.0,1883.4,1107.5,1920.0,1080.0,fixation,54.81613779091276,56.32357658306137,3.0,Object_Land_Pattern_Large,2.0,,,,,,,,,,,
encoding,image,17,32362489,32363501,32362718.0,32363072.0,355.0,355.0,1576.2,1246.6,1591.0,891.0,Object_Land_Pattern_Large,56.32370816590264,57.33584999991581,3.0,Object_Land_Pattern_Large,2.0,,,,,,,,,,,
encoding,image,17,32362489,32363501,32363274.0,32363638.0,365.0,227.0,1558.5,1263.3,1591.0,891.0,Object_Land_Pattern_Large,56.32370816590264,57.33584999991581,3.0,Object_Land_Pattern_Large,2.0,,,,,,,,,,,
encoding,value,17,32363501,32369514,32363657.0,32363959.0,303.0,303.0,1560.7,1138.9,1591.0,891.0,Object_Land_Pattern_Large,57.335971290944144,63.34835895802826,3.0,Object_Land_Pattern_Large,2.0,,,,,,,,,,,
encoding,value,17,32363501,32369514,32364190.0,32365010.0,821.0,821.0,1566.0,1159.0,1591.0,891.0,Object_Land_Pattern_Large,57.335971290944144,63.34835895802826,3.0,Object_Land_Pattern_Large,2.0,,,,,,,,,,,
encoding,value,17,32363501,32369514,32365220.0,32366848.0,1629.0,1629.0,1543.4,1152.9,1591.0,891.0,Object_Land_Pattern_Large,57.335971290944144,63.34835895802826,3.0,Object_Land_Pattern_Large,2.0,,,,,,,,,,,
encoding,value,17,32363501,32369514,32367064.0,32368374.0,1311.0,1311.0,1550.6,1160.1,1591.0,891.0,Object_Land_Pattern_Large,57.335971290944144,63.34835895802826,3.0,Object_Land_Pattern_Large,2.0,,,,,,,,,,,
encoding,value,17,32363501,32369514,32368569.0,32369396.0,828.0,828.0,1560.1,1161.7,1591.0,891.0,Object_Land_Pattern_Large,57.335971290944144,63.34835895802826,3.0,Object_Land_Pattern_Large,2.0,,,,,,,,,,,
encoding,attention,17,32369514,32372533,32369632.0,32369864.0,233.0,233.0,1570.6,1244.2,1591.0,891.0,Object_Land_Pattern_Large,63.348473249934614,66.36768583301455,3.0,Object_Land_Pattern_Large,2.0,2.0,1.0,0.9907572090160102,,,,,,,,
encoding,attention,17,32369514,32372533,32369882.0,32370099.0,218.0,218.0,1542.0,1164.3,1591.0,891.0,Object_Land_Pattern_Large,63.348473249934614,66.36768583301455,3.0,Object_Land_Pattern_Large,2.0,2.0,1.0,0.9907572090160102,,,,,,,,
encoding,attention,17,32369514,32372533,32370111.0,32370742.0,632.0,632.0,1610.2,1157.6,1591.0,891.0,Object_Land_Pattern_Large,63.348473249934614,66.36768583301455,3.0,Object_Land_Pattern_Large,2.0,2.0,1.0,0.9907572090160102,,,,,,,,
encoding,attention,17,32369514,32372533,32371032.0,32371955.0,924.0,924.0,1577.6,1264.4,1591.0,891.0,Object_Land_Pattern_Large,63.348473249934614,66.36768583301455,3.0,Object_Land_Pattern_Large,2.0,2.0,1.0,0.9907572090160102,,,,,,,,
encoding,fixation,18,32372533,32373289,32372593.0,32372758.0,166.0,166.0,1570.0,1160.0,1591.0,891.0,Object_Land_Pattern_Large,66.36794045800343,67.12383079109713,3.0,Object_Land_Solid_Small,-7.0,,,,,,,,,,,
encoding,fixation,18,32372533,32373289,32372990.0,32373139.0,150.0,150.0,1955.2,1086.4,1920.0,1080.0,fixation,66.36794045800343,67.12383079109713,3.0,Object_Land_Solid_Small,-7.0,,,,,,,,,,,
encoding,fixation,18,32372533,32373289,32373153.0,32373544.0,392.0,136.0,1877.2,1101.3,1920.0,1080.0,fixation,66.36794045800343,67.12383079109713,3.0,Object_Land_Solid_Small,-7.0,,,,,,,,,,,
encoding,image,18,32373289,32374301,32373587.0,32373743.0,157.0,157.0,1856.5,762.0,1920.0,1460.0,Object_Land_Solid_Small,67.12395570799708,68.13560925005004,3.0,Object_Land_Solid_Small,-7.0,,,,,,,,,,,
encoding,image,18,32373289,32374301,32373752.0,32373967.0,216.0,216.0,1886.5,732.0999999999999,1920.0,1460.0,Object_Land_Solid_Small,67.12395570799708,68.13560925005004,3.0,Object_Land_Solid_Small,-7.0,,,,,,,,,,,
encoding,image,18,32373289,32374301,32374222.0,32374369.0,148.0,79.0,1899.5,669.9000000000001,1920.0,1460.0,Object_Land_Solid_Small,67.12395570799708,68.13560925005004,3.0,Object_Land_Solid_Small,-7.0,,,,,,,,,,,
encoding,value,18,32374301,32380313,32374379.0,32374506.0,128.0,128.0,1896.4,683.4000000000001,1920.0,1460.0,Object_Land_Solid_Small,68.13580237491988,74.14739624992944,3.0,Object_Land_Solid_Small,-7.0,,,,,,,,,,,
encoding,value,18,32374301,32380313,32374519.0,32375148.0,630.0,630.0,1905.5,619.8,1920.0,1460.0,Object_Land_Solid_Small,68.13580237491988,74.14739624992944,3.0,Object_Land_Solid_Small,-7.0,,,,,,,,,,,
encoding,value,18,32374301,32380313,32375378.0,32376274.0,897.0,897.0,1873.5,704.4000000000001,1920.0,1460.0,Object_Land_Solid_Small,68.13580237491988,74.14739624992944,3.0,Object_Land_Solid_Small,-7.0,,,,,,,,,,,
encoding,value,18,32374301,32380313,32376502.0,32377237.0,736.0,736.0,1851.6,724.7,1920.0,1460.0,Object_Land_Solid_Small,68.13580237491988,74.14739624992944,3.0,Object_Land_Solid_Small,-7.0,,,,,,,,,,,
encoding,value,18,32374301,32380313,32377467.0,32379945.0,2479.0,2479.0,1881.4,627.3,1920.0,1460.0,Object_Land_Solid_Small,68.13580237491988,74.14739624992944,3.0,Object_Land_Solid_Small,-7.0,,,,,,,,,,,
encoding,value,18,32374301,32380313,32380129.0,32380827.0,699.0,184.0,1866.1,638.0,1920.0,1460.0,Object_Land_Solid_Small,68.13580237491988,74.14739624992944,3.0,Object_Land_Solid_Small,-7.0,,,,,,,,,,,
encoding,attention,18,32380313,32383333,32380841.0,32382022.0,1182.0,1182.0,1929.1,628.3,1920.0,1460.0,Object_Land_Solid_Small,74.14754341589287,77.16752158291638,3.0,Object_Land_Solid_Small,-7.0,-7.0,1.0,1.038214416941628,,,,,,,,
encoding,attention,18,32380313,32383333,32382042.0,32383228.0,1187.0,1187.0,1853.6,722.3,1920.0,1460.0,Object_Land_Solid_Small,74.14754341589287,77.16752158291638,3.0,Object_Land_Solid_Small,-7.0,-7.0,1.0,1.038214416941628,,,,,,,,
encoding,fixation,19,32682986,32684242,32683241.0,32684420.0,1180.0,1001.0,1897.8,1103.2,1920.0,1080.0,fixation,5.257003791863099,6.51308354199864,4.0,Object_Sea_Solid_Small,9.0,,,,,,,,,,,
encoding,image,19,32684243,32685255,32684448.0,32684906.0,459.0,459.0,1563.1,1244.1,1591.0,891.0,Object_Sea_Solid_Small,6.513218041975051,7.52577833388932,4.0,Object_Sea_Solid_Small,9.0,,,,,,,,,,,
encoding,image,19,32684243,32685255,32685113.0,32685345.0,233.0,142.0,1596.7,1211.5,1591.0,891.0,Object_Sea_Solid_Small,6.513218041975051,7.52577833388932,4.0,Object_Sea_Solid_Small,9.0,,,,,,,,,,,
encoding,value,19,32685255,32691268,32685358.0,32685731.0,374.0,374.0,1564.0,1157.5,1591.0,891.0,Object_Sea_Solid_Small,7.525889166863635,13.538562083849683,4.0,Object_Sea_Solid_Small,9.0,,,,,,,,,,,
encoding,value,19,32685255,32691268,32685961.0,32686294.0,334.0,334.0,1567.3,1167.9,1591.0,891.0,Object_Sea_Solid_Small,7.525889166863635,13.538562083849683,4.0,Object_Sea_Solid_Small,9.0,,,,,,,,,,,
encoding,value,19,32685255,32691268,32686518.0,32687959.0,1442.0,1442.0,1556.2,1158.8,1591.0,891.0,Object_Sea_Solid_Small,7.525889166863635,13.538562083849683,4.0,Object_Sea_Solid_Small,9.0,,,,,,,,,,,
encoding,value,19,32685255,32691268,32688158.0,32688632.0,475.0,475.0,1534.5,1153.8,1591.0,891.0,Object_Sea_Solid_Small,7.525889166863635,13.538562083849683,4.0,Object_Sea_Solid_Small,9.0,,,,,,,,,,,
encoding,value,19,32685255,32691268,32688654.0,32688917.0,264.0,264.0,1543.9,1263.0,1591.0,891.0,Object_Sea_Solid_Small,7.525889166863635,13.538562083849683,4.0,Object_Sea_Solid_Small,9.0,,,,,,,,,,,
encoding,value,19,32685255,32691268,32689119.0,32689471.0,353.0,353.0,1549.0,1239.9,1591.0,891.0,Object_Sea_Solid_Small,7.525889166863635,13.538562083849683,4.0,Object_Sea_Solid_Small,9.0,,,,,,,,,,,
encoding,value,19,32685255,32691268,32689491.0,32689751.0,261.0,261.0,1546.5,1143.0,1591.0,891.0,Object_Sea_Solid_Small,7.525889166863635,13.538562083849683,4.0,Object_Sea_Solid_Small,9.0,,,,,,,,,,,
encoding,value,19,32685255,32691268,32689952.0,32690201.0,250.0,250.0,1536.6,1142.9,1591.0,891.0,Object_Sea_Solid_Small,7.525889166863635,13.538562083849683,4.0,Object_Sea_Solid_Small,9.0,,,,,,,,,,,
encoding,value,19,32685255,32691268,32690222.0,32691469.0,1248.0,1046.0,1560.6,1261.9,1591.0,891.0,Object_Sea_Solid_Small,7.525889166863635,13.538562083849683,4.0,Object_Sea_Solid_Small,9.0,,,,,,,,,,,
encoding,attention,19,32691268,32694287,32691488.0,32691593.0,106.0,106.0,1534.3,1180.0,1591.0,891.0,Object_Sea_Solid_Small,13.538673541974276,16.557523749768734,4.0,Object_Sea_Solid_Small,9.0,9.0,1.0,1.3155787498690188,,,,,,,,
encoding,attention,19,32691268,32694287,32691820.0,32692048.0,229.0,229.0,1566.6,1148.5,1591.0,891.0,Object_Sea_Solid_Small,13.538673541974276,16.557523749768734,4.0,Object_Sea_Solid_Small,9.0,9.0,1.0,1.3155787498690188,,,,,,,,
encoding,attention,19,32691268,32694287,32692059.0,32692260.0,202.0,202.0,1498.5,1165.8,1591.0,891.0,Object_Sea_Solid_Small,13.538673541974276,16.557523749768734,4.0,Object_Sea_Solid_Small,9.0,9.0,1.0,1.3155787498690188,,,,,,,,
encoding,attention,19,32691268,32694287,32692273.0,32692862.0,590.0,590.0,1579.7,1171.5,1591.0,891.0,Object_Sea_Solid_Small,13.538673541974276,16.557523749768734,4.0,Object_Sea_Solid_Small,9.0,9.0,1.0,1.3155787498690188,,,,,,,,
encoding,fixation,20,32694287,32695792,32694746.0,32694972.0,227.0,227.0,1876.6,1148.8,1591.0,891.0,Object_Sea_Solid_Small,16.557696416974068,18.062727166805416,4.0,Object_Sea_Pattern_Large,-1.0,,,,,,,,,,,
encoding,fixation,20,32694287,32695792,32694985.0,32695166.0,182.0,182.0,1842.2,1106.8,1591.0,891.0,Object_Sea_Solid_Small,16.557696416974068,18.062727166805416,4.0,Object_Sea_Pattern_Large,-1.0,,,,,,,,,,,
encoding,fixation,20,32694287,32695792,32695175.0,32695675.0,501.0,501.0,1889.3,1096.1,1920.0,1080.0,fixation,16.557696416974068,18.062727166805416,4.0,Object_Sea_Pattern_Large,-1.0,,,,,,,,,,,
encoding,image,20,32695792,32696803,32695809.0,32696042.0,234.0,234.0,1907.8,1095.0,1920.0,1080.0,fixation,18.062837124802172,19.07361741689965,4.0,Object_Sea_Pattern_Large,-1.0,,,,,,,,,,,
encoding,image,20,32695792,32696803,32696078.0,32697025.0,948.0,725.0,2222.7,1233.0,2249.0,891.0,Object_Sea_Pattern_Large,18.062837124802172,19.07361741689965,4.0,Object_Sea_Pattern_Large,-1.0,,,,,,,,,,,
encoding,value,20,32696803,32702816,32697035.0,32697616.0,582.0,582.0,2224.1,1176.1,2249.0,891.0,Object_Sea_Pattern_Large,19.073736499994993,25.08606829191558,4.0,Object_Sea_Pattern_Large,-1.0,,,,,,,,,,,
encoding,value,20,32696803,32702816,32697626.0,32699444.0,1819.0,1819.0,2214.5,1191.3,2249.0,891.0,Object_Sea_Pattern_Large,19.073736499994993,25.08606829191558,4.0,Object_Sea_Pattern_Large,-1.0,,,,,,,,,,,
encoding,value,20,32696803,32702816,32699649.0,32701049.0,1401.0,1401.0,2201.4,1176.7,2249.0,891.0,Object_Sea_Pattern_Large,19.073736499994993,25.08606829191558,4.0,Object_Sea_Pattern_Large,-1.0,,,,,,,,,,,
encoding,value,20,32696803,32702816,32701262.0,32702865.0,1604.0,1554.0,2190.2,1184.6,2249.0,891.0,Object_Sea_Pattern_Large,19.073736499994993,25.08606829191558,4.0,Object_Sea_Pattern_Large,-1.0,,,,,,,,,,,
encoding,attention,20,32702816,32705834,32703037.0,32704370.0,1334.0,1334.0,2146.7,1176.8,2249.0,891.0,Object_Sea_Pattern_Large,25.086206583771855,28.10392004181631,4.0,Object_Sea_Pattern_Large,-1.0,-1.0,1.0,1.279031792189926,,,,,,,,
encoding,attention,20,32702816,32705834,32704604.0,32704749.0,146.0,146.0,2199.6,1294.1,2249.0,891.0,Object_Sea_Pattern_Large,25.086206583771855,28.10392004181631,4.0,Object_Sea_Pattern_Large,-1.0,-1.0,1.0,1.279031792189926,,,,,,,,
encoding,attention,20,32702816,32705834,32704766.0,32705528.0,763.0,763.0,2187.6,1228.0,2249.0,891.0,Object_Sea_Pattern_Large,25.086206583771855,28.10392004181631,4.0,Object_Sea_Pattern_Large,-1.0,-1.0,1.0,1.279031792189926,,,,,,,,
encoding,fixation,21,32705834,32706339,32705891.0,32706059.0,169.0,169.0,2162.5,1185.6,2249.0,891.0,Object_Sea_Pattern_Large,28.104080333840106,28.609191541792825,4.0,Object_Land_Pattern_Small,-7.0,,,,,,,,,,,
encoding,fixation,21,32705834,32706339,32706312.0,32706606.0,295.0,27.0,1661.5,1275.0,1591.0,891.0,Object_Sea_Solid_Small,28.104080333840106,28.609191541792825,4.0,Object_Land_Pattern_Small,-7.0,,,,,,,,,,,
encoding,image,21,32706339,32707353,32706651.0,32706834.0,184.0,184.0,1869.6,749.7,1920.0,1460.0,Object_Land_Pattern_Small,28.609301333781332,29.622738749952987,4.0,Object_Land_Pattern_Small,-7.0,,,,,,,,,,,
encoding,image,21,32706339,32707353,32706845.0,32707178.0,334.0,334.0,1906.5,710.3,1920.0,1460.0,Object_Land_Pattern_Small,28.609301333781332,29.622738749952987,4.0,Object_Land_Pattern_Small,-7.0,,,,,,,,,,,
encoding,value,21,32707353,32713365,32707423.0,32707624.0,202.0,202.0,1905.6,727.5,1920.0,1460.0,Object_Land_Pattern_Small,29.62286216695793,35.63500108383596,4.0,Object_Land_Pattern_Small,-7.0,,,,,,,,,,,
encoding,value,21,32707353,32713365,32707643.0,32707790.0,148.0,148.0,1898.6,658.5,1920.0,1460.0,Object_Land_Pattern_Small,29.62286216695793,35.63500108383596,4.0,Object_Land_Pattern_Small,-7.0,,,,,,,,,,,
encoding,value,21,32707353,32713365,32707799.0,32708167.0,369.0,369.0,1904.6,623.7,1920.0,1460.0,Object_Land_Pattern_Small,29.62286216695793,35.63500108383596,4.0,Object_Land_Pattern_Small,-7.0,,,,,,,,,,,
encoding,value,21,32707353,32713365,32708420.0,32708662.0,243.0,243.0,1897.8,665.4000000000001,1920.0,1460.0,Object_Land_Pattern_Small,29.62286216695793,35.63500108383596,4.0,Object_Land_Pattern_Small,-7.0,,,,,,,,,,,
encoding,value,21,32707353,32713365,32708674.0,32709439.0,766.0,766.0,1866.9,764.0999999999999,1920.0,1460.0,Object_Land_Pattern_Small,29.62286216695793,35.63500108383596,4.0,Object_Land_Pattern_Small,-7.0,,,,,,,,,,,
encoding,value,21,32707353,32713365,32709666.0,32710140.0,475.0,475.0,1889.1,737.0999999999999,1920.0,1460.0,Object_Land_Pattern_Small,29.62286216695793,35.63500108383596,4.0,Object_Land_Pattern_Small,-7.0,,,,,,,,,,,
encoding,value,21,32707353,32713365,32710398.0,32711005.0,608.0,608.0,1880.4,711.3,1920.0,1460.0,Object_Land_Pattern_Small,29.62286216695793,35.63500108383596,4.0,Object_Land_Pattern_Small,-7.0,,,,,,,,,,,
encoding,value,21,32707353,32713365,32711242.0,32712272.0,1031.0,1031.0,1877.9,760.5,1920.0,1460.0,Object_Land_Pattern_Small,29.62286216695793,35.63500108383596,4.0,Object_Land_Pattern_Small,-7.0,,,,,,,,,,,
encoding,value,21,32707353,32713365,32712518.0,32712848.0,331.0,331.0,1899.3,708.0999999999999,1920.0,1460.0,Object_Land_Pattern_Small,29.62286216695793,35.63500108383596,4.0,Object_Land_Pattern_Small,-7.0,,,,,,,,,,,
encoding,value,21,32707353,32713365,32712866.0,32713764.0,899.0,499.0,1899.4,613.0999999999999,1920.0,1460.0,Object_Land_Pattern_Small,29.62286216695793,35.63500108383596,4.0,Object_Land_Pattern_Small,-7.0,,,,,,,,,,,
encoding,attention,21,32713366,32716383,32714013.0,32714973.0,961.0,961.0,1925.7,613.0999999999999,1920.0,1460.0,Object_Land_Pattern_Small,35.63512637489475,38.65251108398661,4.0,Object_Land_Pattern_Small,-7.0,-7.0,1.0,1.173040624940768,,,,,,,,
encoding,attention,21,32713366,32716383,32714993.0,32715014.0,22.0,22.0,1849.8,692.8,1920.0,1460.0,Object_Land_Pattern_Small,35.63512637489475,38.65251108398661,4.0,Object_Land_Pattern_Small,-7.0,-7.0,1.0,1.173040624940768,,,,,,,,
encoding,attention,21,32713366,32716383,32715236.0,32715942.0,707.0,707.0,1885.6,701.4000000000001,1920.0,1460.0,Object_Land_Pattern_Small,35.63512637489475,38.65251108398661,4.0,Object_Land_Pattern_Small,-7.0,-7.0,1.0,1.173040624940768,,,,,,,,
encoding,fixation,22,32716383,32716889,32716745.0,32716784.0,40.0,40.0,1858.7,1049.4,1920.0,1080.0,fixation,38.652732458896935,39.15795245883055,4.0,Animal_Sea_Solid_Small,-7.0,,,,,,,,,,,
encoding,image,22,32716889,32717900,32717049.0,32717190.0,142.0,142.0,1856.5,1138.3,1591.0,891.0,Object_Sea_Solid_Small,39.15805829199962,40.16897683381103,4.0,Animal_Sea_Solid_Small,-7.0,,,,,,,,,,,
encoding,image,22,32716889,32717900,32717231.0,32717700.0,470.0,470.0,1545.4,885.9000000000001,1591.0,1269.0,Animal_Sea_Solid_Small,39.15805829199962,40.16897683381103,4.0,Animal_Sea_Solid_Small,-7.0,,,,,,,,,,,
encoding,value,22,32717900,32723911,32717916.0,32718124.0,209.0,209.0,1546.2,839.0999999999999,1591.0,1269.0,Animal_Sea_Solid_Small,40.16910724993795,46.18035983387381,4.0,Animal_Sea_Solid_Small,-7.0,,,,,,,,,,,
encoding,value,22,32717900,32723911,32718140.0,32718451.0,312.0,312.0,1522.5,792.2,1591.0,1269.0,Animal_Sea_Solid_Small,40.16910724993795,46.18035983387381,4.0,Animal_Sea_Solid_Small,-7.0,,,,,,,,,,,
encoding,value,22,32717900,32723911,32718686.0,32719159.0,474.0,474.0,1538.3,847.5999999999999,1591.0,1269.0,Animal_Sea_Solid_Small,40.16910724993795,46.18035983387381,4.0,Animal_Sea_Solid_Small,-7.0,,,,,,,,,,,
encoding,value,22,32717900,32723911,32719385.0,32720009.0,625.0,625.0,1544.6,898.8,1591.0,1269.0,Animal_Sea_Solid_Small,40.16910724993795,46.18035983387381,4.0,Animal_Sea_Solid_Small,-7.0,,,,,,,,,,,
encoding,value,22,32717900,32723911,32720237.0,32720486.0,250.0,250.0,1614.0,826.2,1591.0,1269.0,Animal_Sea_Solid_Small,40.16910724993795,46.18035983387381,4.0,Animal_Sea_Solid_Small,-7.0,,,,,,,,,,,
encoding,value,22,32717900,32723911,32720503.0,32720951.0,449.0,449.0,1523.2,798.9000000000001,1591.0,1269.0,Animal_Sea_Solid_Small,40.16910724993795,46.18035983387381,4.0,Animal_Sea_Solid_Small,-7.0,,,,,,,,,,,
encoding,value,22,32717900,32723911,32721169.0,32721498.0,330.0,330.0,1527.5,798.7,1591.0,1269.0,Animal_Sea_Solid_Small,40.16910724993795,46.18035983387381,4.0,Animal_Sea_Solid_Small,-7.0,,,,,,,,,,,
encoding,value,22,32717900,32723911,32721512.0,32721921.0,410.0,410.0,1544.0,877.9000000000001,1591.0,1269.0,Animal_Sea_Solid_Small,40.16910724993795,46.18035983387381,4.0,Animal_Sea_Solid_Small,-7.0,,,,,,,,,,,
encoding,value,22,32717900,32723911,32721939.0,32722149.0,211.0,211.0,1529.9,776.0,1591.0,1269.0,Animal_Sea_Solid_Small,40.16910724993795,46.18035983387381,4.0,Animal_Sea_Solid_Small,-7.0,,,,,,,,,,,
encoding,value,22,32717900,32723911,32722375.0,32723396.0,1022.0,1022.0,1538.8,778.0,1591.0,1269.0,Animal_Sea_Solid_Small,40.16910724993795,46.18035983387381,4.0,Animal_Sea_Solid_Small,-7.0,,,,,,,,,,,
encoding,value,22,32717900,32723911,32723615.0,32724323.0,709.0,296.0,1553.4,785.5999999999999,1591.0,1269.0,Animal_Sea_Solid_Small,40.16910724993795,46.18035983387381,4.0,Animal_Sea_Solid_Small,-7.0,,,,,,,,,,,
encoding,attention,22,32723911,32726929,32724549.0,32725124.0,576.0,576.0,1557.3,831.5,1591.0,1269.0,Animal_Sea_Solid_Small,46.18052745889872,49.197697166819125,4.0,Animal_Sea_Solid_Small,-7.0,-7.0,1.0,0.7946953340433538,,,,,,,,
encoding,attention,22,32723911,32726929,32725373.0,32726312.0,940.0,940.0,1602.3,1066.4,1591.0,1269.0,Animal_Sea_Solid_Small,46.18052745889872,49.197697166819125,4.0,Animal_Sea_Solid_Small,-7.0,-7.0,1.0,0.7946953340433538,,,,,,,,
encoding,fixation,23,32726929,32727687,32727074.0,32727285.0,212.0,212.0,2012.6,1232.0,2249.0,891.0,Object_Sea_Pattern_Large,49.19785920879803,49.95600995887071,4.0,Animal_Land_Solid_Large,-3.0,,,,,,,,,,,
encoding,fixation,23,32726929,32727687,32727499.0,32727986.0,488.0,188.0,1985.6,1165.8,2249.0,891.0,Object_Sea_Pattern_Large,49.19785920879803,49.95600995887071,4.0,Animal_Land_Solid_Large,-3.0,,,,,,,,,,,
encoding,image,23,32727687,32728699,32728020.0,32728159.0,140.0,140.0,2181.0,947.8,2249.0,1269.0,Animal_Land_Solid_Large,49.95611258386634,50.9677454167977,4.0,Animal_Land_Solid_Large,-3.0,,,,,,,,,,,
encoding,image,23,32727687,32728699,32728412.0,32728570.0,159.0,159.0,2081.0,934.5999999999999,2249.0,1269.0,Animal_Land_Solid_Large,49.95611258386634,50.9677454167977,4.0,Animal_Land_Solid_Large,-3.0,,,,,,,,,,,
encoding,image,23,32727687,32728699,32728597.0,32729030.0,434.0,102.0,1794.9,868.9000000000001,1591.0,1269.0,Animal_Sea_Solid_Small,49.95611258386634,50.9677454167977,4.0,Animal_Land_Solid_Large,-3.0,,,,,,,,,,,
encoding,value,23,32728699,32734712,32729051.0,32729256.0,206.0,206.0,1748.6,758.9000000000001,1920.0,1460.0,Object_Land_Pattern_Small,50.967857791809365,56.98041545879096,4.0,Animal_Land_Solid_Large,-3.0,,,,,,,,,,,
encoding,value,23,32728699,32734712,32729300.0,32729432.0,133.0,133.0,2137.2,832.3,2249.0,1269.0,Animal_Land_Solid_Large,50.967857791809365,56.98041545879096,4.0,Animal_Land_Solid_Large,-3.0,,,,,,,,,,,
encoding,value,23,32728699,32734712,32729475.0,32729669.0,195.0,195.0,1602.9,896.0999999999999,1591.0,1269.0,Animal_Sea_Solid_Small,50.967857791809365,56.98041545879096,4.0,Animal_Land_Solid_Large,-3.0,,,,,,,,,,,
encoding,value,23,32728699,32734712,32729903.0,32730460.0,558.0,558.0,1532.4,924.9000000000001,1591.0,1269.0,Animal_Sea_Solid_Small,50.967857791809365,56.98041545879096,4.0,Animal_Land_Solid_Large,-3.0,,,,,,,,,,,
encoding,value,23,32728699,32734712,32730676.0,32730959.0,284.0,284.0,1586.1,936.5,1591.0,1269.0,Animal_Sea_Solid_Small,50.967857791809365,56.98041545879096,4.0,Animal_Land_Solid_Large,-3.0,,,,,,,,,,,
encoding,value,23,32728699,32734712,32731005.0,32731263.0,259.0,259.0,2193.2,884.7,2249.0,1269.0,Animal_Land_Solid_Large,50.967857791809365,56.98041545879096,4.0,Animal_Land_Solid_Large,-3.0,,,,,,,,,,,
encoding,value,23,32728699,32734712,32731282.0,32731512.0,231.0,231.0,2203.3,789.0999999999999,2249.0,1269.0,Animal_Land_Solid_Large,50.967857791809365,56.98041545879096,4.0,Animal_Land_Solid_Large,-3.0,,,,,,,,,,,
encoding,value,23,32728699,32734712,32731757.0,32732124.0,368.0,368.0,2217.3,796.0,2249.0,1269.0,Animal_Land_Solid_Large,50.967857791809365,56.98041545879096,4.0,Animal_Land_Solid_Large,-3.0,,,,,,,,,,,
encoding,value,23,32728699,32734712,32732149.0,32732506.0,358.0,358.0,2230.5,938.4000000000001,2249.0,1269.0,Animal_Land_Solid_Large,50.967857791809365,56.98041545879096,4.0,Animal_Land_Solid_Large,-3.0,,,,,,,,,,,
encoding,value,23,32728699,32734712,32732723.0,32732983.0,261.0,261.0,2237.2,923.5,2249.0,1269.0,Animal_Land_Solid_Large,50.967857791809365,56.98041545879096,4.0,Animal_Land_Solid_Large,-3.0,,,,,,,,,,,
encoding,value,23,32728699,32734712,32733005.0,32733379.0,375.0,375.0,2206.2,801.4000000000001,2249.0,1269.0,Animal_Land_Solid_Large,50.967857791809365,56.98041545879096,4.0,Animal_Land_Solid_Large,-3.0,,,,,,,,,,,
encoding,value,23,32728699,32734712,32733600.0,32734649.0,1050.0,1050.0,2207.4,804.9000000000001,2249.0,1269.0,Animal_Land_Solid_Large,50.967857791809365,56.98041545879096,4.0,Animal_Land_Solid_Large,-3.0,,,,,,,,,,,
encoding,attention,23,32734712,32737731,32734859.0,32735281.0,423.0,423.0,2225.8,804.8,2249.0,1269.0,Animal_Land_Solid_Large,56.980534583795816,59.99954316695221,4.0,Animal_Land_Solid_Large,-3.0,-3.0,1.0,2.144703249912709,,,,,,,,
encoding,attention,23,32734712,32737731,32735294.0,32735686.0,393.0,393.0,2164.1,804.4000000000001,2249.0,1269.0,Animal_Land_Solid_Large,56.980534583795816,59.99954316695221,4.0,Animal_Land_Solid_Large,-3.0,-3.0,1.0,2.144703249912709,,,,,,,,
encoding,attention,23,32734712,32737731,32735935.0,32737202.0,1268.0,1268.0,2249.8,786.5,2249.0,1269.0,Animal_Land_Solid_Large,56.980534583795816,59.99954316695221,4.0,Animal_Land_Solid_Large,-3.0,-3.0,1.0,2.144703249912709,,,,,,,,
encoding,attention,23,32734712,32737731,32737215.0,32737378.0,164.0,164.0,2165.7,795.5,2249.0,1269.0,Animal_Land_Solid_Large,56.980534583795816,59.99954316695221,4.0,Animal_Land_Solid_Large,-3.0,-3.0,1.0,2.144703249912709,,,,,,,,
encoding,fixation,24,32737731,32738988,32737952.0,32738284.0,333.0,333.0,1865.2,1077.0,1920.0,1080.0,fixation,59.99977816687897,61.2563404168468,4.0,Animal_Land_Pattern_Large,9.0,,,,,,,,,,,
encoding,fixation,24,32737731,32738988,32738495.0,32739219.0,725.0,493.0,1856.9,1141.7,1591.0,891.0,Object_Sea_Solid_Small,59.99977816687897,61.2563404168468,4.0,Animal_Land_Pattern_Large,9.0,,,,,,,,,,,
encoding,image,24,32738988,32740000,32739267.0,32739533.0,267.0,267.0,1882.2,1443.6,1920.0,700.0,Animal_Land_Pattern_Large,61.25645320885815,62.267763583920896,4.0,Animal_Land_Pattern_Large,9.0,,,,,,,,,,,
encoding,image,24,32738988,32740000,32739756.0,32740563.0,808.0,244.0,1876.4,1331.8,1920.0,700.0,Animal_Land_Pattern_Large,61.25645320885815,62.267763583920896,4.0,Animal_Land_Pattern_Large,9.0,,,,,,,,,,,
encoding,value,24,32740000,32746011,32740805.0,32741081.0,277.0,277.0,1864.9,1355.0,1920.0,700.0,Animal_Land_Pattern_Large,62.267906583845615,68.27927712490782,4.0,Animal_Land_Pattern_Large,9.0,,,,,,,,,,,
encoding,value,24,32740000,32746011,32741315.0,32742464.0,1150.0,1150.0,1875.4,1342.5,1920.0,700.0,Animal_Land_Pattern_Large,62.267906583845615,68.27927712490782,4.0,Animal_Land_Pattern_Large,9.0,,,,,,,,,,,
encoding,value,24,32740000,32746011,32742675.0,32743085.0,411.0,411.0,1869.9,1341.9,1920.0,700.0,Animal_Land_Pattern_Large,62.267906583845615,68.27927712490782,4.0,Animal_Land_Pattern_Large,9.0,,,,,,,,,,,
encoding,value,24,32740000,32746011,32743104.0,32743417.0,314.0,314.0,1830.7,1448.2,1920.0,700.0,Animal_Land_Pattern_Large,62.267906583845615,68.27927712490782,4.0,Animal_Land_Pattern_Large,9.0,,,,,,,,,,,
encoding,value,24,32740000,32746011,32743648.0,32744109.0,462.0,462.0,1839.2,1455.7,1920.0,700.0,Animal_Land_Pattern_Large,62.267906583845615,68.27927712490782,4.0,Animal_Land_Pattern_Large,9.0,,,,,,,,,,,
encoding,value,24,32740000,32746011,32744308.0,32744995.0,688.0,688.0,1886.7,1340.8,1920.0,700.0,Animal_Land_Pattern_Large,62.267906583845615,68.27927712490782,4.0,Animal_Land_Pattern_Large,9.0,,,,,,,,,,,
encoding,value,24,32740000,32746011,32745224.0,32745822.0,599.0,599.0,1860.3,1355.8,1920.0,700.0,Animal_Land_Pattern_Large,62.267906583845615,68.27927712490782,4.0,Animal_Land_Pattern_Large,9.0,,,,,,,,,,,
encoding,attention,24,32746011,32749029,32746047.0,32746777.0,731.0,731.0,1882.0,1349.3,1920.0,700.0,Animal_Land_Pattern_Large,68.27939524990506,71.29717999999411,4.0,Animal_Land_Pattern_Large,9.0,9.0,1.0,1.6853517920244483,,,,,,,,
encoding,attention,24,32746011,32749029,32747005.0,32748018.0,1014.0,1014.0,1889.9,1342.1,1920.0,700.0,Animal_Land_Pattern_Large,68.27939524990506,71.29717999999411,4.0,Animal_Land_Pattern_Large,9.0,9.0,1.0,1.6853517920244483,,,,,,,,
encoding,fixation,25,33037003,33037759,33037256.0,33037369.0,114.0,114.0,1888.3,1090.1,1920.0,1080.0,fixation,11.383902583969755,12.139973708894104,5.0,Object_Sea_Pattern_Small,2.0,,,,,,,,,,,
encoding,fixation,25,33037003,33037759,33037587.0,33037969.0,383.0,172.0,1854.3,1139.0,1591.0,891.0,Object_Land_Pattern_Large,11.383902583969755,12.139973708894104,5.0,Object_Sea_Pattern_Small,2.0,,,,,,,,,,,
encoding,image,25,33037759,33038771,33037987.0,33038076.0,90.0,90.0,1885.2,1226.0,1920.0,700.0,Object_Sea_Pattern_Small,12.140098874922842,13.151638875016944,5.0,Object_Sea_Pattern_Small,2.0,,,,,,,,,,,
encoding,image,25,33037759,33038771,33038105.0,33038486.0,382.0,382.0,1881.4,1408.9,1920.0,700.0,Object_Sea_Pattern_Small,12.140098874922842,13.151638875016944,5.0,Object_Sea_Pattern_Small,2.0,,,,,,,,,,,
encoding,image,25,33037759,33038771,33038495.0,33039073.0,579.0,276.0,1912.3,1351.5,1920.0,700.0,Object_Sea_Pattern_Small,12.140098874922842,13.151638875016944,5.0,Object_Sea_Pattern_Small,2.0,,,,,,,,,,,
encoding,value,25,33038771,33044784,33039317.0,33040691.0,1375.0,1375.0,1897.3,1328.3,1920.0,700.0,Object_Sea_Pattern_Small,13.151757458923385,19.164593084016815,5.0,Object_Sea_Pattern_Small,2.0,,,,,,,,,,,
encoding,value,25,33038771,33044784,33040850.0,33041081.0,232.0,232.0,1893.9,1338.6,1920.0,700.0,Object_Sea_Pattern_Small,13.151757458923385,19.164593084016815,5.0,Object_Sea_Pattern_Small,2.0,,,,,,,,,,,
encoding,value,25,33038771,33044784,33041098.0,33041448.0,351.0,351.0,1900.7,1426.0,1920.0,700.0,Object_Sea_Pattern_Small,13.151757458923385,19.164593084016815,5.0,Object_Sea_Pattern_Small,2.0,,,,,,,,,,,
encoding,value,25,33038771,33044784,33041467.0,33041577.0,111.0,111.0,1893.4,1337.3,1920.0,700.0,Object_Sea_Pattern_Small,13.151757458923385,19.164593084016815,5.0,Object_Sea_Pattern_Small,2.0,,,,,,,,,,,
encoding,value,25,33038771,33044784,33041747.0,33043276.0,1530.0,1530.0,1900.9,1346.8,1920.0,700.0,Object_Sea_Pattern_Small,13.151757458923385,19.164593084016815,5.0,Object_Sea_Pattern_Small,2.0,,,,,,,,,,,
encoding,value,25,33038771,33044784,33043446.0,33044509.0,1064.0,1064.0,1906.5,1352.7,1920.0,700.0,Object_Sea_Pattern_Small,13.151757458923385,19.164593084016815,5.0,Object_Sea_Pattern_Small,2.0,,,,,,,,,,,
encoding,value,25,33038771,33044784,33044699.0,33045226.0,528.0,85.0,1908.6,1345.1,1920.0,700.0,Object_Sea_Pattern_Small,13.151757458923385,19.164593084016815,5.0,Object_Sea_Pattern_Small,2.0,,,,,,,,,,,
encoding,attention,25,33044784,33047802,33045242.0,33045402.0,161.0,161.0,1834.2,1345.9,1920.0,700.0,Object_Sea_Pattern_Small,19.164720333879817,22.182999667013064,5.0,Object_Sea_Pattern_Small,2.0,2.0,1.0,0.8612265419214964,,,,,,,,
encoding,attention,25,33044784,33047802,33045607.0,33045959.0,353.0,353.0,1841.8,1342.4,1920.0,700.0,Object_Sea_Pattern_Small,19.164720333879817,22.182999667013064,5.0,Object_Sea_Pattern_Small,2.0,2.0,1.0,0.8612265419214964,,,,,,,,
encoding,attention,25,33044784,33047802,33046185.0,33046882.0,698.0,698.0,1886.4,1415.3,1920.0,700.0,Object_Sea_Pattern_Small,19.164720333879817,22.182999667013064,5.0,Object_Sea_Pattern_Small,2.0,2.0,1.0,0.8612265419214964,,,,,,,,
encoding,fixation,26,33047802,33048559,33048061.0,33048203.0,143.0,143.0,1856.4,1141.5,1591.0,891.0,Object_Land_Pattern_Large,22.183152209036052,22.938972333911806,5.0,Animal_Land_Pattern_Small,-5.0,,,,,,,,,,,
encoding,fixation,26,33047802,33048559,33048216.0,33048281.0,66.0,66.0,1883.0,1091.0,1920.0,1080.0,fixation,22.183152209036052,22.938972333911806,5.0,Animal_Land_Pattern_Small,-5.0,,,,,,,,,,,
encoding,fixation,26,33047802,33048559,33048462.0,33048750.0,289.0,97.0,1891.3,1125.5,1920.0,1080.0,fixation,22.183152209036052,22.938972333911806,5.0,Animal_Land_Pattern_Small,-5.0,,,,,,,,,,,
encoding,image,26,33048559,33049569,33048791.0,33049015.0,225.0,225.0,1540.6,904.0999999999999,1591.0,1269.0,Animal_Land_Pattern_Small,22.93908008397557,23.949687500018623,5.0,Animal_Land_Pattern_Small,-5.0,,,,,,,,,,,
encoding,image,26,33048559,33049569,33049238.0,33049739.0,502.0,331.0,1560.8,871.9000000000001,1591.0,1269.0,Animal_Land_Pattern_Small,22.93908008397557,23.949687500018623,5.0,Animal_Land_Pattern_Small,-5.0,,,,,,,,,,,
encoding,value,26,33049569,33055584,33049754.0,33050165.0,412.0,412.0,1547.8,797.4000000000001,1591.0,1269.0,Animal_Land_Pattern_Small,23.949791458901014,29.964383292011917,5.0,Animal_Land_Pattern_Small,-5.0,,,,,,,,,,,
encoding,value,26,33049569,33055584,33050373.0,33051088.0,716.0,716.0,1539.3,789.7,1591.0,1269.0,Animal_Land_Pattern_Small,23.949791458901014,29.964383292011917,5.0,Animal_Land_Pattern_Small,-5.0,,,,,,,,,,,
encoding,value,26,33049569,33055584,33051105.0,33051992.0,888.0,888.0,1533.0,892.0999999999999,1591.0,1269.0,Animal_Land_Pattern_Small,23.949791458901014,29.964383292011917,5.0,Animal_Land_Pattern_Small,-5.0,,,,,,,,,,,
encoding,value,26,33049569,33055584,33052210.0,33053077.0,868.0,868.0,1540.1,803.5,1591.0,1269.0,Animal_Land_Pattern_Small,23.949791458901014,29.964383292011917,5.0,Animal_Land_Pattern_Small,-5.0,,,,,,,,,,,
encoding,value,26,33049569,33055584,33053289.0,33053926.0,638.0,638.0,1555.8,894.2,1591.0,1269.0,Animal_Land_Pattern_Small,23.949791458901014,29.964383292011917,5.0,Animal_Land_Pattern_Small,-5.0,,,,,,,,,,,
encoding,value,26,33049569,33055584,33054152.0,33054902.0,751.0,751.0,1552.6,894.4000000000001,1591.0,1269.0,Animal_Land_Pattern_Small,23.949791458901014,29.964383292011917,5.0,Animal_Land_Pattern_Small,-5.0,,,,,,,,,,,
encoding,value,26,33049569,33055584,33055159.0,33055335.0,177.0,177.0,1544.9,838.5,1591.0,1269.0,Animal_Land_Pattern_Small,23.949791458901014,29.964383292011917,5.0,Animal_Land_Pattern_Small,-5.0,,,,,,,,,,,
encoding,value,26,33049569,33055584,33055351.0,33055989.0,639.0,233.0,1515.1,807.7,1591.0,1269.0,Animal_Land_Pattern_Small,23.949791458901014,29.964383292011917,5.0,Animal_Land_Pattern_Small,-5.0,,,,,,,,,,,
encoding,attention,26,33055584,33058597,33056222.0,33056639.0,418.0,418.0,1580.8,779.3,1591.0,1269.0,Animal_Land_Pattern_Small,29.96459087496623,32.976924541871995,5.0,Animal_Land_Pattern_Small,-5.0,,,,,,,,,,,
encoding,attention,26,33055584,33058597,33056657.0,33057031.0,375.0,375.0,1521.3,909.9000000000001,1591.0,1269.0,Animal_Land_Pattern_Small,29.96459087496623,32.976924541871995,5.0,Animal_Land_Pattern_Small,-5.0,,,,,,,,,,,
encoding,attention,26,33055584,33058597,33057048.0,33057106.0,59.0,59.0,1559.9,833.5999999999999,1591.0,1269.0,Animal_Land_Pattern_Small,29.96459087496623,32.976924541871995,5.0,Animal_Land_Pattern_Small,-5.0,,,,,,,,,,,
encoding,attention,26,33055584,33058597,33057337.0,33057543.0,207.0,207.0,1576.2,798.3,1591.0,1269.0,Animal_Land_Pattern_Small,29.96459087496623,32.976924541871995,5.0,Animal_Land_Pattern_Small,-5.0,,,,,,,,,,,
encoding,attention,26,33055584,33058597,33057563.0,33058367.0,805.0,805.0,1502.3,899.5,1591.0,1269.0,Animal_Land_Pattern_Small,29.96459087496623,32.976924541871995,5.0,Animal_Land_Pattern_Small,-5.0,,,,,,,,,,,
encoding,fixation,27,33058597,33059103,,,,,,,,,none,32.977062166901305,33.482562500052154,5.0,Object_Sea_Solid_Large,-6.0,,,,,,,,,,,
encoding,image,27,33059103,33060114,33059211.0,33059436.0,226.0,226.0,1548.7,866.0999999999999,1591.0,1269.0,Animal_Land_Pattern_Small,33.48267233395018,34.49390245904215,5.0,Object_Sea_Solid_Large,-6.0,,,,,,,,,,,
encoding,image,27,33059103,33060114,33059490.0,33060161.0,672.0,624.0,2177.9,937.4000000000001,2249.0,1269.0,Object_Sea_Solid_Large,33.48267233395018,34.49390245904215,5.0,Object_Sea_Solid_Large,-6.0,,,,,,,,,,,
encoding,value,27,33060114,33066128,33060418.0,33060832.0,415.0,415.0,2205.8,822.8,2249.0,1269.0,Object_Sea_Solid_Large,34.49403745890595,40.50727141695097,5.0,Object_Sea_Solid_Large,-6.0,,,,,,,,,,,
encoding,value,27,33060114,33066128,33060847.0,33060935.0,89.0,89.0,2188.6,888.2,2249.0,1269.0,Object_Sea_Solid_Large,34.49403745890595,40.50727141695097,5.0,Object_Sea_Solid_Large,-6.0,,,,,,,,,,,
encoding,value,27,33060114,33066128,33061174.0,33061702.0,529.0,529.0,2211.8,913.4000000000001,2249.0,1269.0,Object_Sea_Solid_Large,34.49403745890595,40.50727141695097,5.0,Object_Sea_Solid_Large,-6.0,,,,,,,,,,,
encoding,value,27,33060114,33066128,33061951.0,33062534.0,584.0,584.0,2219.6,917.5,2249.0,1269.0,Object_Sea_Solid_Large,34.49403745890595,40.50727141695097,5.0,Object_Sea_Solid_Large,-6.0,,,,,,,,,,,
encoding,value,27,33060114,33066128,33062765.0,33063093.0,329.0,329.0,2206.0,921.4000000000001,2249.0,1269.0,Object_Sea_Solid_Large,34.49403745890595,40.50727141695097,5.0,Object_Sea_Solid_Large,-6.0,,,,,,,,,,,
encoding,value,27,33060114,33066128,33063111.0,33063779.0,669.0,669.0,2200.8,825.0999999999999,2249.0,1269.0,Object_Sea_Solid_Large,34.49403745890595,40.50727141695097,5.0,Object_Sea_Solid_Large,-6.0,,,,,,,,,,,
encoding,value,27,33060114,33066128,33064017.0,33064636.0,620.0,620.0,2198.2,807.5,2249.0,1269.0,Object_Sea_Solid_Large,34.49403745890595,40.50727141695097,5.0,Object_Sea_Solid_Large,-6.0,,,,,,,,,,,
encoding,value,27,33060114,33066128,33064894.0,33065934.0,1041.0,1041.0,2182.3,819.3,2249.0,1269.0,Object_Sea_Solid_Large,34.49403745890595,40.50727141695097,5.0,Object_Sea_Solid_Large,-6.0,,,,,,,,,,,
encoding,attention,27,33066128,33069146,33066170.0,33066635.0,466.0,466.0,2156.2,819.8,2249.0,1269.0,Object_Sea_Solid_Large,40.507400959031656,43.5255601669196,5.0,Object_Sea_Solid_Large,-6.0,-6.0,1.0,1.7763043749146163,,,,,,,,
encoding,attention,27,33066128,33069146,33066895.0,33067508.0,614.0,614.0,2155.8,791.9000000000001,2249.0,1269.0,Object_Sea_Solid_Large,40.507400959031656,43.5255601669196,5.0,Object_Sea_Solid_Large,-6.0,-6.0,1.0,1.7763043749146163,,,,,,,,
encoding,attention,27,33066128,33069146,33067528.0,33067772.0,245.0,245.0,2198.4,896.0,2249.0,1269.0,Object_Sea_Solid_Large,40.507400959031656,43.5255601669196,5.0,Object_Sea_Solid_Large,-6.0,-6.0,1.0,1.7763043749146163,,,,,,,,
encoding,attention,27,33066128,33069146,33067793.0,33068200.0,408.0,408.0,2157.0,799.2,2249.0,1269.0,Object_Sea_Solid_Large,40.507400959031656,43.5255601669196,5.0,Object_Sea_Solid_Large,-6.0,-6.0,1.0,1.7763043749146163,,,,,,,,
encoding,fixation,28,33069146,33070152,33069660.0,33070384.0,725.0,492.0,1890.5,1099.0,1920.0,1080.0,fixation,43.525710958987474,44.531061166897416,5.0,Animal_Land_Solid_Small,5.0,,,,,,,,,,,
encoding,image,28,33070152,33071162,33070619.0,33071110.0,492.0,492.0,2244.6,1284.7,2249.0,891.0,Animal_Land_Solid_Small,44.53116604196839,45.54170333384536,5.0,Animal_Land_Solid_Small,5.0,,,,,,,,,,,
encoding,value,28,33071162,33077174,33071357.0,33071646.0,290.0,290.0,2272.2,1319.0,2249.0,891.0,Animal_Land_Solid_Small,45.541838167002425,51.55309850000776,5.0,Animal_Land_Solid_Small,5.0,,,,,,,,,,,
encoding,value,28,33071162,33077174,33071668.0,33071980.0,313.0,313.0,2225.7,1210.0,2249.0,891.0,Animal_Land_Solid_Small,45.541838167002425,51.55309850000776,5.0,Animal_Land_Solid_Small,5.0,,,,,,,,,,,
encoding,value,28,33071162,33077174,33072223.0,33072632.0,410.0,410.0,2235.9,1197.4,2249.0,891.0,Animal_Land_Solid_Small,45.541838167002425,51.55309850000776,5.0,Animal_Land_Solid_Small,5.0,,,,,,,,,,,
encoding,value,28,33071162,33077174,33072891.0,33073170.0,280.0,280.0,2220.3,1265.1,2249.0,891.0,Animal_Land_Solid_Small,45.541838167002425,51.55309850000776,5.0,Animal_Land_Solid_Small,5.0,,,,,,,,,,,
encoding,value,28,33071162,33077174,33073190.0,33073504.0,315.0,315.0,2232.1,1193.0,2249.0,891.0,Animal_Land_Solid_Small,45.541838167002425,51.55309850000776,5.0,Animal_Land_Solid_Small,5.0,,,,,,,,,,,
encoding,value,28,33071162,33077174,33073719.0,33073863.0,145.0,145.0,2144.9,1188.7,2249.0,891.0,Animal_Land_Solid_Small,45.541838167002425,51.55309850000776,5.0,Animal_Land_Solid_Small,5.0,,,,,,,,,,,
encoding,value,28,33071162,33077174,33073875.0,33074309.0,435.0,435.0,2207.3,1192.0,2249.0,891.0,Animal_Land_Solid_Small,45.541838167002425,51.55309850000776,5.0,Animal_Land_Solid_Small,5.0,,,,,,,,,,,
encoding,value,28,33071162,33077174,33074537.0,33076867.0,2331.0,2331.0,2160.9,1181.1,2249.0,891.0,Animal_Land_Solid_Small,45.541838167002425,51.55309850000776,5.0,Animal_Land_Solid_Small,5.0,,,,,,,,,,,
encoding,value,28,33071162,33077174,33077095.0,33077592.0,498.0,79.0,2167.3,1195.9,2249.0,891.0,Animal_Land_Solid_Small,45.541838167002425,51.55309850000776,5.0,Animal_Land_Solid_Small,5.0,,,,,,,,,,,
encoding,attention,28,33077174,33080191,33077817.0,33077930.0,114.0,114.0,2203.7,1182.5,2249.0,891.0,Animal_Land_Solid_Small,51.55320787499659,54.56989558390342,5.0,Animal_Land_Solid_Small,5.0,5.0,1.0,1.0652616249863058,,,,,,,,
encoding,attention,28,33077174,33080191,33077938.0,33078504.0,567.0,567.0,2250.8,1193.6,2249.0,891.0,Animal_Land_Solid_Small,51.55320787499659,54.56989558390342,5.0,Animal_Land_Solid_Small,5.0,5.0,1.0,1.0652616249863058,,,,,,,,
encoding,fixation,29,33080191,33080946,33080653.0,33080829.0,177.0,177.0,1849.1,1180.8,1591.0,891.0,Object_Land_Pattern_Large,54.57004062505439,55.325289624975994,5.0,Object_Land_Pattern_Large,2.0,,,,,,,,,,,
encoding,fixation,29,33080191,33080946,33080845.0,33081194.0,350.0,101.0,1865.7,1104.3,1920.0,1080.0,fixation,54.57004062505439,55.325289624975994,5.0,Object_Land_Pattern_Large,2.0,,,,,,,,,,,
encoding,image,29,33080946,33081958,33081220.0,33081378.0,159.0,159.0,1575.3,1204.4,1591.0,891.0,Object_Land_Pattern_Large,55.32539091701619,56.3373123339843,5.0,Object_Land_Pattern_Large,2.0,,,,,,,,,,,
encoding,image,29,33080946,33081958,33081627.0,33081937.0,311.0,311.0,1562.5,1275.5,1591.0,891.0,Object_Land_Pattern_Large,55.32539091701619,56.3373123339843,5.0,Object_Land_Pattern_Large,2.0,,,,,,,,,,,
encoding,value,29,33081958,33087971,33082201.0,33082384.0,184.0,184.0,1586.3,1268.4,1591.0,891.0,Object_Land_Pattern_Large,56.337416667025536,62.34963375004008,5.0,Object_Land_Pattern_Large,2.0,,,,,,,,,,,
encoding,value,29,33081958,33087971,33082403.0,33082819.0,417.0,417.0,1556.3,1179.2,1591.0,891.0,Object_Land_Pattern_Large,56.337416667025536,62.34963375004008,5.0,Object_Land_Pattern_Large,2.0,,,,,,,,,,,
encoding,value,29,33081958,33087971,33083052.0,33083526.0,475.0,475.0,1558.0,1175.8,1591.0,891.0,Object_Land_Pattern_Large,56.337416667025536,62.34963375004008,5.0,Object_Land_Pattern_Large,2.0,,,,,,,,,,,
encoding,value,29,33081958,33087971,33083778.0,33084296.0,519.0,519.0,1552.0,1200.4,1591.0,891.0,Object_Land_Pattern_Large,56.337416667025536,62.34963375004008,5.0,Object_Land_Pattern_Large,2.0,,,,,,,,,,,
encoding,value,29,33081958,33087971,33084552.0,33085184.0,633.0,633.0,1551.6,1179.7,1591.0,891.0,Object_Land_Pattern_Large,56.337416667025536,62.34963375004008,5.0,Object_Land_Pattern_Large,2.0,,,,,,,,,,,
encoding,value,29,33081958,33087971,33085422.0,33085999.0,578.0,578.0,1553.1,1176.5,1591.0,891.0,Object_Land_Pattern_Large,56.337416667025536,62.34963375004008,5.0,Object_Land_Pattern_Large,2.0,,,,,,,,,,,
encoding,value,29,33081958,33087971,33086237.0,33086450.0,214.0,214.0,1579.0,1164.0,1591.0,891.0,Object_Land_Pattern_Large,56.337416667025536,62.34963375004008,5.0,Object_Land_Pattern_Large,2.0,,,,,,,,,,,
encoding,value,29,33081958,33087971,33086497.0,33086868.0,372.0,372.0,2187.5,1282.1,2249.0,891.0,Animal_Land_Solid_Small,56.337416667025536,62.34963375004008,5.0,Object_Land_Pattern_Large,2.0,,,,,,,,,,,
encoding,value,29,33081958,33087971,33087092.0,33087282.0,191.0,191.0,1517.1,1194.8,1591.0,891.0,Object_Land_Pattern_Large,56.337416667025536,62.34963375004008,5.0,Object_Land_Pattern_Large,2.0,,,,,,,,,,,
encoding,value,29,33081958,33087971,33087291.0,33087578.0,288.0,288.0,1565.3,1176.0,1591.0,891.0,Object_Land_Pattern_Large,56.337416667025536,62.34963375004008,5.0,Object_Land_Pattern_Large,2.0,,,,,,,,,,,
encoding,value,29,33081958,33087971,33087789.0,33088381.0,593.0,182.0,1530.0,1164.4,1591.0,891.0,Object_Land_Pattern_Large,56.337416667025536,62.34963375004008,5.0,Object_Land_Pattern_Large,2.0,,,,,,,,,,,
encoding,attention,29,33087971,33090991,33088396.0,33088446.0,51.0,51.0,1608.1,1165.6,1591.0,891.0,Object_Land_Pattern_Large,62.34976520901546,65.36992445890792,5.0,Object_Land_Pattern_Large,2.0,2.0,1.0,1.041452792007476,,,,,,,,
encoding,attention,29,33087971,33090991,33088678.0,33088896.0,219.0,219.0,1554.7,1196.8,1591.0,891.0,Object_Land_Pattern_Large,62.34976520901546,65.36992445890792,5.0,Object_Land_Pattern_Large,2.0,2.0,1.0,1.041452792007476,,,,,,,,
encoding,attention,29,33087971,33090991,33088908.0,33089302.0,395.0,395.0,1601.5,1160.6,1591.0,891.0,Object_Land_Pattern_Large,62.34976520901546,65.36992445890792,5.0,Object_Land_Pattern_Large,2.0,2.0,1.0,1.041452792007476,,,,,,,,
encoding,attention,29,33087971,33090991,33089522.0,33090649.0,1128.0,1128.0,1584.0,1212.9,1591.0,891.0,Object_Land_Pattern_Large,62.34976520901546,65.36992445890792,5.0,Object_Land_Pattern_Large,2.0,2.0,1.0,1.041452792007476,,,,,,,,
encoding,fixation,30,33090991,33091497,,,,,,,,,none,65.37007229193114,65.87532633403316,5.0,Animal_Sea_Solid_Large,2.0,,,,,,,,,,,
encoding,image,30,33091497,33092508,33091512.0,33091630.0,119.0,119.0,1946.3,1080.8,1920.0,1080.0,fixation,65.87543937494047,66.88659283402376,5.0,Animal_Sea_Solid_Large,2.0,,,,,,,,,,,
encoding,image,30,33091497,33092508,33091642.0,33091795.0,154.0,154.0,1875.1,1088.0,1920.0,1080.0,fixation,65.87543937494047,66.88659283402376,5.0,Animal_Sea_Solid_Large,2.0,,,,,,,,,,,
encoding,image,30,33091497,33092508,33091834.0,33092051.0,218.0,218.0,1849.1,739.4000000000001,1920.0,1460.0,Animal_Sea_Solid_Large,65.87543937494047,66.88659283402376,5.0,Animal_Sea_Solid_Large,2.0,,,,,,,,,,,
encoding,image,30,33091497,33092508,33092304.0,33092634.0,331.0,204.0,1867.7,758.8,1920.0,1460.0,Animal_Sea_Solid_Large,65.87543937494047,66.88659283402376,5.0,Animal_Sea_Solid_Large,2.0,,,,,,,,,,,
encoding,value,30,33092508,33098521,33092993.0,33093486.0,494.0,494.0,1886.7,609.5,1920.0,1460.0,Animal_Sea_Solid_Large,66.88670604187064,72.89880712493323,5.0,Animal_Sea_Solid_Large,2.0,,,,,,,,,,,
encoding,value,30,33092508,33098521,33093757.0,33094325.0,569.0,569.0,1896.1,626.7,1920.0,1460.0,Animal_Sea_Solid_Large,66.88670604187064,72.89880712493323,5.0,Animal_Sea_Solid_Large,2.0,,,,,,,,,,,
encoding,value,30,33092508,33098521,33094565.0,33094895.0,331.0,331.0,1886.5,626.5999999999999,1920.0,1460.0,Animal_Sea_Solid_Large,66.88670604187064,72.89880712493323,5.0,Animal_Sea_Solid_Large,2.0,,,,,,,,,,,
encoding,value,30,33092508,33098521,33095139.0,33096242.0,1104.0,1104.0,1869.6,625.9000000000001,1920.0,1460.0,Animal_Sea_Solid_Large,66.88670604187064,72.89880712493323,5.0,Animal_Sea_Solid_Large,2.0,,,,,,,,,,,
encoding,value,30,33092508,33098521,33096448.0,33097604.0,1157.0,1157.0,1850.9,630.7,1920.0,1460.0,Animal_Sea_Solid_Large,66.88670604187064,72.89880712493323,5.0,Animal_Sea_Solid_Large,2.0,,,,,,,,,,,
encoding,value,30,33092508,33098521,33097813.0,33098409.0,597.0,597.0,1853.6,626.0,1920.0,1460.0,Animal_Sea_Solid_Large,66.88670604187064,72.89880712493323,5.0,Animal_Sea_Solid_Large,2.0,,,,,,,,,,,
encoding,attention,30,33098521,33101542,33098628.0,33099017.0,390.0,390.0,1886.2,616.2,1920.0,1460.0,Animal_Sea_Solid_Large,72.89892416703515,75.92051491700113,5.0,Animal_Sea_Solid_Large,2.0,2.0,1.0,1.4770132501143962,,,,,,,,
encoding,attention,30,33098521,33101542,33099032.0,33100275.0,1244.0,1244.0,1793.5,630.2,1920.0,1460.0,Animal_Sea_Solid_Large,72.89892416703515,75.92051491700113,5.0,Animal_Sea_Solid_Large,2.0,2.0,1.0,1.4770132501143962,,,,,,,,
encoding,attention,30,33098521,33101542,33100513.0,33101188.0,676.0,676.0,1684.9,1027.9,1591.0,1269.0,Animal_Land_Pattern_Small,72.89892416703515,75.92051491700113,5.0,Animal_Sea_Solid_Large,2.0,2.0,1.0,1.4770132501143962,,,,,,,,
encoding,fixation,31,33382473,33382980,33382532.0,33382775.0,244.0,244.0,1791.1,1085.7,1591.0,891.0,Object_Land_Pattern_Large,4.207153707975522,4.7133784159086645,6.0,Animal_Sea_Pattern_Small,-6.0,,,,,,,,,,,
encoding,fixation,31,33382473,33382980,33382787.0,33383173.0,387.0,193.0,1863.0,1099.1,1920.0,1080.0,fixation,4.207153707975522,4.7133784159086645,6.0,Animal_Sea_Pattern_Small,-6.0,,,,,,,,,,,
encoding,image,31,33382980,33383991,33383208.0,33383318.0,111.0,111.0,2180.2,928.7,2249.0,1269.0,Animal_Sea_Pattern_Small,4.713492624927312,5.7246210409794,6.0,Animal_Sea_Pattern_Small,-6.0,,,,,,,,,,,
encoding,image,31,33382980,33383991,33383552.0,33384120.0,569.0,439.0,2196.2,908.2,2249.0,1269.0,Animal_Sea_Pattern_Small,4.713492624927312,5.7246210409794,6.0,Animal_Sea_Pattern_Small,-6.0,,,,,,,,,,,
encoding,value,31,33383991,33390005,33384132.0,33384269.0,138.0,138.0,2181.2,848.0999999999999,2249.0,1269.0,Animal_Sea_Pattern_Small,5.724740999983624,11.738216041121632,6.0,Animal_Sea_Pattern_Small,-6.0,,,,,,,,,,,
encoding,value,31,33383991,33390005,33384276.0,33384768.0,493.0,493.0,2202.9,815.7,2249.0,1269.0,Animal_Sea_Pattern_Small,5.724740999983624,11.738216041121632,6.0,Animal_Sea_Pattern_Small,-6.0,,,,,,,,,,,
encoding,value,31,33383991,33390005,33384791.0,33385631.0,841.0,841.0,2192.3,923.3,2249.0,1269.0,Animal_Sea_Pattern_Small,5.724740999983624,11.738216041121632,6.0,Animal_Sea_Pattern_Small,-6.0,,,,,,,,,,,
encoding,value,31,33383991,33390005,33385826.0,33386703.0,878.0,878.0,2209.7,803.5999999999999,2249.0,1269.0,Animal_Sea_Pattern_Small,5.724740999983624,11.738216041121632,6.0,Animal_Sea_Pattern_Small,-6.0,,,,,,,,,,,
encoding,value,31,33383991,33390005,33386909.0,33388999.0,2091.0,2091.0,2208.5,802.4000000000001,2249.0,1269.0,Animal_Sea_Pattern_Small,5.724740999983624,11.738216041121632,6.0,Animal_Sea_Pattern_Small,-6.0,,,,,,,,,,,
encoding,value,31,33383991,33390005,33389178.0,33390114.0,937.0,827.0,2210.8,815.7,2249.0,1269.0,Animal_Sea_Pattern_Small,5.724740999983624,11.738216041121632,6.0,Animal_Sea_Pattern_Small,-6.0,,,,,,,,,,,
encoding,attention,31,33390005,33393023,33390284.0,33390592.0,309.0,309.0,2180.9,803.4000000000001,2249.0,1269.0,Animal_Sea_Pattern_Small,11.738341625081375,14.756053207907826,6.0,Animal_Sea_Pattern_Small,-6.0,-6.0,1.0,1.0395425839815289,,,,,,,,
encoding,attention,31,33390005,33393023,33391120.0,33391416.0,297.0,297.0,2229.4,802.2,2249.0,1269.0,Animal_Sea_Pattern_Small,11.738341625081375,14.756053207907826,6.0,Animal_Sea_Pattern_Small,-6.0,-6.0,1.0,1.0395425839815289,,,,,,,,
encoding,attention,31,33390005,33393023,33391429.0,33391648.0,220.0,220.0,2157.9,813.3,2249.0,1269.0,Animal_Sea_Pattern_Small,11.738341625081375,14.756053207907826,6.0,Animal_Sea_Pattern_Small,-6.0,-6.0,1.0,1.0395425839815289,,,,,,,,
encoding,attention,31,33390005,33393023,33391667.0,33391775.0,109.0,109.0,2215.3,915.3,2249.0,1269.0,Animal_Sea_Pattern_Small,11.738341625081375,14.756053207907826,6.0,Animal_Sea_Pattern_Small,-6.0,-6.0,1.0,1.0395425839815289,,,,,,,,
encoding,fixation,32,33393023,33394528,33393277.0,33394176.0,900.0,900.0,1894.0,1087.0,1920.0,1080.0,fixation,14.75620066607371,16.261484707938507,6.0,Object_Land_Solid_Small,2.0,,,,,,,,,,,
encoding,fixation,32,33393023,33394528,33394367.0,33394827.0,461.0,161.0,1768.9,1016.3,1591.0,1269.0,Animal_Sea_Solid_Small,14.75620066607371,16.261484707938507,6.0,Object_Land_Solid_Small,2.0,,,,,,,,,,,
encoding,image,32,33394528,33395540,33394863.0,33395758.0,896.0,677.0,1883.9,707.5,1920.0,1460.0,Object_Land_Solid_Small,16.261661750031635,17.273803583113477,6.0,Object_Land_Solid_Small,2.0,,,,,,,,,,,
encoding,value,32,33395541,33401553,33395775.0,33396792.0,1018.0,1018.0,1911.5,615.5999999999999,1920.0,1460.0,Object_Land_Solid_Small,17.273899500025436,23.28578675002791,6.0,Object_Land_Solid_Small,2.0,,,,,,,,,,,
encoding,value,32,33395541,33401553,33397034.0,33397791.0,758.0,758.0,1899.2,700.3,1920.0,1460.0,Object_Land_Solid_Small,17.273899500025436,23.28578675002791,6.0,Object_Land_Solid_Small,2.0,,,,,,,,,,,
encoding,value,32,33395541,33401553,33398019.0,33398568.0,550.0,550.0,1923.9,613.0,1920.0,1460.0,Object_Land_Solid_Small,17.273899500025436,23.28578675002791,6.0,Object_Land_Solid_Small,2.0,,,,,,,,,,,
encoding,value,32,33395541,33401553,33398782.0,33399482.0,701.0,701.0,1913.2,602.3,1920.0,1460.0,Object_Land_Solid_Small,17.273899500025436,23.28578675002791,6.0,Object_Land_Solid_Small,2.0,,,,,,,,,,,
encoding,value,32,33395541,33401553,33399716.0,33400888.0,1173.0,1173.0,1910.9,609.3,1920.0,1460.0,Object_Land_Solid_Small,17.273899500025436,23.28578675002791,6.0,Object_Land_Solid_Small,2.0,,,,,,,,,,,
encoding,value,32,33395541,33401553,33401121.0,33401913.0,793.0,432.0,1906.6,611.7,1920.0,1460.0,Object_Land_Solid_Small,17.273899500025436,23.28578675002791,6.0,Object_Land_Solid_Small,2.0,,,,,,,,,,,
encoding,attention,32,33401553,33404571,33402152.0,33402801.0,650.0,650.0,1849.3,604.2,1920.0,1460.0,Object_Land_Solid_Small,23.285909957950935,26.303566915914416,6.0,Object_Land_Solid_Small,2.0,2.0,1.0,0.9243025409523398,,,,,,,,
encoding,attention,32,33401553,33404571,33403052.0,33403714.0,663.0,663.0,1891.9,789.5,1920.0,1460.0,Object_Land_Solid_Small,23.285909957950935,26.303566915914416,6.0,Object_Land_Solid_Small,2.0,2.0,1.0,0.9243025409523398,,,,,,,,
encoding,attention,32,33401553,33404571,33403740.0,33403852.0,113.0,113.0,2169.5,874.2,2249.0,1269.0,Animal_Sea_Pattern_Small,23.285909957950935,26.303566915914416,6.0,Object_Land_Solid_Small,2.0,2.0,1.0,0.9243025409523398,,,,,,,,
encoding,fixation,33,33404571,33405576,33405027.0,33405841.0,815.0,549.0,1841.3,796.9000000000001,1920.0,1460.0,Object_Land_Solid_Small,26.303729041013867,27.30906562507153,6.0,Animal_Sea_Pattern_Large,5.0,,,,,,,,,,,
encoding,image,33,33405576,33406586,33405884.0,33406020.0,137.0,137.0,1925.9,1296.0,1920.0,700.0,Animal_Sea_Pattern_Large,27.309178333031017,28.31909350003116,6.0,Animal_Sea_Pattern_Large,5.0,,,,,,,,,,,
encoding,image,33,33405576,33406586,33406044.0,33406316.0,273.0,273.0,1896.0,1447.8,1920.0,700.0,Animal_Sea_Pattern_Large,27.309178333031017,28.31909350003116,6.0,Animal_Sea_Pattern_Large,5.0,,,,,,,,,,,
encoding,image,33,33405576,33406586,33406323.0,33406350.0,28.0,28.0,1846.7,1463.9,1920.0,700.0,Animal_Sea_Pattern_Large,27.309178333031017,28.31909350003116,6.0,Animal_Sea_Pattern_Large,5.0,,,,,,,,,,,
encoding,image,33,33405576,33406586,33406577.0,33407087.0,511.0,9.0,1898.4,1354.2,1920.0,700.0,Animal_Sea_Pattern_Large,27.309178333031017,28.31909350003116,6.0,Animal_Sea_Pattern_Large,5.0,,,,,,,,,,,
encoding,value,33,33406586,33412600,33407312.0,33407726.0,415.0,415.0,1894.1,1353.2,1920.0,700.0,Animal_Sea_Pattern_Large,28.319227790925652,34.332153582945466,6.0,Animal_Sea_Pattern_Large,5.0,,,,,,,,,,,
encoding,value,33,33406586,33412600,33407985.0,33408910.0,926.0,926.0,1892.8,1349.1,1920.0,700.0,Animal_Sea_Pattern_Large,28.319227790925652,34.332153582945466,6.0,Animal_Sea_Pattern_Large,5.0,,,,,,,,,,,
encoding,value,33,33406586,33412600,33409123.0,33409633.0,511.0,511.0,1872.4,1344.5,1920.0,700.0,Animal_Sea_Pattern_Large,28.319227790925652,34.332153582945466,6.0,Animal_Sea_Pattern_Large,5.0,,,,,,,,,,,
encoding,value,33,33406586,33412600,33409856.0,33410378.0,523.0,523.0,1873.4,1346.5,1920.0,700.0,Animal_Sea_Pattern_Large,28.319227790925652,34.332153582945466,6.0,Animal_Sea_Pattern_Large,5.0,,,,,,,,,,,
encoding,value,33,33406586,33412600,33410616.0,33411197.0,582.0,582.0,1853.9,1449.5,1920.0,700.0,Animal_Sea_Pattern_Large,28.319227790925652,34.332153582945466,6.0,Animal_Sea_Pattern_Large,5.0,,,,,,,,,,,
encoding,value,33,33406586,33412600,33411204.0,33411388.0,185.0,185.0,1888.6,1444.2,1920.0,700.0,Animal_Sea_Pattern_Large,28.319227790925652,34.332153582945466,6.0,Animal_Sea_Pattern_Large,5.0,,,,,,,,,,,
