phase,event,trial_number,eyetracker_onset,eyetracker_offset,fix_start,fix_end,fix_duration_full,fix_duration_bounded,fix_x,fix_y,roi_x,roi_y,roi_content,onset,offset,game,image,outcome,choice,correct,rt,letter,match,response,option,true_value,true_position,recalled_position,Unnamed: 18
encoding,fixation,1,24171491,24172258,24171562.0,24171730.0,169.0,169.0,1788.7,986.3,1591.0,1269.0,Animal_Land_Solid_Small,9.80073854199145,10.566921041929165,1.0,Object_Sea_Solid_Small,8.0,,,,,,,,,,,
encoding,fixation,1,24171491,24172258,24171753.0,24172170.0,418.0,418.0,1915.4,1100.8,1920.0,1080.0,fixation,9.80073854199145,10.566921041929165,1.0,Object_Sea_Solid_Small,8.0,,,,,,,,,,,
encoding,fixation,1,24171491,24172258,24172193.0,24172422.0,230.0,65.0,1784.1,1240.8,1591.0,891.0,Object_Sea_Solid_Large,9.80073854199145,10.566921041929165,1.0,Object_Sea_Solid_Small,8.0,,,,,,,,,,,
encoding,image,1,24172258,24173279,24172453.0,24172903.0,451.0,451.0,1917.1,1486.8,1920.0,700.0,Object_Sea_Solid_Small,10.56704633391928,11.587906959000977,1.0,Object_Sea_Solid_Small,8.0,,,,,,,,,,,
encoding,image,1,24172258,24173279,24172911.0,24173195.0,285.0,285.0,1940.0,1472.0,1920.0,700.0,Object_Sea_Solid_Small,10.56704633391928,11.587906959000977,1.0,Object_Sea_Solid_Small,8.0,,,,,,,,,,,
encoding,image,1,24172258,24173279,24173217.0,24173642.0,426.0,62.0,1926.1,1333.2,1920.0,700.0,Object_Sea_Solid_Small,10.56704633391928,11.587906959000977,1.0,Object_Sea_Solid_Small,8.0,,,,,,,,,,,
encoding,value,1,24173279,24179295,24173814.0,24173861.0,48.0,48.0,1922.0,1405.2,1920.0,700.0,Object_Sea_Solid_Small,11.588019917020574,17.60418754199054,1.0,Object_Sea_Solid_Small,8.0,,,,,,,,,,,
encoding,value,1,24173279,24179295,24173870.0,24173952.0,83.0,83.0,1920.1,1373.6,1920.0,700.0,Object_Sea_Solid_Small,11.588019917020574,17.60418754199054,1.0,Object_Sea_Solid_Small,8.0,,,,,,,,,,,
encoding,value,1,24173279,24179295,24173976.0,24174249.0,274.0,274.0,1921.9,1486.6,1920.0,700.0,Object_Sea_Solid_Small,11.588019917020574,17.60418754199054,1.0,Object_Sea_Solid_Small,8.0,,,,,,,,,,,
encoding,value,1,24173279,24179295,24174274.0,24174445.0,172.0,172.0,1924.3,1239.9,1920.0,700.0,Object_Sea_Solid_Small,11.588019917020574,17.60418754199054,1.0,Object_Sea_Solid_Small,8.0,,,,,,,,,,,
encoding,value,1,24173279,24179295,24174466.0,24174854.0,389.0,389.0,1936.5,1370.5,1920.0,700.0,Object_Sea_Solid_Small,11.588019917020574,17.60418754199054,1.0,Object_Sea_Solid_Small,8.0,,,,,,,,,,,
encoding,value,1,24173279,24179295,24175047.0,24176623.0,1577.0,1577.0,1930.0,1344.2,1920.0,700.0,Object_Sea_Solid_Small,11.588019917020574,17.60418754199054,1.0,Object_Sea_Solid_Small,8.0,,,,,,,,,,,
encoding,value,1,24173279,24179295,24176817.0,24176887.0,71.0,71.0,1925.7,1389.0,1920.0,700.0,Object_Sea_Solid_Small,11.588019917020574,17.60418754199054,1.0,Object_Sea_Solid_Small,8.0,,,,,,,,,,,
encoding,value,1,24173279,24179295,24176897.0,24177737.0,841.0,841.0,1925.8,1355.2,1920.0,700.0,Object_Sea_Solid_Small,11.588019917020574,17.60418754199054,1.0,Object_Sea_Solid_Small,8.0,,,,,,,,,,,
encoding,value,1,24173279,24179295,24177757.0,24178049.0,293.0,293.0,1944.0,1482.6,1920.0,700.0,Object_Sea_Solid_Small,11.588019917020574,17.60418754199054,1.0,Object_Sea_Solid_Small,8.0,,,,,,,,,,,
encoding,value,1,24173279,24179295,24178234.0,24178568.0,335.0,335.0,1918.0,1362.8,1920.0,700.0,Object_Sea_Solid_Small,11.588019917020574,17.60418754199054,1.0,Object_Sea_Solid_Small,8.0,,,,,,,,,,,
encoding,value,1,24173279,24179295,24178581.0,24178854.0,274.0,274.0,1990.4,1331.5,1920.0,700.0,Object_Sea_Solid_Small,11.588019917020574,17.60418754199054,1.0,Object_Sea_Solid_Small,8.0,,,,,,,,,,,
encoding,value,1,24173279,24179295,24179054.0,24179757.0,704.0,241.0,1949.2,1347.6,1920.0,700.0,Object_Sea_Solid_Small,11.588019917020574,17.60418754199054,1.0,Object_Sea_Solid_Small,8.0,,,,,,,,,,,
encoding,attention,1,24179295,24182314,24179767.0,24179964.0,198.0,198.0,1895.7,1337.3,1920.0,700.0,Object_Sea_Solid_Small,17.604307999950834,20.62230012496002,1.0,Object_Sea_Solid_Small,8.0,8.0,1.0,1.6707416250137612,,,,,,,,
encoding,attention,1,24179295,24182314,24179975.0,24180529.0,555.0,555.0,1963.9,1346.1,1920.0,700.0,Object_Sea_Solid_Small,17.604307999950834,20.62230012496002,1.0,Object_Sea_Solid_Small,8.0,8.0,1.0,1.6707416250137612,,,,,,,,
encoding,attention,1,24179295,24182314,24180550.0,24180877.0,328.0,328.0,1910.1,1442.4,1920.0,700.0,Object_Sea_Solid_Small,17.604307999950834,20.62230012496002,1.0,Object_Sea_Solid_Small,8.0,8.0,1.0,1.6707416250137612,,,,,,,,
encoding,attention,1,24179295,24182314,24180899.0,24181594.0,696.0,696.0,1968.5,1354.6,1920.0,700.0,Object_Sea_Solid_Small,17.604307999950834,20.62230012496002,1.0,Object_Sea_Solid_Small,8.0,8.0,1.0,1.6707416250137612,,,,,,,,
encoding,attention,1,24179295,24182314,24181615.0,24181782.0,168.0,168.0,1921.0,1440.8,1920.0,700.0,Object_Sea_Solid_Small,17.604307999950834,20.62230012496002,1.0,Object_Sea_Solid_Small,8.0,8.0,1.0,1.6707416250137612,,,,,,,,
encoding,attention,1,24179295,24182314,24181966.0,24182018.0,53.0,53.0,1939.2,1434.2,1920.0,700.0,Object_Sea_Solid_Small,17.604307999950834,20.62230012496002,1.0,Object_Sea_Solid_Small,8.0,8.0,1.0,1.6707416250137612,,,,,,,,
encoding,fixation,2,24182314,24183069,24182569.0,24182846.0,278.0,278.0,1936.4,1062.0,1920.0,1080.0,fixation,20.622465916909277,21.377848999924023,1.0,Object_Sea_Pattern_Large,-3.0,,,,,,,,,,,
encoding,fixation,2,24182314,24183069,24182868.0,24183219.0,352.0,201.0,1943.0,1228.1,1920.0,700.0,Object_Sea_Solid_Small,20.622465916909277,21.377848999924023,1.0,Object_Sea_Pattern_Large,-3.0,,,,,,,,,,,
encoding,image,2,24183069,24184080,24183253.0,24183446.0,194.0,194.0,2236.9,945.2,2249.0,1269.0,Object_Sea_Pattern_Large,21.37799433397595,22.388887083972804,1.0,Object_Sea_Pattern_Large,-3.0,,,,,,,,,,,
encoding,image,2,24183069,24184080,24183463.0,24183596.0,134.0,134.0,2272.0,891.0999999999999,2249.0,1269.0,Object_Sea_Pattern_Large,21.37799433397595,22.388887083972804,1.0,Object_Sea_Pattern_Large,-3.0,,,,,,,,,,,
encoding,image,2,24183069,24184080,24183817.0,24184239.0,423.0,263.0,2238.1,860.8,2249.0,1269.0,Object_Sea_Pattern_Large,21.37799433397595,22.388887083972804,1.0,Object_Sea_Pattern_Large,-3.0,,,,,,,,,,,
encoding,value,2,24184080,24190093,24184256.0,24184567.0,312.0,312.0,2257.4,768.4000000000001,2249.0,1269.0,Object_Sea_Pattern_Large,22.38898762501776,28.400941249914467,1.0,Object_Sea_Pattern_Large,-3.0,,,,,,,,,,,
encoding,value,2,24184080,24190093,24184816.0,24185189.0,374.0,374.0,2258.2,871.4000000000001,2249.0,1269.0,Object_Sea_Pattern_Large,22.38898762501776,28.400941249914467,1.0,Object_Sea_Pattern_Large,-3.0,,,,,,,,,,,
encoding,value,2,24184080,24190093,24185202.0,24186158.0,957.0,957.0,2232.1,812.9000000000001,2249.0,1269.0,Object_Sea_Pattern_Large,22.38898762501776,28.400941249914467,1.0,Object_Sea_Pattern_Large,-3.0,,,,,,,,,,,
encoding,value,2,24184080,24190093,24186166.0,24187975.0,1810.0,1810.0,2244.4,848.2,2249.0,1269.0,Object_Sea_Pattern_Large,22.38898762501776,28.400941249914467,1.0,Object_Sea_Pattern_Large,-3.0,,,,,,,,,,,
encoding,value,2,24184080,24190093,24188212.0,24188382.0,171.0,171.0,2249.1,822.4000000000001,2249.0,1269.0,Object_Sea_Pattern_Large,22.38898762501776,28.400941249914467,1.0,Object_Sea_Pattern_Large,-3.0,,,,,,,,,,,
encoding,value,2,24184080,24190093,24188398.0,24190329.0,1932.0,1695.0,2238.8,872.5999999999999,2249.0,1269.0,Object_Sea_Pattern_Large,22.38898762501776,28.400941249914467,1.0,Object_Sea_Pattern_Large,-3.0,,,,,,,,,,,
encoding,attention,2,24190093,24193113,24190346.0,24190882.0,537.0,537.0,2273.4,819.9000000000001,2249.0,1269.0,Object_Sea_Pattern_Large,28.401070291991346,31.420801333966665,1.0,Object_Sea_Pattern_Large,-3.0,-3.0,1.0,2.362312541110441,,,,,,,,
encoding,attention,2,24190093,24193113,24191125.0,24191647.0,523.0,523.0,2238.5,878.8,2249.0,1269.0,Object_Sea_Pattern_Large,28.401070291991346,31.420801333966665,1.0,Object_Sea_Pattern_Large,-3.0,-3.0,1.0,2.362312541110441,,,,,,,,
encoding,attention,2,24190093,24193113,24191898.0,24192344.0,447.0,447.0,2244.5,881.0,2249.0,1269.0,Object_Sea_Pattern_Large,28.401070291991346,31.420801333966665,1.0,Object_Sea_Pattern_Large,-3.0,-3.0,1.0,2.362312541110441,,,,,,,,
encoding,fixation,3,24193113,24194118,24193190.0,24193337.0,148.0,148.0,2231.6,854.8,2249.0,1269.0,Object_Sea_Pattern_Large,31.421031459001824,32.42604166700039,1.0,Animal_Land_Solid_Small,-7.0,,,,,,,,,,,
encoding,fixation,3,24193113,24194118,24193370.0,24194064.0,695.0,695.0,1922.0,1080.1,1920.0,1080.0,fixation,31.421031459001824,32.42604166700039,1.0,Animal_Land_Solid_Small,-7.0,,,,,,,,,,,
encoding,fixation,3,24193113,24194118,24194084.0,24194335.0,252.0,34.0,1993.8,1219.5,1920.0,700.0,Object_Sea_Solid_Small,31.421031459001824,32.42604166700039,1.0,Animal_Land_Solid_Small,-7.0,,,,,,,,,,,
encoding,image,3,24194118,24195129,24194374.0,24194606.0,233.0,233.0,1642.7,959.5999999999999,1591.0,1269.0,Animal_Land_Solid_Small,32.42620104202069,33.43721754197031,1.0,Animal_Land_Solid_Small,-7.0,,,,,,,,,,,
encoding,image,3,24194118,24195129,24194808.0,24195784.0,977.0,321.0,1609.1,860.4000000000001,1591.0,1269.0,Animal_Land_Solid_Small,32.42620104202069,33.43721754197031,1.0,Animal_Land_Solid_Small,-7.0,,,,,,,,,,,
encoding,value,3,24195129,24201141,24195792.0,24196243.0,452.0,452.0,1616.1,892.8,1591.0,1269.0,Animal_Land_Solid_Small,33.43732162495144,39.4488443749724,1.0,Animal_Land_Solid_Small,-7.0,,,,,,,,,,,
encoding,value,3,24195129,24201141,24196252.0,24196728.0,477.0,477.0,1581.2,856.8,1591.0,1269.0,Animal_Land_Solid_Small,33.43732162495144,39.4488443749724,1.0,Animal_Land_Solid_Small,-7.0,,,,,,,,,,,
encoding,value,3,24195129,24201141,24196932.0,24197873.0,942.0,942.0,1606.8,876.0,1591.0,1269.0,Animal_Land_Solid_Small,33.43732162495144,39.4488443749724,1.0,Animal_Land_Solid_Small,-7.0,,,,,,,,,,,
encoding,value,3,24195129,24201141,24198080.0,24198147.0,68.0,68.0,1640.1,909.8,1591.0,1269.0,Animal_Land_Solid_Small,33.43732162495144,39.4488443749724,1.0,Animal_Land_Solid_Small,-7.0,,,,,,,,,,,
encoding,value,3,24195129,24201141,24198154.0,24198418.0,265.0,265.0,1640.0,881.0,1591.0,1269.0,Animal_Land_Solid_Small,33.43732162495144,39.4488443749724,1.0,Animal_Land_Solid_Small,-7.0,,,,,,,,,,,
encoding,value,3,24195129,24201141,24198430.0,24198705.0,276.0,276.0,1562.0,864.3,1591.0,1269.0,Animal_Land_Solid_Small,33.43732162495144,39.4488443749724,1.0,Animal_Land_Solid_Small,-7.0,,,,,,,,,,,
encoding,value,3,24195129,24201141,24198716.0,24200533.0,1818.0,1818.0,1610.3,890.8,1591.0,1269.0,Animal_Land_Solid_Small,33.43732162495144,39.4488443749724,1.0,Animal_Land_Solid_Small,-7.0,,,,,,,,,,,
encoding,value,3,24195129,24201141,24200763.0,24200923.0,161.0,161.0,1712.2,951.5999999999999,1591.0,1269.0,Animal_Land_Solid_Small,33.43732162495144,39.4488443749724,1.0,Animal_Land_Solid_Small,-7.0,,,,,,,,,,,
encoding,value,3,24195129,24201141,24200939.0,24201145.0,207.0,202.0,1619.0,870.7,1591.0,1269.0,Animal_Land_Solid_Small,33.43732162495144,39.4488443749724,1.0,Animal_Land_Solid_Small,-7.0,,,,,,,,,,,
encoding,attention,3,24201141,24204159,24201386.0,24201548.0,163.0,163.0,1598.7,872.8,1591.0,1269.0,Animal_Land_Solid_Small,39.448942333925515,42.46654141694307,1.0,Animal_Land_Solid_Small,-7.0,-7.0,1.0,1.3592365409713238,,,,,,,,
encoding,attention,3,24201141,24204159,24201559.0,24201926.0,368.0,368.0,1622.7,891.0,1591.0,1269.0,Animal_Land_Solid_Small,39.448942333925515,42.46654141694307,1.0,Animal_Land_Solid_Small,-7.0,-7.0,1.0,1.3592365409713238,,,,,,,,
encoding,attention,3,24201141,24204159,24201945.0,24202711.0,767.0,767.0,1546.2,811.0999999999999,1591.0,1269.0,Animal_Land_Solid_Small,39.448942333925515,42.46654141694307,1.0,Animal_Land_Solid_Small,-7.0,-7.0,1.0,1.3592365409713238,,,,,,,,
encoding,attention,3,24201141,24204159,24202727.0,24203349.0,623.0,623.0,1597.4,891.7,1591.0,1269.0,Animal_Land_Solid_Small,39.448942333925515,42.46654141694307,1.0,Animal_Land_Solid_Small,-7.0,-7.0,1.0,1.3592365409713238,,,,,,,,
encoding,attention,3,24201141,24204159,24203392.0,24203496.0,105.0,105.0,2131.8,961.3,2249.0,1269.0,Object_Sea_Pattern_Large,39.448942333925515,42.46654141694307,1.0,Animal_Land_Solid_Small,-7.0,-7.0,1.0,1.3592365409713238,,,,,,,,
encoding,attention,3,24201141,24204159,24203718.0,24204073.0,356.0,356.0,1860.0,1101.1,1920.0,1080.0,fixation,39.448942333925515,42.46654141694307,1.0,Animal_Land_Solid_Small,-7.0,-7.0,1.0,1.3592365409713238,,,,,,,,
encoding,fixation,4,24204159,24205664,24204571.0,24205275.0,705.0,705.0,1907.6,1080.2,1920.0,1080.0,fixation,42.46667733392678,43.97168399998918,1.0,Object_Sea_Solid_Large,-2.0,,,,,,,,,,,
encoding,fixation,4,24204159,24205664,24205485.0,24205548.0,64.0,64.0,1919.8,1052.5,1920.0,1080.0,fixation,42.46667733392678,43.97168399998918,1.0,Object_Sea_Solid_Large,-2.0,,,,,,,,,,,
encoding,fixation,4,24204159,24205664,24205556.0,24205855.0,300.0,108.0,1916.8,1025.9,1920.0,1080.0,fixation,42.46667733392678,43.97168399998918,1.0,Object_Sea_Solid_Large,-2.0,,,,,,,,,,,
encoding,image,4,24205664,24206675,24205890.0,24206813.0,924.0,785.0,1588.3,1221.6,1591.0,891.0,Object_Sea_Solid_Large,43.97179462492931,44.983091083937325,1.0,Object_Sea_Solid_Large,-2.0,,,,,,,,,,,
encoding,value,4,24206676,24212688,24207066.0,24207124.0,59.0,59.0,1585.3,1175.8,1591.0,891.0,Object_Sea_Solid_Large,44.98319854191504,50.995783916907385,1.0,Object_Sea_Solid_Large,-2.0,,,,,,,,,,,
encoding,value,4,24206676,24212688,24207133.0,24207371.0,239.0,239.0,1589.2,1158.7,1591.0,891.0,Object_Sea_Solid_Large,44.98319854191504,50.995783916907385,1.0,Object_Sea_Solid_Large,-2.0,,,,,,,,,,,
encoding,value,4,24206676,24212688,24207388.0,24209700.0,2313.0,2313.0,1574.3,1223.4,1591.0,891.0,Object_Sea_Solid_Large,44.98319854191504,50.995783916907385,1.0,Object_Sea_Solid_Large,-2.0,,,,,,,,,,,
encoding,value,4,24206676,24212688,24209933.0,24210633.0,701.0,701.0,1604.4,1208.5,1591.0,891.0,Object_Sea_Solid_Large,44.98319854191504,50.995783916907385,1.0,Object_Sea_Solid_Large,-2.0,,,,,,,,,,,
encoding,value,4,24206676,24212688,24210643.0,24210913.0,271.0,271.0,1545.1,1198.2,1591.0,891.0,Object_Sea_Solid_Large,44.98319854191504,50.995783916907385,1.0,Object_Sea_Solid_Large,-2.0,,,,,,,,,,,
encoding,value,4,24206676,24212688,24210922.0,24211176.0,255.0,255.0,1594.4,1219.4,1591.0,891.0,Object_Sea_Solid_Large,44.98319854191504,50.995783916907385,1.0,Object_Sea_Solid_Large,-2.0,,,,,,,,,,,
encoding,value,4,24206676,24212688,24211410.0,24211466.0,57.0,57.0,1582.7,1261.3,1591.0,891.0,Object_Sea_Solid_Large,44.98319854191504,50.995783916907385,1.0,Object_Sea_Solid_Large,-2.0,,,,,,,,,,,
encoding,value,4,24206676,24212688,24211473.0,24212265.0,793.0,793.0,1584.7,1225.9,1591.0,891.0,Object_Sea_Solid_Large,44.98319854191504,50.995783916907385,1.0,Object_Sea_Solid_Large,-2.0,,,,,,,,,,,
encoding,value,4,24206676,24212688,24212497.0,24213194.0,698.0,191.0,1609.6,1152.2,1591.0,891.0,Object_Sea_Solid_Large,44.98319854191504,50.995783916907385,1.0,Object_Sea_Solid_Large,-2.0,,,,,,,,,,,
encoding,attention,4,24212689,24215707,24213210.0,24213468.0,259.0,259.0,1529.6,1186.2,1591.0,891.0,Object_Sea_Solid_Large,50.99591908394359,54.01414808398113,1.0,Object_Sea_Solid_Large,-2.0,-2.0,1.0,1.6061416660668328,,,,,,,,
encoding,attention,4,24212689,24215707,24213483.0,24213947.0,465.0,465.0,1613.8,1242.9,1591.0,891.0,Object_Sea_Solid_Large,50.99591908394359,54.01414808398113,1.0,Object_Sea_Solid_Large,-2.0,-2.0,1.0,1.6061416660668328,,,,,,,,
encoding,attention,4,24212689,24215707,24213958.0,24214579.0,622.0,622.0,1568.9,1252.4,1591.0,891.0,Object_Sea_Solid_Large,50.99591908394359,54.01414808398113,1.0,Object_Sea_Solid_Large,-2.0,-2.0,1.0,1.6061416660668328,,,,,,,,
encoding,attention,4,24212689,24215707,24214805.0,24215301.0,497.0,497.0,1580.4,1246.0,1591.0,891.0,Object_Sea_Solid_Large,50.99591908394359,54.01414808398113,1.0,Object_Sea_Solid_Large,-2.0,-2.0,1.0,1.6061416660668328,,,,,,,,
encoding,attention,4,24212689,24215707,24215315.0,24215538.0,224.0,224.0,1639.0,1185.2,1591.0,891.0,Object_Sea_Solid_Large,50.99591908394359,54.01414808398113,1.0,Object_Sea_Solid_Large,-2.0,-2.0,1.0,1.6061416660668328,,,,,,,,
encoding,fixation,5,24215707,24216462,24216030.0,24216248.0,219.0,219.0,1900.1,1077.4,1920.0,1080.0,fixation,54.014306749915704,54.76945841696579,1.0,Animal_Land_Pattern_Large,3.0,,,,,,,,,,,
encoding,fixation,5,24215707,24216462,24216450.0,24216491.0,42.0,12.0,1959.2,1149.5,1920.0,700.0,Object_Sea_Solid_Small,54.014306749915704,54.76945841696579,1.0,Animal_Land_Pattern_Large,3.0,,,,,,,,,,,
encoding,image,5,24216462,24217475,24216498.0,24216685.0,188.0,188.0,1959.3,1123.7,1920.0,1080.0,fixation,54.769570166943595,55.781956334016286,1.0,Animal_Land_Pattern_Large,3.0,,,,,,,,,,,
encoding,image,5,24216462,24217475,24216737.0,24216920.0,184.0,184.0,1922.2,672.7,1920.0,1460.0,Animal_Land_Pattern_Large,54.769570166943595,55.781956334016286,1.0,Animal_Land_Pattern_Large,3.0,,,,,,,,,,,
encoding,image,5,24216462,24217475,24216934.0,24217807.0,874.0,541.0,1902.7,720.3,1920.0,1460.0,Animal_Land_Pattern_Large,54.769570166943595,55.781956334016286,1.0,Animal_Land_Pattern_Large,3.0,,,,,,,,,,,
encoding,value,5,24217475,24223487,24217822.0,24218042.0,221.0,221.0,1940.1,631.0,1920.0,1460.0,Animal_Land_Pattern_Large,55.78208479192108,61.79337441700045,1.0,Animal_Land_Pattern_Large,3.0,,,,,,,,,,,
encoding,value,5,24217475,24223487,24218061.0,24218773.0,713.0,713.0,1917.3,719.0,1920.0,1460.0,Animal_Land_Pattern_Large,55.78208479192108,61.79337441700045,1.0,Animal_Land_Pattern_Large,3.0,,,,,,,,,,,
encoding,value,5,24217475,24223487,24219004.0,24220802.0,1799.0,1799.0,1919.4,706.0999999999999,1920.0,1460.0,Animal_Land_Pattern_Large,55.78208479192108,61.79337441700045,1.0,Animal_Land_Pattern_Large,3.0,,,,,,,,,,,
encoding,value,5,24217475,24223487,24221019.0,24223207.0,2189.0,2189.0,1896.3,700.5,1920.0,1460.0,Animal_Land_Pattern_Large,55.78208479192108,61.79337441700045,1.0,Animal_Land_Pattern_Large,3.0,,,,,,,,,,,
encoding,value,5,24217475,24223487,24223438.0,24223826.0,389.0,49.0,1935.1,808.2,1920.0,1460.0,Animal_Land_Pattern_Large,55.78208479192108,61.79337441700045,1.0,Animal_Land_Pattern_Large,3.0,,,,,,,,,,,
encoding,attention,5,24223487,24226548,24223855.0,24224350.0,496.0,496.0,1886.9,601.8,1920.0,1460.0,Animal_Land_Pattern_Large,61.79348737502005,64.85453270899598,1.0,Animal_Land_Pattern_Large,3.0,3.0,1.0,1.4721834160154683,,,,,,,,
encoding,attention,5,24223487,24226548,24224364.0,24224743.0,380.0,380.0,1889.4,679.5999999999999,1920.0,1460.0,Animal_Land_Pattern_Large,61.79348737502005,64.85453270899598,1.0,Animal_Land_Pattern_Large,3.0,3.0,1.0,1.4721834160154683,,,,,,,,
encoding,attention,5,24223487,24226548,24224997.0,24225974.0,978.0,978.0,1857.9,716.0999999999999,1920.0,1460.0,Animal_Land_Pattern_Large,61.79348737502005,64.85453270899598,1.0,Animal_Land_Pattern_Large,3.0,3.0,1.0,1.4721834160154683,,,,,,,,
encoding,fixation,6,24226548,24227053,24226812.0,24227202.0,391.0,241.0,1903.8,1082.5,1920.0,1080.0,fixation,64.8546984589193,65.35998683399521,1.0,Animal_Land_Pattern_Small,1.0,,,,,,,,,,,
encoding,image,6,24227053,24228065,24227230.0,24227447.0,218.0,218.0,2186.5,1229.4,2249.0,891.0,Animal_Land_Pattern_Small,65.36011779191904,66.37135054194368,1.0,Animal_Land_Pattern_Small,1.0,,,,,,,,,,,
encoding,image,6,24227053,24228065,24227461.0,24227716.0,256.0,256.0,2241.9,1263.1,2249.0,891.0,Animal_Land_Pattern_Small,65.36011779191904,66.37135054194368,1.0,Animal_Land_Pattern_Small,1.0,,,,,,,,,,,
encoding,image,6,24227053,24228065,24227894.0,24228734.0,841.0,171.0,2226.8,1257.4,2249.0,891.0,Animal_Land_Pattern_Small,65.36011779191904,66.37135054194368,1.0,Animal_Land_Pattern_Small,1.0,,,,,,,,,,,
encoding,value,6,24228065,24234077,24228957.0,24229297.0,341.0,341.0,2251.0,1240.7,2249.0,891.0,Animal_Land_Pattern_Small,66.37155425001401,72.38300266698934,1.0,Animal_Land_Pattern_Small,1.0,,,,,,,,,,,
encoding,value,6,24228065,24234077,24229310.0,24229585.0,276.0,276.0,2184.4,1211.2,2249.0,891.0,Animal_Land_Pattern_Small,66.37155425001401,72.38300266698934,1.0,Animal_Land_Pattern_Small,1.0,,,,,,,,,,,
encoding,value,6,24228065,24234077,24229598.0,24229904.0,307.0,307.0,2259.5,1204.8,2249.0,891.0,Animal_Land_Pattern_Small,66.37155425001401,72.38300266698934,1.0,Animal_Land_Pattern_Small,1.0,,,,,,,,,,,
encoding,value,6,24228065,24234077,24229912.0,24230582.0,671.0,671.0,2224.1,1226.1,2249.0,891.0,Animal_Land_Pattern_Small,66.37155425001401,72.38300266698934,1.0,Animal_Land_Pattern_Small,1.0,,,,,,,,,,,
encoding,value,6,24228065,24234077,24230598.0,24230830.0,233.0,233.0,2267.9,1158.6,2249.0,891.0,Animal_Land_Pattern_Small,66.37155425001401,72.38300266698934,1.0,Animal_Land_Pattern_Small,1.0,,,,,,,,,,,
encoding,value,6,24228065,24234077,24230844.0,24231020.0,177.0,177.0,2215.8,1203.1,2249.0,891.0,Animal_Land_Pattern_Small,66.37155425001401,72.38300266698934,1.0,Animal_Land_Pattern_Small,1.0,,,,,,,,,,,
encoding,value,6,24228065,24234077,24231271.0,24232221.0,951.0,951.0,2217.4,1192.2,2249.0,891.0,Animal_Land_Pattern_Small,66.37155425001401,72.38300266698934,1.0,Animal_Land_Pattern_Small,1.0,,,,,,,,,,,
encoding,value,6,24228065,24234077,24232234.0,24232361.0,128.0,128.0,2289.4,1173.9,2249.0,891.0,Animal_Land_Pattern_Small,66.37155425001401,72.38300266698934,1.0,Animal_Land_Pattern_Small,1.0,,,,,,,,,,,
encoding,value,6,24228065,24234077,24232557.0,24233014.0,458.0,458.0,2256.4,1190.2,2249.0,891.0,Animal_Land_Pattern_Small,66.37155425001401,72.38300266698934,1.0,Animal_Land_Pattern_Small,1.0,,,,,,,,,,,
encoding,value,6,24228065,24234077,24233026.0,24233261.0,236.0,236.0,2201.0,1155.2,2249.0,891.0,Animal_Land_Pattern_Small,66.37155425001401,72.38300266698934,1.0,Animal_Land_Pattern_Small,1.0,,,,,,,,,,,
encoding,value,6,24228065,24234077,24233280.0,24233911.0,632.0,632.0,2247.3,1222.7,2249.0,891.0,Animal_Land_Pattern_Small,66.37155425001401,72.38300266698934,1.0,Animal_Land_Pattern_Small,1.0,,,,,,,,,,,
encoding,attention,6,24234077,24237094,24234144.0,24234409.0,266.0,266.0,2214.1,1191.1,2249.0,891.0,Animal_Land_Pattern_Small,72.38311766693369,75.40038299991284,1.0,Animal_Land_Pattern_Small,1.0,1.0,1.0,0.6533736248966306,,,,,,,,
encoding,attention,6,24234077,24237094,24234424.0,24234811.0,388.0,388.0,2279.1,1151.2,2249.0,891.0,Animal_Land_Pattern_Small,72.38311766693369,75.40038299991284,1.0,Animal_Land_Pattern_Small,1.0,1.0,1.0,0.6533736248966306,,,,,,,,
encoding,attention,6,24234077,24237094,24234825.0,24235077.0,253.0,253.0,2195.2,1157.5,2249.0,891.0,Animal_Land_Pattern_Small,72.38311766693369,75.40038299991284,1.0,Animal_Land_Pattern_Small,1.0,1.0,1.0,0.6533736248966306,,,,,,,,
encoding,attention,6,24234077,24237094,24235093.0,24235391.0,299.0,299.0,2221.2,1239.2,2249.0,891.0,Animal_Land_Pattern_Small,72.38311766693369,75.40038299991284,1.0,Animal_Land_Pattern_Small,1.0,1.0,1.0,0.6533736248966306,,,,,,,,
encoding,attention,6,24234077,24237094,24235563.0,24235831.0,269.0,269.0,2250.5,1254.2,2249.0,891.0,Animal_Land_Pattern_Small,72.38311766693369,75.40038299991284,1.0,Animal_Land_Pattern_Small,1.0,1.0,1.0,0.6533736248966306,,,,,,,,
encoding,attention,6,24234077,24237094,24235840.0,24236091.0,252.0,252.0,2193.1,1244.2,2249.0,891.0,Animal_Land_Pattern_Small,72.38311766693369,75.40038299991284,1.0,Animal_Land_Pattern_Small,1.0,1.0,1.0,0.6533736248966306,,,,,,,,
encoding,attention,6,24234077,24237094,24236115.0,24236346.0,232.0,232.0,1971.7,1277.3,1920.0,700.0,Object_Sea_Solid_Small,72.38311766693369,75.40038299991284,1.0,Animal_Land_Pattern_Small,1.0,1.0,1.0,0.6533736248966306,,,,,,,,
encoding,attention,6,24234077,24237094,24236371.0,24236717.0,347.0,347.0,2225.0,1207.0,2249.0,891.0,Animal_Land_Pattern_Small,72.38311766693369,75.40038299991284,1.0,Animal_Land_Pattern_Small,1.0,1.0,1.0,0.6533736248966306,,,,,,,,
encoding,fixation,7,24665671,24666178,24665906.0,24666114.0,209.0,209.0,1861.6,1158.8,1591.0,891.0,Object_Land_Solid_Small,8.265460542053916,8.772157417028211,2.0,Object_Sea_Pattern_Small,-8.0,,,,,,,,,,,
encoding,image,7,24666178,24667190,24666286.0,24666423.0,138.0,138.0,1931.9,1166.7,1920.0,700.0,Animal_Land_Solid_Large,8.772283583995886,9.783574917004444,2.0,Object_Sea_Pattern_Small,-8.0,,,,,,,,,,,
encoding,image,7,24666178,24667190,24666461.0,24666627.0,167.0,167.0,1923.4,684.8,1920.0,1460.0,Object_Sea_Pattern_Small,8.772283583995886,9.783574917004444,2.0,Object_Sea_Pattern_Small,-8.0,,,,,,,,,,,
encoding,image,7,24666178,24667190,24666641.0,24667544.0,904.0,549.0,1930.9,712.0999999999999,1920.0,1460.0,Object_Sea_Pattern_Small,8.772283583995886,9.783574917004444,2.0,Object_Sea_Pattern_Small,-8.0,,,,,,,,,,,
encoding,value,7,24667190,24673204,24667561.0,24667914.0,354.0,354.0,1938.4,617.9000000000001,1920.0,1460.0,Object_Sea_Pattern_Small,9.783764709020032,15.797935375012456,2.0,Object_Sea_Pattern_Small,-8.0,,,,,,,,,,,
encoding,value,7,24667190,24673204,24667930.0,24669427.0,1498.0,1498.0,1920.4,721.9000000000001,1920.0,1460.0,Object_Sea_Pattern_Small,9.783764709020032,15.797935375012456,2.0,Object_Sea_Pattern_Small,-8.0,,,,,,,,,,,
encoding,value,7,24667190,24673204,24669664.0,24669720.0,57.0,57.0,1889.7,724.0,1920.0,1460.0,Object_Sea_Pattern_Small,9.783764709020032,15.797935375012456,2.0,Object_Sea_Pattern_Small,-8.0,,,,,,,,,,,
encoding,value,7,24667190,24673204,24669731.0,24669859.0,129.0,129.0,1893.8,690.7,1920.0,1460.0,Object_Sea_Pattern_Small,9.783764709020032,15.797935375012456,2.0,Object_Sea_Pattern_Small,-8.0,,,,,,,,,,,
encoding,value,7,24667190,24673204,24669871.0,24670555.0,685.0,685.0,1924.8,733.0,1920.0,1460.0,Object_Sea_Pattern_Small,9.783764709020032,15.797935375012456,2.0,Object_Sea_Pattern_Small,-8.0,,,,,,,,,,,
encoding,value,7,24667190,24673204,24670809.0,24670895.0,87.0,87.0,1921.1,786.2,1920.0,1460.0,Object_Sea_Pattern_Small,9.783764709020032,15.797935375012456,2.0,Object_Sea_Pattern_Small,-8.0,,,,,,,,,,,
encoding,value,7,24667190,24673204,24670902.0,24671515.0,614.0,614.0,1922.7,744.5999999999999,1920.0,1460.0,Object_Sea_Pattern_Small,9.783764709020032,15.797935375012456,2.0,Object_Sea_Pattern_Small,-8.0,,,,,,,,,,,
encoding,value,7,24667190,24673204,24671528.0,24671752.0,225.0,225.0,1913.7,670.2,1920.0,1460.0,Object_Sea_Pattern_Small,9.783764709020032,15.797935375012456,2.0,Object_Sea_Pattern_Small,-8.0,,,,,,,,,,,
encoding,value,7,24667190,24673204,24672023.0,24672603.0,581.0,581.0,1923.9,641.5,1920.0,1460.0,Object_Sea_Pattern_Small,9.783764709020032,15.797935375012456,2.0,Object_Sea_Pattern_Small,-8.0,,,,,,,,,,,
encoding,value,7,24667190,24673204,24672621.0,24673024.0,404.0,404.0,1922.1,737.8,1920.0,1460.0,Object_Sea_Pattern_Small,9.783764709020032,15.797935375012456,2.0,Object_Sea_Pattern_Small,-8.0,,,,,,,,,,,
encoding,value,7,24667190,24673204,24673043.0,24673191.0,149.0,149.0,1917.5,634.0999999999999,1920.0,1460.0,Object_Sea_Pattern_Small,9.783764709020032,15.797935375012456,2.0,Object_Sea_Pattern_Small,-8.0,,,,,,,,,,,
encoding,attention,7,24673204,24676222,24673437.0,24673528.0,92.0,92.0,1942.7,635.0999999999999,1920.0,1460.0,Object_Sea_Pattern_Small,15.798048375057988,18.815571084036492,2.0,Object_Sea_Pattern_Small,-8.0,-8.0,1.0,0.8966248339274898,,,,,,,,
encoding,attention,7,24673204,24676222,24673535.0,24673769.0,235.0,235.0,1946.7,593.4000000000001,1920.0,1460.0,Object_Sea_Pattern_Small,15.798048375057988,18.815571084036492,2.0,Object_Sea_Pattern_Small,-8.0,-8.0,1.0,0.8966248339274898,,,,,,,,
encoding,attention,7,24673204,24676222,24673781.0,24674500.0,720.0,720.0,1885.6,597.5,1920.0,1460.0,Object_Sea_Pattern_Small,15.798048375057988,18.815571084036492,2.0,Object_Sea_Pattern_Small,-8.0,-8.0,1.0,0.8966248339274898,,,,,,,,
encoding,attention,7,24673204,24676222,24674523.0,24674877.0,355.0,355.0,1908.4,709.2,1920.0,1460.0,Object_Sea_Pattern_Small,15.798048375057988,18.815571084036492,2.0,Object_Sea_Pattern_Small,-8.0,-8.0,1.0,0.8966248339274898,,,,,,,,
encoding,attention,7,24673204,24676222,24675106.0,24675175.0,70.0,70.0,1916.4,745.5999999999999,1920.0,1460.0,Object_Sea_Pattern_Small,15.798048375057988,18.815571084036492,2.0,Object_Sea_Pattern_Small,-8.0,-8.0,1.0,0.8966248339274898,,,,,,,,
encoding,fixation,8,24676222,24677479,24676479.0,24677717.0,1239.0,1000.0,1908.5,1077.5,1920.0,1080.0,fixation,18.815726625034586,20.072348917019553,2.0,Object_Land_Solid_Small,-9.0,,,,,,,,,,,
encoding,image,8,24677479,24678490,24677751.0,24678138.0,388.0,388.0,1594.5,1269.1,1591.0,891.0,Object_Land_Solid_Small,20.07245216704905,21.08311487501487,2.0,Object_Land_Solid_Small,-9.0,,,,,,,,,,,
encoding,image,8,24677479,24678490,24678352.0,24680713.0,2362.0,138.0,1582.2,1274.6,1591.0,891.0,Object_Land_Solid_Small,20.07245216704905,21.08311487501487,2.0,Object_Land_Solid_Small,-9.0,,,,,,,,,,,
encoding,value,8,24678490,24684502,24680953.0,24681788.0,836.0,836.0,1571.6,1243.3,1591.0,891.0,Object_Land_Solid_Small,21.083216917002577,27.09514579200186,2.0,Object_Land_Solid_Small,-9.0,,,,,,,,,,,
encoding,value,8,24678490,24684502,24681974.0,24682460.0,487.0,487.0,1600.0,1250.8,1591.0,891.0,Object_Land_Solid_Small,21.083216917002577,27.09514579200186,2.0,Object_Land_Solid_Small,-9.0,,,,,,,,,,,
encoding,value,8,24678490,24684502,24682471.0,24682938.0,468.0,468.0,1552.9,1199.9,1591.0,891.0,Object_Land_Solid_Small,21.083216917002577,27.09514579200186,2.0,Object_Land_Solid_Small,-9.0,,,,,,,,,,,
encoding,value,8,24678490,24684502,24683187.0,24683546.0,360.0,360.0,1557.9,1198.3,1591.0,891.0,Object_Land_Solid_Small,21.083216917002577,27.09514579200186,2.0,Object_Land_Solid_Small,-9.0,,,,,,,,,,,
encoding,value,8,24678490,24684502,24683559.0,24683764.0,206.0,206.0,1646.2,1168.7,1591.0,891.0,Object_Land_Solid_Small,21.083216917002577,27.09514579200186,2.0,Object_Land_Solid_Small,-9.0,,,,,,,,,,,
encoding,value,8,24678490,24684502,24683783.0,24683995.0,213.0,213.0,1585.3,1248.9,1591.0,891.0,Object_Land_Solid_Small,21.083216917002577,27.09514579200186,2.0,Object_Land_Solid_Small,-9.0,,,,,,,,,,,
encoding,value,8,24678490,24684502,24684222.0,24684343.0,122.0,122.0,1587.8,1161.6,1591.0,891.0,Object_Land_Solid_Small,21.083216917002577,27.09514579200186,2.0,Object_Land_Solid_Small,-9.0,,,,,,,,,,,
encoding,value,8,24678490,24684502,24684357.0,24684803.0,447.0,145.0,1581.1,1186.2,1591.0,891.0,Object_Land_Solid_Small,21.083216917002577,27.09514579200186,2.0,Object_Land_Solid_Small,-9.0,,,,,,,,,,,
encoding,attention,8,24684502,24687521,24684814.0,24685071.0,258.0,258.0,1625.9,1159.9,1591.0,891.0,Object_Land_Solid_Small,27.09525300003588,30.113461334025487,2.0,Object_Land_Solid_Small,-9.0,-9.0,1.0,0.7514112499775365,,,,,,,,
encoding,attention,8,24684502,24687521,24685085.0,24685523.0,439.0,439.0,1544.0,1160.0,1591.0,891.0,Object_Land_Solid_Small,27.09525300003588,30.113461334025487,2.0,Object_Land_Solid_Small,-9.0,-9.0,1.0,0.7514112499775365,,,,,,,,
encoding,attention,8,24684502,24687521,24685760.0,24685829.0,70.0,70.0,1581.9,1269.1,1591.0,891.0,Object_Land_Solid_Small,27.09525300003588,30.113461334025487,2.0,Object_Land_Solid_Small,-9.0,-9.0,1.0,0.7514112499775365,,,,,,,,
encoding,attention,8,24684502,24687521,24685835.0,24685900.0,66.0,66.0,1582.0,1243.1,1591.0,891.0,Object_Land_Solid_Small,27.09525300003588,30.113461334025487,2.0,Object_Land_Solid_Small,-9.0,-9.0,1.0,0.7514112499775365,,,,,,,,
encoding,attention,8,24684502,24687521,24685939.0,24686117.0,179.0,179.0,1948.4,1040.6,1920.0,1080.0,fixation,27.09525300003588,30.113461334025487,2.0,Object_Land_Solid_Small,-9.0,-9.0,1.0,0.7514112499775365,,,,,,,,
encoding,attention,8,24684502,24687521,24686127.0,24686397.0,271.0,271.0,1909.7,1067.4,1920.0,1080.0,fixation,27.09525300003588,30.113461334025487,2.0,Object_Land_Solid_Small,-9.0,-9.0,1.0,0.7514112499775365,,,,,,,,
encoding,attention,8,24684502,24687521,24686645.0,24686708.0,64.0,64.0,1917.4,1084.6,1920.0,1080.0,fixation,27.09525300003588,30.113461334025487,2.0,Object_Land_Solid_Small,-9.0,-9.0,1.0,0.7514112499775365,,,,,,,,
encoding,attention,8,24684502,24687521,24686719.0,24687378.0,660.0,660.0,1917.8,1056.0,1920.0,1080.0,fixation,27.09525300003588,30.113461334025487,2.0,Object_Land_Solid_Small,-9.0,-9.0,1.0,0.7514112499775365,,,,,,,,
encoding,fixation,9,24687521,24688026,24687660.0,24687740.0,81.0,81.0,1874.7,1120.1,1920.0,1080.0,fixation,30.11359900003299,30.61895837506745,2.0,Animal_Sea_Pattern_Large,-2.0,,,,,,,,,,,
encoding,fixation,9,24687521,24688026,24687748.0,24687775.0,28.0,28.0,1871.9,1092.7,1920.0,1080.0,fixation,30.11359900003299,30.61895837506745,2.0,Animal_Sea_Pattern_Large,-2.0,,,,,,,,,,,
encoding,fixation,9,24687521,24688026,24687785.0,24688315.0,531.0,241.0,1923.9,1078.3,1920.0,1080.0,fixation,30.11359900003299,30.61895837506745,2.0,Animal_Sea_Pattern_Large,-2.0,,,,,,,,,,,
encoding,image,9,24688026,24689037,24688352.0,24689243.0,892.0,685.0,1571.9,884.9000000000001,1591.0,1269.0,Animal_Sea_Pattern_Large,30.619063875055872,31.63034658401739,2.0,Animal_Sea_Pattern_Large,-2.0,,,,,,,,,,,
encoding,value,9,24689037,24695049,24689256.0,24689982.0,727.0,727.0,1592.0,822.9000000000001,1591.0,1269.0,Animal_Sea_Pattern_Large,31.63046654209029,37.64204195898492,2.0,Animal_Sea_Pattern_Large,-2.0,,,,,,,,,,,
encoding,value,9,24689037,24695049,24689990.0,24690230.0,241.0,241.0,1582.9,776.5,1591.0,1269.0,Animal_Sea_Pattern_Large,31.63046654209029,37.64204195898492,2.0,Animal_Sea_Pattern_Large,-2.0,,,,,,,,,,,
encoding,value,9,24689037,24695049,24690249.0,24690519.0,271.0,271.0,1570.2,891.4000000000001,1591.0,1269.0,Animal_Sea_Pattern_Large,31.63046654209029,37.64204195898492,2.0,Animal_Sea_Pattern_Large,-2.0,,,,,,,,,,,
encoding,value,9,24689037,24695049,24690701.0,24691501.0,801.0,801.0,1561.6,883.2,1591.0,1269.0,Animal_Sea_Pattern_Large,31.63046654209029,37.64204195898492,2.0,Animal_Sea_Pattern_Large,-2.0,,,,,,,,,,,
encoding,value,9,24689037,24695049,24691512.0,24691854.0,343.0,343.0,1613.5,853.7,1591.0,1269.0,Animal_Sea_Pattern_Large,31.63046654209029,37.64204195898492,2.0,Animal_Sea_Pattern_Large,-2.0,,,,,,,,,,,
encoding,value,9,24689037,24695049,24692160.0,24692659.0,500.0,500.0,1579.1,868.5999999999999,1591.0,1269.0,Animal_Sea_Pattern_Large,31.63046654209029,37.64204195898492,2.0,Animal_Sea_Pattern_Large,-2.0,,,,,,,,,,,
encoding,value,9,24689037,24695049,24692673.0,24692891.0,219.0,219.0,1674.7,807.5999999999999,1591.0,1269.0,Animal_Sea_Pattern_Large,31.63046654209029,37.64204195898492,2.0,Animal_Sea_Pattern_Large,-2.0,,,,,,,,,,,
encoding,value,9,24689037,24695049,24693142.0,24693341.0,200.0,200.0,1552.6,849.0,1591.0,1269.0,Animal_Sea_Pattern_Large,31.63046654209029,37.64204195898492,2.0,Animal_Sea_Pattern_Large,-2.0,,,,,,,,,,,
encoding,value,9,24689037,24695049,24693353.0,24693672.0,320.0,320.0,1608.3,877.4000000000001,1591.0,1269.0,Animal_Sea_Pattern_Large,31.63046654209029,37.64204195898492,2.0,Animal_Sea_Pattern_Large,-2.0,,,,,,,,,,,
encoding,value,9,24689037,24695049,24693959.0,24694045.0,87.0,87.0,1598.8,863.0999999999999,1591.0,1269.0,Animal_Sea_Pattern_Large,31.63046654209029,37.64204195898492,2.0,Animal_Sea_Pattern_Large,-2.0,,,,,,,,,,,
encoding,value,9,24689037,24695049,24694055.0,24694149.0,95.0,95.0,1601.0,837.0,1591.0,1269.0,Animal_Sea_Pattern_Large,31.63046654209029,37.64204195898492,2.0,Animal_Sea_Pattern_Large,-2.0,,,,,,,,,,,
encoding,value,9,24689037,24695049,24694163.0,24694681.0,519.0,519.0,1601.6,897.0999999999999,1591.0,1269.0,Animal_Sea_Pattern_Large,31.63046654209029,37.64204195898492,2.0,Animal_Sea_Pattern_Large,-2.0,,,,,,,,,,,
encoding,value,9,24689037,24695049,24694695.0,24694957.0,263.0,263.0,1586.7,833.5999999999999,1591.0,1269.0,Animal_Sea_Pattern_Large,31.63046654209029,37.64204195898492,2.0,Animal_Sea_Pattern_Large,-2.0,,,,,,,,,,,
encoding,value,9,24689037,24695049,24694971.0,24695383.0,413.0,78.0,1586.5,884.8,1591.0,1269.0,Animal_Sea_Pattern_Large,31.63046654209029,37.64204195898492,2.0,Animal_Sea_Pattern_Large,-2.0,,,,,,,,,,,
encoding,attention,9,24695049,24698067,24695404.0,24696118.0,715.0,715.0,1640.2,815.8,1591.0,1269.0,Animal_Sea_Pattern_Large,37.64217083400581,40.65940679202322,2.0,Animal_Sea_Pattern_Large,-2.0,-2.0,1.0,0.8047197500709444,,,,,,,,
encoding,attention,9,24695049,24698067,24696371.0,24696878.0,508.0,508.0,1585.3,904.9000000000001,1591.0,1269.0,Animal_Sea_Pattern_Large,37.64217083400581,40.65940679202322,2.0,Animal_Sea_Pattern_Large,-2.0,-2.0,1.0,0.8047197500709444,,,,,,,,
encoding,attention,9,24695049,24698067,24696917.0,24697080.0,164.0,164.0,1958.8,1104.4,1920.0,1080.0,fixation,37.64217083400581,40.65940679202322,2.0,Animal_Sea_Pattern_Large,-2.0,-2.0,1.0,0.8047197500709444,,,,,,,,
encoding,attention,9,24695049,24698067,24697090.0,24697438.0,349.0,349.0,1911.0,1084.0,1920.0,1080.0,fixation,37.64217083400581,40.65940679202322,2.0,Animal_Sea_Pattern_Large,-2.0,-2.0,1.0,0.8047197500709444,,,,,,,,
encoding,attention,9,24695049,24698067,24697475.0,24697669.0,195.0,195.0,1554.3,863.8,1591.0,1269.0,Animal_Sea_Pattern_Large,37.64217083400581,40.65940679202322,2.0,Animal_Sea_Pattern_Large,-2.0,-2.0,1.0,0.8047197500709444,,,,,,,,
encoding,fixation,10,24698067,24699322,24698279.0,24698843.0,565.0,565.0,1908.3,1062.1,1920.0,1080.0,fixation,40.659560959087685,41.914648959063925,2.0,Animal_Land_Solid_Large,1.0,,,,,,,,,,,
encoding,fixation,10,24698067,24699322,24699026.0,24699559.0,534.0,296.0,1920.1,1084.1,1920.0,1080.0,fixation,40.659560959087685,41.914648959063925,2.0,Animal_Land_Solid_Large,1.0,,,,,,,,,,,
encoding,image,10,24699322,24700334,24699586.0,24699768.0,183.0,183.0,1939.2,1392.1,1920.0,700.0,Animal_Land_Solid_Large,41.91476825007703,42.9265447499929,2.0,Animal_Land_Solid_Large,1.0,,,,,,,,,,,
encoding,image,10,24699322,24700334,24699789.0,24701810.0,2022.0,545.0,1933.7,1495.3,1920.0,700.0,Animal_Land_Solid_Large,41.91476825007703,42.9265447499929,2.0,Animal_Land_Solid_Large,1.0,,,,,,,,,,,
encoding,value,10,24700334,24706347,24701833.0,24701939.0,107.0,107.0,1908.8,1344.7,1920.0,700.0,Animal_Land_Solid_Large,42.9266668750206,48.93945137504488,2.0,Animal_Land_Solid_Large,1.0,,,,,,,,,,,
encoding,value,10,24700334,24706347,24702158.0,24702198.0,41.0,41.0,1915.7,1457.8,1920.0,700.0,Animal_Land_Solid_Large,42.9266668750206,48.93945137504488,2.0,Animal_Land_Solid_Large,1.0,,,,,,,,,,,
encoding,value,10,24700334,24706347,24702207.0,24702340.0,134.0,134.0,1917.0,1433.1,1920.0,700.0,Animal_Land_Solid_Large,42.9266668750206,48.93945137504488,2.0,Animal_Land_Solid_Large,1.0,,,,,,,,,,,
encoding,value,10,24700334,24706347,24702359.0,24702931.0,573.0,573.0,1937.5,1503.0,1920.0,700.0,Animal_Land_Solid_Large,42.9266668750206,48.93945137504488,2.0,Animal_Land_Solid_Large,1.0,,,,,,,,,,,
encoding,value,10,24700334,24706347,24702967.0,24703005.0,39.0,39.0,1791.3,1266.8,1591.0,891.0,Object_Land_Solid_Small,42.9266668750206,48.93945137504488,2.0,Animal_Land_Solid_Large,1.0,,,,,,,,,,,
encoding,value,10,24700334,24706347,24703251.0,24703316.0,66.0,66.0,1871.6,1270.7,1920.0,700.0,Animal_Land_Solid_Large,42.9266668750206,48.93945137504488,2.0,Animal_Land_Solid_Large,1.0,,,,,,,,,,,
encoding,value,10,24700334,24706347,24703331.0,24703536.0,206.0,206.0,1866.9,1239.0,1920.0,700.0,Animal_Land_Solid_Large,42.9266668750206,48.93945137504488,2.0,Animal_Land_Solid_Large,1.0,,,,,,,,,,,
encoding,value,10,24700334,24706347,24703784.0,24703876.0,93.0,93.0,1857.0,1252.6,1920.0,700.0,Animal_Land_Solid_Large,42.9266668750206,48.93945137504488,2.0,Animal_Land_Solid_Large,1.0,,,,,,,,,,,
encoding,value,10,24700334,24706347,24703887.0,24704098.0,212.0,212.0,1857.3,1219.5,1920.0,700.0,Animal_Land_Solid_Large,42.9266668750206,48.93945137504488,2.0,Animal_Land_Solid_Large,1.0,,,,,,,,,,,
encoding,value,10,24700334,24706347,24704360.0,24704433.0,74.0,74.0,1762.4,1087.8,1591.0,891.0,Object_Land_Solid_Small,42.9266668750206,48.93945137504488,2.0,Animal_Land_Solid_Large,1.0,,,,,,,,,,,
encoding,value,10,24700334,24706347,24704510.0,24704794.0,285.0,285.0,1937.5,1377.3,1920.0,700.0,Animal_Land_Solid_Large,42.9266668750206,48.93945137504488,2.0,Animal_Land_Solid_Large,1.0,,,,,,,,,,,
encoding,value,10,24700334,24706347,24704804.0,24704949.0,146.0,146.0,1907.8,1405.4,1920.0,700.0,Animal_Land_Solid_Large,42.9266668750206,48.93945137504488,2.0,Animal_Land_Solid_Large,1.0,,,,,,,,,,,
encoding,value,10,24700334,24706347,24704970.0,24705599.0,630.0,630.0,1935.6,1486.7,1920.0,700.0,Animal_Land_Solid_Large,42.9266668750206,48.93945137504488,2.0,Animal_Land_Solid_Large,1.0,,,,,,,,,,,
encoding,value,10,24700334,24706347,24705622.0,24705815.0,194.0,194.0,1904.9,1380.1,1920.0,700.0,Animal_Land_Solid_Large,42.9266668750206,48.93945137504488,2.0,Animal_Land_Solid_Large,1.0,,,,,,,,,,,
encoding,value,10,24700334,24706347,24705836.0,24706216.0,381.0,381.0,1935.7,1489.7,1920.0,700.0,Animal_Land_Solid_Large,42.9266668750206,48.93945137504488,2.0,Animal_Land_Solid_Large,1.0,,,,,,,,,,,
encoding,attention,10,24706347,24709365,24706431.0,24706517.0,87.0,87.0,1945.2,1453.6,1920.0,700.0,Animal_Land_Solid_Large,48.93957775004674,51.95750770904124,2.0,Animal_Land_Solid_Large,1.0,1.0,1.0,1.6432110000168905,,,,,,,,
encoding,attention,10,24706347,24709365,24706533.0,24707205.0,673.0,673.0,1942.0,1424.5,1920.0,700.0,Animal_Land_Solid_Large,48.93957775004674,51.95750770904124,2.0,Animal_Land_Solid_Large,1.0,1.0,1.0,1.6432110000168905,,,,,,,,
encoding,attention,10,24706347,24709365,24707421.0,24707496.0,76.0,76.0,1967.8,1548.6,1920.0,700.0,Animal_Land_Solid_Large,48.93957775004674,51.95750770904124,2.0,Animal_Land_Solid_Large,1.0,1.0,1.0,1.6432110000168905,,,,,,,,
encoding,attention,10,24706347,24709365,24707514.0,24707794.0,281.0,281.0,1960.8,1510.3,1920.0,700.0,Animal_Land_Solid_Large,48.93957775004674,51.95750770904124,2.0,Animal_Land_Solid_Large,1.0,1.0,1.0,1.6432110000168905,,,,,,,,
encoding,attention,10,24706347,24709365,24707809.0,24708004.0,196.0,196.0,1933.4,1446.2,1920.0,700.0,Animal_Land_Solid_Large,48.93957775004674,51.95750770904124,2.0,Animal_Land_Solid_Large,1.0,1.0,1.0,1.6432110000168905,,,,,,,,
encoding,attention,10,24706347,24709365,24708025.0,24708465.0,441.0,441.0,1964.2,1367.8,1920.0,700.0,Animal_Land_Solid_Large,48.93957775004674,51.95750770904124,2.0,Animal_Land_Solid_Large,1.0,1.0,1.0,1.6432110000168905,,,,,,,,
encoding,fixation,11,24709366,24710871,24709687.0,24709800.0,114.0,114.0,1878.1,1044.4,1920.0,1080.0,fixation,51.95765666698571,53.46270775003359,2.0,Animal_Sea_Solid_Small,2.0,,,,,,,,,,,
encoding,fixation,11,24709366,24710871,24709813.0,24711093.0,1281.0,1058.0,1918.6,1067.6,1920.0,1080.0,fixation,51.95765666698571,53.46270775003359,2.0,Animal_Sea_Solid_Small,2.0,,,,,,,,,,,
encoding,image,11,24710871,24711882,24711132.0,24711309.0,178.0,178.0,2233.9,1260.9,2249.0,891.0,Animal_Sea_Solid_Small,53.46291870903224,54.47416129207704,2.0,Animal_Sea_Solid_Small,2.0,,,,,,,,,,,
encoding,image,11,24710871,24711882,24711509.0,24711543.0,35.0,35.0,2238.0,1272.0,2249.0,891.0,Animal_Sea_Solid_Small,53.46291870903224,54.47416129207704,2.0,Animal_Sea_Solid_Small,2.0,,,,,,,,,,,
encoding,image,11,24710871,24711882,24711550.0,24712107.0,558.0,332.0,2238.4,1243.4,2249.0,891.0,Animal_Sea_Solid_Small,53.46291870903224,54.47416129207704,2.0,Animal_Sea_Solid_Small,2.0,,,,,,,,,,,
encoding,value,11,24711882,24717894,24712123.0,24712287.0,165.0,165.0,2239.5,1148.1,2249.0,891.0,Animal_Sea_Solid_Small,54.47427666699514,60.48580179200508,2.0,Animal_Sea_Solid_Small,2.0,,,,,,,,,,,
encoding,value,11,24711882,24717894,24712498.0,24712601.0,104.0,104.0,2230.9,1313.9,2249.0,891.0,Animal_Sea_Solid_Small,54.47427666699514,60.48580179200508,2.0,Animal_Sea_Solid_Small,2.0,,,,,,,,,,,
encoding,value,11,24711882,24717894,24712833.0,24713518.0,686.0,686.0,2228.5,1247.5,2249.0,891.0,Animal_Sea_Solid_Small,54.47427666699514,60.48580179200508,2.0,Animal_Sea_Solid_Small,2.0,,,,,,,,,,,
encoding,value,11,24711882,24717894,24713546.0,24713749.0,204.0,204.0,1978.1,1082.7,1920.0,1080.0,fixation,54.47427666699514,60.48580179200508,2.0,Animal_Sea_Solid_Small,2.0,,,,,,,,,,,
encoding,value,11,24711882,24717894,24713973.0,24714600.0,628.0,628.0,1919.1,981.7,1920.0,1460.0,Object_Sea_Pattern_Small,54.47427666699514,60.48580179200508,2.0,Animal_Sea_Solid_Small,2.0,,,,,,,,,,,
encoding,value,11,24711882,24717894,24714840.0,24714878.0,39.0,39.0,2242.0,1250.3,2249.0,891.0,Animal_Sea_Solid_Small,54.47427666699514,60.48580179200508,2.0,Animal_Sea_Solid_Small,2.0,,,,,,,,,,,
encoding,value,11,24711882,24717894,24714890.0,24715004.0,115.0,115.0,2233.6,1202.6,2249.0,891.0,Animal_Sea_Solid_Small,54.47427666699514,60.48580179200508,2.0,Animal_Sea_Solid_Small,2.0,,,,,,,,,,,
encoding,value,11,24711882,24717894,24715019.0,24715890.0,872.0,872.0,2245.3,1261.2,2249.0,891.0,Animal_Sea_Solid_Small,54.47427666699514,60.48580179200508,2.0,Animal_Sea_Solid_Small,2.0,,,,,,,,,,,
encoding,value,11,24711882,24717894,24716086.0,24716597.0,512.0,512.0,2246.5,1260.7,2249.0,891.0,Animal_Sea_Solid_Small,54.47427666699514,60.48580179200508,2.0,Animal_Sea_Solid_Small,2.0,,,,,,,,,,,
encoding,value,11,24711882,24717894,24716609.0,24716896.0,288.0,288.0,2192.6,1265.9,2249.0,891.0,Animal_Sea_Solid_Small,54.47427666699514,60.48580179200508,2.0,Animal_Sea_Solid_Small,2.0,,,,,,,,,,,
encoding,value,11,24711882,24717894,24716909.0,24718146.0,1238.0,985.0,2241.5,1259.4,2249.0,891.0,Animal_Sea_Solid_Small,54.47427666699514,60.48580179200508,2.0,Animal_Sea_Solid_Small,2.0,,,,,,,,,,,
encoding,attention,11,24717894,24720914,24718165.0,24718509.0,345.0,345.0,2264.0,1188.0,2249.0,891.0,Animal_Sea_Solid_Small,60.48594174999744,63.50574658403639,2.0,Animal_Sea_Solid_Small,2.0,2.0,1.0,1.1833396250149235,,,,,,,,
encoding,attention,11,24717894,24720914,24718519.0,24719029.0,511.0,511.0,2208.6,1203.3,2249.0,891.0,Animal_Sea_Solid_Small,60.48594174999744,63.50574658403639,2.0,Animal_Sea_Solid_Small,2.0,2.0,1.0,1.1833396250149235,,,,,,,,
encoding,attention,11,24717894,24720914,24719204.0,24719253.0,50.0,50.0,2241.2,1277.7,2249.0,891.0,Animal_Sea_Solid_Small,60.48594174999744,63.50574658403639,2.0,Animal_Sea_Solid_Small,2.0,2.0,1.0,1.1833396250149235,,,,,,,,
encoding,attention,11,24717894,24720914,24719282.0,24719485.0,204.0,204.0,2238.1,1233.0,2249.0,891.0,Animal_Sea_Solid_Small,60.48594174999744,63.50574658403639,2.0,Animal_Sea_Solid_Small,2.0,2.0,1.0,1.1833396250149235,,,,,,,,
encoding,attention,11,24717894,24720914,24719729.0,24720181.0,453.0,453.0,2226.6,1295.7,2249.0,891.0,Animal_Sea_Solid_Small,60.48594174999744,63.50574658403639,2.0,Animal_Sea_Solid_Small,2.0,2.0,1.0,1.1833396250149235,,,,,,,,
encoding,fixation,12,24720914,24721419,24720943.0,24721360.0,418.0,418.0,2257.7,1248.7,2249.0,891.0,Animal_Sea_Solid_Small,63.505897958995774,64.01100908406079,2.0,Object_Land_Pattern_Large,2.0,,,,,,,,,,,
encoding,fixation,12,24720914,24721419,24721390.0,24721624.0,235.0,29.0,1930.2,1095.4,1920.0,1080.0,fixation,63.505897958995774,64.01100908406079,2.0,Object_Land_Pattern_Large,2.0,,,,,,,,,,,
encoding,image,12,24721420,24722431,24721654.0,24722029.0,376.0,376.0,2218.8,867.5999999999999,2249.0,1269.0,Object_Land_Pattern_Large,64.0111027500825,65.02250908408314,2.0,Object_Land_Pattern_Large,2.0,,,,,,,,,,,
encoding,image,12,24721420,24722431,24722037.0,24723291.0,1255.0,394.0,2272.8,872.2,2249.0,1269.0,Object_Land_Pattern_Large,64.0111027500825,65.02250908408314,2.0,Object_Land_Pattern_Large,2.0,,,,,,,,,,,
encoding,value,12,24722431,24728443,24723486.0,24723776.0,291.0,291.0,2249.0,990.4000000000001,2249.0,1269.0,Object_Land_Pattern_Large,65.02262308401987,71.03470425005071,2.0,Object_Land_Pattern_Large,2.0,,,,,,,,,,,
encoding,value,12,24722431,24728443,24723991.0,24725033.0,1043.0,1043.0,2259.1,897.5999999999999,2249.0,1269.0,Object_Land_Pattern_Large,65.02262308401987,71.03470425005071,2.0,Object_Land_Pattern_Large,2.0,,,,,,,,,,,
encoding,value,12,24722431,24728443,24725249.0,24725673.0,425.0,425.0,2272.8,925.5,2249.0,1269.0,Object_Land_Pattern_Large,65.02262308401987,71.03470425005071,2.0,Object_Land_Pattern_Large,2.0,,,,,,,,,,,
encoding,value,12,24722431,24728443,24725684.0,24725995.0,312.0,312.0,2220.9,888.8,2249.0,1269.0,Object_Land_Pattern_Large,65.02262308401987,71.03470425005071,2.0,Object_Land_Pattern_Large,2.0,,,,,,,,,,,
encoding,value,12,24722431,24728443,24726224.0,24726637.0,414.0,414.0,2209.8,906.5999999999999,2249.0,1269.0,Object_Land_Pattern_Large,65.02262308401987,71.03470425005071,2.0,Object_Land_Pattern_Large,2.0,,,,,,,,,,,
encoding,value,12,24722431,24728443,24726652.0,24726935.0,284.0,284.0,2307.4,896.4000000000001,2249.0,1269.0,Object_Land_Pattern_Large,65.02262308401987,71.03470425005071,2.0,Object_Land_Pattern_Large,2.0,,,,,,,,,,,
encoding,value,12,24722431,24728443,24727163.0,24727311.0,149.0,149.0,2275.6,884.0,2249.0,1269.0,Object_Land_Pattern_Large,65.02262308401987,71.03470425005071,2.0,Object_Land_Pattern_Large,2.0,,,,,,,,,,,
encoding,value,12,24722431,24728443,24727322.0,24727632.0,311.0,311.0,2235.4,886.2,2249.0,1269.0,Object_Land_Pattern_Large,65.02262308401987,71.03470425005071,2.0,Object_Land_Pattern_Large,2.0,,,,,,,,,,,
encoding,value,12,24722431,24728443,24727877.0,24728445.0,569.0,566.0,2276.2,928.3,2249.0,1269.0,Object_Land_Pattern_Large,65.02262308401987,71.03470425005071,2.0,Object_Land_Pattern_Large,2.0,,,,,,,,,,,
encoding,attention,12,24728444,24731462,24728457.0,24728837.0,381.0,381.0,2224.3,886.4000000000001,2249.0,1269.0,Object_Land_Pattern_Large,71.03481545904651,74.05332820909098,2.0,Object_Land_Pattern_Large,2.0,2.0,1.0,1.252473457949236,,,,,,,,
encoding,attention,12,24728444,24731462,24729100.0,24729277.0,178.0,178.0,2256.6,817.2,2249.0,1269.0,Object_Land_Pattern_Large,71.03481545904651,74.05332820909098,2.0,Object_Land_Pattern_Large,2.0,2.0,1.0,1.252473457949236,,,,,,,,
encoding,attention,12,24728444,24731462,24729284.0,24729572.0,289.0,289.0,2296.4,821.0,2249.0,1269.0,Object_Land_Pattern_Large,71.03481545904651,74.05332820909098,2.0,Object_Land_Pattern_Large,2.0,2.0,1.0,1.252473457949236,,,,,,,,
encoding,attention,12,24728444,24731462,24729588.0,24729979.0,392.0,392.0,2248.3,854.7,2249.0,1269.0,Object_Land_Pattern_Large,71.03481545904651,74.05332820909098,2.0,Object_Land_Pattern_Large,2.0,2.0,1.0,1.252473457949236,,,,,,,,
encoding,attention,12,24728444,24731462,24730197.0,24730364.0,168.0,168.0,2111.7,1018.7,2249.0,1269.0,Object_Land_Pattern_Large,71.03481545904651,74.05332820909098,2.0,Object_Land_Pattern_Large,2.0,2.0,1.0,1.252473457949236,,,,,,,,
encoding,attention,12,24728444,24731462,24730387.0,24730647.0,261.0,261.0,2304.2,910.0999999999999,2249.0,1269.0,Object_Land_Pattern_Large,71.03481545904651,74.05332820909098,2.0,Object_Land_Pattern_Large,2.0,2.0,1.0,1.252473457949236,,,,,,,,
encoding,attention,12,24728444,24731462,24730895.0,24731322.0,428.0,428.0,2245.2,885.9000000000001,2249.0,1269.0,Object_Land_Pattern_Large,71.03481545904651,74.05332820909098,2.0,Object_Land_Pattern_Large,2.0,2.0,1.0,1.252473457949236,,,,,,,,
encoding,fixation,13,25068554,25069310,25068802.0,25068947.0,146.0,146.0,1881.7,1133.2,1920.0,1080.0,fixation,3.655505042057485,4.412003707955591,3.0,Animal_Sea_Pattern_Small,-9.0,,,,,,,,,,,
encoding,fixation,13,25068554,25069310,25069174.0,25069198.0,25.0,25.0,1920.0,1187.7,1920.0,700.0,Animal_Sea_Pattern_Small,3.655505042057485,4.412003707955591,3.0,Animal_Sea_Pattern_Small,-9.0,,,,,,,,,,,
encoding,fixation,13,25068554,25069310,25069209.0,25069474.0,266.0,101.0,1914.2,1156.9,1920.0,700.0,Animal_Sea_Pattern_Small,3.655505042057485,4.412003707955591,3.0,Animal_Sea_Pattern_Small,-9.0,,,,,,,,,,,
encoding,image,13,25069310,25070322,25069523.0,25070186.0,664.0,664.0,1898.7,1487.6,1920.0,700.0,Animal_Sea_Pattern_Small,4.412114458042197,5.423624041955918,3.0,Animal_Sea_Pattern_Small,-9.0,,,,,,,,,,,
encoding,image,13,25069310,25070322,25070205.0,25070418.0,214.0,117.0,1878.7,1335.3,1920.0,700.0,Animal_Sea_Pattern_Small,4.412114458042197,5.423624041955918,3.0,Animal_Sea_Pattern_Small,-9.0,,,,,,,,,,,
encoding,value,13,25070322,25076335,25070439.0,25070677.0,239.0,239.0,1899.3,1441.7,1920.0,700.0,Animal_Sea_Pattern_Small,5.423739750054665,11.437143082963305,3.0,Animal_Sea_Pattern_Small,-9.0,,,,,,,,,,,
encoding,value,13,25070322,25076335,25070874.0,25070930.0,57.0,57.0,1889.3,1486.9,1920.0,700.0,Animal_Sea_Pattern_Small,5.423739750054665,11.437143082963305,3.0,Animal_Sea_Pattern_Small,-9.0,,,,,,,,,,,
encoding,value,13,25070322,25076335,25070941.0,25071836.0,896.0,896.0,1881.0,1451.5,1920.0,700.0,Animal_Sea_Pattern_Small,5.423739750054665,11.437143082963305,3.0,Animal_Sea_Pattern_Small,-9.0,,,,,,,,,,,
encoding,value,13,25070322,25076335,25072051.0,25072269.0,219.0,219.0,1898.4,1436.9,1920.0,700.0,Animal_Sea_Pattern_Small,5.423739750054665,11.437143082963305,3.0,Animal_Sea_Pattern_Small,-9.0,,,,,,,,,,,
encoding,value,13,25070322,25076335,25072280.0,25072613.0,334.0,334.0,1913.7,1472.1,1920.0,700.0,Animal_Sea_Pattern_Small,5.423739750054665,11.437143082963305,3.0,Animal_Sea_Pattern_Small,-9.0,,,,,,,,,,,
encoding,value,13,25070322,25076335,25072624.0,25072939.0,316.0,316.0,1963.4,1482.8,1920.0,700.0,Animal_Sea_Pattern_Small,5.423739750054665,11.437143082963305,3.0,Animal_Sea_Pattern_Small,-9.0,,,,,,,,,,,
encoding,value,13,25070322,25076335,25072951.0,25073118.0,168.0,168.0,1903.2,1466.3,1920.0,700.0,Animal_Sea_Pattern_Small,5.423739750054665,11.437143082963305,3.0,Animal_Sea_Pattern_Small,-9.0,,,,,,,,,,,
encoding,value,13,25070322,25076335,25073361.0,25073404.0,44.0,44.0,1896.7,1460.1,1920.0,700.0,Animal_Sea_Pattern_Small,5.423739750054665,11.437143082963305,3.0,Animal_Sea_Pattern_Small,-9.0,,,,,,,,,,,
encoding,value,13,25070322,25076335,25073417.0,25073876.0,460.0,460.0,1898.3,1429.2,1920.0,700.0,Animal_Sea_Pattern_Small,5.423739750054665,11.437143082963305,3.0,Animal_Sea_Pattern_Small,-9.0,,,,,,,,,,,
encoding,value,13,25070322,25076335,25073889.0,25073944.0,56.0,56.0,1959.6,1392.0,1920.0,700.0,Animal_Sea_Pattern_Small,5.423739750054665,11.437143082963305,3.0,Animal_Sea_Pattern_Small,-9.0,,,,,,,,,,,
encoding,value,13,25070322,25076335,25074239.0,25074269.0,31.0,31.0,1911.2,1447.0,1920.0,700.0,Animal_Sea_Pattern_Small,5.423739750054665,11.437143082963305,3.0,Animal_Sea_Pattern_Small,-9.0,,,,,,,,,,,
encoding,value,13,25070322,25076335,25074288.0,25074886.0,599.0,599.0,1907.6,1416.4,1920.0,700.0,Animal_Sea_Pattern_Small,5.423739750054665,11.437143082963305,3.0,Animal_Sea_Pattern_Small,-9.0,,,,,,,,,,,
encoding,value,13,25070322,25076335,25074900.0,25075094.0,195.0,195.0,1911.0,1458.2,1920.0,700.0,Animal_Sea_Pattern_Small,5.423739750054665,11.437143082963305,3.0,Animal_Sea_Pattern_Small,-9.0,,,,,,,,,,,
encoding,value,13,25070322,25076335,25075317.0,25075356.0,40.0,40.0,1903.5,1388.9,1920.0,700.0,Animal_Sea_Pattern_Small,5.423739750054665,11.437143082963305,3.0,Animal_Sea_Pattern_Small,-9.0,,,,,,,,,,,
encoding,value,13,25070322,25076335,25075369.0,25075636.0,268.0,268.0,1904.1,1360.5,1920.0,700.0,Animal_Sea_Pattern_Small,5.423739750054665,11.437143082963305,3.0,Animal_Sea_Pattern_Small,-9.0,,,,,,,,,,,
encoding,value,13,25070322,25076335,25075653.0,25075992.0,340.0,340.0,1927.6,1466.8,1920.0,700.0,Animal_Sea_Pattern_Small,5.423739750054665,11.437143082963305,3.0,Animal_Sea_Pattern_Small,-9.0,,,,,,,,,,,
encoding,value,13,25070322,25076335,25076008.0,25076197.0,190.0,190.0,1886.5,1402.5,1920.0,700.0,Animal_Sea_Pattern_Small,5.423739750054665,11.437143082963305,3.0,Animal_Sea_Pattern_Small,-9.0,,,,,,,,,,,
encoding,attention,13,25076336,25079354,25076429.0,25076468.0,40.0,40.0,1902.0,1433.3,1920.0,700.0,Animal_Sea_Pattern_Small,11.437252042000182,14.454976250068285,3.0,Animal_Sea_Pattern_Small,-9.0,-9.0,1.0,0.775742124998942,,,,,,,,
encoding,attention,13,25076336,25079354,25076484.0,25076679.0,196.0,196.0,1903.2,1397.5,1920.0,700.0,Animal_Sea_Pattern_Small,11.437252042000182,14.454976250068285,3.0,Animal_Sea_Pattern_Small,-9.0,-9.0,1.0,0.775742124998942,,,,,,,,
encoding,attention,13,25076336,25079354,25076690.0,25077398.0,709.0,709.0,1936.0,1367.0,1920.0,700.0,Animal_Sea_Pattern_Small,11.437252042000182,14.454976250068285,3.0,Animal_Sea_Pattern_Small,-9.0,-9.0,1.0,0.775742124998942,,,,,,,,
encoding,attention,13,25076336,25079354,25077685.0,25077772.0,88.0,88.0,1927.3,1506.3,1920.0,700.0,Animal_Sea_Pattern_Small,11.437252042000182,14.454976250068285,3.0,Animal_Sea_Pattern_Small,-9.0,-9.0,1.0,0.775742124998942,,,,,,,,
encoding,attention,13,25076336,25079354,25077785.0,25078121.0,337.0,337.0,1921.5,1450.9,1920.0,700.0,Animal_Sea_Pattern_Small,11.437252042000182,14.454976250068285,3.0,Animal_Sea_Pattern_Small,-9.0,-9.0,1.0,0.775742124998942,,,,,,,,
encoding,attention,13,25076336,25079354,25078136.0,25078382.0,247.0,247.0,1858.7,1372.5,1920.0,700.0,Animal_Sea_Pattern_Small,11.437252042000182,14.454976250068285,3.0,Animal_Sea_Pattern_Small,-9.0,-9.0,1.0,0.775742124998942,,,,,,,,
encoding,attention,13,25076336,25079354,25078395.0,25078661.0,267.0,267.0,1940.1,1364.5,1920.0,700.0,Animal_Sea_Pattern_Small,11.437252042000182,14.454976250068285,3.0,Animal_Sea_Pattern_Small,-9.0,-9.0,1.0,0.775742124998942,,,,,,,,
encoding,attention,13,25076336,25079354,25078680.0,25079010.0,331.0,331.0,1921.0,1435.5,1920.0,700.0,Animal_Sea_Pattern_Small,11.437252042000182,14.454976250068285,3.0,Animal_Sea_Pattern_Small,-9.0,-9.0,1.0,0.775742124998942,,,,,,,,
encoding,attention,13,25076336,25079354,25079217.0,25079297.0,81.0,81.0,1948.5,1496.1,1920.0,700.0,Animal_Sea_Pattern_Small,11.437252042000182,14.454976250068285,3.0,Animal_Sea_Pattern_Small,-9.0,-9.0,1.0,0.775742124998942,,,,,,,,
encoding,fixation,14,25079354,25080609,25079601.0,25079730.0,130.0,130.0,1896.8,1022.4000000000001,1920.0,1080.0,fixation,14.455139082972892,15.710116958012804,3.0,Object_Land_Solid_Large,-1.0,,,,,,,,,,,
encoding,fixation,14,25079354,25080609,25079749.0,25080815.0,1067.0,860.0,1916.5,1090.7,1920.0,1080.0,fixation,14.455139082972892,15.710116958012804,3.0,Object_Land_Solid_Large,-1.0,,,,,,,,,,,
encoding,image,14,25080609,25081619,25080851.0,25081205.0,355.0,355.0,2246.3,1278.9,2249.0,891.0,Object_Land_Solid_Large,15.710311791975982,16.720495000015944,3.0,Object_Land_Solid_Large,-1.0,,,,,,,,,,,
encoding,image,14,25080609,25081619,25081438.0,25081495.0,58.0,58.0,2223.1,1300.1,2249.0,891.0,Object_Land_Solid_Large,15.710311791975982,16.720495000015944,3.0,Object_Land_Solid_Large,-1.0,,,,,,,,,,,
encoding,image,14,25080609,25081619,25081502.0,25081791.0,290.0,117.0,2223.4,1254.3,2249.0,891.0,Object_Land_Solid_Large,15.710311791975982,16.720495000015944,3.0,Object_Land_Solid_Large,-1.0,,,,,,,,,,,
encoding,value,14,25081619,25087631,25081810.0,25082304.0,495.0,495.0,2222.9,1163.5,2249.0,891.0,Object_Land_Solid_Large,16.720603166962974,22.73200254200492,3.0,Object_Land_Solid_Large,-1.0,,,,,,,,,,,
encoding,value,14,25081619,25087631,25082322.0,25082651.0,330.0,330.0,2245.8,1266.2,2249.0,891.0,Object_Land_Solid_Large,16.720603166962974,22.73200254200492,3.0,Object_Land_Solid_Large,-1.0,,,,,,,,,,,
encoding,value,14,25081619,25087631,25082903.0,25083720.0,818.0,818.0,2223.2,1279.3,2249.0,891.0,Object_Land_Solid_Large,16.720603166962974,22.73200254200492,3.0,Object_Land_Solid_Large,-1.0,,,,,,,,,,,
encoding,value,14,25081619,25087631,25083979.0,25084841.0,863.0,863.0,2244.2,1185.9,2249.0,891.0,Object_Land_Solid_Large,16.720603166962974,22.73200254200492,3.0,Object_Land_Solid_Large,-1.0,,,,,,,,,,,
encoding,value,14,25081619,25087631,25084859.0,25085027.0,169.0,169.0,2204.9,1236.8,2249.0,891.0,Object_Land_Solid_Large,16.720603166962974,22.73200254200492,3.0,Object_Land_Solid_Large,-1.0,,,,,,,,,,,
encoding,value,14,25081619,25087631,25085246.0,25085316.0,71.0,71.0,2257.3,1296.6,2249.0,891.0,Object_Land_Solid_Large,16.720603166962974,22.73200254200492,3.0,Object_Land_Solid_Large,-1.0,,,,,,,,,,,
encoding,value,14,25081619,25087631,25085323.0,25085626.0,304.0,304.0,2255.9,1243.8,2249.0,891.0,Object_Land_Solid_Large,16.720603166962974,22.73200254200492,3.0,Object_Land_Solid_Large,-1.0,,,,,,,,,,,
encoding,value,14,25081619,25087631,25085636.0,25086412.0,777.0,777.0,2229.1,1273.5,2249.0,891.0,Object_Land_Solid_Large,16.720603166962974,22.73200254200492,3.0,Object_Land_Solid_Large,-1.0,,,,,,,,,,,
encoding,value,14,25081619,25087631,25086696.0,25086982.0,287.0,287.0,2228.6,1186.4,2249.0,891.0,Object_Land_Solid_Large,16.720603166962974,22.73200254200492,3.0,Object_Land_Solid_Large,-1.0,,,,,,,,,,,
encoding,value,14,25081619,25087631,25086992.0,25087951.0,960.0,639.0,2253.3,1200.9,2249.0,891.0,Object_Land_Solid_Large,16.720603166962974,22.73200254200492,3.0,Object_Land_Solid_Large,-1.0,,,,,,,,,,,
encoding,attention,14,25087631,25090650,25087958.0,25088385.0,428.0,428.0,2272.3,1189.5,2249.0,891.0,Object_Land_Solid_Large,22.732114917016588,25.750916708027944,3.0,Object_Land_Solid_Large,-1.0,-1.0,1.0,0.4966957089491188,,,,,,,,
encoding,attention,14,25087631,25090650,25088659.0,25088736.0,78.0,78.0,2208.9,1215.5,2249.0,891.0,Object_Land_Solid_Large,22.732114917016588,25.750916708027944,3.0,Object_Land_Solid_Large,-1.0,-1.0,1.0,0.4966957089491188,,,,,,,,
encoding,attention,14,25087631,25090650,25088744.0,25088820.0,77.0,77.0,2210.8,1165.0,2249.0,891.0,Object_Land_Solid_Large,22.732114917016588,25.750916708027944,3.0,Object_Land_Solid_Large,-1.0,-1.0,1.0,0.4966957089491188,,,,,,,,
encoding,attention,14,25087631,25090650,25088839.0,25089048.0,210.0,210.0,2246.6,1272.8,2249.0,891.0,Object_Land_Solid_Large,22.732114917016588,25.750916708027944,3.0,Object_Land_Solid_Large,-1.0,-1.0,1.0,0.4966957089491188,,,,,,,,
encoding,attention,14,25087631,25090650,25089083.0,25089562.0,480.0,480.0,1913.7,1112.6,1920.0,1080.0,fixation,22.732114917016588,25.750916708027944,3.0,Object_Land_Solid_Large,-1.0,-1.0,1.0,0.4966957089491188,,,,,,,,
encoding,attention,14,25087631,25090650,25089806.0,25089864.0,59.0,59.0,2213.0,1328.7,2249.0,891.0,Object_Land_Solid_Large,22.732114917016588,25.750916708027944,3.0,Object_Land_Solid_Large,-1.0,-1.0,1.0,0.4966957089491188,,,,,,,,
encoding,attention,14,25087631,25090650,25089874.0,25090069.0,196.0,196.0,2211.7,1280.8,2249.0,891.0,Object_Land_Solid_Large,22.732114917016588,25.750916708027944,3.0,Object_Land_Solid_Large,-1.0,-1.0,1.0,0.4966957089491188,,,,,,,,
encoding,fixation,15,25090650,25091405,25090692.0,25090898.0,207.0,207.0,2219.2,1203.4,2249.0,891.0,Object_Land_Solid_Large,25.75106012506876,26.50590462505352,3.0,Animal_Sea_Solid_Large,-1.0,,,,,,,,,,,
encoding,fixation,15,25090650,25091405,25090931.0,25091182.0,252.0,252.0,1883.3,1097.2,1920.0,1080.0,fixation,25.75106012506876,26.50590462505352,3.0,Animal_Sea_Solid_Large,-1.0,,,,,,,,,,,
encoding,fixation,15,25090650,25091405,25091192.0,25091629.0,438.0,213.0,1938.4,1096.7,1920.0,1080.0,fixation,25.75106012506876,26.50590462505352,3.0,Animal_Sea_Solid_Large,-1.0,,,,,,,,,,,
encoding,image,15,25091405,25092417,25091656.0,25092712.0,1057.0,761.0,2237.1,910.8,2249.0,1269.0,Animal_Sea_Solid_Large,26.506006292067468,27.517939958022907,3.0,Animal_Sea_Solid_Large,-1.0,,,,,,,,,,,
encoding,value,15,25092417,25098431,25092960.0,25093018.0,59.0,59.0,2258.7,895.0,2249.0,1269.0,Animal_Sea_Solid_Large,27.518039333052,33.531382207991555,3.0,Animal_Sea_Solid_Large,-1.0,,,,,,,,,,,
encoding,value,15,25092417,25098431,25093025.0,25093516.0,492.0,492.0,2249.3,864.2,2249.0,1269.0,Animal_Sea_Solid_Large,27.518039333052,33.531382207991555,3.0,Animal_Sea_Solid_Large,-1.0,,,,,,,,,,,
encoding,value,15,25092417,25098431,25093532.0,25093921.0,390.0,390.0,2237.9,942.2,2249.0,1269.0,Animal_Sea_Solid_Large,27.518039333052,33.531382207991555,3.0,Animal_Sea_Solid_Large,-1.0,,,,,,,,,,,
encoding,value,15,25092417,25098431,25094178.0,25094388.0,211.0,211.0,2247.1,859.5999999999999,2249.0,1269.0,Animal_Sea_Solid_Large,27.518039333052,33.531382207991555,3.0,Animal_Sea_Solid_Large,-1.0,,,,,,,,,,,
encoding,value,15,25092417,25098431,25094400.0,25094728.0,329.0,329.0,2218.2,896.5,2249.0,1269.0,Animal_Sea_Solid_Large,27.518039333052,33.531382207991555,3.0,Animal_Sea_Solid_Large,-1.0,,,,,,,,,,,
encoding,value,15,25092417,25098431,25094742.0,25095011.0,270.0,270.0,2246.4,834.8,2249.0,1269.0,Animal_Sea_Solid_Large,27.518039333052,33.531382207991555,3.0,Animal_Sea_Solid_Large,-1.0,,,,,,,,,,,
encoding,value,15,25092417,25098431,25095273.0,25095343.0,71.0,71.0,2243.0,930.7,2249.0,1269.0,Animal_Sea_Solid_Large,27.518039333052,33.531382207991555,3.0,Animal_Sea_Solid_Large,-1.0,,,,,,,,,,,
encoding,value,15,25092417,25098431,25095350.0,25095812.0,463.0,463.0,2242.6,894.2,2249.0,1269.0,Animal_Sea_Solid_Large,27.518039333052,33.531382207991555,3.0,Animal_Sea_Solid_Large,-1.0,,,,,,,,,,,
encoding,value,15,25092417,25098431,25095856.0,25096333.0,478.0,478.0,2235.8,1103.2,2249.0,891.0,Object_Land_Solid_Large,27.518039333052,33.531382207991555,3.0,Animal_Sea_Solid_Large,-1.0,,,,,,,,,,,
encoding,value,15,25092417,25098431,25096595.0,25096669.0,75.0,75.0,2243.9,998.4000000000001,2249.0,1269.0,Animal_Sea_Solid_Large,27.518039333052,33.531382207991555,3.0,Animal_Sea_Solid_Large,-1.0,,,,,,,,,,,
encoding,value,15,25092417,25098431,25096676.0,25097180.0,505.0,505.0,2242.6,951.8,2249.0,1269.0,Animal_Sea_Solid_Large,27.518039333052,33.531382207991555,3.0,Animal_Sea_Solid_Large,-1.0,,,,,,,,,,,
encoding,value,15,25092417,25098431,25097189.0,25097459.0,271.0,271.0,2213.1,921.5,2249.0,1269.0,Animal_Sea_Solid_Large,27.518039333052,33.531382207991555,3.0,Animal_Sea_Solid_Large,-1.0,,,,,,,,,,,
encoding,value,15,25092417,25098431,25097470.0,25098041.0,572.0,572.0,2245.1,948.7,2249.0,1269.0,Animal_Sea_Solid_Large,27.518039333052,33.531382207991555,3.0,Animal_Sea_Solid_Large,-1.0,,,,,,,,,,,
encoding,value,15,25092417,25098431,25098303.0,25098985.0,683.0,128.0,2225.7,885.5,2249.0,1269.0,Animal_Sea_Solid_Large,27.518039333052,33.531382207991555,3.0,Animal_Sea_Solid_Large,-1.0,,,,,,,,,,,
encoding,attention,15,25098431,25101449,25099000.0,25099522.0,523.0,523.0,2186.4,815.5999999999999,2249.0,1269.0,Animal_Sea_Solid_Large,33.53149950003717,36.54930720804259,3.0,Animal_Sea_Solid_Large,-1.0,-1.0,1.0,0.7373486660653725,,,,,,,,
encoding,attention,15,25098431,25101449,25099530.0,25099923.0,394.0,394.0,2180.4,828.0999999999999,2249.0,1269.0,Animal_Sea_Solid_Large,33.53149950003717,36.54930720804259,3.0,Animal_Sea_Solid_Large,-1.0,-1.0,1.0,0.7373486660653725,,,,,,,,
encoding,attention,15,25098431,25101449,25100166.0,25100216.0,51.0,51.0,2066.5,1199.0,2249.0,891.0,Object_Land_Solid_Large,33.53149950003717,36.54930720804259,3.0,Animal_Sea_Solid_Large,-1.0,-1.0,1.0,0.7373486660653725,,,,,,,,
encoding,attention,15,25098431,25101449,25100228.0,25100550.0,323.0,323.0,2069.3,1161.8,2249.0,891.0,Object_Land_Solid_Large,33.53149950003717,36.54930720804259,3.0,Animal_Sea_Solid_Large,-1.0,-1.0,1.0,0.7373486660653725,,,,,,,,
encoding,attention,15,25098431,25101449,25100582.0,25100751.0,170.0,170.0,2252.8,878.5999999999999,2249.0,1269.0,Animal_Sea_Solid_Large,33.53149950003717,36.54930720804259,3.0,Animal_Sea_Solid_Large,-1.0,-1.0,1.0,0.7373486660653725,,,,,,,,
encoding,fixation,16,25101449,25102704,25101650.0,25102896.0,1247.0,1054.0,1905.1,1079.4,1920.0,1080.0,fixation,36.54947062500287,37.80464995803777,3.0,Animal_Sea_Pattern_Large,9.0,,,,,,,,,,,
encoding,image,16,25102704,25103715,25102933.0,25103685.0,753.0,753.0,1542.7,917.8,1591.0,1269.0,Animal_Sea_Pattern_Large,37.8047573750373,38.81523995799944,3.0,Animal_Sea_Pattern_Large,9.0,,,,,,,,,,,
encoding,image,16,25102704,25103715,25103692.0,25104240.0,549.0,23.0,1572.7,881.9000000000001,1591.0,1269.0,Animal_Sea_Pattern_Large,37.8047573750373,38.81523995799944,3.0,Animal_Sea_Pattern_Large,9.0,,,,,,,,,,,
encoding,value,16,25103715,25109726,25104480.0,25105352.0,873.0,873.0,1570.9,907.0999999999999,1591.0,1269.0,Animal_Sea_Pattern_Large,38.815358542022295,44.825872375047766,3.0,Animal_Sea_Pattern_Large,9.0,,,,,,,,,,,
encoding,value,16,25103715,25109726,25105621.0,25106330.0,710.0,710.0,1552.0,874.5999999999999,1591.0,1269.0,Animal_Sea_Pattern_Large,38.815358542022295,44.825872375047766,3.0,Animal_Sea_Pattern_Large,9.0,,,,,,,,,,,
encoding,value,16,25103715,25109726,25106634.0,25106732.0,99.0,99.0,1581.9,852.0999999999999,1591.0,1269.0,Animal_Sea_Pattern_Large,38.815358542022295,44.825872375047766,3.0,Animal_Sea_Pattern_Large,9.0,,,,,,,,,,,
encoding,value,16,25103715,25109726,25106742.0,25106773.0,32.0,32.0,1586.1,808.8,1591.0,1269.0,Animal_Sea_Pattern_Large,38.815358542022295,44.825872375047766,3.0,Animal_Sea_Pattern_Large,9.0,,,,,,,,,,,
encoding,value,16,25103715,25109726,25106804.0,25107252.0,449.0,449.0,1560.4,890.9000000000001,1591.0,1269.0,Animal_Sea_Pattern_Large,38.815358542022295,44.825872375047766,3.0,Animal_Sea_Pattern_Large,9.0,,,,,,,,,,,
encoding,value,16,25103715,25109726,25107280.0,25107402.0,123.0,123.0,1977.7,962.8,1920.0,1460.0,Object_Land_Pattern_Small,38.815358542022295,44.825872375047766,3.0,Animal_Sea_Pattern_Large,9.0,,,,,,,,,,,
encoding,value,16,25103715,25109726,25107649.0,25107717.0,69.0,69.0,2227.6,1144.5,2249.0,891.0,Object_Land_Solid_Large,38.815358542022295,44.825872375047766,3.0,Animal_Sea_Pattern_Large,9.0,,,,,,,,,,,
encoding,value,16,25103715,25109726,25107728.0,25107925.0,198.0,198.0,2228.9,1097.6,2249.0,891.0,Object_Land_Solid_Large,38.815358542022295,44.825872375047766,3.0,Animal_Sea_Pattern_Large,9.0,,,,,,,,,,,
encoding,value,16,25103715,25109726,25107984.0,25109096.0,1113.0,1113.0,1569.1,896.2,1591.0,1269.0,Animal_Sea_Pattern_Large,38.815358542022295,44.825872375047766,3.0,Animal_Sea_Pattern_Large,9.0,,,,,,,,,,,
encoding,value,16,25103715,25109726,25109464.0,25109497.0,34.0,34.0,1599.1,893.3,1591.0,1269.0,Animal_Sea_Pattern_Large,38.815358542022295,44.825872375047766,3.0,Animal_Sea_Pattern_Large,9.0,,,,,,,,,,,
encoding,attention,16,25109726,25112743,25109772.0,25109883.0,112.0,112.0,1845.8,937.5999999999999,1920.0,1460.0,Object_Land_Pattern_Small,44.82599124999251,47.84311220806558,3.0,Animal_Sea_Pattern_Large,9.0,9.0,1.0,1.2835502909729255,,,,,,,,
encoding,attention,16,25109726,25112743,25109893.0,25109969.0,77.0,77.0,1850.9,893.5,1920.0,1460.0,Object_Land_Pattern_Small,44.82599124999251,47.84311220806558,3.0,Animal_Sea_Pattern_Large,9.0,9.0,1.0,1.2835502909729255,,,,,,,,
encoding,attention,16,25109726,25112743,25109999.0,25110451.0,453.0,453.0,1582.8,798.0,1591.0,1269.0,Animal_Sea_Pattern_Large,44.82599124999251,47.84311220806558,3.0,Animal_Sea_Pattern_Large,9.0,9.0,1.0,1.2835502909729255,,,,,,,,
encoding,attention,16,25109726,25112743,25110468.0,25110784.0,317.0,317.0,1645.4,855.0,1591.0,1269.0,Animal_Sea_Pattern_Large,44.82599124999251,47.84311220806558,3.0,Animal_Sea_Pattern_Large,9.0,9.0,1.0,1.2835502909729255,,,,,,,,
encoding,attention,16,25109726,25112743,25110801.0,25111279.0,479.0,479.0,1576.0,914.8,1591.0,1269.0,Animal_Sea_Pattern_Large,44.82599124999251,47.84311220806558,3.0,Animal_Sea_Pattern_Large,9.0,9.0,1.0,1.2835502909729255,,,,,,,,
encoding,attention,16,25109726,25112743,25111577.0,25111643.0,67.0,67.0,1597.2,970.5,1591.0,1269.0,Animal_Sea_Pattern_Large,44.82599124999251,47.84311220806558,3.0,Animal_Sea_Pattern_Large,9.0,9.0,1.0,1.2835502909729255,,,,,,,,
encoding,attention,16,25109726,25112743,25111649.0,25111890.0,242.0,242.0,1590.1,941.0,1591.0,1269.0,Animal_Sea_Pattern_Large,44.82599124999251,47.84311220806558,3.0,Animal_Sea_Pattern_Large,9.0,9.0,1.0,1.2835502909729255,,,,,,,,
encoding,attention,16,25109726,25112743,25111922.0,25112255.0,334.0,334.0,1928.7,1181.9,1920.0,700.0,Animal_Sea_Pattern_Small,44.82599124999251,47.84311220806558,3.0,Animal_Sea_Pattern_Large,9.0,9.0,1.0,1.2835502909729255,,,,,,,,
encoding,attention,16,25109726,25112743,25112508.0,25112560.0,53.0,53.0,1852.5,1234.4,1920.0,700.0,Animal_Sea_Pattern_Small,44.82599124999251,47.84311220806558,3.0,Animal_Sea_Pattern_Large,9.0,9.0,1.0,1.2835502909729255,,,,,,,,
encoding,fixation,17,25112743,25113999,25113443.0,25113587.0,145.0,145.0,1861.5,1145.8,1591.0,891.0,Object_Land_Solid_Small,47.84325433301274,49.09844312502537,3.0,Object_Land_Solid_Small,7.0,,,,,,,,,,,
encoding,fixation,17,25112743,25113999,25113596.0,25113786.0,191.0,191.0,1862.1,1105.8,1920.0,1080.0,fixation,47.84325433301274,49.09844312502537,3.0,Object_Land_Solid_Small,7.0,,,,,,,,,,,
encoding,fixation,17,25112743,25113999,25113803.0,25114175.0,373.0,196.0,2016.1,1109.0,2249.0,891.0,Object_Land_Solid_Large,47.84325433301274,49.09844312502537,3.0,Object_Land_Solid_Small,7.0,,,,,,,,,,,
encoding,image,17,25113999,25115010,25114203.0,25114490.0,288.0,288.0,1629.4,1242.9,1591.0,891.0,Object_Land_Solid_Small,49.09855320805218,50.11011991696432,3.0,Object_Land_Solid_Small,7.0,,,,,,,,,,,
encoding,image,17,25113999,25115010,25114743.0,25114981.0,239.0,239.0,1525.9,1301.3,1591.0,891.0,Object_Land_Solid_Small,49.09855320805218,50.11011991696432,3.0,Object_Land_Solid_Small,7.0,,,,,,,,,,,
encoding,image,17,25113999,25115010,25114992.0,25115469.0,478.0,18.0,1590.0,1281.9,1591.0,891.0,Object_Land_Solid_Small,49.09855320805218,50.11011991696432,3.0,Object_Land_Solid_Small,7.0,,,,,,,,,,,
encoding,value,17,25115010,25121023,25115771.0,25115816.0,46.0,46.0,1569.4,1274.3,1591.0,891.0,Object_Land_Solid_Small,50.11022845807019,56.12218199996278,3.0,Object_Land_Solid_Small,7.0,,,,,,,,,,,
encoding,value,17,25115010,25121023,25115825.0,25116007.0,183.0,183.0,1568.8,1228.7,1591.0,891.0,Object_Land_Solid_Small,50.11022845807019,56.12218199996278,3.0,Object_Land_Solid_Small,7.0,,,,,,,,,,,
encoding,value,17,25115010,25121023,25116019.0,25117086.0,1068.0,1068.0,1572.3,1274.8,1591.0,891.0,Object_Land_Solid_Small,50.11022845807019,56.12218199996278,3.0,Object_Land_Solid_Small,7.0,,,,,,,,,,,
encoding,value,17,25115010,25121023,25117339.0,25117403.0,65.0,65.0,1571.2,1290.1,1591.0,891.0,Object_Land_Solid_Small,50.11022845807019,56.12218199996278,3.0,Object_Land_Solid_Small,7.0,,,,,,,,,,,
encoding,value,17,25115010,25121023,25117420.0,25117987.0,568.0,568.0,1571.3,1249.3,1591.0,891.0,Object_Land_Solid_Small,50.11022845807019,56.12218199996278,3.0,Object_Land_Solid_Small,7.0,,,,,,,,,,,
encoding,value,17,25115010,25121023,25118273.0,25118516.0,244.0,244.0,1558.7,1251.9,1591.0,891.0,Object_Land_Solid_Small,50.11022845807019,56.12218199996278,3.0,Object_Land_Solid_Small,7.0,,,,,,,,,,,
encoding,value,17,25115010,25121023,25118819.0,25118859.0,41.0,41.0,1585.1,1279.7,1591.0,891.0,Object_Land_Solid_Small,50.11022845807019,56.12218199996278,3.0,Object_Land_Solid_Small,7.0,,,,,,,,,,,
encoding,value,17,25115010,25121023,25118876.0,25119134.0,259.0,259.0,1577.5,1228.2,1591.0,891.0,Object_Land_Solid_Small,50.11022845807019,56.12218199996278,3.0,Object_Land_Solid_Small,7.0,,,,,,,,,,,
encoding,value,17,25115010,25121023,25119154.0,25119258.0,105.0,105.0,1747.6,1153.1,1591.0,891.0,Object_Land_Solid_Small,50.11022845807019,56.12218199996278,3.0,Object_Land_Solid_Small,7.0,,,,,,,,,,,
encoding,value,17,25115010,25121023,25119492.0,25119567.0,76.0,76.0,1558.3,1320.9,1591.0,891.0,Object_Land_Solid_Small,50.11022845807019,56.12218199996278,3.0,Object_Land_Solid_Small,7.0,,,,,,,,,,,
encoding,value,17,25115010,25121023,25119580.0,25120838.0,1259.0,1259.0,1576.0,1275.1,1591.0,891.0,Object_Land_Solid_Small,50.11022845807019,56.12218199996278,3.0,Object_Land_Solid_Small,7.0,,,,,,,,,,,
encoding,attention,17,25121023,25124041,25121051.0,25121276.0,226.0,226.0,1571.6,1233.2,1591.0,891.0,Object_Land_Solid_Small,56.122306292061694,59.14000324998051,3.0,Object_Land_Solid_Small,7.0,7.0,1.0,0.6173918329877779,,,,,,,,
encoding,attention,17,25121023,25124041,25121284.0,25121550.0,267.0,267.0,1609.1,1197.2,1591.0,891.0,Object_Land_Solid_Small,56.122306292061694,59.14000324998051,3.0,Object_Land_Solid_Small,7.0,7.0,1.0,0.6173918329877779,,,,,,,,
encoding,attention,17,25121023,25124041,25121561.0,25122376.0,816.0,816.0,1537.7,1187.9,1591.0,891.0,Object_Land_Solid_Small,56.122306292061694,59.14000324998051,3.0,Object_Land_Solid_Small,7.0,7.0,1.0,0.6173918329877779,,,,,,,,
encoding,attention,17,25121023,25124041,25122386.0,25122683.0,298.0,298.0,1587.2,1210.7,1591.0,891.0,Object_Land_Solid_Small,56.122306292061694,59.14000324998051,3.0,Object_Land_Solid_Small,7.0,7.0,1.0,0.6173918329877779,,,,,,,,
encoding,attention,17,25121023,25124041,25122699.0,25123460.0,762.0,762.0,1566.4,1293.4,1591.0,891.0,Object_Land_Solid_Small,56.122306292061694,59.14000324998051,3.0,Object_Land_Solid_Small,7.0,7.0,1.0,0.6173918329877779,,,,,,,,
encoding,attention,17,25121023,25124041,25123753.0,25123906.0,154.0,154.0,1715.7,1162.1,1591.0,891.0,Object_Land_Solid_Small,56.122306292061694,59.14000324998051,3.0,Object_Land_Solid_Small,7.0,7.0,1.0,0.6173918329877779,,,,,,,,
encoding,fixation,18,25124041,25124548,25124254.0,25124809.0,556.0,294.0,1904.2,1086.1,1920.0,1080.0,fixation,59.14014670799952,59.64765516703483,3.0,Object_Land_Pattern_Small,6.0,,,,,,,,,,,
encoding,image,18,25124548,25125559,25124839.0,25125102.0,264.0,264.0,1918.3,779.5999999999999,1920.0,1460.0,Object_Land_Pattern_Small,59.64777124999091,60.65858070796821,3.0,Object_Land_Pattern_Small,6.0,,,,,,,,,,,
encoding,image,18,25124548,25125559,25125328.0,25125392.0,65.0,65.0,1914.5,677.9000000000001,1920.0,1460.0,Object_Land_Pattern_Small,59.64777124999091,60.65858070796821,3.0,Object_Land_Pattern_Small,6.0,,,,,,,,,,,
encoding,image,18,25124548,25125559,25125408.0,25125563.0,156.0,151.0,1919.1,611.5,1920.0,1460.0,Object_Land_Pattern_Small,59.64777124999091,60.65858070796821,3.0,Object_Land_Pattern_Small,6.0,,,,,,,,,,,
encoding,value,18,25125559,25131571,25125572.0,25125992.0,421.0,421.0,1923.8,656.5999999999999,1920.0,1460.0,Object_Land_Pattern_Small,60.65868966700509,66.67038154206239,3.0,Object_Land_Pattern_Small,6.0,,,,,,,,,,,
encoding,value,18,25125559,25131571,25126041.0,25126675.0,635.0,635.0,1917.7,1068.8,1920.0,1080.0,fixation,60.65868966700509,66.67038154206239,3.0,Object_Land_Pattern_Small,6.0,,,,,,,,,,,
encoding,value,18,25125559,25131571,25126725.0,25126964.0,240.0,240.0,1887.6,663.4000000000001,1920.0,1460.0,Object_Land_Pattern_Small,60.65868966700509,66.67038154206239,3.0,Object_Land_Pattern_Small,6.0,,,,,,,,,,,
encoding,value,18,25125559,25131571,25127189.0,25127256.0,68.0,68.0,1915.2,777.9000000000001,1920.0,1460.0,Object_Land_Pattern_Small,60.65868966700509,66.67038154206239,3.0,Object_Land_Pattern_Small,6.0,,,,,,,,,,,
encoding,value,18,25125559,25131571,25127265.0,25127323.0,59.0,59.0,1919.2,721.8,1920.0,1460.0,Object_Land_Pattern_Small,60.65868966700509,66.67038154206239,3.0,Object_Land_Pattern_Small,6.0,,,,,,,,,,,
encoding,value,18,25125559,25131571,25127364.0,25127607.0,244.0,244.0,1904.1,1128.4,1920.0,1080.0,fixation,60.65868966700509,66.67038154206239,3.0,Object_Land_Pattern_Small,6.0,,,,,,,,,,,
encoding,value,18,25125559,25131571,25127621.0,25127897.0,277.0,277.0,1915.9,1076.5,1920.0,1080.0,fixation,60.65868966700509,66.67038154206239,3.0,Object_Land_Pattern_Small,6.0,,,,,,,,,,,
encoding,value,18,25125559,25131571,25128117.0,25128200.0,84.0,84.0,1898.2,1045.8,1920.0,1080.0,fixation,60.65868966700509,66.67038154206239,3.0,Object_Land_Pattern_Small,6.0,,,,,,,,,,,
encoding,value,18,25125559,25131571,25128211.0,25128592.0,382.0,382.0,1903.8,1013.2,1920.0,1080.0,fixation,60.65868966700509,66.67038154206239,3.0,Object_Land_Pattern_Small,6.0,,,,,,,,,,,
encoding,value,18,25125559,25131571,25128617.0,25128871.0,255.0,255.0,1769.6,820.4000000000001,1591.0,1269.0,Animal_Sea_Pattern_Large,60.65868966700509,66.67038154206239,3.0,Object_Land_Pattern_Small,6.0,,,,,,,,,,,
encoding,value,18,25125559,25131571,25129097.0,25129179.0,83.0,83.0,1880.3,834.3,1920.0,1460.0,Object_Land_Pattern_Small,60.65868966700509,66.67038154206239,3.0,Object_Land_Pattern_Small,6.0,,,,,,,,,,,
encoding,value,18,25125559,25131571,25129194.0,25129260.0,67.0,67.0,1879.3,784.2,1920.0,1460.0,Object_Land_Pattern_Small,60.65868966700509,66.67038154206239,3.0,Object_Land_Pattern_Small,6.0,,,,,,,,,,,
encoding,value,18,25125559,25131571,25129273.0,25129503.0,231.0,231.0,1957.6,771.7,1920.0,1460.0,Object_Land_Pattern_Small,60.65868966700509,66.67038154206239,3.0,Object_Land_Pattern_Small,6.0,,,,,,,,,,,
encoding,value,18,25125559,25131571,25129514.0,25129751.0,238.0,238.0,1899.5,783.4000000000001,1920.0,1460.0,Object_Land_Pattern_Small,60.65868966700509,66.67038154206239,3.0,Object_Land_Pattern_Small,6.0,,,,,,,,,,,
encoding,value,18,25125559,25131571,25129769.0,25130000.0,232.0,232.0,1988.2,747.9000000000001,1920.0,1460.0,Object_Land_Pattern_Small,60.65868966700509,66.67038154206239,3.0,Object_Land_Pattern_Small,6.0,,,,,,,,,,,
encoding,value,18,25125559,25131571,25130233.0,25130311.0,79.0,79.0,1884.7,774.2,1920.0,1460.0,Object_Land_Pattern_Small,60.65868966700509,66.67038154206239,3.0,Object_Land_Pattern_Small,6.0,,,,,,,,,,,
encoding,value,18,25125559,25131571,25130324.0,25130422.0,99.0,99.0,1886.7,728.0999999999999,1920.0,1460.0,Object_Land_Pattern_Small,60.65868966700509,66.67038154206239,3.0,Object_Land_Pattern_Small,6.0,,,,,,,,,,,
encoding,value,18,25125559,25131571,25130435.0,25130696.0,262.0,262.0,1914.3,769.9000000000001,1920.0,1460.0,Object_Land_Pattern_Small,60.65868966700509,66.67038154206239,3.0,Object_Land_Pattern_Small,6.0,,,,,,,,,,,
encoding,value,18,25125559,25131571,25130745.0,25131004.0,260.0,260.0,1917.1,1112.9,1920.0,1080.0,fixation,60.65868966700509,66.67038154206239,3.0,Object_Land_Pattern_Small,6.0,,,,,,,,,,,
encoding,value,18,25125559,25131571,25131019.0,25131215.0,197.0,197.0,1912.6,1062.2,1920.0,1080.0,fixation,60.65868966700509,66.67038154206239,3.0,Object_Land_Pattern_Small,6.0,,,,,,,,,,,
encoding,value,18,25125559,25131571,25131243.0,25131394.0,152.0,152.0,1964.2,648.9000000000001,1920.0,1460.0,Object_Land_Pattern_Small,60.65868966700509,66.67038154206239,3.0,Object_Land_Pattern_Small,6.0,,,,,,,,,,,
encoding,value,18,25125559,25131571,25131413.0,25131975.0,563.0,158.0,1912.7,728.0,1920.0,1460.0,Object_Land_Pattern_Small,60.65868966700509,66.67038154206239,3.0,Object_Land_Pattern_Small,6.0,,,,,,,,,,,
encoding,attention,18,25131571,25134589,25132245.0,25132301.0,57.0,57.0,1936.8,658.7,1920.0,1460.0,Object_Land_Pattern_Small,66.67049499996938,69.68792983295862,3.0,Object_Land_Pattern_Small,6.0,6.0,1.0,1.2057612920179963,,,,,,,,
encoding,attention,18,25131571,25134589,25132326.0,25132478.0,153.0,153.0,1936.7,607.3,1920.0,1460.0,Object_Land_Pattern_Small,66.67049499996938,69.68792983295862,3.0,Object_Land_Pattern_Small,6.0,6.0,1.0,1.2057612920179963,,,,,,,,
encoding,attention,18,25131571,25134589,25132493.0,25133266.0,774.0,774.0,1946.7,677.2,1920.0,1460.0,Object_Land_Pattern_Small,66.67049499996938,69.68792983295862,3.0,Object_Land_Pattern_Small,6.0,6.0,1.0,1.2057612920179963,,,,,,,,
encoding,attention,18,25131571,25134589,25133548.0,25133853.0,306.0,306.0,1897.7,761.5,1920.0,1460.0,Object_Land_Pattern_Small,66.67049499996938,69.68792983295862,3.0,Object_Land_Pattern_Small,6.0,6.0,1.0,1.2057612920179963,,,,,,,,
encoding,attention,18,25131571,25134589,25134121.0,25134490.0,370.0,370.0,1922.4,756.5,1920.0,1460.0,Object_Land_Pattern_Small,66.67049499996938,69.68792983295862,3.0,Object_Land_Pattern_Small,6.0,6.0,1.0,1.2057612920179963,,,,,,,,
encoding,fixation,19,25469471,25470477,25469490.0,25469653.0,164.0,164.0,2029.8,873.4000000000001,1920.0,1460.0,Animal_Land_Pattern_Large,4.261357042007148,5.266679124906659,4.0,Object_Sea_Solid_Small,4.0,,,,,,,,,,,
encoding,fixation,19,25469471,25470477,25469695.0,25469867.0,173.0,173.0,1854.3,1234.1,1920.0,700.0,Object_Sea_Solid_Small,4.261357042007148,5.266679124906659,4.0,Object_Sea_Solid_Small,4.0,,,,,,,,,,,
encoding,fixation,19,25469471,25470477,25470095.0,25470152.0,58.0,58.0,1912.6,1190.0,1920.0,700.0,Object_Sea_Solid_Small,4.261357042007148,5.266679124906659,4.0,Object_Sea_Solid_Small,4.0,,,,,,,,,,,
encoding,fixation,19,25469471,25470477,25470168.0,25470559.0,392.0,309.0,1910.5,1153.0,1920.0,700.0,Object_Sea_Solid_Small,4.261357042007148,5.266679124906659,4.0,Object_Sea_Solid_Small,4.0,,,,,,,,,,,
encoding,image,19,25470477,25471487,25470575.0,25470709.0,135.0,135.0,1869.5,1096.3,1920.0,1080.0,fixation,5.266799666918814,6.2772797079524025,4.0,Object_Sea_Solid_Small,4.0,,,,,,,,,,,
encoding,image,19,25470477,25471487,25470756.0,25470952.0,197.0,197.0,1876.3,1464.5,1920.0,700.0,Object_Sea_Solid_Small,5.266799666918814,6.2772797079524025,4.0,Object_Sea_Solid_Small,4.0,,,,,,,,,,,
encoding,image,19,25470477,25471487,25470970.0,25472103.0,1134.0,517.0,1902.9,1519.1,1920.0,700.0,Object_Sea_Solid_Small,5.266799666918814,6.2772797079524025,4.0,Object_Sea_Solid_Small,4.0,,,,,,,,,,,
encoding,value,19,25471487,25477500,25472124.0,25472418.0,295.0,295.0,1921.0,1407.0,1920.0,700.0,Object_Sea_Solid_Small,6.2774094169726595,12.290064541972242,4.0,Object_Sea_Solid_Small,4.0,,,,,,,,,,,
encoding,value,19,25471487,25477500,25472436.0,25472595.0,160.0,160.0,1896.5,1478.7,1920.0,700.0,Object_Sea_Solid_Small,6.2774094169726595,12.290064541972242,4.0,Object_Sea_Solid_Small,4.0,,,,,,,,,,,
encoding,value,19,25471487,25477500,25472837.0,25472941.0,105.0,105.0,1891.9,1527.3,1920.0,700.0,Object_Sea_Solid_Small,6.2774094169726595,12.290064541972242,4.0,Object_Sea_Solid_Small,4.0,,,,,,,,,,,
encoding,value,19,25471487,25477500,25472959.0,25473891.0,933.0,933.0,1890.5,1479.9,1920.0,700.0,Object_Sea_Solid_Small,6.2774094169726595,12.290064541972242,4.0,Object_Sea_Solid_Small,4.0,,,,,,,,,,,
encoding,value,19,25471487,25477500,25474180.0,25474299.0,120.0,120.0,1897.3,1495.7,1920.0,700.0,Object_Sea_Solid_Small,6.2774094169726595,12.290064541972242,4.0,Object_Sea_Solid_Small,4.0,,,,,,,,,,,
encoding,value,19,25471487,25477500,25474327.0,25474915.0,589.0,589.0,1896.4,1451.8,1920.0,700.0,Object_Sea_Solid_Small,6.2774094169726595,12.290064541972242,4.0,Object_Sea_Solid_Small,4.0,,,,,,,,,,,
encoding,value,19,25471487,25477500,25474922.0,25475020.0,99.0,99.0,1940.7,1452.9,1920.0,700.0,Object_Sea_Solid_Small,6.2774094169726595,12.290064541972242,4.0,Object_Sea_Solid_Small,4.0,,,,,,,,,,,
encoding,value,19,25471487,25477500,25475270.0,25475363.0,94.0,94.0,1888.9,1535.5,1920.0,700.0,Object_Sea_Solid_Small,6.2774094169726595,12.290064541972242,4.0,Object_Sea_Solid_Small,4.0,,,,,,,,,,,
encoding,value,19,25471487,25477500,25475369.0,25475684.0,316.0,316.0,1889.3,1489.4,1920.0,700.0,Object_Sea_Solid_Small,6.2774094169726595,12.290064541972242,4.0,Object_Sea_Solid_Small,4.0,,,,,,,,,,,
encoding,value,19,25471487,25477500,25475702.0,25475905.0,204.0,204.0,2005.0,1415.3,1920.0,700.0,Object_Sea_Solid_Small,6.2774094169726595,12.290064541972242,4.0,Object_Sea_Solid_Small,4.0,,,,,,,,,,,
encoding,value,19,25471487,25477500,25476150.0,25476240.0,91.0,91.0,1905.9,1425.9,1920.0,700.0,Object_Sea_Solid_Small,6.2774094169726595,12.290064541972242,4.0,Object_Sea_Solid_Small,4.0,,,,,,,,,,,
encoding,value,19,25471487,25477500,25476250.0,25476282.0,33.0,33.0,1906.4,1384.6,1920.0,700.0,Object_Sea_Solid_Small,6.2774094169726595,12.290064541972242,4.0,Object_Sea_Solid_Small,4.0,,,,,,,,,,,
encoding,value,19,25471487,25477500,25476318.0,25476821.0,504.0,504.0,1919.5,1499.9,1920.0,700.0,Object_Sea_Solid_Small,6.2774094169726595,12.290064541972242,4.0,Object_Sea_Solid_Small,4.0,,,,,,,,,,,
encoding,value,19,25471487,25477500,25476838.0,25477292.0,455.0,455.0,1904.9,1414.8,1920.0,700.0,Object_Sea_Solid_Small,6.2774094169726595,12.290064541972242,4.0,Object_Sea_Solid_Small,4.0,,,,,,,,,,,
encoding,value,19,25471487,25477500,25477310.0,25477459.0,150.0,150.0,1936.6,1496.2,1920.0,700.0,Object_Sea_Solid_Small,6.2774094169726595,12.290064541972242,4.0,Object_Sea_Solid_Small,4.0,,,,,,,,,,,
encoding,attention,19,25477500,25480520,25477724.0,25477775.0,52.0,52.0,1904.4,1458.2,1920.0,700.0,Object_Sea_Solid_Small,12.290178082999772,15.30947799992282,4.0,Object_Sea_Solid_Small,4.0,4.0,1.0,1.0827038750285285,,,,,,,,
encoding,attention,19,25477500,25480520,25477844.0,25478105.0,262.0,262.0,1906.0,1422.1,1920.0,700.0,Object_Sea_Solid_Small,12.290178082999772,15.30947799992282,4.0,Object_Sea_Solid_Small,4.0,4.0,1.0,1.0827038750285285,,,,,,,,
encoding,attention,19,25477500,25480520,25478115.0,25479142.0,1028.0,1028.0,1868.3,1382.8,1920.0,700.0,Object_Sea_Solid_Small,12.290178082999772,15.30947799992282,4.0,Object_Sea_Solid_Small,4.0,4.0,1.0,1.0827038750285285,,,,,,,,
encoding,attention,19,25477500,25480520,25479163.0,25479294.0,132.0,132.0,1896.6,1477.3,1920.0,700.0,Object_Sea_Solid_Small,12.290178082999772,15.30947799992282,4.0,Object_Sea_Solid_Small,4.0,4.0,1.0,1.0827038750285285,,,,,,,,
encoding,attention,19,25477500,25480520,25479522.0,25480459.0,938.0,938.0,1901.4,1440.9,1920.0,700.0,Object_Sea_Solid_Small,12.290178082999772,15.30947799992282,4.0,Object_Sea_Solid_Small,4.0,4.0,1.0,1.0827038750285285,,,,,,,,
encoding,fixation,20,25480520,25481775,25480716.0,25480802.0,87.0,87.0,1916.7,1427.8,1920.0,700.0,Object_Sea_Solid_Small,15.3096220419975,16.564672124921344,4.0,Animal_Land_Pattern_Large,6.0,,,,,,,,,,,
encoding,fixation,20,25480520,25481775,25480808.0,25481260.0,453.0,453.0,1915.7,1391.8,1920.0,700.0,Object_Sea_Solid_Small,15.3096220419975,16.564672124921344,4.0,Animal_Land_Pattern_Large,6.0,,,,,,,,,,,
encoding,fixation,20,25480520,25481775,25481284.0,25481481.0,198.0,198.0,2000.5,1130.2,2249.0,891.0,Animal_Land_Pattern_Small,15.3096220419975,16.564672124921344,4.0,Animal_Land_Pattern_Large,6.0,,,,,,,,,,,
encoding,fixation,20,25480520,25481775,25481498.0,25481604.0,107.0,107.0,1909.3,1132.2,1920.0,1080.0,fixation,15.3096220419975,16.564672124921344,4.0,Animal_Land_Pattern_Large,6.0,,,,,,,,,,,
encoding,image,20,25481775,25482787,25481822.0,25481903.0,82.0,82.0,1964.4,1297.9,1920.0,700.0,Object_Sea_Solid_Small,16.564773249905556,17.576070667011663,4.0,Animal_Land_Pattern_Large,6.0,,,,,,,,,,,
encoding,image,20,25481775,25482787,25481910.0,25482008.0,99.0,99.0,1968.9,1261.0,1920.0,700.0,Object_Sea_Solid_Small,16.564773249905556,17.576070667011663,4.0,Animal_Land_Pattern_Large,6.0,,,,,,,,,,,
encoding,image,20,25481775,25482787,25482050.0,25482386.0,337.0,337.0,1925.7,747.8,1920.0,1460.0,Animal_Land_Pattern_Large,16.564773249905556,17.576070667011663,4.0,Animal_Land_Pattern_Large,6.0,,,,,,,,,,,
encoding,image,20,25481775,25482787,25482393.0,25482825.0,433.0,394.0,1888.9,725.7,1920.0,1460.0,Animal_Land_Pattern_Large,16.564773249905556,17.576070667011663,4.0,Animal_Land_Pattern_Large,6.0,,,,,,,,,,,
encoding,value,20,25482787,25488799,25482841.0,25483029.0,189.0,189.0,1968.2,649.0,1920.0,1460.0,Animal_Land_Pattern_Large,17.576187416911125,23.588530707987957,4.0,Animal_Land_Pattern_Large,6.0,,,,,,,,,,,
encoding,value,20,25482787,25488799,25483043.0,25483213.0,171.0,171.0,1934.2,599.2,1920.0,1460.0,Animal_Land_Pattern_Large,17.576187416911125,23.588530707987957,4.0,Animal_Land_Pattern_Large,6.0,,,,,,,,,,,
encoding,value,20,25482787,25488799,25483443.0,25483881.0,439.0,439.0,1900.4,755.9000000000001,1920.0,1460.0,Animal_Land_Pattern_Large,17.576187416911125,23.588530707987957,4.0,Animal_Land_Pattern_Large,6.0,,,,,,,,,,,
encoding,value,20,25482787,25488799,25483890.0,25484356.0,467.0,467.0,1926.5,721.4000000000001,1920.0,1460.0,Animal_Land_Pattern_Large,17.576187416911125,23.588530707987957,4.0,Animal_Land_Pattern_Large,6.0,,,,,,,,,,,
encoding,value,20,25482787,25488799,25484366.0,25484866.0,501.0,501.0,1879.1,718.0,1920.0,1460.0,Animal_Land_Pattern_Large,17.576187416911125,23.588530707987957,4.0,Animal_Land_Pattern_Large,6.0,,,,,,,,,,,
encoding,value,20,25482787,25488799,25485118.0,25485204.0,87.0,87.0,1913.0,746.2,1920.0,1460.0,Animal_Land_Pattern_Large,17.576187416911125,23.588530707987957,4.0,Animal_Land_Pattern_Large,6.0,,,,,,,,,,,
encoding,value,20,25482787,25488799,25485212.0,25486343.0,1132.0,1132.0,1909.1,723.8,1920.0,1460.0,Animal_Land_Pattern_Large,17.576187416911125,23.588530707987957,4.0,Animal_Land_Pattern_Large,6.0,,,,,,,,,,,
encoding,value,20,25482787,25488799,25486350.0,25486896.0,547.0,547.0,1873.4,742.5,1920.0,1460.0,Animal_Land_Pattern_Large,17.576187416911125,23.588530707987957,4.0,Animal_Land_Pattern_Large,6.0,,,,,,,,,,,
encoding,value,20,25482787,25488799,25487147.0,25487253.0,107.0,107.0,1913.8,763.5999999999999,1920.0,1460.0,Animal_Land_Pattern_Large,17.576187416911125,23.588530707987957,4.0,Animal_Land_Pattern_Large,6.0,,,,,,,,,,,
encoding,value,20,25482787,25488799,25487270.0,25488242.0,973.0,973.0,1917.1,710.2,1920.0,1460.0,Animal_Land_Pattern_Large,17.576187416911125,23.588530707987957,4.0,Animal_Land_Pattern_Large,6.0,,,,,,,,,,,
encoding,value,20,25482787,25488799,25488483.0,25488621.0,139.0,139.0,1893.1,782.7,1920.0,1460.0,Animal_Land_Pattern_Large,17.576187416911125,23.588530707987957,4.0,Animal_Land_Pattern_Large,6.0,,,,,,,,,,,
encoding,value,20,25482787,25488799,25488629.0,25489292.0,664.0,170.0,1897.3,726.4000000000001,1920.0,1460.0,Animal_Land_Pattern_Large,17.576187416911125,23.588530707987957,4.0,Animal_Land_Pattern_Large,6.0,,,,,,,,,,,
encoding,attention,20,25488799,25491819,25489312.0,25489824.0,513.0,513.0,1962.2,636.9000000000001,1920.0,1460.0,Animal_Land_Pattern_Large,23.58864420792088,26.60832883301191,4.0,Animal_Land_Pattern_Large,6.0,6.0,1.0,0.688028416945599,,,,,,,,
encoding,attention,20,25488799,25491819,25489843.0,25490006.0,164.0,164.0,1896.9,750.3,1920.0,1460.0,Animal_Land_Pattern_Large,23.58864420792088,26.60832883301191,4.0,Animal_Land_Pattern_Large,6.0,6.0,1.0,0.688028416945599,,,,,,,,
encoding,attention,20,25488799,25491819,25490234.0,25490308.0,75.0,75.0,1896.2,815.4000000000001,1920.0,1460.0,Animal_Land_Pattern_Large,23.58864420792088,26.60832883301191,4.0,Animal_Land_Pattern_Large,6.0,6.0,1.0,0.688028416945599,,,,,,,,
encoding,attention,20,25488799,25491819,25490317.0,25490491.0,175.0,175.0,1897.5,779.5999999999999,1920.0,1460.0,Animal_Land_Pattern_Large,23.58864420792088,26.60832883301191,4.0,Animal_Land_Pattern_Large,6.0,6.0,1.0,0.688028416945599,,,,,,,,
encoding,attention,20,25488799,25491819,25490498.0,25490909.0,412.0,412.0,1870.6,749.0,1920.0,1460.0,Animal_Land_Pattern_Large,23.58864420792088,26.60832883301191,4.0,Animal_Land_Pattern_Large,6.0,6.0,1.0,0.688028416945599,,,,,,,,
encoding,attention,20,25488799,25491819,25491196.0,25491282.0,87.0,87.0,1877.0,781.8,1920.0,1460.0,Animal_Land_Pattern_Large,23.58864420792088,26.60832883301191,4.0,Animal_Land_Pattern_Large,6.0,6.0,1.0,0.688028416945599,,,,,,,,
encoding,attention,20,25488799,25491819,25491298.0,25491640.0,343.0,343.0,1878.5,740.4000000000001,1920.0,1460.0,Animal_Land_Pattern_Large,23.58864420792088,26.60832883301191,4.0,Animal_Land_Pattern_Large,6.0,6.0,1.0,0.688028416945599,,,,,,,,
encoding,fixation,21,25491819,25492825,25491917.0,25492053.0,137.0,137.0,1837.5,775.5999999999999,1920.0,1460.0,Animal_Land_Pattern_Large,26.608486042008735,27.613530125003308,4.0,Animal_Land_Solid_Small,1.0,,,,,,,,,,,
encoding,fixation,21,25491819,25492825,25492087.0,25492528.0,442.0,442.0,1889.6,1091.2,1920.0,1080.0,fixation,26.608486042008735,27.613530125003308,4.0,Animal_Land_Solid_Small,1.0,,,,,,,,,,,
encoding,fixation,21,25491819,25492825,25492535.0,25493056.0,522.0,290.0,1914.9,1099.9,1920.0,1080.0,fixation,26.608486042008735,27.613530125003308,4.0,Animal_Land_Solid_Small,1.0,,,,,,,,,,,
encoding,image,21,25492825,25493835,25493091.0,25493290.0,200.0,200.0,1564.9,893.9000000000001,1591.0,1269.0,Animal_Land_Solid_Small,27.613645249977708,28.62411879200954,4.0,Animal_Land_Solid_Small,1.0,,,,,,,,,,,
encoding,image,21,25492825,25493835,25493303.0,25493761.0,459.0,459.0,1606.4,939.3,1591.0,1269.0,Animal_Land_Solid_Small,27.613645249977708,28.62411879200954,4.0,Animal_Land_Solid_Small,1.0,,,,,,,,,,,
encoding,image,21,25492825,25493835,25493773.0,25494338.0,566.0,62.0,1585.4,901.4000000000001,1591.0,1269.0,Animal_Land_Solid_Small,27.613645249977708,28.62411879200954,4.0,Animal_Land_Solid_Small,1.0,,,,,,,,,,,
encoding,value,21,25493835,25499848,25494567.0,25496139.0,1573.0,1573.0,1604.3,936.7,1591.0,1269.0,Animal_Land_Solid_Small,28.624229082954116,34.63675166701432,4.0,Animal_Land_Solid_Small,1.0,,,,,,,,,,,
encoding,value,21,25493835,25499848,25496419.0,25498154.0,1736.0,1736.0,1592.3,922.5999999999999,1591.0,1269.0,Animal_Land_Solid_Small,28.624229082954116,34.63675166701432,4.0,Animal_Land_Solid_Small,1.0,,,,,,,,,,,
encoding,value,21,25493835,25499848,25498477.0,25498543.0,67.0,67.0,1603.2,823.9000000000001,1591.0,1269.0,Animal_Land_Solid_Small,28.624229082954116,34.63675166701432,4.0,Animal_Land_Solid_Small,1.0,,,,,,,,,,,
encoding,value,21,25493835,25499848,25498550.0,25498583.0,34.0,34.0,1604.9,787.7,1591.0,1269.0,Animal_Land_Solid_Small,28.624229082954116,34.63675166701432,4.0,Animal_Land_Solid_Small,1.0,,,,,,,,,,,
encoding,value,21,25493835,25499848,25498601.0,25499548.0,948.0,948.0,1599.7,908.3,1591.0,1269.0,Animal_Land_Solid_Small,28.624229082954116,34.63675166701432,4.0,Animal_Land_Solid_Small,1.0,,,,,,,,,,,
encoding,value,21,25493835,25499848,25499810.0,25499883.0,74.0,38.0,1567.5,928.2,1591.0,1269.0,Animal_Land_Solid_Small,28.624229082954116,34.63675166701432,4.0,Animal_Land_Solid_Small,1.0,,,,,,,,,,,
encoding,attention,21,25499848,25502866,25499890.0,25499964.0,75.0,75.0,1567.2,890.2,1591.0,1269.0,Animal_Land_Solid_Small,34.63685270794667,37.654858249938115,4.0,Animal_Land_Solid_Small,1.0,1.0,1.0,0.6571851670742035,,,,,,,,
encoding,attention,21,25499848,25502866,25499978.0,25500221.0,244.0,244.0,1596.6,937.0999999999999,1591.0,1269.0,Animal_Land_Solid_Small,34.63685270794667,37.654858249938115,4.0,Animal_Land_Solid_Small,1.0,1.0,1.0,0.6571851670742035,,,,,,,,
encoding,attention,21,25499848,25502866,25500239.0,25500795.0,557.0,557.0,1562.8,851.0999999999999,1591.0,1269.0,Animal_Land_Solid_Small,34.63685270794667,37.654858249938115,4.0,Animal_Land_Solid_Small,1.0,1.0,1.0,0.6571851670742035,,,,,,,,
encoding,attention,21,25499848,25502866,25500811.0,25501111.0,301.0,301.0,1589.6,926.9000000000001,1591.0,1269.0,Animal_Land_Solid_Small,34.63685270794667,37.654858249938115,4.0,Animal_Land_Solid_Small,1.0,1.0,1.0,0.6571851670742035,,,,,,,,
encoding,attention,21,25499848,25502866,25501335.0,25501394.0,60.0,60.0,1951.1,1144.8,1920.0,700.0,Object_Sea_Solid_Small,34.63685270794667,37.654858249938115,4.0,Animal_Land_Solid_Small,1.0,1.0,1.0,0.6571851670742035,,,,,,,,
encoding,attention,21,25499848,25502866,25501406.0,25501842.0,437.0,437.0,1953.4,1104.4,1920.0,1080.0,fixation,34.63685270794667,37.654858249938115,4.0,Animal_Land_Solid_Small,1.0,1.0,1.0,0.6571851670742035,,,,,,,,
encoding,attention,21,25499848,25502866,25502060.0,25502135.0,76.0,76.0,1901.0,1110.4,1920.0,1080.0,fixation,34.63685270794667,37.654858249938115,4.0,Animal_Land_Solid_Small,1.0,1.0,1.0,0.6571851670742035,,,,,,,,
encoding,attention,21,25499848,25502866,25502148.0,25502490.0,343.0,343.0,1898.5,1073.6,1920.0,1080.0,fixation,34.63685270794667,37.654858249938115,4.0,Animal_Land_Solid_Small,1.0,1.0,1.0,0.6571851670742035,,,,,,,,
encoding,fixation,22,25502866,25504372,25502931.0,25503203.0,273.0,273.0,1637.8,959.3,1591.0,1269.0,Animal_Land_Solid_Small,37.654998957994394,39.15999462490436,4.0,Object_Sea_Pattern_Large,3.0,,,,,,,,,,,
encoding,fixation,22,25502866,25504372,25503229.0,25504613.0,1385.0,1143.0,1909.4,1109.2,1920.0,1080.0,fixation,37.654998957994394,39.15999462490436,4.0,Object_Sea_Pattern_Large,3.0,,,,,,,,,,,
encoding,image,22,25504372,25505383,25504645.0,25505024.0,380.0,380.0,2229.6,929.3,2249.0,1269.0,Object_Sea_Pattern_Large,39.16010770795401,40.17136874992866,4.0,Object_Sea_Pattern_Large,3.0,,,,,,,,,,,
encoding,image,22,25504372,25505383,25505268.0,25505474.0,207.0,115.0,2257.0,893.0999999999999,2249.0,1269.0,Object_Sea_Pattern_Large,39.16010770795401,40.17136874992866,4.0,Object_Sea_Pattern_Large,3.0,,,,,,,,,,,
encoding,value,22,25505383,25511398,25505481.0,25505972.0,492.0,492.0,2222.5,873.2,2249.0,1269.0,Object_Sea_Pattern_Large,40.17147412500344,46.186699291924015,4.0,Object_Sea_Pattern_Large,3.0,,,,,,,,,,,
encoding,value,22,25505383,25511398,25505985.0,25506719.0,735.0,735.0,2258.6,923.0999999999999,2249.0,1269.0,Object_Sea_Pattern_Large,40.17147412500344,46.186699291924015,4.0,Object_Sea_Pattern_Large,3.0,,,,,,,,,,,
encoding,value,22,25505383,25511398,25506731.0,25506878.0,148.0,148.0,2213.7,886.5,2249.0,1269.0,Object_Sea_Pattern_Large,40.17147412500344,46.186699291924015,4.0,Object_Sea_Pattern_Large,3.0,,,,,,,,,,,
encoding,value,22,25505383,25511398,25507070.0,25507137.0,68.0,68.0,2261.2,950.8,2249.0,1269.0,Object_Sea_Pattern_Large,40.17147412500344,46.186699291924015,4.0,Object_Sea_Pattern_Large,3.0,,,,,,,,,,,
encoding,value,22,25505383,25511398,25507147.0,25507602.0,456.0,456.0,2256.2,913.4000000000001,2249.0,1269.0,Object_Sea_Pattern_Large,40.17147412500344,46.186699291924015,4.0,Object_Sea_Pattern_Large,3.0,,,,,,,,,,,
