phase,event,onset,offset,trial_number,game,image,outcome,choice,correct,rt,letter,match,response,option,true_value,true_position,recalled_position,
encoding,fixation,9.80073854199145,10.566921041929163,1,1,Object_Sea_Solid_Small,8,,,,,,,,,,,
encoding,image,10.56704633391928,11.587906959000975,1,1,Object_Sea_Solid_Small,8,,,,,,,,,,,
encoding,value,11.588019917020574,17.60418754199054,1,1,Object_Sea_Solid_Small,8,,,,,,,,,,,
encoding,attention,17.604307999950834,20.62230012496002,1,1,Object_Sea_Solid_Small,8,+8,1,1.6707416250137612,,,,,,,,
encoding,fixation,20.622465916909277,21.377848999924026,2,1,Object_Sea_Pattern_Large,-3,,,,,,,,,,,
encoding,image,21.37799433397595,22.388887083972804,2,1,Object_Sea_Pattern_Large,-3,,,,,,,,,,,
encoding,value,22.388987625017762,28.400941249914467,2,1,Object_Sea_Pattern_Large,-3,,,,,,,,,,,
encoding,attention,28.401070291991346,31.420801333966665,2,1,Object_Sea_Pattern_Large,-3,-3,1,2.362312541110441,,,,,,,,
encoding,fixation,31.421031459001824,32.42604166700039,3,1,Animal_Land_Solid_Small,-7,,,,,,,,,,,
encoding,image,32.42620104202069,33.43721754197031,3,1,Animal_Land_Solid_Small,-7,,,,,,,,,,,
encoding,value,33.43732162495144,39.448844374972396,3,1,Animal_Land_Solid_Small,-7,,,,,,,,,,,
encoding,attention,39.448942333925515,42.46654141694307,3,1,Animal_Land_Solid_Small,-7,-7,1,1.3592365409713238,,,,,,,,
encoding,fixation,42.46667733392678,43.97168399998918,4,1,Object_Sea_Solid_Large,-2,,,,,,,,,,,
encoding,image,43.971794624929316,44.983091083937325,4,1,Object_Sea_Solid_Large,-2,,,,,,,,,,,
encoding,value,44.983198541915044,50.995783916907385,4,1,Object_Sea_Solid_Large,-2,,,,,,,,,,,
encoding,attention,50.99591908394359,54.01414808398113,4,1,Object_Sea_Solid_Large,-2,-2,1,1.6061416660668328,,,,,,,,
encoding,fixation,54.014306749915704,54.76945841696579,5,1,Animal_Land_Pattern_Large,3,,,,,,,,,,,
encoding,image,54.769570166943595,55.781956334016286,5,1,Animal_Land_Pattern_Large,3,,,,,,,,,,,
encoding,value,55.78208479192108,61.79337441700045,5,1,Animal_Land_Pattern_Large,3,,,,,,,,,,,
encoding,attention,61.79348737502005,64.85453270899598,5,1,Animal_Land_Pattern_Large,3,+3,1,1.4721834160154685,,,,,,,,
encoding,fixation,64.8546984589193,65.35998683399521,6,1,Animal_Land_Pattern_Small,1,,,,,,,,,,,
encoding,image,65.36011779191904,66.37135054194368,6,1,Animal_Land_Pattern_Small,1,,,,,,,,,,,
encoding,value,66.37155425001401,72.38300266698934,6,1,Animal_Land_Pattern_Small,1,,,,,,,,,,,
encoding,attention,72.38311766693369,75.40038299991284,6,1,Animal_Land_Pattern_Small,1,+1,1,0.6533736248966306,,,,,,,,
n-back,,,,1,1,,,,1,None,V,False,None,,,,,
n-back,,,,2,1,,,,1,None,C,False,None,,,,,
n-back,,,,3,1,,,,1,None,Z,False,None,,,,,
n-back,,,,4,1,,,,1,0.9496908340370283,C,True,1,,,,,
n-back,,,,5,1,,,,1,None,X,False,None,,,,,
n-back,,,,6,1,,,,1,0.7987654999596998,C,True,1,,,,,
n-back,,,,7,1,,,,1,None,V,False,None,,,,,
n-back,,,,8,1,,,,0,None,C,True,None,,,,,
n-back,,,,9,1,,,,1,0.6100679578958079,V,True,1,,,,,
n-back,,,,10,1,,,,1,None,X,False,None,,,,,
n-back,,,,11,1,,,,1,None,C,False,None,,,,,
n-back,,,,12,1,,,,1,None,B,False,None,,,,,
n-back,,,,13,1,,,,1,None,X,False,None,,,,,
n-back,,,,14,1,,,,1,0.4906661659479141,B,True,1,,,,,
n-back,,,,15,1,,,,1,0.9322650830727071,X,True,1,,,,,
n-back,,,,16,1,,,,1,0.8727424170356244,B,True,1,,,,,
n-back,,,,17,1,,,,0,0.4588438330683857,B,False,1,,,,,
n-back,,,,18,1,,,,1,None,V,False,None,,,,,
n-back,,,,19,1,,,,1,None,X,False,None,,,,,
n-back,,,,20,1,,,,1,0.4268643750110641,V,True,1,,,,,
n-back,,,,21,1,,,,1,None,C,False,None,,,,,
n-back,,,,22,1,,,,1,None,N,False,None,,,,,
n-back,,,,23,1,,,,1,None,N,False,None,,,,,
n-back,,,,24,1,,,,1,0.5556183339795098,N,True,1,,,,,
n-back,,,,25,1,,,,1,None,B,False,None,,,,,
n-back,,,,26,1,,,,1,None,X,False,None,,,,,
n-back,,,,27,1,,,,1,None,V,False,None,,,,,
n-back,,,,28,1,,,,1,0.5369017090415582,X,True,1,,,,,
n-back,,,,29,1,,,,1,None,B,False,None,,,,,
n-back,,,,30,1,,,,1,None,N,False,None,,,,,
choice,fixation,158.12139420898166,158.62719949998427,1,1,,,,,,,,,Small,,,,
choice,option,158.63661149994005,159.83304108399898,1,1,,,,,,,,,Small,,,,
choice,choice,159.8331688749604,163.8224790840177,1,1,,,1,1,2.9798237080685794,,,,Small,,,,
choice,fixation,163.82260966696776,165.32802758400794,2,1,,,,,,,,,Object,,,,
choice,option,165.338071291917,166.36665329197422,2,1,,,,,,,,,Object,,,,
choice,choice,166.36677799990866,176.40874445892405,2,1,,,1,1,9.028853124938905,,,,Object,,,,
choice,fixation,176.408915292006,177.1653323339997,3,1,,,,,,,,,Large,,,,
choice,option,177.1745337919565,178.20086733391508,3,1,,,,,,,,,Large,,,,
choice,choice,178.20098816696554,182.1824713749811,3,1,,,2,1,2.9700518749887124,,,,Large,,,,
choice,fixation,182.1826115839649,183.18754883401562,4,1,,,,,,,,,Sea,,,,
choice,option,183.1958622499369,184.22211916698143,4,1,,,,,,,,,Sea,,,,
choice,choice,184.22228637500666,187.73574929195456,4,1,,,2,0,2.5039997920393944,,,,Sea,,,,
choice,fixation,187.73588962492067,188.2408145419322,5,1,,,,,,,,,Animal,,,,
choice,option,188.2508551669307,189.27661287493538,5,1,,,,,,,,,Animal,,,,
choice,choice,189.27672454190906,204.27968325000256,5,1,,,2,1,13.990388124948367,,,,Animal,,,,
choice,fixation,204.2798112089513,205.78491770895198,6,1,,,,,,,,,Solid,,,,
choice,option,205.79420591692906,206.82092374993954,6,1,,,,,,,,,Solid,,,,
choice,choice,206.82103141699918,215.0619245839771,6,1,,,1,0,7.230813208967447,,,,Solid,,,,
choice,fixation,215.06209458399098,216.06712004193105,7,1,,,,,,,,,Pattern,,,,
choice,option,216.07654437492602,217.10348024999257,7,1,,,,,,,,,Pattern,,,,
choice,choice,217.1035869589541,224.18818824994378,7,1,,,2,0,6.074881833977997,,,,Pattern,,,,
choice,fixation,224.1883074590005,224.94355904194526,8,1,,,,,,,,,Land,,,,
choice,option,224.95278741698712,225.97914412501268,8,1,,,,,,,,,Land,,,,
choice,choice,225.97925020894036,239.28746424999554,8,1,,,2,1,12.296876040985808,,,,Land,,,,
memory,free_recall,289.0971594589064,312.33532700000796,0,1,,,,,,,,,,,,,
memory,value_recall,360.59983904194087,377.5055746670114,1,1,Object_Sea_Pattern_Large,,,,16.901721916976385,,,,,-3,,,
memory,value_recall,379.0549530419521,392.98001979198307,2,1,Animal_Land_Pattern_Large,,,,13.920884707942605,,,,,3,,,
memory,value_recall,394.02658904192504,401.2561203339137,3,1,Object_Sea_Solid_Large,,,,7.225695875007659,,,,,-2,,,
memory,value_recall,402.3025522499811,410.1815428339178,4,1,Animal_Land_Pattern_Small,,,,7.875787499942817,,,,,1,,,
memory,value_recall,411.22811708401423,414.00036049995106,5,1,Object_Sea_Solid_Small,,,,2.7691015829332173,,,,,8,,,
memory,value_recall,416.04940166696906,420.3474066249328,6,1,Animal_Land_Solid_Small,,,,4.2938169579720125,,,,,-7,,,
memory,spatial_recall,442.3054776249919,448.19941887492314,6,1,Animal_Land_Pattern_Small,,,1,5.891272333101369,,,,,,"[329, 189]","[329, 189]",
memory,spatial_recall,449.25072274997365,453.2166106249206,6,1,Object_Sea_Solid_Small,,,1,3.9634892920730636,,,,,,"[0, 380]","[0, 380]",
memory,spatial_recall,454.77793891693,457.44833587494213,6,1,Animal_Land_Pattern_Large,,,1,2.6664564589736983,,,,,,"[0, -380]","[0, -380]",
memory,spatial_recall,459.506263416959,462.54820787499193,6,1,Object_Sea_Solid_Large,,,1,3.0378597910748795,,,,,,"[-329, 190]","[-329, 190]",
memory,spatial_recall,463.60228133399505,466.1819431249751,6,1,Animal_Land_Solid_Small,,,1,2.577146290917881,,,,,,"[-329, -190]","[-329, -190]",
memory,spatial_recall,467.4878822499886,470.5155403749086,6,1,Object_Sea_Pattern_Large,,,1,3.023759583942592,,,,,,"[329, -190]","[329, -190]",
encoding,fixation,8.265460542053916,8.772157417028211,7,2,Object_Sea_Pattern_Small,-8,,,,,,,,,,,
encoding,image,8.772283583995886,9.783574917004444,7,2,Object_Sea_Pattern_Small,-8,,,,,,,,,,,
encoding,value,9.783764709020033,15.797935375012457,7,2,Object_Sea_Pattern_Small,-8,,,,,,,,,,,
encoding,attention,15.798048375057988,18.815571084036492,7,2,Object_Sea_Pattern_Small,-8,-8,1,0.8966248339274898,,,,,,,,
encoding,fixation,18.815726625034586,20.072348917019553,8,2,Object_Land_Solid_Small,-9,,,,,,,,,,,
encoding,image,20.07245216704905,21.08311487501487,8,2,Object_Land_Solid_Small,-9,,,,,,,,,,,
encoding,value,21.083216917002574,27.09514579200186,8,2,Object_Land_Solid_Small,-9,,,,,,,,,,,
encoding,attention,27.095253000035882,30.113461334025487,8,2,Object_Land_Solid_Small,-9,-9,1,0.7514112499775365,,,,,,,,
encoding,fixation,30.11359900003299,30.61895837506745,9,2,Animal_Sea_Pattern_Large,-2,,,,,,,,,,,
encoding,image,30.619063875055872,31.63034658401739,9,2,Animal_Sea_Pattern_Large,-2,,,,,,,,,,,
encoding,value,31.63046654209029,37.64204195898492,9,2,Animal_Sea_Pattern_Large,-2,,,,,,,,,,,
encoding,attention,37.64217083400581,40.65940679202322,9,2,Animal_Sea_Pattern_Large,-2,-2,1,0.8047197500709444,,,,,,,,
encoding,fixation,40.659560959087685,41.914648959063925,10,2,Animal_Land_Solid_Large,1,,,,,,,,,,,
encoding,image,41.91476825007703,42.9265447499929,10,2,Animal_Land_Solid_Large,1,,,,,,,,,,,
encoding,value,42.9266668750206,48.93945137504488,10,2,Animal_Land_Solid_Large,1,,,,,,,,,,,
encoding,attention,48.93957775004674,51.95750770904124,10,2,Animal_Land_Solid_Large,1,+1,1,1.6432110000168905,,,,,,,,
encoding,fixation,51.95765666698571,53.46270775003359,11,2,Animal_Sea_Solid_Small,2,,,,,,,,,,,
encoding,image,53.46291870903224,54.47416129207704,11,2,Animal_Sea_Solid_Small,2,,,,,,,,,,,
encoding,value,54.47427666699514,60.48580179200508,11,2,Animal_Sea_Solid_Small,2,,,,,,,,,,,
encoding,attention,60.48594174999744,63.50574658403639,11,2,Animal_Sea_Solid_Small,2,+2,1,1.1833396250149235,,,,,,,,
encoding,fixation,63.505897958995774,64.01100908406079,12,2,Object_Land_Pattern_Large,2,,,,,,,,,,,
encoding,image,64.0111027500825,65.02250908408314,12,2,Object_Land_Pattern_Large,2,,,,,,,,,,,
encoding,value,65.02262308401987,71.03470425005071,12,2,Object_Land_Pattern_Large,2,,,,,,,,,,,
encoding,attention,71.03481545904651,74.05332820909098,12,2,Object_Land_Pattern_Large,2,+2,1,1.252473457949236,,,,,,,,
n-back,,,,31,2,,,,1,None,X,False,None,,,,,
n-back,,,,32,2,,,,1,None,Z,False,None,,,,,
n-back,,,,33,2,,,,1,None,B,False,None,,,,,
n-back,,,,34,2,,,,1,None,X,False,None,,,,,
n-back,,,,35,2,,,,1,None,X,False,None,,,,,
n-back,,,,36,2,,,,1,None,V,False,None,,,,,
n-back,,,,37,2,,,,1,None,N,False,None,,,,,
n-back,,,,38,2,,,,1,None,Z,False,None,,,,,
n-back,,,,39,2,,,,1,None,Z,False,None,,,,,
n-back,,,,40,2,,,,1,0.449551000026986,Z,True,1,,,,,
n-back,,,,41,2,,,,1,1.0299157919362187,Z,True,1,,,,,
n-back,,,,42,2,,,,1,None,B,False,None,,,,,
n-back,,,,43,2,,,,1,None,X,False,None,,,,,
n-back,,,,44,2,,,,1,0.562282667029649,B,True,1,,,,,
n-back,,,,45,2,,,,1,0.87475441605784,X,True,1,,,,,
n-back,,,,46,2,,,,1,0.7696122090565041,B,True,1,,,,,
n-back,,,,47,2,,,,1,None,N,False,None,,,,,
n-back,,,,48,2,,,,1,None,C,False,None,,,,,
n-back,,,,49,2,,,,1,None,Z,False,None,,,,,
n-back,,,,50,2,,,,1,None,V,False,None,,,,,
n-back,,,,51,2,,,,1,None,B,False,None,,,,,
n-back,,,,52,2,,,,1,0.6186154580209404,V,True,1,,,,,
n-back,,,,53,2,,,,1,0.7864622499328107,B,True,1,,,,,
n-back,,,,54,2,,,,1,0.5553462089737877,V,True,1,,,,,
n-back,,,,55,2,,,,1,0.542476375005208,B,True,1,,,,,
n-back,,,,56,2,,,,1,None,X,False,None,,,,,
n-back,,,,57,2,,,,1,None,X,False,None,,,,,
n-back,,,,58,2,,,,1,0.5227877500001341,X,True,1,,,,,
n-back,,,,59,2,,,,1,None,N,False,None,,,,,
n-back,,,,60,2,,,,1,None,C,False,None,,,,,
choice,fixation,148.61233845900279,150.1158505420899,9,2,,,,,,,,,Object,,,,
choice,option,150.12458270904608,151.1507611250272,9,2,,,,,,,,,Object,,,,
choice,choice,151.1508786670165,170.13034958404023,9,2,,,2,1,17.968500958988443,,,,Object,,,,
choice,fixation,170.1304685000796,171.13560800009873,10,2,,,,,,,,,Large,,,,
choice,option,171.14458375005051,172.17191983398516,10,2,,,,,,,,,Large,,,,
choice,choice,172.17202749999706,191.28280437504873,10,2,,,2,0,18.099458415992558,,,,Large,,,,
choice,fixation,191.28297254198696,192.29048437508754,11,2,,,,,,,,,Sea,,,,
choice,option,192.2991140000522,193.32496562507004,11,2,,,,,,,,,Sea,,,,
choice,choice,193.32506787509192,197.83116066700313,11,2,,,2,1,3.4967349589569494,,,,Sea,,,,
choice,fixation,197.83127737499308,198.5867040840676,12,2,,,,,,,,,Land,,,,
choice,option,198.59557358408347,199.62203750002664,12,2,,,,,,,,,Land,,,,
choice,choice,199.62213645898737,202.95344091707375,12,2,,,1,0,2.3214285420253873,,,,Land,,,,
choice,fixation,202.95357329200488,203.458557209,13,2,,,,,,,,,Small,,,,
choice,option,203.46750224998686,204.49388133408502,13,2,,,,,,,,,Small,,,,
choice,choice,204.49400095909368,217.37068079202436,13,2,,,1,0,11.865262625040486,,,,Small,,,,
choice,fixation,217.37081141700037,217.87576650001574,14,2,,,,,,,,,Pattern,,,,
choice,option,217.8848978340393,218.9112686670851,14,2,,,,,,,,,Pattern,,,,
choice,choice,218.9113744170172,221.4786113339942,14,2,,,2,1,1.5577445829985663,,,,Pattern,,,,
choice,fixation,221.478740959079,222.48357145907357,15,2,,,,,,,,,Solid,,,,
choice,option,222.4928711670218,223.51956254208926,15,2,,,,,,,,,Solid,,,,
choice,choice,223.51969104201999,226.94490366708487,15,2,,,1,0,2.4155054580187425,,,,Solid,,,,
choice,fixation,226.9450385000091,227.45038037502673,16,2,,,,,,,,,Animal,,,,
choice,option,227.45961079199333,228.48581304203253,16,2,,,,,,,,,Animal,,,,
choice,choice,228.48598650004715,233.98463870899286,16,2,,,1,1,4.489039874984883,,,,Animal,,,,
memory,free_recall,247.85694875009358,290.9715248340508,6,2,,,,,,,,,,,,,
memory,value_recall,300.96330837509595,304.84159133408684,7,2,Object_Land_Pattern_Large,,,,3.87327204097528,,,,,2,,,
memory,value_recall,306.88948387501296,310.9615727920318,8,2,Animal_Sea_Solid_Small,,,,4.067649166914634,,,,,2,,,
memory,value_recall,312.508144209045,313.7613381250994,9,2,Animal_Land_Solid_Large,,,,1.249037415953353,,,,,1,,,
memory,value_recall,315.0460889590904,325.2915411250433,10,2,Object_Land_Solid_Small,,,,10.241486540995538,,,,,-9,,,
memory,value_recall,326.3401076250011,330.7145048340317,11,2,Animal_Sea_Pattern_Large,,,,4.3711142090614885,,,,,-2,,,
memory,value_recall,332.5135344170267,336.86667391704395,12,2,Object_Sea_Pattern_Small,,,,4.348454499966465,,,,,-8,,,
memory,spatial_recall,347.39806970907375,353.02224908408243,12,2,Animal_Sea_Pattern_Large,,,1,5.619773999904282,,,,,,"[-329, -190]","[-329, -190]",
memory,spatial_recall,354.5920240840642,359.06659154209774,12,2,Object_Land_Pattern_Large,,,1,4.470503624994308,,,,,,"[329, -190]","[329, -190]",
memory,spatial_recall,360.12319350009784,378.4734813750256,12,2,Animal_Land_Solid_Large,,,0,18.347035957966,,,,,,"[0, 380]","[329, 189]",
memory,spatial_recall,380.0349712090101,385.94926891708747,12,2,Object_Land_Solid_Small,,,1,5.910071292077191,,,,,,"[-329, 190]","[-329, 190]",
memory,spatial_recall,388.00609529204667,389.62257462507114,12,2,Object_Sea_Pattern_Small,,,1,1.6124179170001298,,,,,,"[0, -380]","[0, -380]",
memory,spatial_recall,391.1851344590541,395.7326120000798,12,2,Animal_Sea_Solid_Small,,,0,4.543239749968052,,,,,,"[329, 189]","[0, 380]",
encoding,fixation,3.6555050420574844,4.412003707955591,13,3,Animal_Sea_Pattern_Small,-9,,,,,,,,,,,
encoding,image,4.412114458042197,5.423624041955918,13,3,Animal_Sea_Pattern_Small,-9,,,,,,,,,,,
encoding,value,5.423739750054665,11.437143082963303,13,3,Animal_Sea_Pattern_Small,-9,,,,,,,,,,,
encoding,attention,11.437252042000182,14.454976250068285,13,3,Animal_Sea_Pattern_Small,-9,-9,1,0.775742124998942,,,,,,,,
encoding,fixation,14.455139082972892,15.710116958012804,14,3,Object_Land_Solid_Large,-1,,,,,,,,,,,
encoding,image,15.710311791975982,16.720495000015944,14,3,Object_Land_Solid_Large,-1,,,,,,,,,,,
encoding,value,16.720603166962974,22.73200254200492,14,3,Object_Land_Solid_Large,-1,,,,,,,,,,,
encoding,attention,22.732114917016588,25.750916708027944,14,3,Object_Land_Solid_Large,-1,-1,1,0.49669570894911885,,,,,,,,
encoding,fixation,25.75106012506876,26.505904625053518,15,3,Animal_Sea_Solid_Large,-1,,,,,,,,,,,
encoding,image,26.506006292067468,27.517939958022907,15,3,Animal_Sea_Solid_Large,-1,,,,,,,,,,,
encoding,value,27.518039333052002,33.531382207991555,15,3,Animal_Sea_Solid_Large,-1,,,,,,,,,,,
encoding,attention,33.53149950003717,36.54930720804259,15,3,Animal_Sea_Solid_Large,-1,-1,1,0.7373486660653725,,,,,,,,
encoding,fixation,36.54947062500287,37.80464995803777,16,3,Animal_Sea_Pattern_Large,9,,,,,,,,,,,
encoding,image,37.8047573750373,38.81523995799944,16,3,Animal_Sea_Pattern_Large,9,,,,,,,,,,,
encoding,value,38.815358542022295,44.825872375047766,16,3,Animal_Sea_Pattern_Large,9,,,,,,,,,,,
encoding,attention,44.82599124999251,47.84311220806558,16,3,Animal_Sea_Pattern_Large,9,+9,1,1.2835502909729257,,,,,,,,
encoding,fixation,47.84325433301274,49.09844312502537,17,3,Object_Land_Solid_Small,7,,,,,,,,,,,
encoding,image,49.09855320805218,50.11011991696432,17,3,Object_Land_Solid_Small,7,,,,,,,,,,,
encoding,value,50.110228458070196,56.12218199996278,17,3,Object_Land_Solid_Small,7,,,,,,,,,,,
encoding,attention,56.122306292061694,59.14000324998051,17,3,Object_Land_Solid_Small,7,+7,1,0.6173918329877779,,,,,,,,
encoding,fixation,59.14014670799952,59.64765516703483,18,3,Object_Land_Pattern_Small,6,,,,,,,,,,,
encoding,image,59.64777124999091,60.65858070796821,18,3,Object_Land_Pattern_Small,6,,,,,,,,,,,
encoding,value,60.65868966700509,66.67038154206239,18,3,Object_Land_Pattern_Small,6,,,,,,,,,,,
encoding,attention,66.67049499996938,69.68792983295862,18,3,Object_Land_Pattern_Small,6,+6,1,1.2057612920179963,,,,,,,,
n-back,,,,61,3,,,,1,None,B,False,None,,,,,
n-back,,,,62,3,,,,1,None,X,False,None,,,,,
n-back,,,,63,3,,,,1,0.6975792499724776,B,True,1,,,,,
n-back,,,,64,3,,,,0,None,X,True,None,,,,,
n-back,,,,65,3,,,,1,1.132503708009608,B,True,1,,,,,
n-back,,,,66,3,,,,1,None,Z,False,None,,,,,
n-back,,,,67,3,,,,1,0.7202506250469014,B,True,1,,,,,
n-back,,,,68,3,,,,1,None,X,False,None,,,,,
n-back,,,,69,3,,,,1,None,N,False,None,,,,,
n-back,,,,70,3,,,,1,1.4595000420231372,X,True,1,,,,,
n-back,,,,71,3,,,,1,None,X,False,None,,,,,
n-back,,,,72,3,,,,1,None,C,False,None,,,,,
n-back,,,,73,3,,,,1,None,C,False,None,,,,,
n-back,,,,74,3,,,,1,None,Z,False,None,,,,,
n-back,,,,75,3,,,,1,None,B,False,None,,,,,
n-back,,,,76,3,,,,1,None,X,False,None,,,,,
n-back,,,,77,3,,,,1,0.6678498749388382,B,True,1,,,,,
n-back,,,,78,3,,,,1,0.9559787919279188,X,True,1,,,,,
n-back,,,,79,3,,,,1,None,N,False,None,,,,,
n-back,,,,80,3,,,,1,None,Z,False,None,,,,,
n-back,,,,81,3,,,,1,0.6409057920100167,N,True,1,,,,,
n-back,,,,82,3,,,,1,None,C,False,None,,,,,
n-back,,,,83,3,,,,1,None,X,False,None,,,,,
n-back,,,,84,3,,,,1,None,B,False,None,,,,,
n-back,,,,85,3,,,,1,None,B,False,None,,,,,
n-back,,,,86,3,,,,1,0.3809178749797866,B,True,1,,,,,
n-back,,,,87,3,,,,1,None,V,False,None,,,,,
n-back,,,,88,3,,,,1,None,X,False,None,,,,,
n-back,,,,89,3,,,,0,0.5442166660213843,X,False,1,,,,,
n-back,,,,90,3,,,,1,0.64160908292979,X,True,1,,,,,
choice,fixation,145.59713304205798,147.10024070797954,17,3,,,,,,,,,Animal,,,,
choice,option,147.10945254203398,148.13702887506224,17,3,,,,,,,,,Animal,,,,
choice,choice,148.13715387496632,175.13615999999456,17,3,,,2,1,25.98765420797281,,,,Animal,,,,
choice,fixation,175.136304958025,175.89152379205916,18,3,,,,,,,,,Pattern,,,,
choice,option,175.9009405829711,176.92818016698584,18,3,,,,,,,,,Pattern,,,,
choice,choice,176.9283140420448,185.1410334580578,18,3,,,1,1,7.202520541031845,,,,Pattern,,,,
choice,fixation,185.14118429203518,186.14790483296383,19,3,,,,,,,,,Sea,,,,
choice,option,186.1566594580654,187.18248854205012,19,3,,,,,,,,,Sea,,,,
choice,choice,187.18258799996693,191.63904350006487,19,3,,,2,1,3.446317791007459,,,,Sea,,,,
choice,fixation,191.639159708051,192.89411779202055,20,3,,,,,,,,,Land,,,,
choice,option,192.90340512502007,193.93108195799869,20,3,,,,,,,,,Land,,,,
choice,choice,193.93118608300574,197.32446649996564,20,3,,,1,1,2.3828204170567915,,,,Land,,,,
choice,fixation,197.3245892500272,198.83093454199843,21,3,,,,,,,,,Object,,,,
choice,option,198.84039575001225,199.86727916705422,21,3,,,,,,,,,Object,,,,
choice,choice,199.86739895795472,206.62271783303004,21,3,,,1,1,5.745704249944538,,,,Object,,,,
choice,fixation,206.62289925001096,207.37794699997175,22,3,,,,,,,,,Small,,,,
choice,option,207.3870319579728,208.41545837500598,22,3,,,,,,,,,Small,,,,
choice,choice,208.41558558295947,228.78237491706386,22,3,,,1,1,19.35579541604966,,,,Small,,,,
choice,fixation,228.78250129206572,229.2875482919626,23,3,,,,,,,,,Large,,,,
choice,option,229.29690133302938,230.3228668330703,23,3,,,,,,,,,Large,,,,
choice,choice,230.3229764580028,243.4935705830576,23,3,,,1,1,12.159722958109342,,,,Large,,,,
choice,fixation,243.49371733306907,244.49871716706548,24,3,,,,,,,,,Solid,,,,
choice,option,244.5079425830627,245.53394866699819,24,3,,,,,,,,,Solid,,,,
choice,choice,245.534051500028,248.52569354197476,24,3,,,1,1,1.981776790926233,,,,Solid,,,,
memory,free_recall,268.72106112504844,301.68688091705553,12,3,,,,,,,,,,,,,
memory,value_recall,309.09793704201,312.6068272499833,13,3,Object_Land_Solid_Small,,,,3.5048090829513967,,,,,7,,,
memory,value_recall,313.65503600006923,315.62494829203933,14,3,Object_Land_Solid_Large,,,,1.966233832994476,,,,,-1,,,
memory,value_recall,317.42215391702484,319.8651847500587,15,3,Animal_Sea_Pattern_Small,,,,2.4388350000372157,,,,,-9,,,
memory,value_recall,321.65954595804214,343.36386104195844,16,3,Animal_Sea_Pattern_Large,,,,21.699701125035062,,,,,9,,,
memory,value_recall,344.41091600002255,347.45721470797434,17,3,Object_Land_Pattern_Small,,,,3.0431574169779196,,,,,6,,,
memory,value_recall,348.75608216703404,351.8173212920083,18,3,Animal_Sea_Solid_Large,,,,3.0570946669904515,,,,,-1,,,
memory,spatial_recall,357.4311305419542,360.62609150004573,18,3,Animal_Sea_Solid_Large,,,1,3.1925841249758378,,,,,,"[329, -190]","[329, -190]",
memory,spatial_recall,362.1864194580121,365.2417413330404,18,3,Object_Land_Solid_Small,,,1,3.0502025838941336,,,,,,"[-329, 190]","[-329, 190]",
memory,spatial_recall,366.5464524580166,368.3977973329602,18,3,Animal_Sea_Pattern_Large,,,1,1.846426000003703,,,,,,"[-329, -190]","[-329, -190]",
memory,spatial_recall,370.4543526250636,372.4087068750523,18,3,Animal_Sea_Pattern_Small,,,1,1.9502365830121562,,,,,,"[0, 380]","[0, 380]",
memory,spatial_recall,373.9654643329559,380.5316299999831,18,3,Object_Land_Pattern_Small,,,1,6.5621640420285985,,,,,,"[0, -380]","[0, -380]",
memory,spatial_recall,381.84015004197136,384.0656598750502,18,3,Object_Land_Solid_Large,,,1,2.217522249906324,,,,,,"[329, 189]","[329, 189]",
encoding,fixation,4.261357042007148,5.266679124906659,19,4,Object_Sea_Solid_Small,4,,,,,,,,,,,
encoding,image,5.266799666918814,6.2772797079524025,19,4,Object_Sea_Solid_Small,4,,,,,,,,,,,
encoding,value,6.2774094169726595,12.290064541972242,19,4,Object_Sea_Solid_Small,4,,,,,,,,,,,
encoding,attention,12.290178082999773,15.30947799992282,19,4,Object_Sea_Solid_Small,4,+4,1,1.0827038750285283,,,,,,,,
encoding,fixation,15.3096220419975,16.564672124921344,20,4,Animal_Land_Pattern_Large,6,,,,,,,,,,,
encoding,image,16.564773249905556,17.576070667011663,20,4,Animal_Land_Pattern_Large,6,,,,,,,,,,,
encoding,value,17.576187416911125,23.588530707987957,20,4,Animal_Land_Pattern_Large,6,,,,,,,,,,,
encoding,attention,23.58864420792088,26.60832883301191,20,4,Animal_Land_Pattern_Large,6,+6,1,0.688028416945599,,,,,,,,
encoding,fixation,26.608486042008735,27.613530125003308,21,4,Animal_Land_Solid_Small,1,,,,,,,,,,,
encoding,image,27.613645249977708,28.62411879200954,21,4,Animal_Land_Solid_Small,1,,,,,,,,,,,
encoding,value,28.624229082954116,34.63675166701432,21,4,Animal_Land_Solid_Small,1,,,,,,,,,,,
encoding,attention,34.63685270794667,37.654858249938115,21,4,Animal_Land_Solid_Small,1,+1,1,0.6571851670742035,,,,,,,,
encoding,fixation,37.654998957994394,39.15999462490436,22,4,Object_Sea_Pattern_Large,3,,,,,,,,,,,
encoding,image,39.16010770795401,40.17136874992866,22,4,Object_Sea_Pattern_Large,3,,,,,,,,,,,
encoding,value,40.17147412500344,46.186699291924015,22,4,Object_Sea_Pattern_Large,3,,,,,,,,,,,
encoding,attention,46.18681329197716,49.20389270794112,22,4,Object_Sea_Pattern_Large,3,+3,1,0.7957630839664489,,,,,,,,
encoding,fixation,49.204041499993764,50.70933295798022,23,4,Object_Sea_Solid_Large,-6,,,,,,,,,,,
encoding,image,50.709451625007205,51.72139412490651,23,4,Object_Sea_Solid_Large,-6,,,,,,,,,,,
encoding,value,51.72150841692928,57.73395995795727,23,4,Object_Sea_Solid_Large,-6,,,,,,,,,,,
encoding,attention,57.73407333297655,60.75211770797614,23,4,Object_Sea_Solid_Large,-6,-6,1,0.7015360840596259,,,,,,,,
encoding,fixation,60.75226766697597,62.00742162496317,24,4,Animal_Land_Pattern_Small,-8,,,,,,,,,,,
encoding,image,62.007527541951276,63.020381332957186,24,4,Animal_Land_Pattern_Small,-8,,,,,,,,,,,
encoding,value,63.020481167011894,69.03162333299406,24,4,Animal_Land_Pattern_Small,-8,,,,,,,,,,,
encoding,attention,69.03173824993428,72.04900820797775,24,4,Animal_Land_Pattern_Small,-8,-8,1,0.8129784160992131,,,,,,,,
n-back,,,,91,4,,,,0,None,B,True,None,,,,,
n-back,,,,92,4,,,,1,None,N,False,None,,,,,
n-back,,,,93,4,,,,1,None,X,False,None,,,,,
n-back,,,,94,4,,,,1,None,C,False,None,,,,,
n-back,,,,95,4,,,,1,0.8723115839529783,X,True,1,,,,,
n-back,,,,96,4,,,,1,None,V,False,None,,,,,
n-back,,,,97,4,,,,1,0.5195253749843687,X,True,1,,,,,
n-back,,,,98,4,,,,1,0.7647621249780059,V,True,1,,,,,
n-back,,,,99,4,,,,1,None,N,False,None,,,,,
n-back,,,,100,4,,,,1,None,Z,False,None,,,,,
n-back,,,,101,4,,,,1,None,Z,False,None,,,,,
n-back,,,,102,4,,,,1,None,N,False,None,,,,,
n-back,,,,103,4,,,,1,None,V,False,None,,,,,
n-back,,,,104,4,,,,1,0.5770998749649152,N,True,1,,,,,
n-back,,,,105,4,,,,1,None,X,False,None,,,,,
n-back,,,,106,4,,,,1,None,B,False,None,,,,,
n-back,,,,107,4,,,,1,0.6495577079476789,X,True,1,,,,,
n-back,,,,108,4,,,,1,None,Z,False,None,,,,,
n-back,,,,109,4,,,,1,None,C,False,None,,,,,
n-back,,,,110,4,,,,1,None,N,False,None,,,,,
n-back,,,,111,4,,,,1,None,B,False,None,,,,,
n-back,,,,112,4,,,,1,0.5043270420283079,N,True,1,,,,,
n-back,,,,113,4,,,,1,None,V,False,None,,,,,
n-back,,,,114,4,,,,1,0.85209012508858,N,True,1,,,,,
n-back,,,,115,4,,,,1,None,N,False,None,,,,,
n-back,,,,116,4,,,,1,None,C,False,None,,,,,
n-back,,,,117,4,,,,1,None,B,False,None,,,,,
n-back,,,,118,4,,,,1,0.5847196660470217,C,True,1,,,,,
n-back,,,,119,4,,,,1,None,Z,False,None,,,,,
n-back,,,,120,4,,,,1,0.5631119590252638,C,True,1,,,,,
choice,fixation,150.37589091691189,151.12924712500535,25,4,,,,,,,,,Large,,,,
choice,option,151.13754099991638,152.16291895799804,25,4,,,,,,,,,Large,,,,
choice,choice,152.16302637499757,181.95081645797472,25,4,,,1,1,28.77356995898299,,,,Large,,,,
choice,fixation,181.95093912491575,183.20607445796486,26,4,,,,,,,,,Pattern,,,,
choice,option,183.21567824995145,184.2425611249637,26,4,,,,,,,,,Pattern,,,,
choice,choice,184.2426683329977,188.02295412495732,26,4,,,1,1,2.7705440000863746,,,,Pattern,,,,
choice,fixation,188.02307916700374,189.2779906669166,27,4,,,,,,,,,Solid,,,,
choice,option,189.28748441697098,190.3135484579252,27,4,,,,,,,,,Solid,,,,
choice,choice,190.31374154193327,194.85746387497056,27,4,,,2,1,3.5316369580104947,,,,Solid,,,,
choice,fixation,194.8576178329531,195.86259162495844,28,4,,,,,,,,,Land,,,,
choice,option,195.87138199992478,196.89851354190614,28,4,,,,,,,,,Land,,,,
choice,choice,196.8986518329475,201.05658908293117,28,4,,,1,0,3.1471643750555813,,,,Land,,,,
choice,fixation,201.05671479192097,202.31167012499645,29,4,,,,,,,,,Animal,,,,
choice,option,202.32116479193792,203.34807854192331,29,4,,,,,,,,,Animal,,,,
choice,choice,203.3482434579637,213.84771866700612,29,4,,,2,1,9.487655790988356,,,,Animal,,,,
choice,fixation,213.8479012500029,215.1030844579218,30,4,,,,,,,,,Small,,,,
choice,option,215.11221316701267,216.13910562498495,30,4,,,,,,,,,Small,,,,
choice,choice,216.13923016691115,222.5592003329657,30,4,,,2,1,5.4099100419553,,,,Small,,,,
choice,fixation,222.5593177919509,224.06483858299907,31,4,,,,,,,,,Sea,,,,
choice,option,224.07328804198187,225.09961833292618,31,4,,,,,,,,,Sea,,,,
choice,choice,225.0997187079629,230.73613799992017,31,4,,,2,0,4.626984874950722,,,,Sea,,,,
choice,fixation,230.7362626249669,231.74122091697063,32,4,,,,,,,,,Object,,,,
choice,option,231.75098316697404,232.7767932919087,32,4,,,,,,,,,Object,,,,
choice,choice,232.77691083296668,243.43232129199896,32,4,,,2,0,9.644636834040284,,,,Object,,,,
memory,free_recall,254.30410954193212,293.9452882920159,18,4,,,,,,,,,,,,,
memory,value_recall,300.82668904191814,319.4343033329351,19,4,Object_Sea_Solid_Large,,,,18.60322970803827,,,,,-6,,,
memory,value_recall,321.4803250419209,323.32191674993373,20,4,Animal_Land_Pattern_Small,,,,1.8366779159987345,,,,,-8,,,
memory,value_recall,324.8670207919786,328.4019377079094,21,4,Object_Sea_Solid_Small,,,,3.5308196659898385,,,,,4,,,
memory,value_recall,329.6961894169217,332.388053416973,22,4,Animal_Land_Pattern_Large,,,,2.685484000016004,,,,,6,,,
memory,value_recall,333.93691462499555,335.9939104169607,23,4,Object_Sea_Pattern_Large,,,,2.052879541995935,,,,,3,,,
memory,value_recall,337.78899945796,340.56231900001876,24,4,Animal_Land_Solid_Small,,,,2.7685680839931592,,,,,1,,,
memory,spatial_recall,345.0233147079125,349.58685587497894,24,4,Object_Sea_Solid_Large,,,1,4.559411333990283,,,,,,"[-329, 190]","[-329, 190]",
memory,spatial_recall,351.64683079195675,355.05309312499594,24,4,Object_Sea_Pattern_Large,,,1,3.3995866250479594,,,,,,"[329, -190]","[329, -190]",
memory,spatial_recall,356.60750129201915,366.9884632920148,24,4,Animal_Land_Solid_Small,,,1,10.376993667101488,,,,,,"[-329, -190]","[-329, -190]",
memory,spatial_recall,369.0435175829334,371.2205940419808,24,4,Animal_Land_Pattern_Large,,,1,2.172977708047256,,,,,,"[0, -380]","[0, -380]",
memory,spatial_recall,373.2725850419374,375.60538183292374,24,4,Object_Sea_Solid_Small,,,1,2.328922583023086,,,,,,"[0, 380]","[0, 380]",
memory,spatial_recall,376.6657200419577,381.02199649997056,24,4,Animal_Land_Pattern_Small,,,1,4.353909916942939,,,,,,"[329, 189]","[329, 189]",
encoding,fixation,5.441008541965857,6.947563291992992,25,5,Animal_Sea_Solid_Small,-6,,,,,,,,,,,
encoding,image,6.947673916933127,7.95934895798564,25,5,Animal_Sea_Solid_Small,-6,,,,,,,,,,,
encoding,value,7.95946704200469,13.973400666960515,25,5,Animal_Sea_Solid_Small,-6,,,,,,,,,,,
encoding,attention,13.973532499978319,16.99085916695185,25,5,Animal_Sea_Solid_Small,-6,-6,1,0.6321692919591442,,,,,,,,
encoding,fixation,16.99100679194089,17.99629058293067,26,5,Object_Land_Solid_Small,-6,,,,,,,,,,,
encoding,image,17.996400833013467,19.00759733293671,26,5,Object_Land_Solid_Small,-6,,,,,,,,,,,
encoding,value,19.007708917022683,25.019246625015512,26,5,Object_Land_Solid_Small,-6,,,,,,,,,,,
encoding,attention,25.019359417026863,28.036717333015986,26,5,Object_Land_Solid_Small,-6,-6,1,0.5751702080015093,,,,,,,,
encoding,fixation,28.0368610000005,28.542135957977735,27,5,Animal_Sea_Pattern_Large,-1,,,,,,,,,,,
encoding,image,28.542250541970134,29.553791207959875,27,5,Animal_Sea_Pattern_Large,-1,,,,,,,,,,,
encoding,value,29.5539228329435,35.56618745799642,27,5,Animal_Sea_Pattern_Large,-1,,,,,,,,,,,
encoding,attention,35.56629491702188,38.583874207921326,27,5,Animal_Sea_Pattern_Large,-1,-1,1,0.7801479160552844,,,,,,,,
encoding,fixation,38.58402466692496,39.089369541965425,28,5,Animal_Land_Solid_Large,9,,,,,,,,,,,
encoding,image,39.08947995794006,40.10321504191961,28,5,Animal_Land_Solid_Large,9,,,,,,,,,,,
encoding,value,40.10334754199721,46.115992249920964,28,5,Animal_Land_Solid_Large,9,,,,,,,,,,,
encoding,attention,46.11611099995207,49.13415241695475,28,5,Animal_Land_Solid_Large,9,+9,1,0.6079824159387499,,,,,,,,
encoding,fixation,49.13429408299271,50.63941399997566,29,5,Object_Sea_Pattern_Small,8,,,,,,,,,,,
encoding,image,50.639514999929816,51.65367012494244,29,5,Object_Sea_Pattern_Small,8,,,,,,,,,,,
encoding,value,51.653778999927454,57.664968207944185,29,5,Object_Sea_Pattern_Small,8,,,,,,,,,,,
encoding,attention,57.66510429198388,60.68209224997554,29,5,Object_Sea_Pattern_Small,8,+8,1,0.930173416971229,,,,,,,,
encoding,fixation,60.68223037500866,61.187528042006306,30,5,Object_Land_Pattern_Large,-6,,,,,,,,,,,
encoding,image,61.18769920791965,62.19924579199869,30,5,Object_Land_Pattern_Large,-6,,,,,,,,,,,
encoding,value,62.19935158302542,68.21157995797694,30,5,Object_Land_Pattern_Large,-6,,,,,,,,,,,
encoding,attention,68.21168591699097,71.22951999993529,30,5,Object_Land_Pattern_Large,-6,-6,1,0.7681844580220059,,,,,,,,
n-back,,,,121,5,,,,0,None,Z,True,None,,,,,
n-back,,,,122,5,,,,0,None,C,True,None,,,,,
n-back,,,,123,5,,,,1,None,X,False,None,,,,,
n-back,,,,124,5,,,,1,None,V,False,None,,,,,
n-back,,,,125,5,,,,1,0.37385483307298273,X,True,1,,,,,
n-back,,,,126,5,,,,1,None,B,False,None,,,,,
n-back,,,,127,5,,,,1,None,C,False,None,,,,,
n-back,,,,128,5,,,,1,None,N,False,None,,,,,
n-back,,,,129,5,,,,1,None,B,False,None,,,,,
n-back,,,,130,5,,,,1,None,V,False,None,,,,,
n-back,,,,131,5,,,,1,None,C,False,None,,,,,
n-back,,,,132,5,,,,1,0.6052041669609025,V,True,1,,,,,
n-back,,,,133,5,,,,1,None,V,False,None,,,,,
n-back,,,,134,5,,,,1,None,C,False,None,,,,,
n-back,,,,135,5,,,,1,None,C,False,None,,,,,
n-back,,,,136,5,,,,1,None,B,False,None,,,,,
n-back,,,,137,5,,,,1,None,Z,False,None,,,,,
n-back,,,,138,5,,,,1,None,X,False,None,,,,,
n-back,,,,139,5,,,,1,0.4769753330620006,Z,True,1,,,,,
n-back,,,,140,5,,,,1,None,Z,False,None,,,,,
n-back,,,,141,5,,,,1,None,N,False,None,,,,,
n-back,,,,142,5,,,,1,0.6266506670508534,Z,True,1,,,,,
n-back,,,,143,5,,,,1,0.7883850419893861,N,True,1,,,,,
n-back,,,,144,5,,,,1,0.5568306670757011,Z,True,1,,,,,
n-back,,,,145,5,,,,1,None,B,False,None,,,,,
n-back,,,,146,5,,,,1,0.49114595795981586,Z,True,1,,,,,
n-back,,,,147,5,,,,1,0.6833078330382705,B,True,1,,,,,
n-back,,,,148,5,,,,1,None,N,False,None,,,,,
n-back,,,,149,5,,,,1,None,V,False,None,,,,,
n-back,,,,150,5,,,,1,None,B,False,None,,,,,
choice,fixation,138.3801800420042,139.1345327500021,33,5,,,,,,,,,Object,,,,
choice,option,139.14367404195946,140.16949516697787,33,5,,,,,,,,,Object,,,,
choice,choice,140.16959599999245,159.40879291691817,33,5,,,1,0,18.228023041971028,,,,Object,,,,
choice,fixation,159.40891479200218,159.91388975002337,34,5,,,,,,,,,Pattern,,,,
choice,option,159.9228812919464,160.94999020802788,34,5,,,,,,,,,Pattern,,,,
choice,choice,160.9501019170275,167.9816230830038,34,5,,,1,1,6.021959332982078,,,,Pattern,,,,
choice,fixation,167.98175274999812,169.2369639580138,35,5,,,,,,,,,Sea,,,,
choice,option,169.24532387498766,170.27250025002286,35,5,,,,,,,,,Sea,,,,
choice,choice,170.272615749971,180.69294504192658,35,5,,,2,0,9.408670707955025,,,,Sea,,,,
choice,fixation,180.6930607079994,181.4485322079854,36,5,,,,,,,,,Land,,,,
choice,option,181.45706449996214,182.48573962494265,36,5,,,,,,,,,Land,,,,
choice,choice,182.48584741691593,190.82388437492773,36,5,,,1,0,7.327896790928207,,,,Land,,,,
choice,fixation,190.824017292005,191.3293467919575,37,5,,,,,,,,,Large,,,,
choice,option,191.33880874991883,192.36498224991374,37,5,,,,,,,,,Large,,,,
choice,choice,192.36508575000335,202.37663816695567,37,5,,,1,1,9.00127591600176,,,,Large,,,,
choice,fixation,202.37675187492277,203.3817500419682,38,5,,,,,,,,,Solid,,,,
choice,option,203.39129312499426,204.4193786670221,38,5,,,,,,,,,Solid,,,,
choice,choice,204.41953795799054,209.376296582981,38,5,,,2,1,3.9470049580559134,,,,Solid,,,,
choice,fixation,209.3764101669658,210.63140579196624,39,5,,,,,,,,,Animal,,,,
choice,option,210.64107637491543,211.66748829197604,39,5,,,,,,,,,Animal,,,,
choice,choice,211.66760870802682,219.6388893330004,39,5,,,1,1,6.961071584024467,,,,Animal,,,,
choice,fixation,219.6390092499787,220.89430399995763,40,5,,,,,,,,,Small,,,,
choice,option,220.90318916691467,221.929534416995,40,5,,,,,,,,,Small,,,,
choice,choice,221.92963929194957,225.36567545798607,40,5,,,2,1,2.4253817909630015,,,,Small,,,,
memory,free_recall,237.36001483292785,273.3350184999872,24,5,,,,,,,,,,,,,
memory,value_recall,278.60992174991407,294.39077733294107,25,5,Animal_Sea_Pattern_Large,,,,15.776734707993455,,,,,-1,,,
memory,value_recall,296.4375590829877,299.8998745420249,26,5,Animal_Land_Solid_Large,,,,3.4582983340369537,,,,,9,,,
memory,value_recall,301.44443520798814,303.82312870793976,27,5,Object_Land_Solid_Small,,,,2.374431874952279,,,,,-6,,,
memory,value_recall,305.11971925001126,306.52832408295944,28,5,Object_Sea_Pattern_Small,,,,1.4042334159603342,,,,,8,,,
memory,value_recall,307.5724390830146,310.9130595419556,29,5,Object_Land_Pattern_Large,,,,3.338054000050761,,,,,-6,,,
memory,value_recall,312.7084406670183,318.61725816701073,30,5,Animal_Sea_Solid_Small,,,,5.904645333066583,,,,,-6,,,
memory,spatial_recall,322.64864420797676,326.947611666983,30,5,Object_Land_Solid_Small,,,1,4.294994374969974,,,,,,"[-329, 190]","[-329, 190]",
memory,spatial_recall,329.0064040420111,331.70433337497525,30,5,Object_Sea_Pattern_Small,,,1,2.694040875067003,,,,,,"[0, -380]","[0, -380]",
memory,spatial_recall,332.76724112499505,335.31669316696934,30,5,Object_Land_Pattern_Large,,,1,2.5470383749343455,,,,,,"[329, -190]","[329, -190]",
memory,spatial_recall,336.6190344579518,339.83540708292276,30,5,Animal_Sea_Pattern_Large,,,1,3.212403165991418,,,,,,"[-329, -190]","[-329, -190]",
memory,spatial_recall,340.8925577499904,344.9460641669575,30,5,Animal_Land_Solid_Large,,,1,4.050987083930522,,,,,,"[0, 380]","[0, 380]",
memory,spatial_recall,346.0041195419617,347.77174070791807,30,5,Animal_Sea_Solid_Small,,,1,1.7652161669684574,,,,,,"[329, 189]","[329, 189]",
encoding,fixation,3.6876407500822097,5.194391958066262,31,6,Animal_Sea_Solid_Large,8,,,,,,,,,,,
encoding,image,5.194500082987361,6.207365708076395,31,6,Animal_Sea_Solid_Large,8,,,,,,,,,,,
encoding,value,6.207479999982752,12.221435207989998,31,6,Animal_Sea_Solid_Large,8,,,,,,,,,,,
encoding,attention,12.221542083076201,15.241058791056275,31,6,Animal_Sea_Solid_Large,8,+8,1,1.0879762500990182,,,,,,,,
encoding,fixation,15.24128791608382,16.24654883297626,32,6,Object_Land_Solid_Large,-8,,,,,,,,,,,
encoding,image,16.246654625050724,17.256819874979556,32,6,Object_Land_Solid_Large,-8,,,,,,,,,,,
encoding,value,17.25692475005053,23.26986579108052,32,6,Object_Land_Solid_Large,-8,,,,,,,,,,,
encoding,attention,23.269974833005108,26.286504707997665,32,6,Object_Land_Solid_Large,-8,-8,1,1.0751472500851378,,,,,,,,
encoding,fixation,26.28671570797451,27.791973666055128,33,6,Animal_Sea_Pattern_Small,-1,,,,,,,,,,,
encoding,image,27.792098375037313,28.80361704097595,33,6,Animal_Sea_Pattern_Small,-1,,,,,,,,,,,
encoding,value,28.80372504098341,34.81585445802193,33,6,Animal_Sea_Pattern_Small,-1,,,,,,,,,,,
encoding,attention,34.81596862501465,37.83409312507138,33,6,Animal_Sea_Pattern_Small,-1,-1,1,0.9046798750059679,,,,,,,,
encoding,fixation,37.834310416015796,38.58956716605462,34,6,Object_Land_Solid_Small,-3,,,,,,,,,,,
encoding,image,38.589684125036,39.60363279108424,34,6,Object_Land_Solid_Small,-3,,,,,,,,,,,
encoding,value,39.6037357080495,45.616466833045706,34,6,Object_Land_Solid_Small,-3,,,,,,,,,,,
encoding,attention,45.61663549998775,48.63583749998361,34,6,Object_Land_Solid_Small,-3,-3,1,1.4478292500134557,,,,,,,,
encoding,fixation,48.63598650007043,49.89188016601838,35,6,Object_Land_Pattern_Small,8,,,,,,,,,,,
encoding,image,49.891980207990855,50.90367187501397,35,6,Object_Land_Pattern_Small,8,,,,,,,,,,,
encoding,value,50.90378795808647,56.91516770806629,35,6,Object_Land_Pattern_Small,8,,,,,,,,,,,
encoding,attention,56.91529862501193,59.93396241602022,35,6,Object_Land_Pattern_Small,8,+8,1,0.6824702090816572,,,,,,,,
encoding,fixation,59.93411166605074,61.43943712499458,36,6,Animal_Sea_Pattern_Large,-3,,,,,,,,,,,
encoding,image,61.43953862506896,62.44963683304377,36,6,Animal_Sea_Pattern_Large,-3,,,,,,,,,,,
encoding,value,62.44974700000603,68.46037225006148,36,6,Animal_Sea_Pattern_Large,-3,,,,,,,,,,,
encoding,attention,68.46053058304824,71.47698250005487,36,6,Animal_Sea_Pattern_Large,-3,-3,1,0.8308387920260429,,,,,,,,
n-back,,,,151,6,,,,1,None,X,False,None,,,,,
n-back,,,,152,6,,,,0,None,X,True,None,,,,,
n-back,,,,153,6,,,,1,0.4734817499993369,X,True,1,,,,,
n-back,,,,154,6,,,,1,0.9269601660780609,X,True,1,,,,,
n-back,,,,155,6,,,,1,0.4524595830589533,X,True,1,,,,,
n-back,,,,156,6,,,,1,0.44368420797400177,X,True,1,,,,,
n-back,,,,157,6,,,,1,None,V,False,None,,,,,
n-back,,,,158,6,,,,1,None,V,False,None,,,,,
n-back,,,,159,6,,,,1,None,B,False,None,,,,,
n-back,,,,160,6,,,,1,None,N,False,None,,,,,
n-back,,,,161,6,,,,1,0.6244480840396136,B,True,1,,,,,
n-back,,,,162,6,,,,1,None,Z,False,None,,,,,
n-back,,,,163,6,,,,1,None,Z,False,None,,,,,
n-back,,,,164,6,,,,1,0.4089059589896351,Z,True,1,,,,,
n-back,,,,165,6,,,,1,None,C,False,None,,,,,
n-back,,,,166,6,,,,1,0.61407816701103,Z,True,1,,,,,
n-back,,,,167,6,,,,1,None,V,False,None,,,,,
n-back,,,,168,6,,,,1,None,B,False,None,,,,,
n-back,,,,169,6,,,,1,None,C,False,None,,,,,
n-back,,,,170,6,,,,1,None,N,False,None,,,,,
n-back,,,,171,6,,,,1,None,B,False,None,,,,,
n-back,,,,172,6,,,,1,None,C,False,None,,,,,
n-back,,,,173,6,,,,1,0.6087611659895629,B,True,1,,,,,
n-back,,,,174,6,,,,1,None,B,False,None,,,,,
n-back,,,,175,6,,,,1,None,C,False,None,,,,,
n-back,,,,176,6,,,,1,None,Z,False,None,,,,,
n-back,,,,177,6,,,,1,None,Z,False,None,,,,,
n-back,,,,178,6,,,,1,0.472845625015907,Z,True,1,,,,,
n-back,,,,179,6,,,,1,None,B,False,None,,,,,
n-back,,,,180,6,,,,1,None,N,False,None,,,,,
choice,fixation,136.7100445830729,137.21427112503443,41,6,,,,,,,,,Sea,,,,
choice,option,137.22276929102372,138.25190229108557,41,6,,,,,,,,,Sea,,,,
choice,choice,138.2520220830338,155.73825000005309,41,6,,,1,1,16.47480516601354,,,,Sea,,,,
choice,fixation,155.7383809160674,156.49381083308253,42,6,,,,,,,,,Large,,,,
choice,option,156.5029292909894,157.5301007500384,42,6,,,,,,,,,Large,,,,
choice,choice,157.53021941601764,167.08258200006094,42,6,,,1,0,8.541128208045848,,,,Large,,,,
choice,fixation,167.08271558303386,168.08748112502508,43,6,,,,,,,,,Solid,,,,
choice,option,168.09766087506432,169.12402116600424,43,6,,,,,,,,,Solid,,,,
choice,choice,169.12413766607642,183.8599408750888,43,6,,,1,0,13.724206582992338,,,,Solid,,,,
choice,fixation,183.86006291606463,184.36544175003655,44,6,,,,,,,,,Object,,,,
choice,option,184.37570225005038,185.40290833299514,44,6,,,,,,,,,Object,,,,
choice,choice,185.40302125003655,191.02694075007457,44,6,,,2,1,4.61408308299724,,,,Object,,,,
choice,fixation,191.02708691603038,192.28245300007984,45,6,,,,,,,,,Pattern,,,,
choice,option,192.29225300007965,193.31877383298706,45,6,,,,,,,,,Pattern,,,,
choice,choice,193.3188882500399,201.6195928750094,45,6,,,2,0,7.289650916005485,,,,Pattern,,,,
choice,fixation,201.61971279105637,202.3746549159987,46,6,,,,,,,,,Animal,,,,
choice,option,202.38495683297515,203.41287220804952,46,6,,,,,,,,,Animal,,,,
choice,choice,203.41299633297604,207.0805681250058,46,6,,,1,1,2.6561459579970688,,,,Animal,,,,
choice,fixation,207.08069016598165,207.58609820797574,47,6,,,,,,,,,Land,,,,
choice,option,207.59495233302005,208.6213984580245,47,6,,,,,,,,,Land,,,,
choice,choice,208.62158483301755,213.5458012080053,47,6,,,2,1,3.9138966250466183,,,,Land,,,,
choice,fixation,213.54592675005551,214.05274783307686,48,6,,,,,,,,,Small,,,,
choice,option,214.06212495802902,215.08863200002816,48,6,,,,,,,,,Small,,,,
choice,choice,215.08873533306178,217.76957533298992,48,6,,,2,0,1.6702509999740869,,,,Small,,,,
memory,free_recall,226.9830702909967,265.979455875,30,6,,,,,,,,,,,,,
memory,value_recall,269.94879200006835,279.5851295830216,31,6,Animal_Sea_Solid_Large,,,,9.631920207990333,,,,,8,,,
memory,value_recall,281.1312203750713,284.94007066602353,32,6,Object_Land_Pattern_Small,,,,3.804608041071333,,,,,8,,,
memory,value_recall,285.98694112501107,288.9175261249766,33,6,Object_Land_Solid_Small,,,,2.9272653749212623,,,,,-3,,,
memory,value_recall,290.21256745804567,295.0857395409839,34,6,Animal_Sea_Pattern_Large,,,,4.868905417039059,,,,,-3,,,
memory,value_recall,296.1310042500263,298.3336824160069,35,6,Object_Land_Solid_Large,,,,2.1980472090654075,,,,,-8,,,
memory,value_recall,300.3794056250481,302.43633033300284,36,6,Animal_Sea_Pattern_Small,,,,2.051102750003338,,,,,-1,,,
memory,spatial_recall,306.9380881250836,315.83326887502335,36,6,Animal_Sea_Solid_Large,,,1,8.891142582986504,,,,,,"[329, -190]","[329, -190]",
memory,spatial_recall,316.89271975005977,318.7963610830484,36,6,Object_Land_Pattern_Small,,,1,1.9010191659908742,,,,,,"[0, -380]","[0, -380]",
memory,spatial_recall,319.85223183303606,324.0811833330663,36,6,Animal_Sea_Pattern_Large,,,1,4.226572124985978,,,,,,"[-329, -190]","[-329, -190]",
memory,spatial_recall,325.3865507909795,326.96325983304996,36,6,Animal_Sea_Pattern_Small,,,1,1.5726633749436587,,,,,,"[0, 380]","[0, 380]",
memory,spatial_recall,328.0105006659869,329.997058790992,36,6,Object_Land_Solid_Small,,,1,1.9842540409881622,,,,,,"[-329, 190]","[-329, 190]",
memory,spatial_recall,331.802776208031,333.5332548749866,36,6,Object_Land_Solid_Large,,,1,1.726317249936983,,,,,,"[329, 189]","[329, 189]",
encoding,fixation,3.0826855420600623,4.5877295000245795,37,7,Object_Sea_Solid_Small,2,,,,,,,,,,,
encoding,image,4.587856792029925,5.600436666980386,37,7,Object_Sea_Solid_Small,2,,,,,,,,,,,
encoding,value,5.600546042085625,11.613979708054103,37,7,Object_Sea_Solid_Small,2,,,,,,,,,,,
encoding,attention,11.614101708051749,14.631125417072326,37,7,Object_Sea_Solid_Small,2,+2,1,0.8409949160413817,,,,,,,,
encoding,fixation,14.63127895805519,15.386238957988098,38,7,Object_Sea_Solid_Large,-6,,,,,,,,,,,
encoding,image,15.3863521249732,16.397995583014563,38,7,Object_Sea_Solid_Large,-6,,,,,,,,,,,
encoding,value,16.398108332999982,22.41055425000377,38,7,Object_Sea_Solid_Large,-6,,,,,,,,,,,
encoding,attention,22.41068874998018,25.429602958029136,38,7,Object_Sea_Solid_Large,-6,-6,1,0.5090150829637423,,,,,,,,
encoding,fixation,25.429748542024754,25.934832000057213,39,7,Animal_Land_Solid_Small,1,,,,,,,,,,,
encoding,image,25.935017750016414,26.947315583005548,39,7,Animal_Land_Solid_Small,1,,,,,,,,,,,
encoding,value,26.947418500087224,32.95994933298789,39,7,Animal_Land_Solid_Small,1,,,,,,,,,,,
encoding,attention,32.960078875068575,35.97707820800133,39,7,Animal_Land_Solid_Small,1,+1,1,0.5937382089905441,,,,,,,,
encoding,fixation,35.977225583046675,37.232415208010934,40,7,Object_Sea_Pattern_Large,1,,,,,,,,,,,
encoding,image,37.232557917013764,38.243230874999426,40,7,Object_Sea_Pattern_Large,1,,,,,,,,,,,
encoding,value,38.24333862506319,44.254610958043486,40,7,Object_Sea_Pattern_Large,1,,,,,,,,,,,
encoding,attention,44.25473333301488,47.35268625000026,40,7,Object_Sea_Pattern_Large,1,+1,1,0.6496321669546887,,,,,,,,
encoding,fixation,47.35287800000515,47.85851366701536,41,7,Animal_Land_Pattern_Large,6,,,,,,,,,,,
encoding,image,47.858606833033264,48.86955983308144,41,7,Animal_Land_Pattern_Large,6,,,,,,,,,,,
encoding,value,48.869667583028786,54.880920667084865,41,7,Animal_Land_Pattern_Large,6,,,,,,,,,,,
encoding,attention,54.88102508301381,57.89790883299429,41,7,Animal_Land_Pattern_Large,6,+6,1,0.7625362089602277,,,,,,,,
encoding,fixation,57.898086500004865,59.15377812506631,42,7,Animal_Land_Pattern_Small,-9,,,,,,,,,,,
encoding,image,59.15390379203018,60.16500779206399,42,7,Animal_Land_Pattern_Small,-9,,,,,,,,,,,
encoding,value,60.165110250003636,66.1760564170545,42,7,Animal_Land_Pattern_Small,-9,,,,,,,,,,,
encoding,attention,66.17628870799672,69.19472929206677,42,7,Animal_Land_Pattern_Small,-9,-9,1,0.5856587080052122,,,,,,,,
n-back,,,,181,7,,,,1,None,C,False,None,,,,,
n-back,,,,182,7,,,,1,None,Z,False,None,,,,,
n-back,,,,183,7,,,,1,None,Z,False,None,,,,,
n-back,,,,184,7,,,,1,None,C,False,None,,,,,
n-back,,,,185,7,,,,1,None,X,False,None,,,,,
n-back,,,,186,7,,,,1,None,X,False,None,,,,,
n-back,,,,187,7,,,,1,None,Z,False,None,,,,,
n-back,,,,188,7,,,,1,0.47323562495876104,X,True,1,,,,,
n-back,,,,189,7,,,,1,0.7421442919876426,Z,True,1,,,,,
n-back,,,,190,7,,,,1,None,V,False,None,,,,,
n-back,,,,191,7,,,,1,None,B,False,None,,,,,
n-back,,,,192,7,,,,1,None,C,False,None,,,,,
n-back,,,,193,7,,,,1,None,X,False,None,,,,,
n-back,,,,194,7,,,,1,None,B,False,None,,,,,
n-back,,,,195,7,,,,1,None,C,False,None,,,,,
n-back,,,,196,7,,,,1,0.545638250070624,B,True,1,,,,,
n-back,,,,197,7,,,,1,None,Z,False,None,,,,,
n-back,,,,198,7,,,,1,None,Z,False,None,,,,,
n-back,,,,199,7,,,,1,0.40209620899986476,Z,True,1,,,,,
n-back,,,,200,7,,,,1,0.7502245410578325,Z,True,1,,,,,
n-back,,,,201,7,,,,1,None,V,False,None,,,,,
n-back,,,,202,7,,,,1,None,X,False,None,,,,,
n-back,,,,203,7,,,,1,0.6899800830287859,V,True,1,,,,,
n-back,,,,204,7,,,,1,None,N,False,None,,,,,
n-back,,,,205,7,,,,1,0.7309397909557447,V,True,1,,,,,
n-back,,,,206,7,,,,1,None,B,False,None,,,,,
n-back,,,,207,7,,,,1,0.577735083992593,V,True,1,,,,,
n-back,,,,208,7,,,,1,None,Z,False,None,,,,,
n-back,,,,209,7,,,,1,0.7161262079607695,V,True,1,,,,,
n-back,,,,210,7,,,,1,1.2921234159730375,Z,True,1,,,,,
choice,fixation,137.69698716700077,138.4505580830155,49,7,,,,,,,,,Sea,,,,
choice,option,138.45867075002752,139.48483587498777,49,7,,,,,,,,,Sea,,,,
choice,choice,139.48498383304104,150.52649379207287,49,7,,,1,0,10.030755958054215,,,,Sea,,,,
choice,fixation,150.52669062500354,151.53084437502548,50,7,,,,,,,,,Small,,,,
choice,option,151.54013954207767,152.56605250004213,50,7,,,,,,,,,Small,,,,
choice,choice,152.5661807920551,163.09145354200155,50,7,,,2,1,9.514974042074755,,,,Small,,,,
choice,fixation,163.09158341703005,164.09800679201726,51,7,,,,,,,,,Pattern,,,,
choice,option,164.10755491699092,165.13395841699094,51,7,,,,,,,,,Pattern,,,,
choice,choice,165.13406183302868,172.95539366698358,51,7,,,2,1,6.811201125034131,,,,Pattern,,,,
choice,fixation,172.95553695806302,174.46064441697672,52,7,,,,,,,,,Solid,,,,
choice,option,174.4700794169912,175.4984226670349,52,7,,,,,,,,,Solid,,,,
choice,choice,175.498527458054,188.3437463750597,52,7,,,2,1,11.832757167052478,,,,Solid,,,,
choice,fixation,188.34391125000548,189.84899154200684,53,7,,,,,,,,,Land,,,,
choice,option,189.85829258302692,190.88611016701907,53,7,,,,,,,,,Land,,,,
choice,choice,190.88621925003827,196.16459229204338,53,7,,,2,1,4.266608875012025,,,,Land,,,,
choice,fixation,196.16471849998925,196.66971333301626,54,7,,,,,,,,,Large,,,,
choice,option,196.67837687500287,197.70421791705303,54,7,,,,,,,,,Large,,,,
choice,choice,197.7043385830475,199.2604556250153,54,7,,,1,1,0.5457511669956148,,,,Large,,,,
choice,fixation,199.2606316250749,200.01592741708737,55,7,,,,,,,,,Object,,,,
choice,option,200.02554912504274,201.0515846250346,55,7,,,,,,,,,Object,,,,
choice,choice,201.0516961250687,203.93474179203622,55,7,,,2,1,1.8734107919735834,,,,Object,,,,
choice,fixation,203.9348592919996,204.43980687507428,56,7,,,,,,,,,Animal,,,,
choice,option,204.4495149999857,205.47641212504823,56,7,,,,,,,,,Animal,,,,
choice,choice,205.47651770804077,210.33425312500913,56,7,,,1,0,3.8474857500987127,,,,Animal,,,,
memory,free_recall,215.56722966697998,258.9133797920076,36,7,,,,,,,,,,,,,
memory,value_recall,262.76996129204053,265.2394508330617,37,7,Animal_Land_Pattern_Large,,,,2.4648705419385806,,,,,6,,,
memory,value_recall,266.2849102920154,270.9336994580226,38,7,Animal_Land_Solid_Small,,,,4.645559084019624,,,,,1,,,
memory,value_recall,272.4815921250265,275.06329458300024,39,7,Object_Sea_Solid_Small,,,,2.5776032500434667,,,,,2,,,
memory,value_recall,276.3605515420204,283.35850787500385,40,7,Object_Sea_Pattern_Large,,,,6.992954957997426,,,,,1,,,
memory,value_recall,285.15490716707427,286.95734504202846,41,7,Animal_Land_Pattern_Small,,,,1.7983282499480993,,,,,-9,,,
memory,value_recall,288.50423379207496,293.0635725420434,42,7,Object_Sea_Solid_Large,,,,4.55483766598627,,,,,-6,,,
memory,spatial_recall,296.7021046250593,298.7909345830558,42,7,Object_Sea_Solid_Large,,,1,2.084620250039734,,,,,,"[-329, 190]","[-329, 190]",
memory,spatial_recall,300.34713474998716,303.2609404580435,42,7,Object_Sea_Pattern_Large,,,1,2.909616917022504,,,,,,"[329, -190]","[329, -190]",
memory,spatial_recall,305.3159466669895,309.5325639999937,42,7,Animal_Land_Solid_Small,,,1,4.212426249985583,,,,,,"[-329, -190]","[-329, -190]",
memory,spatial_recall,311.3373607919784,315.5077750830678,42,7,Animal_Land_Pattern_Small,,,1,4.166104417061433,,,,,,"[329, 189]","[329, 189]",
memory,spatial_recall,317.3148793330183,322.5319286250742,42,7,Animal_Land_Pattern_Large,,,1,5.2131794589804485,,,,,,"[0, -380]","[0, -380]",
memory,spatial_recall,324.0838830419816,325.9113374170847,42,7,Object_Sea_Solid_Small,,,1,1.8236593749606982,,,,,,"[0, 380]","[0, 380]",
