subject,phase,event,trial_number,game,option,choice,rt,roi_content,item_index,is_center,is_relevant,fix_start,fix_end,fix_duration_bounded
141,choice,choice,1,1.0,Small,1.0,2.979823708068579,fixation,-1,1,0,24322480.0,24324259.0,1779.0
141,choice,choice,2,1.0,Object,1.0,9.028853124938903,fixation,-1,1,0,24328369.0,24328900.0,531.0
141,choice,choice,2,1.0,Object,1.0,9.028853124938903,Object_Sea_Solid_Small,0,0,1,24329931.0,24330361.0,430.0
141,choice,choice,2,1.0,Object,1.0,9.028853124938903,Animal_Land_Solid_Small,1,0,0,24330382.0,24330590.0,208.0
141,choice,choice,2,1.0,Object,1.0,9.028853124938903,fixation,-1,1,0,24330608.0,24331239.0,631.0
141,choice,choice,2,1.0,Object,1.0,9.028853124938903,Animal_Land_Pattern_Large,2,0,0,24331508.0,24332288.0,780.0
141,choice,choice,2,1.0,Object,1.0,9.028853124938903,Animal_Land_Solid_Small,1,0,0,24332325.0,24332546.0,221.0
141,choice,choice,2,1.0,Object,1.0,9.028853124938903,Animal_Land_Pattern_Large,2,0,0,24332571.0,24332886.0,315.0
141,choice,choice,2,1.0,Object,1.0,9.028853124938903,fixation,-1,1,0,24333090.0,24333774.0,684.0
141,choice,choice,2,1.0,Object,1.0,9.028853124938903,Object_Sea_Solid_Small,0,0,1,24333812.0,24334393.0,581.0
141,choice,choice,2,1.0,Object,1.0,9.028853124938903,fixation,-1,1,0,24334640.0,24335012.0,372.0
141,choice,choice,2,1.0,Object,1.0,9.028853124938903,Animal_Land_Pattern_Small,3,0,0,24335033.0,24335225.0,192.0
141,choice,choice,2,1.0,Object,1.0,9.028853124938903,Object_Sea_Solid_Small,0,0,1,24335436.0,24336737.0,1301.0
141,choice,choice,2,1.0,Object,1.0,9.028853124938903,fixation,-1,1,0,24336993.0,24337098.0,105.0
141,choice,choice,3,1.0,Large,2.0,2.9700518749887124,Animal_Land_Solid_Small,1,0,0,24340257.0,24340643.0,386.0
141,choice,choice,3,1.0,Large,2.0,2.9700518749887124,Object_Sea_Solid_Large,4,0,1,24340898.0,24341473.0,575.0
141,choice,choice,3,1.0,Large,2.0,2.9700518749887124,Object_Sea_Pattern_Large,5,0,1,24341497.0,24341691.0,194.0
141,choice,choice,3,1.0,Large,2.0,2.9700518749887124,fixation,-1,1,0,24341706.0,24342628.0,922.0
141,choice,choice,4,1.0,Sea,2.0,2.5039997920393944,Object_Sea_Solid_Large,4,0,1,24345924.0,24346313.0,389.0
141,choice,choice,4,1.0,Sea,2.0,2.5039997920393944,Object_Sea_Solid_Small,0,0,1,24346719.0,24347121.0,402.0
141,choice,choice,4,1.0,Sea,2.0,2.5039997920393944,Animal_Land_Solid_Small,1,0,0,24347343.0,24347724.0,381.0
141,choice,choice,4,1.0,Sea,2.0,2.5039997920393944,fixation,-1,1,0,24347739.0,24348346.0,607.0
141,choice,choice,5,1.0,Animal,2.0,13.990388124948367,Object_Sea_Solid_Small,0,0,0,24351186.0,24351844.0,658.0
141,choice,choice,5,1.0,Animal,2.0,13.990388124948367,Object_Sea_Solid_Large,4,0,0,24351897.0,24352079.0,182.0
141,choice,choice,5,1.0,Animal,2.0,13.990388124948367,Animal_Land_Solid_Small,1,0,1,24352316.0,24352566.0,250.0
141,choice,choice,5,1.0,Animal,2.0,13.990388124948367,Object_Sea_Pattern_Large,5,0,0,24352629.0,24352935.0,306.0
141,choice,choice,5,1.0,Animal,2.0,13.990388124948367,fixation,-1,1,0,24355152.0,24356555.0,1403.0
141,choice,choice,5,1.0,Animal,2.0,13.990388124948367,Object_Sea_Pattern_Large,5,0,0,24356576.0,24357544.0,968.0
141,choice,choice,5,1.0,Animal,2.0,13.990388124948367,Animal_Land_Pattern_Large,2,0,1,24357560.0,24358752.0,1192.0
141,choice,choice,5,1.0,Animal,2.0,13.990388124948367,Animal_Land_Solid_Small,1,0,1,24359073.0,24359528.0,455.0
141,choice,choice,5,1.0,Animal,2.0,13.990388124948367,Object_Sea_Solid_Large,4,0,0,24359552.0,24360087.0,535.0
141,choice,choice,5,1.0,Animal,2.0,13.990388124948367,Animal_Land_Solid_Small,1,0,1,24360110.0,24360792.0,682.0
141,choice,choice,5,1.0,Animal,2.0,13.990388124948367,Object_Sea_Pattern_Large,5,0,0,24361619.0,24362194.0,575.0
141,choice,choice,5,1.0,Animal,2.0,13.990388124948367,Animal_Land_Solid_Small,1,0,1,24362450.0,24363292.0,842.0
141,choice,choice,5,1.0,Animal,2.0,13.990388124948367,fixation,-1,1,0,24363578.0,24364961.0,1383.0
141,choice,choice,6,1.0,Solid,1.0,7.230813208967447,Object_Sea_Solid_Large,4,0,1,24369339.0,24369529.0,190.0
141,choice,choice,6,1.0,Solid,1.0,7.230813208967447,Animal_Land_Pattern_Small,3,0,0,24369550.0,24370146.0,596.0
141,choice,choice,6,1.0,Solid,1.0,7.230813208967447,Animal_Land_Solid_Small,1,0,1,24370163.0,24370492.0,329.0
141,choice,choice,6,1.0,Solid,1.0,7.230813208967447,Object_Sea_Pattern_Large,5,0,0,24370511.0,24370680.0,169.0
141,choice,choice,6,1.0,Solid,1.0,7.230813208967447,Animal_Land_Pattern_Large,2,0,0,24370929.0,24371362.0,433.0
141,choice,choice,6,1.0,Solid,1.0,7.230813208967447,Animal_Land_Solid_Small,1,0,1,24371385.0,24371606.0,221.0
141,choice,choice,6,1.0,Solid,1.0,7.230813208967447,Animal_Land_Pattern_Large,2,0,0,24371868.0,24372131.0,263.0
141,choice,choice,6,1.0,Solid,1.0,7.230813208967447,Object_Sea_Pattern_Large,5,0,0,24372154.0,24372361.0,207.0
141,choice,choice,6,1.0,Solid,1.0,7.230813208967447,Animal_Land_Pattern_Large,2,0,0,24372921.0,24373111.0,190.0
141,choice,choice,6,1.0,Solid,1.0,7.230813208967447,fixation,-1,1,0,24373136.0,24374171.0,1035.0
141,choice,choice,6,1.0,Solid,1.0,7.230813208967447,Animal_Land_Pattern_Small,3,0,0,24374390.0,24374839.0,449.0
141,choice,choice,6,1.0,Solid,1.0,7.230813208967447,Object_Sea_Solid_Small,0,0,1,24375056.0,24375404.0,348.0
141,choice,choice,6,1.0,Solid,1.0,7.230813208967447,Animal_Land_Solid_Small,1,0,1,24375430.0,24375756.0,326.0
141,choice,choice,7,1.0,Pattern,2.0,6.074881833977997,fixation,-1,1,0,24379398.0,24379958.0,560.0
141,choice,choice,7,1.0,Pattern,2.0,6.074881833977997,Object_Sea_Pattern_Large,5,0,1,24379995.0,24380812.0,817.0
141,choice,choice,7,1.0,Pattern,2.0,6.074881833977997,Animal_Land_Pattern_Large,2,0,1,24381085.0,24381377.0,292.0
141,choice,choice,7,1.0,Pattern,2.0,6.074881833977997,Animal_Land_Solid_Small,1,0,0,24381422.0,24382225.0,803.0
141,choice,choice,7,1.0,Pattern,2.0,6.074881833977997,Animal_Land_Pattern_Large,2,0,1,24382470.0,24383235.0,765.0
141,choice,choice,7,1.0,Pattern,2.0,6.074881833977997,fixation,-1,1,0,24383493.0,24383836.0,343.0
141,choice,choice,7,1.0,Pattern,2.0,6.074881833977997,Animal_Land_Solid_Small,1,0,0,24383860.0,24384509.0,649.0
141,choice,choice,7,1.0,Pattern,2.0,6.074881833977997,Object_Sea_Pattern_Large,5,0,1,24384539.0,24384866.0,327.0
141,choice,choice,8,1.0,Land,2.0,12.296876040985808,Animal_Land_Pattern_Small,3,0,1,24387997.0,24388341.0,344.0
141,choice,choice,8,1.0,Land,2.0,12.296876040985808,fixation,-1,1,0,24388359.0,24388596.0,237.0
141,choice,choice,8,1.0,Land,2.0,12.296876040985808,Animal_Land_Solid_Small,1,0,1,24388827.0,24389193.0,366.0
141,choice,choice,8,1.0,Land,2.0,12.296876040985808,fixation,-1,1,0,24389210.0,24389561.0,351.0
141,choice,choice,8,1.0,Land,2.0,12.296876040985808,Object_Sea_Solid_Large,4,0,0,24389812.0,24390113.0,301.0
141,choice,choice,8,1.0,Land,2.0,12.296876040985808,Animal_Land_Solid_Small,1,0,1,24390924.0,24391133.0,209.0
141,choice,choice,8,1.0,Land,2.0,12.296876040985808,Object_Sea_Pattern_Large,5,0,0,24391156.0,24391660.0,504.0
141,choice,choice,8,1.0,Land,2.0,12.296876040985808,Animal_Land_Pattern_Large,2,0,1,24392499.0,24393271.0,772.0
141,choice,choice,8,1.0,Land,2.0,12.296876040985808,Object_Sea_Pattern_Large,5,0,0,24393779.0,24393976.0,197.0
141,choice,choice,8,1.0,Land,2.0,12.296876040985808,Animal_Land_Pattern_Large,2,0,1,24394025.0,24394276.0,251.0
141,choice,choice,8,1.0,Land,2.0,12.296876040985808,Object_Sea_Pattern_Large,5,0,0,24394298.0,24395078.0,780.0
141,choice,choice,8,1.0,Land,2.0,12.296876040985808,Animal_Land_Pattern_Small,3,0,1,24395317.0,24395649.0,332.0
141,choice,choice,8,1.0,Land,2.0,12.296876040985808,Object_Sea_Pattern_Large,5,0,0,24395669.0,24395930.0,261.0
141,choice,choice,8,1.0,Land,2.0,12.296876040985808,Animal_Land_Pattern_Large,2,0,1,24396294.0,24396504.0,210.0
141,choice,choice,8,1.0,Land,2.0,12.296876040985808,Object_Sea_Pattern_Large,5,0,0,24396743.0,24397043.0,300.0
141,choice,choice,8,1.0,Land,2.0,12.296876040985808,fixation,-1,1,0,24397434.0,24397752.0,318.0
141,choice,choice,8,1.0,Land,2.0,12.296876040985808,Animal_Land_Pattern_Small,3,0,1,24397990.0,24398511.0,521.0
141,choice,choice,8,1.0,Land,2.0,12.296876040985808,Animal_Land_Pattern_Large,2,0,1,24398529.0,24398573.0,44.0
141,choice,choice,8,1.0,Land,2.0,12.296876040985808,Object_Sea_Pattern_Large,5,0,0,24398805.0,24399020.0,215.0
141,choice,choice,8,1.0,Land,2.0,12.296876040985808,fixation,-1,1,0,24399043.0,24399518.0,475.0
141,choice,choice,9,2.0,Object,2.0,17.968500958988443,fixation,-1,1,0,24808628.0,24810168.0,1540.0
141,choice,choice,9,2.0,Object,2.0,17.968500958988443,Animal_Sea_Pattern_Large,0,0,0,24810686.0,24811621.0,935.0
141,choice,choice,9,2.0,Object,2.0,17.968500958988443,Object_Sea_Pattern_Small,1,0,1,24811925.0,24812100.0,175.0
141,choice,choice,9,2.0,Object,2.0,17.968500958988443,Animal_Sea_Solid_Small,2,0,0,24812146.0,24812653.0,507.0
141,choice,choice,9,2.0,Object,2.0,17.968500958988443,Object_Land_Pattern_Large,3,0,1,24812890.0,24813353.0,463.0
141,choice,choice,9,2.0,Object,2.0,17.968500958988443,fixation,-1,1,0,24813371.0,24813642.0,271.0
141,choice,choice,9,2.0,Object,2.0,17.968500958988443,Object_Land_Solid_Small,4,0,1,24813914.0,24814167.0,253.0
141,choice,choice,9,2.0,Object,2.0,17.968500958988443,Animal_Land_Solid_Large,5,0,0,24814191.0,24814887.0,696.0
141,choice,choice,9,2.0,Object,2.0,17.968500958988443,Animal_Sea_Solid_Small,2,0,0,24815404.0,24815958.0,554.0
141,choice,choice,9,2.0,Object,2.0,17.968500958988443,Object_Land_Pattern_Large,3,0,1,24816241.0,24816872.0,631.0
141,choice,choice,9,2.0,Object,2.0,17.968500958988443,Object_Sea_Pattern_Small,1,0,1,24817491.0,24817539.0,48.0
141,choice,choice,9,2.0,Object,2.0,17.968500958988443,fixation,-1,1,0,24818583.0,24819053.0,470.0
141,choice,choice,9,2.0,Object,2.0,17.968500958988443,Animal_Sea_Pattern_Large,0,0,0,24819087.0,24819717.0,630.0
141,choice,choice,9,2.0,Object,2.0,17.968500958988443,Object_Land_Solid_Small,4,0,1,24819983.0,24820706.0,723.0
141,choice,choice,9,2.0,Object,2.0,17.968500958988443,Animal_Sea_Pattern_Large,0,0,0,24820751.0,24820837.0,86.0
141,choice,choice,9,2.0,Object,2.0,17.968500958988443,Object_Sea_Pattern_Small,1,0,1,24821075.0,24821434.0,359.0
141,choice,choice,9,2.0,Object,2.0,17.968500958988443,Animal_Sea_Pattern_Large,0,0,0,24821470.0,24822554.0,1084.0
141,choice,choice,9,2.0,Object,2.0,17.968500958988443,Object_Land_Solid_Small,4,0,1,24822820.0,24823056.0,236.0
141,choice,choice,9,2.0,Object,2.0,17.968500958988443,Animal_Sea_Pattern_Large,0,0,0,24823279.0,24823746.0,467.0
141,choice,choice,9,2.0,Object,2.0,17.968500958988443,fixation,-1,1,0,24823764.0,24824604.0,840.0
141,choice,choice,9,2.0,Object,2.0,17.968500958988443,Object_Sea_Pattern_Small,1,0,1,24824925.0,24825626.0,701.0
141,choice,choice,9,2.0,Object,2.0,17.968500958988443,fixation,-1,1,0,24825868.0,24826480.0,612.0
141,choice,choice,10,2.0,Large,2.0,18.09945841599256,Animal_Sea_Solid_Small,2,0,0,24830125.0,24830509.0,384.0
141,choice,choice,10,2.0,Large,2.0,18.09945841599256,Object_Land_Pattern_Large,3,0,1,24830531.0,24831098.0,567.0
141,choice,choice,10,2.0,Large,2.0,18.09945841599256,fixation,-1,1,0,24832001.0,24832257.0,256.0
141,choice,choice,10,2.0,Large,2.0,18.09945841599256,Object_Sea_Pattern_Small,1,0,0,24832491.0,24832913.0,422.0
141,choice,choice,10,2.0,Large,2.0,18.09945841599256,Animal_Sea_Pattern_Large,0,0,1,24832935.0,24833116.0,181.0
141,choice,choice,10,2.0,Large,2.0,18.09945841599256,fixation,-1,1,0,24833136.0,24833324.0,188.0
141,choice,choice,10,2.0,Large,2.0,18.09945841599256,Animal_Land_Solid_Large,5,0,1,24833552.0,24833873.0,321.0
141,choice,choice,10,2.0,Large,2.0,18.09945841599256,Animal_Sea_Solid_Small,2,0,0,24833895.0,24834144.0,249.0
141,choice,choice,10,2.0,Large,2.0,18.09945841599256,Object_Land_Pattern_Large,3,0,1,24834376.0,24834434.0,58.0
141,choice,choice,10,2.0,Large,2.0,18.09945841599256,Animal_Sea_Pattern_Large,0,0,1,24834495.0,24835309.0,814.0
141,choice,choice,10,2.0,Large,2.0,18.09945841599256,Object_Land_Solid_Small,4,0,0,24835580.0,24835659.0,79.0
141,choice,choice,10,2.0,Large,2.0,18.09945841599256,Animal_Sea_Pattern_Large,0,0,1,24835673.0,24836533.0,860.0
141,choice,choice,10,2.0,Large,2.0,18.09945841599256,Animal_Sea_Solid_Small,2,0,0,24837812.0,24838013.0,201.0
141,choice,choice,10,2.0,Large,2.0,18.09945841599256,Object_Land_Solid_Small,4,0,0,24840273.0,24840485.0,212.0
141,choice,choice,10,2.0,Large,2.0,18.09945841599256,fixation,-1,1,0,24840504.0,24841297.0,793.0
141,choice,choice,10,2.0,Large,2.0,18.09945841599256,Animal_Sea_Pattern_Large,0,0,1,24841319.0,24841577.0,258.0
141,choice,choice,10,2.0,Large,2.0,18.09945841599256,fixation,-1,1,0,24841596.0,24843183.0,1587.0
141,choice,choice,10,2.0,Large,2.0,18.09945841599256,Animal_Land_Solid_Large,5,0,1,24843671.0,24844702.0,1031.0
141,choice,choice,10,2.0,Large,2.0,18.09945841599256,Object_Land_Pattern_Large,3,0,1,24844973.0,24845223.0,250.0
141,choice,choice,10,2.0,Large,2.0,18.09945841599256,fixation,-1,1,0,24845240.0,24846126.0,886.0
141,choice,choice,10,2.0,Large,2.0,18.09945841599256,Object_Land_Pattern_Large,3,0,1,24846397.0,24846656.0,259.0
141,choice,choice,10,2.0,Large,2.0,18.09945841599256,fixation,-1,1,0,24846672.0,24846886.0,214.0
141,choice,choice,10,2.0,Large,2.0,18.09945841599256,Animal_Sea_Solid_Small,2,0,0,24847098.0,24847601.0,503.0
141,choice,choice,10,2.0,Large,2.0,18.09945841599256,fixation,-1,1,0,24847612.0,24847690.0,78.0
141,choice,choice,11,2.0,Sea,2.0,3.4967349589569494,fixation,-1,1,0,24850870.0,24851453.0,583.0
141,choice,choice,11,2.0,Sea,2.0,3.4967349589569494,Object_Land_Solid_Small,4,0,0,24851729.0,24851824.0,95.0
141,choice,choice,11,2.0,Sea,2.0,3.4967349589569494,fixation,-1,1,0,24851852.0,24853973.0,2121.0
141,choice,choice,12,2.0,Land,1.0,2.3214285420253873,fixation,-1,1,0,24857256.0,24859140.0,1884.0
141,choice,choice,13,2.0,Small,1.0,11.865262625040486,Animal_Sea_Pattern_Large,0,0,0,24862510.0,24862567.0,57.0
141,choice,choice,13,2.0,Small,1.0,11.865262625040486,Object_Sea_Pattern_Small,1,0,1,24862587.0,24862712.0,125.0
141,choice,choice,13,2.0,Small,1.0,11.865262625040486,Animal_Sea_Pattern_Large,0,0,0,24863303.0,24863577.0,274.0
141,choice,choice,13,2.0,Small,1.0,11.865262625040486,fixation,-1,1,0,24863603.0,24864582.0,979.0
141,choice,choice,13,2.0,Small,1.0,11.865262625040486,Animal_Sea_Solid_Small,2,0,1,24864599.0,24865000.0,401.0
141,choice,choice,13,2.0,Small,1.0,11.865262625040486,fixation,-1,1,0,24865242.0,24865733.0,491.0
141,choice,choice,13,2.0,Small,1.0,11.865262625040486,Object_Land_Solid_Small,4,0,1,24865974.0,24866875.0,901.0
141,choice,choice,13,2.0,Small,1.0,11.865262625040486,Object_Land_Pattern_Large,3,0,0,24867156.0,24867387.0,231.0
141,choice,choice,13,2.0,Small,1.0,11.865262625040486,fixation,-1,1,0,24867401.0,24872466.0,5065.0
141,choice,choice,14,2.0,Pattern,2.0,1.5577445829985663,Animal_Sea_Solid_Small,2,0,0,24876454.0,24876913.0,459.0
141,choice,choice,14,2.0,Pattern,2.0,1.5577445829985663,fixation,-1,1,0,24877218.0,24877889.0,671.0
141,choice,choice,15,2.0,Solid,1.0,2.4155054580187425,fixation,-1,1,0,24881281.0,24881326.0,45.0
141,choice,choice,15,2.0,Solid,1.0,2.4155054580187425,Object_Land_Solid_Small,4,0,1,24881832.0,24882275.0,443.0
141,choice,choice,15,2.0,Solid,1.0,2.4155054580187425,Animal_Sea_Solid_Small,2,0,1,24882337.0,24882374.0,37.0
141,choice,choice,15,2.0,Solid,1.0,2.4155054580187425,fixation,-1,1,0,24882639.0,24883321.0,682.0
141,choice,choice,16,2.0,Animal,1.0,4.489039874984883,fixation,-1,1,0,24886105.0,24886556.0,451.0
141,choice,choice,16,2.0,Animal,1.0,4.489039874984883,Object_Land_Pattern_Large,3,0,0,24886571.0,24886645.0,74.0
141,choice,choice,16,2.0,Animal,1.0,4.489039874984883,fixation,-1,1,0,24886664.0,24887982.0,1318.0
141,choice,choice,16,2.0,Animal,1.0,4.489039874984883,Animal_Sea_Solid_Small,2,0,1,24888490.0,24888630.0,140.0
141,choice,choice,16,2.0,Animal,1.0,4.489039874984883,fixation,-1,1,0,24888643.0,24889575.0,932.0
141,choice,choice,16,2.0,Animal,1.0,4.489039874984883,Object_Land_Solid_Small,4,0,0,24889836.0,24889960.0,124.0
141,choice,choice,16,2.0,Animal,1.0,4.489039874984883,fixation,-1,1,0,24889971.0,24890395.0,424.0
141,choice,choice,17,3.0,Animal,2.0,25.98765420797281,Animal_Sea_Pattern_Large,0,0,1,25213834.0,25214181.0,347.0
141,choice,choice,17,3.0,Animal,2.0,25.98765420797281,Object_Land_Pattern_Small,1,0,0,25214208.0,25214383.0,175.0
141,choice,choice,17,3.0,Animal,2.0,25.98765420797281,Object_Land_Solid_Small,2,0,0,25214620.0,25214904.0,284.0
141,choice,choice,17,3.0,Animal,2.0,25.98765420797281,fixation,-1,1,0,25215148.0,25215609.0,461.0
141,choice,choice,17,3.0,Animal,2.0,25.98765420797281,Animal_Sea_Pattern_Large,0,0,1,25215629.0,25215925.0,296.0
141,choice,choice,17,3.0,Animal,2.0,25.98765420797281,Animal_Sea_Pattern_Small,3,0,1,25215952.0,25216219.0,267.0
141,choice,choice,17,3.0,Animal,2.0,25.98765420797281,Object_Land_Solid_Large,4,0,0,25216432.0,25216971.0,539.0
141,choice,choice,17,3.0,Animal,2.0,25.98765420797281,fixation,-1,1,0,25217280.0,25217356.0,76.0
141,choice,choice,17,3.0,Animal,2.0,25.98765420797281,Animal_Sea_Solid_Large,5,0,1,25217653.0,25218244.0,591.0
141,choice,choice,17,3.0,Animal,2.0,25.98765420797281,Object_Land_Solid_Large,4,0,0,25218267.0,25219412.0,1145.0
141,choice,choice,17,3.0,Animal,2.0,25.98765420797281,fixation,-1,1,0,25220145.0,25220671.0,526.0
141,choice,choice,17,3.0,Animal,2.0,25.98765420797281,Animal_Sea_Solid_Large,5,0,1,25220703.0,25221527.0,824.0
141,choice,choice,17,3.0,Animal,2.0,25.98765420797281,Object_Land_Pattern_Small,1,0,0,25221786.0,25222150.0,364.0
141,choice,choice,17,3.0,Animal,2.0,25.98765420797281,Animal_Sea_Pattern_Large,0,0,1,25222442.0,25223240.0,798.0
141,choice,choice,17,3.0,Animal,2.0,25.98765420797281,Object_Land_Solid_Small,2,0,0,25226655.0,25226956.0,301.0
141,choice,choice,17,3.0,Animal,2.0,25.98765420797281,Animal_Sea_Pattern_Large,0,0,1,25226982.0,25227479.0,497.0
141,choice,choice,17,3.0,Animal,2.0,25.98765420797281,fixation,-1,1,0,25227738.0,25228200.0,462.0
141,choice,choice,17,3.0,Animal,2.0,25.98765420797281,Object_Land_Solid_Small,2,0,0,25228430.0,25228537.0,107.0
141,choice,choice,17,3.0,Animal,2.0,25.98765420797281,Animal_Sea_Pattern_Large,0,0,1,25228563.0,25228822.0,259.0
141,choice,choice,17,3.0,Animal,2.0,25.98765420797281,fixation,-1,1,0,25228832.0,25230174.0,1342.0
141,choice,choice,17,3.0,Animal,2.0,25.98765420797281,Object_Land_Solid_Small,2,0,0,25230893.0,25231345.0,452.0
141,choice,choice,17,3.0,Animal,2.0,25.98765420797281,Object_Land_Pattern_Small,1,0,0,25231578.0,25231784.0,206.0
141,choice,choice,17,3.0,Animal,2.0,25.98765420797281,Animal_Sea_Solid_Large,5,0,1,25231807.0,25232192.0,385.0
141,choice,choice,17,3.0,Animal,2.0,25.98765420797281,Animal_Sea_Pattern_Large,0,0,1,25232217.0,25233076.0,859.0
141,choice,choice,17,3.0,Animal,2.0,25.98765420797281,Object_Land_Solid_Small,2,0,0,25233117.0,25233722.0,605.0
141,choice,choice,17,3.0,Animal,2.0,25.98765420797281,Object_Land_Solid_Large,4,0,0,25233981.0,25234114.0,133.0
141,choice,choice,17,3.0,Animal,2.0,25.98765420797281,Animal_Sea_Pattern_Small,3,0,1,25234333.0,25234577.0,244.0
141,choice,choice,17,3.0,Animal,2.0,25.98765420797281,Animal_Sea_Solid_Large,5,0,1,25234603.0,25234768.0,165.0
141,choice,choice,17,3.0,Animal,2.0,25.98765420797281,Object_Land_Solid_Large,4,0,0,25235003.0,25235254.0,251.0
141,choice,choice,17,3.0,Animal,2.0,25.98765420797281,Animal_Sea_Pattern_Large,0,0,1,25235277.0,25235707.0,430.0
141,choice,choice,17,3.0,Animal,2.0,25.98765420797281,fixation,-1,1,0,25235982.0,25236171.0,189.0
141,choice,choice,17,3.0,Animal,2.0,25.98765420797281,Object_Land_Pattern_Small,1,0,0,25236415.0,25236930.0,515.0
141,choice,choice,17,3.0,Animal,2.0,25.98765420797281,fixation,-1,1,0,25236948.0,25239035.0,2087.0
141,choice,choice,18,3.0,Pattern,1.0,7.202520541031845,Animal_Sea_Pattern_Large,0,0,1,25243068.0,25244615.0,1547.0
141,choice,choice,18,3.0,Pattern,1.0,7.202520541031845,fixation,-1,1,0,25244876.0,25245284.0,408.0
141,choice,choice,18,3.0,Pattern,1.0,7.202520541031845,Object_Land_Solid_Large,4,0,0,25245511.0,25246684.0,1173.0
141,choice,choice,18,3.0,Pattern,1.0,7.202520541031845,Animal_Sea_Pattern_Small,3,0,1,25247005.0,25247742.0,737.0
141,choice,choice,18,3.0,Pattern,1.0,7.202520541031845,fixation,-1,1,0,25248497.0,25249041.0,544.0
141,choice,choice,19,3.0,Sea,2.0,3.446317791007459,Animal_Sea_Pattern_Large,0,0,1,25252694.0,25253958.0,1264.0
141,choice,choice,19,3.0,Sea,2.0,3.446317791007459,Animal_Sea_Pattern_Small,3,0,1,25254453.0,25254864.0,411.0
141,choice,choice,19,3.0,Sea,2.0,3.446317791007459,Animal_Sea_Solid_Large,5,0,1,25255077.0,25255347.0,270.0
141,choice,choice,19,3.0,Sea,2.0,3.446317791007459,Animal_Sea_Pattern_Large,0,0,1,25255367.0,25255540.0,173.0
141,choice,choice,20,3.0,Land,1.0,2.3828204170567915,Object_Land_Solid_Small,2,0,1,25259056.0,25259599.0,543.0
141,choice,choice,20,3.0,Land,1.0,2.3828204170567915,Animal_Sea_Pattern_Large,0,0,0,25259839.0,25260160.0,321.0
141,choice,choice,20,3.0,Land,1.0,2.3828204170567915,Object_Land_Solid_Small,2,0,1,25260177.0,25260625.0,448.0
141,choice,choice,20,3.0,Land,1.0,2.3828204170567915,Animal_Sea_Pattern_Large,0,0,0,25261103.0,25261225.0,122.0
141,choice,choice,21,3.0,Object,1.0,5.745704249944538,Object_Land_Solid_Small,2,0,1,25264948.0,25266456.0,1508.0
141,choice,choice,21,3.0,Object,1.0,5.745704249944538,fixation,-1,1,0,25266714.0,25267024.0,310.0
141,choice,choice,21,3.0,Object,1.0,5.745704249944538,Animal_Sea_Pattern_Small,3,0,0,25267259.0,25267572.0,313.0
141,choice,choice,21,3.0,Object,1.0,5.745704249944538,Object_Land_Solid_Large,4,0,1,25267596.0,25267842.0,246.0
141,choice,choice,21,3.0,Object,1.0,5.745704249944538,Animal_Sea_Solid_Large,5,0,0,25268103.0,25268775.0,672.0
141,choice,choice,21,3.0,Object,1.0,5.745704249944538,Object_Land_Pattern_Small,1,0,1,25269118.0,25269317.0,199.0
141,choice,choice,21,3.0,Object,1.0,5.745704249944538,Animal_Sea_Pattern_Large,0,0,0,25269531.0,25270475.0,944.0
141,choice,choice,22,3.0,Small,1.0,19.35579541604966,Object_Land_Solid_Small,2,0,1,25274897.0,25275675.0,778.0
141,choice,choice,22,3.0,Small,1.0,19.35579541604966,fixation,-1,1,0,25275694.0,25276374.0,680.0
141,choice,choice,22,3.0,Small,1.0,19.35579541604966,Animal_Sea_Pattern_Small,3,0,1,25276611.0,25276896.0,285.0
141,choice,choice,22,3.0,Small,1.0,19.35579541604966,Animal_Sea_Solid_Large,5,0,0,25276941.0,25277609.0,668.0
141,choice,choice,22,3.0,Small,1.0,19.35579541604966,fixation,-1,1,0,25277851.0,25279500.0,1649.0
141,choice,choice,22,3.0,Small,1.0,19.35579541604966,Object_Land_Solid_Small,2,0,1,25280010.0,25280113.0,103.0
141,choice,choice,22,3.0,Small,1.0,19.35579541604966,fixation,-1,1,0,25280122.0,25280391.0,269.0
141,choice,choice,22,3.0,Small,1.0,19.35579541604966,Animal_Sea_Solid_Large,5,0,0,25280416.0,25280797.0,381.0
141,choice,choice,22,3.0,Small,1.0,19.35579541604966,Animal_Sea_Pattern_Large,0,0,0,25281055.0,25281177.0,122.0
141,choice,choice,22,3.0,Small,1.0,19.35579541604966,Animal_Sea_Solid_Large,5,0,0,25281462.0,25281941.0,479.0
141,choice,choice,22,3.0,Small,1.0,19.35579541604966,Animal_Sea_Pattern_Large,0,0,0,25281962.0,25282087.0,125.0
141,choice,choice,22,3.0,Small,1.0,19.35579541604966,Object_Land_Solid_Small,2,0,1,25282364.0,25282771.0,407.0
141,choice,choice,22,3.0,Small,1.0,19.35579541604966,Animal_Sea_Solid_Large,5,0,0,25282797.0,25283434.0,637.0
141,choice,choice,22,3.0,Small,1.0,19.35579541604966,Animal_Sea_Pattern_Large,0,0,0,25283711.0,25284316.0,605.0
141,choice,choice,22,3.0,Small,1.0,19.35579541604966,Object_Land_Solid_Small,2,0,1,25284356.0,25284976.0,620.0
141,choice,choice,22,3.0,Small,1.0,19.35579541604966,fixation,-1,1,0,25285248.0,25285815.0,567.0
141,choice,choice,22,3.0,Small,1.0,19.35579541604966,Object_Land_Solid_Small,2,0,1,25286087.0,25286290.0,203.0
141,choice,choice,22,3.0,Small,1.0,19.35579541604966,Animal_Sea_Pattern_Large,0,0,0,25287552.0,25287802.0,250.0
141,choice,choice,22,3.0,Small,1.0,19.35579541604966,fixation,-1,1,0,25287825.0,25288156.0,331.0
141,choice,choice,22,3.0,Small,1.0,19.35579541604966,Object_Land_Pattern_Small,1,0,1,25288521.0,25288854.0,333.0
141,choice,choice,22,3.0,Small,1.0,19.35579541604966,Animal_Sea_Pattern_Large,0,0,0,25288904.0,25289502.0,598.0
141,choice,choice,22,3.0,Small,1.0,19.35579541604966,Object_Land_Solid_Small,2,0,1,25289749.0,25290377.0,628.0
141,choice,choice,22,3.0,Small,1.0,19.35579541604966,Object_Land_Solid_Large,4,0,0,25290407.0,25290739.0,332.0
141,choice,choice,22,3.0,Small,1.0,19.35579541604966,fixation,-1,1,0,25290980.0,25291388.0,408.0
141,choice,choice,22,3.0,Small,1.0,19.35579541604966,Animal_Sea_Solid_Large,5,0,0,25291414.0,25291645.0,231.0
141,choice,choice,22,3.0,Small,1.0,19.35579541604966,Animal_Sea_Pattern_Large,0,0,0,25291933.0,25292127.0,194.0
141,choice,choice,22,3.0,Small,1.0,19.35579541604966,Object_Land_Solid_Small,2,0,1,25292321.0,25292677.0,356.0
141,choice,choice,23,3.0,Large,1.0,12.159722958109342,Animal_Sea_Pattern_Large,0,0,1,25295570.0,25297514.0,1944.0
141,choice,choice,23,3.0,Large,1.0,12.159722958109342,Animal_Sea_Pattern_Small,3,0,0,25298361.0,25298406.0,45.0
141,choice,choice,23,3.0,Large,1.0,12.159722958109342,fixation,-1,1,0,25298411.0,25298890.0,479.0
141,choice,choice,23,3.0,Large,1.0,12.159722958109342,Animal_Sea_Pattern_Large,0,0,1,25299149.0,25299370.0,221.0
141,choice,choice,23,3.0,Large,1.0,12.159722958109342,fixation,-1,1,0,25299399.0,25300014.0,615.0
141,choice,choice,23,3.0,Large,1.0,12.159722958109342,Object_Land_Solid_Large,4,0,1,25300239.0,25300627.0,388.0
141,choice,choice,23,3.0,Large,1.0,12.159722958109342,fixation,-1,1,0,25300660.0,25300891.0,231.0
141,choice,choice,23,3.0,Large,1.0,12.159722958109342,Object_Land_Solid_Large,4,0,1,25301127.0,25301837.0,710.0
141,choice,choice,23,3.0,Large,1.0,12.159722958109342,fixation,-1,1,0,25302439.0,25302974.0,535.0
141,choice,choice,23,3.0,Large,1.0,12.159722958109342,Object_Land_Solid_Large,4,0,1,25303240.0,25303635.0,395.0
141,choice,choice,23,3.0,Large,1.0,12.159722958109342,Animal_Sea_Pattern_Large,0,0,1,25303659.0,25304626.0,967.0
141,choice,choice,23,3.0,Large,1.0,12.159722958109342,fixation,-1,1,0,25305136.0,25305571.0,435.0
141,choice,choice,23,3.0,Large,1.0,12.159722958109342,Object_Land_Solid_Large,4,0,1,25305588.0,25306270.0,682.0
141,choice,choice,23,3.0,Large,1.0,12.159722958109342,fixation,-1,1,0,25306547.0,25307357.0,810.0
141,choice,choice,24,3.0,Solid,1.0,1.981776790926233,fixation,-1,1,0,25310588.0,25311508.0,920.0
141,choice,choice,24,3.0,Solid,1.0,1.981776790926233,Object_Land_Solid_Small,2,0,1,25311755.0,25312410.0,655.0
141,choice,choice,25,4.0,Large,1.0,28.77356995898299,Object_Sea_Solid_Small,0,0,0,25617664.0,25618884.0,1220.0
141,choice,choice,25,4.0,Large,1.0,28.77356995898299,Object_Sea_Solid_Large,1,0,1,25619443.0,25619725.0,282.0
141,choice,choice,25,4.0,Large,1.0,28.77356995898299,Object_Sea_Solid_Small,0,0,0,25620050.0,25620626.0,576.0
141,choice,choice,25,4.0,Large,1.0,28.77356995898299,Animal_Land_Pattern_Small,2,0,0,25620664.0,25620964.0,300.0
141,choice,choice,25,4.0,Large,1.0,28.77356995898299,fixation,-1,1,0,25621038.0,25621398.0,360.0
141,choice,choice,25,4.0,Large,1.0,28.77356995898299,Object_Sea_Solid_Small,0,0,0,25621424.0,25621481.0,57.0
141,choice,choice,25,4.0,Large,1.0,28.77356995898299,fixation,-1,1,0,25621501.0,25621768.0,267.0
141,choice,choice,25,4.0,Large,1.0,28.77356995898299,Object_Sea_Solid_Small,0,0,0,25621783.0,25621811.0,28.0
141,choice,choice,25,4.0,Large,1.0,28.77356995898299,Animal_Land_Pattern_Small,2,0,0,25622070.0,25623285.0,1215.0
141,choice,choice,25,4.0,Large,1.0,28.77356995898299,Object_Sea_Pattern_Large,3,0,1,25623592.0,25624609.0,1017.0
141,choice,choice,25,4.0,Large,1.0,28.77356995898299,fixation,-1,1,0,25624895.0,25625208.0,313.0
141,choice,choice,25,4.0,Large,1.0,28.77356995898299,Object_Sea_Pattern_Large,3,0,1,25625467.0,25625829.0,362.0
141,choice,choice,25,4.0,Large,1.0,28.77356995898299,fixation,-1,1,0,25625847.0,25626450.0,603.0
141,choice,choice,25,4.0,Large,1.0,28.77356995898299,Object_Sea_Pattern_Large,3,0,1,25626688.0,25626929.0,241.0
141,choice,choice,25,4.0,Large,1.0,28.77356995898299,fixation,-1,1,0,25626964.0,25627330.0,366.0
141,choice,choice,25,4.0,Large,1.0,28.77356995898299,Animal_Land_Solid_Small,4,0,0,25627621.0,25628076.0,455.0
141,choice,choice,25,4.0,Large,1.0,28.77356995898299,Object_Sea_Pattern_Large,3,0,1,25628400.0,25628964.0,564.0
141,choice,choice,25,4.0,Large,1.0,28.77356995898299,Animal_Land_Solid_Small,4,0,0,25629580.0,25629972.0,392.0
141,choice,choice,25,4.0,Large,1.0,28.77356995898299,fixation,-1,1,0,25630494.0,25630578.0,84.0
141,choice,choice,25,4.0,Large,1.0,28.77356995898299,Animal_Land_Solid_Small,4,0,0,25630834.0,25631401.0,567.0
141,choice,choice,25,4.0,Large,1.0,28.77356995898299,fixation,-1,1,0,25631876.0,25632226.0,350.0
141,choice,choice,25,4.0,Large,1.0,28.77356995898299,Animal_Land_Solid_Small,4,0,0,25632239.0,25632846.0,607.0
141,choice,choice,25,4.0,Large,1.0,28.77356995898299,Object_Sea_Solid_Large,1,0,1,25633587.0,25634119.0,532.0
141,choice,choice,25,4.0,Large,1.0,28.77356995898299,Animal_Land_Solid_Small,4,0,0,25635170.0,25635565.0,395.0
141,choice,choice,25,4.0,Large,1.0,28.77356995898299,fixation,-1,1,0,25635603.0,25635921.0,318.0
141,choice,choice,25,4.0,Large,1.0,28.77356995898299,Animal_Land_Pattern_Large,5,0,1,25636449.0,25636620.0,171.0
141,choice,choice,25,4.0,Large,1.0,28.77356995898299,Animal_Land_Solid_Small,4,0,0,25636650.0,25637027.0,377.0
141,choice,choice,25,4.0,Large,1.0,28.77356995898299,Object_Sea_Pattern_Large,3,0,1,25637044.0,25637112.0,68.0
141,choice,choice,25,4.0,Large,1.0,28.77356995898299,fixation,-1,1,0,25637612.0,25638104.0,492.0
141,choice,choice,25,4.0,Large,1.0,28.77356995898299,Animal_Land_Solid_Small,4,0,0,25638135.0,25638564.0,429.0
141,choice,choice,25,4.0,Large,1.0,28.77356995898299,fixation,-1,1,0,25638590.0,25638941.0,351.0
141,choice,choice,25,4.0,Large,1.0,28.77356995898299,Object_Sea_Pattern_Large,3,0,1,25639191.0,25640258.0,1067.0
141,choice,choice,25,4.0,Large,1.0,28.77356995898299,fixation,-1,1,0,25640544.0,25641480.0,936.0
141,choice,choice,25,4.0,Large,1.0,28.77356995898299,Object_Sea_Pattern_Large,3,0,1,25642006.0,25642287.0,281.0
141,choice,choice,25,4.0,Large,1.0,28.77356995898299,Animal_Land_Solid_Small,4,0,0,25642345.0,25642845.0,500.0
141,choice,choice,25,4.0,Large,1.0,28.77356995898299,Animal_Land_Pattern_Large,5,0,1,25642870.0,25643127.0,257.0
141,choice,choice,25,4.0,Large,1.0,28.77356995898299,Animal_Land_Solid_Small,4,0,0,25643371.0,25643473.0,102.0
141,choice,choice,25,4.0,Large,1.0,28.77356995898299,Animal_Land_Pattern_Large,5,0,1,25643479.0,25643821.0,342.0
141,choice,choice,25,4.0,Large,1.0,28.77356995898299,Object_Sea_Pattern_Large,3,0,1,25643846.0,25644076.0,230.0
141,choice,choice,25,4.0,Large,1.0,28.77356995898299,fixation,-1,1,0,25644100.0,25644680.0,580.0
141,choice,choice,25,4.0,Large,1.0,28.77356995898299,Object_Sea_Pattern_Large,3,0,1,25644921.0,25645586.0,665.0
141,choice,choice,25,4.0,Large,1.0,28.77356995898299,fixation,-1,1,0,25645836.0,25646162.0,326.0
141,choice,choice,26,4.0,Pattern,1.0,2.7705440000863746,Object_Sea_Solid_Large,1,0,0,25650236.0,25650523.0,287.0
141,choice,choice,26,4.0,Pattern,1.0,2.7705440000863746,fixation,-1,1,0,25650576.0,25650975.0,399.0
141,choice,choice,26,4.0,Pattern,1.0,2.7705440000863746,Animal_Land_Pattern_Small,2,0,1,25651203.0,25651421.0,218.0
141,choice,choice,26,4.0,Pattern,1.0,2.7705440000863746,fixation,-1,1,0,25651438.0,25652029.0,591.0
141,choice,choice,27,4.0,Solid,2.0,3.5316369580104947,Object_Sea_Solid_Large,1,0,1,25655576.0,25655961.0,385.0
141,choice,choice,27,4.0,Solid,2.0,3.5316369580104947,Object_Sea_Solid_Small,0,0,1,25656207.0,25656694.0,487.0
141,choice,choice,27,4.0,Solid,2.0,3.5316369580104947,fixation,-1,1,0,25656978.0,25657442.0,464.0
141,choice,choice,27,4.0,Solid,2.0,3.5316369580104947,Object_Sea_Pattern_Large,3,0,0,25657472.0,25657720.0,248.0
141,choice,choice,27,4.0,Solid,2.0,3.5316369580104947,Animal_Land_Solid_Small,4,0,1,25657956.0,25658214.0,258.0
141,choice,choice,27,4.0,Solid,2.0,3.5316369580104947,fixation,-1,1,0,25658240.0,25659004.0,764.0
141,choice,choice,27,4.0,Solid,2.0,3.5316369580104947,Object_Sea_Solid_Large,1,0,1,25659014.0,25659070.0,56.0
141,choice,choice,28,4.0,Land,1.0,3.1471643750555813,Object_Sea_Solid_Large,1,0,0,25662382.0,25662587.0,205.0
141,choice,choice,28,4.0,Land,1.0,3.1471643750555813,fixation,-1,1,0,25662610.0,25664037.0,1427.0
141,choice,choice,28,4.0,Land,1.0,3.1471643750555813,Animal_Land_Pattern_Small,2,0,1,25664515.0,25664699.0,184.0
141,choice,choice,28,4.0,Land,1.0,3.1471643750555813,fixation,-1,1,0,25664720.0,25665269.0,549.0
141,choice,choice,29,4.0,Animal,2.0,9.487655790988356,Object_Sea_Solid_Small,0,0,0,25668999.0,25669240.0,241.0
141,choice,choice,29,4.0,Animal,2.0,9.487655790988356,Object_Sea_Pattern_Large,3,0,0,25669274.0,25669733.0,459.0
141,choice,choice,29,4.0,Animal,2.0,9.487655790988356,fixation,-1,1,0,25669758.0,25670176.0,418.0
141,choice,choice,29,4.0,Animal,2.0,9.487655790988356,Object_Sea_Solid_Small,0,0,0,25670416.0,25670671.0,255.0
141,choice,choice,29,4.0,Animal,2.0,9.487655790988356,Animal_Land_Pattern_Small,2,0,1,25670696.0,25671121.0,425.0
141,choice,choice,29,4.0,Animal,2.0,9.487655790988356,Object_Sea_Solid_Small,0,0,0,25671363.0,25671803.0,440.0
141,choice,choice,29,4.0,Animal,2.0,9.487655790988356,Object_Sea_Solid_Large,1,0,0,25672066.0,25672458.0,392.0
141,choice,choice,29,4.0,Animal,2.0,9.487655790988356,Animal_Land_Pattern_Small,2,0,1,25672475.0,25672662.0,187.0
141,choice,choice,29,4.0,Animal,2.0,9.487655790988356,fixation,-1,1,0,25672907.0,25674568.0,1661.0
141,choice,choice,29,4.0,Animal,2.0,9.487655790988356,Animal_Land_Pattern_Large,5,0,1,25675363.0,25675413.0,50.0
141,choice,choice,29,4.0,Animal,2.0,9.487655790988356,fixation,-1,1,0,25675687.0,25677546.0,1859.0
141,choice,choice,30,4.0,Small,2.0,5.4099100419553,Animal_Land_Pattern_Large,5,0,0,25681943.0,25682068.0,125.0
141,choice,choice,30,4.0,Small,2.0,5.4099100419553,fixation,-1,1,0,25682090.0,25686188.0,4098.0
141,choice,choice,31,4.0,Sea,2.0,4.626984874950722,Object_Sea_Pattern_Large,3,0,1,25690606.0,25691372.0,766.0
141,choice,choice,31,4.0,Sea,2.0,4.626984874950722,Animal_Land_Pattern_Small,2,0,0,25691416.0,25691765.0,349.0
141,choice,choice,31,4.0,Sea,2.0,4.626984874950722,Object_Sea_Solid_Large,1,0,1,25692004.0,25692085.0,81.0
141,choice,choice,31,4.0,Sea,2.0,4.626984874950722,Animal_Land_Solid_Small,4,0,0,25692091.0,25692181.0,90.0
141,choice,choice,31,4.0,Sea,2.0,4.626984874950722,fixation,-1,1,0,25692201.0,25692995.0,794.0
141,choice,choice,31,4.0,Sea,2.0,4.626984874950722,Animal_Land_Pattern_Large,5,0,0,25693263.0,25694356.0,1093.0
141,choice,choice,31,4.0,Sea,2.0,4.626984874950722,fixation,-1,1,0,25694621.0,25694951.0,330.0
141,choice,choice,32,4.0,Object,2.0,9.644636834040284,fixation,-1,1,0,25698156.0,25699277.0,1121.0
141,choice,choice,32,4.0,Object,2.0,9.644636834040284,Object_Sea_Pattern_Large,3,0,1,25699524.0,25699904.0,380.0
141,choice,choice,32,4.0,Object,2.0,9.644636834040284,Animal_Land_Solid_Small,4,0,0,25700348.0,25700520.0,172.0
141,choice,choice,32,4.0,Object,2.0,9.644636834040284,fixation,-1,1,0,25700541.0,25701787.0,1246.0
141,choice,choice,32,4.0,Object,2.0,9.644636834040284,Object_Sea_Pattern_Large,3,0,1,25702027.0,25702278.0,251.0
141,choice,choice,32,4.0,Object,2.0,9.644636834040284,fixation,-1,1,0,25702307.0,25704292.0,1985.0
141,choice,choice,32,4.0,Object,2.0,9.644636834040284,Object_Sea_Solid_Large,1,0,1,25705095.0,25705648.0,553.0
141,choice,choice,32,4.0,Object,2.0,9.644636834040284,fixation,-1,1,0,25705910.0,25706907.0,997.0
141,choice,choice,32,4.0,Object,2.0,9.644636834040284,Object_Sea_Solid_Small,0,0,1,25707119.0,25707546.0,427.0
141,choice,choice,32,4.0,Object,2.0,9.644636834040284,fixation,-1,1,0,25707578.0,25707647.0,69.0
141,choice,choice,33,5.0,Object,1.0,18.228023041971028,Object_Land_Solid_Small,0,0,1,25999555.0,25999673.0,118.0
141,choice,choice,33,5.0,Object,1.0,18.228023041971028,fixation,-1,1,0,25999714.0,26000003.0,289.0
141,choice,choice,33,5.0,Object,1.0,18.228023041971028,Object_Land_Pattern_Large,1,0,1,26000045.0,26000245.0,200.0
141,choice,choice,33,5.0,Object,1.0,18.228023041971028,Object_Land_Solid_Small,0,0,1,26000288.0,26000895.0,607.0
141,choice,choice,33,5.0,Object,1.0,18.228023041971028,Animal_Sea_Solid_Small,2,0,0,26001186.0,26002111.0,925.0
141,choice,choice,33,5.0,Object,1.0,18.228023041971028,Animal_Land_Solid_Large,3,0,0,26002675.0,26002981.0,306.0
141,choice,choice,33,5.0,Object,1.0,18.228023041971028,Animal_Sea_Solid_Small,2,0,0,26003260.0,26004626.0,1366.0
141,choice,choice,33,5.0,Object,1.0,18.228023041971028,Object_Land_Solid_Small,0,0,1,26004937.0,26005393.0,456.0
141,choice,choice,33,5.0,Object,1.0,18.228023041971028,Animal_Sea_Solid_Small,2,0,0,26005433.0,26006828.0,1395.0
141,choice,choice,33,5.0,Object,1.0,18.228023041971028,fixation,-1,1,0,26007438.0,26008162.0,724.0
141,choice,choice,33,5.0,Object,1.0,18.228023041971028,Object_Land_Solid_Small,0,0,1,26008447.0,26009014.0,567.0
141,choice,choice,33,5.0,Object,1.0,18.228023041971028,Animal_Sea_Pattern_Large,4,0,0,26009268.0,26009756.0,488.0
141,choice,choice,33,5.0,Object,1.0,18.228023041971028,Object_Land_Pattern_Large,1,0,1,26009781.0,26011579.0,1798.0
141,choice,choice,33,5.0,Object,1.0,18.228023041971028,Object_Sea_Pattern_Small,5,0,1,26012349.0,26012806.0,457.0
141,choice,choice,33,5.0,Object,1.0,18.228023041971028,Object_Land_Pattern_Large,1,0,1,26012822.0,26013456.0,634.0
141,choice,choice,33,5.0,Object,1.0,18.228023041971028,Object_Sea_Pattern_Small,5,0,1,26013756.0,26014516.0,760.0
141,choice,choice,33,5.0,Object,1.0,18.228023041971028,Animal_Sea_Pattern_Large,4,0,0,26014790.0,26015135.0,345.0
141,choice,choice,33,5.0,Object,1.0,18.228023041971028,fixation,-1,1,0,26015209.0,26015538.0,329.0
141,choice,choice,33,5.0,Object,1.0,18.228023041971028,Object_Land_Solid_Small,0,0,1,26015774.0,26016690.0,916.0
141,choice,choice,33,5.0,Object,1.0,18.228023041971028,Animal_Sea_Pattern_Large,4,0,0,26016950.0,26017089.0,139.0
141,choice,choice,33,5.0,Object,1.0,18.228023041971028,Object_Land_Pattern_Large,1,0,1,26017109.0,26017653.0,544.0
141,choice,choice,34,5.0,Pattern,1.0,6.021959332982078,fixation,-1,1,0,26020669.0,26021190.0,521.0
141,choice,choice,34,5.0,Pattern,1.0,6.021959332982078,Object_Land_Solid_Small,0,0,0,26021211.0,26021693.0,482.0
141,choice,choice,34,5.0,Pattern,1.0,6.021959332982078,Animal_Sea_Solid_Small,2,0,0,26021966.0,26024383.0,2417.0
141,choice,choice,34,5.0,Pattern,1.0,6.021959332982078,fixation,-1,1,0,26025398.0,26025987.0,589.0
141,choice,choice,35,5.0,Sea,2.0,9.408670707955023,Animal_Sea_Solid_Small,2,0,1,26029626.0,26030015.0,389.0
141,choice,choice,35,5.0,Sea,2.0,9.408670707955023,Object_Land_Solid_Small,0,0,0,26030247.0,26030912.0,665.0
141,choice,choice,35,5.0,Sea,2.0,9.408670707955023,Animal_Sea_Solid_Small,2,0,1,26030972.0,26031671.0,699.0
141,choice,choice,35,5.0,Sea,2.0,9.408670707955023,Animal_Sea_Pattern_Large,4,0,1,26031966.0,26032249.0,283.0
141,choice,choice,35,5.0,Sea,2.0,9.408670707955023,Object_Land_Pattern_Large,1,0,0,26032482.0,26033247.0,765.0
141,choice,choice,35,5.0,Sea,2.0,9.408670707955023,fixation,-1,1,0,26033514.0,26033797.0,283.0
141,choice,choice,35,5.0,Sea,2.0,9.408670707955023,Object_Land_Pattern_Large,1,0,0,26034034.0,26034594.0,560.0
141,choice,choice,35,5.0,Sea,2.0,9.408670707955023,fixation,-1,1,0,26034638.0,26035087.0,449.0
141,choice,choice,35,5.0,Sea,2.0,9.408670707955023,Animal_Sea_Solid_Small,2,0,1,26035348.0,26036112.0,764.0
141,choice,choice,35,5.0,Sea,2.0,9.408670707955023,Animal_Land_Solid_Large,3,0,0,26036340.0,26036438.0,98.0
141,choice,choice,35,5.0,Sea,2.0,9.408670707955023,Animal_Sea_Solid_Small,2,0,1,26036446.0,26036656.0,210.0
141,choice,choice,35,5.0,Sea,2.0,9.408670707955023,Object_Land_Solid_Small,0,0,0,26036910.0,26037011.0,101.0
141,choice,choice,35,5.0,Sea,2.0,9.408670707955023,Animal_Sea_Pattern_Large,4,0,1,26037032.0,26037250.0,218.0
141,choice,choice,35,5.0,Sea,2.0,9.408670707955023,fixation,-1,1,0,26037269.0,26037975.0,706.0
141,choice,choice,35,5.0,Sea,2.0,9.408670707955023,Object_Land_Pattern_Large,1,0,0,26038236.0,26038739.0,503.0
141,choice,choice,35,5.0,Sea,2.0,9.408670707955023,Object_Sea_Pattern_Small,5,0,1,26038755.0,26038939.0,184.0
141,choice,choice,36,5.0,Land,1.0,7.327896790928207,Object_Land_Solid_Small,0,0,1,26042236.0,26042671.0,435.0
141,choice,choice,36,5.0,Land,1.0,7.327896790928207,fixation,-1,1,0,26042905.0,26043721.0,816.0
141,choice,choice,36,5.0,Land,1.0,7.327896790928207,Object_Land_Pattern_Large,1,0,1,26044012.0,26044321.0,309.0
141,choice,choice,36,5.0,Land,1.0,7.327896790928207,fixation,-1,1,0,26044546.0,26044922.0,376.0
141,choice,choice,36,5.0,Land,1.0,7.327896790928207,Animal_Land_Solid_Large,3,0,1,26044945.0,26045954.0,1009.0
141,choice,choice,36,5.0,Land,1.0,7.327896790928207,fixation,-1,1,0,26046492.0,26047422.0,930.0
141,choice,choice,36,5.0,Land,1.0,7.327896790928207,Animal_Land_Solid_Large,3,0,1,26047696.0,26048589.0,893.0
141,choice,choice,36,5.0,Land,1.0,7.327896790928207,Object_Land_Solid_Small,0,0,1,26048644.0,26048769.0,125.0
141,choice,choice,36,5.0,Land,1.0,7.327896790928207,Animal_Land_Solid_Large,3,0,1,26049009.0,26049071.0,62.0
141,choice,choice,37,5.0,Large,1.0,9.00127591600176,Animal_Land_Solid_Large,3,0,1,26052139.0,26052312.0,173.0
141,choice,choice,37,5.0,Large,1.0,9.00127591600176,fixation,-1,1,0,26052327.0,26054480.0,2153.0
141,choice,choice,37,5.0,Large,1.0,9.00127591600176,Object_Land_Pattern_Large,1,0,1,26055226.0,26055898.0,672.0
141,choice,choice,37,5.0,Large,1.0,9.00127591600176,Animal_Sea_Solid_Small,2,0,0,26056145.0,26056490.0,345.0
141,choice,choice,37,5.0,Large,1.0,9.00127591600176,fixation,-1,1,0,26057108.0,26057973.0,865.0
141,choice,choice,37,5.0,Large,1.0,9.00127591600176,Animal_Sea_Solid_Small,2,0,0,26058218.0,26058814.0,596.0
141,choice,choice,37,5.0,Large,1.0,9.00127591600176,fixation,-1,1,0,26059089.0,26059422.0,333.0
141,choice,choice,37,5.0,Large,1.0,9.00127591600176,Animal_Sea_Solid_Small,2,0,0,26059450.0,26059806.0,356.0
141,choice,choice,37,5.0,Large,1.0,9.00127591600176,fixation,-1,1,0,26060066.0,26060615.0,549.0
141,choice,choice,38,5.0,Solid,2.0,3.9470049580559134,Animal_Sea_Solid_Small,2,0,1,26064129.0,26065349.0,1220.0
141,choice,choice,38,5.0,Solid,2.0,3.9470049580559134,fixation,-1,1,0,26065876.0,26066299.0,423.0
141,choice,choice,38,5.0,Solid,2.0,3.9470049580559134,Animal_Sea_Solid_Small,2,0,1,26066522.0,26067387.0,865.0
141,choice,choice,38,5.0,Solid,2.0,3.9470049580559134,fixation,-1,1,0,26067445.0,26067624.0,179.0
141,choice,choice,39,5.0,Animal,1.0,6.961071584024467,fixation,-1,1,0,26071394.0,26072700.0,1306.0
141,choice,choice,39,5.0,Animal,1.0,6.961071584024467,Animal_Sea_Solid_Small,2,0,1,26073002.0,26073626.0,624.0
141,choice,choice,39,5.0,Animal,1.0,6.961071584024467,fixation,-1,1,0,26074448.0,26074897.0,449.0
141,choice,choice,39,5.0,Animal,1.0,6.961071584024467,Animal_Land_Solid_Large,3,0,1,26074916.0,26075099.0,183.0
141,choice,choice,39,5.0,Animal,1.0,6.961071584024467,Animal_Sea_Solid_Small,2,0,1,26075327.0,26076671.0,1344.0
141,choice,choice,39,5.0,Animal,1.0,6.961071584024467,fixation,-1,1,0,26077196.0,26077887.0,691.0
141,choice,choice,40,5.0,Small,2.0,2.4253817909630015,Object_Land_Solid_Small,0,0,1,26081364.0,26081714.0,350.0
141,choice,choice,40,5.0,Small,2.0,2.4253817909630015,Animal_Sea_Solid_Small,2,0,1,26081741.0,26082146.0,405.0
141,choice,choice,40,5.0,Small,2.0,2.4253817909630015,Object_Land_Solid_Small,0,0,1,26082374.0,26082790.0,416.0
141,choice,choice,40,5.0,Small,2.0,2.4253817909630015,Animal_Sea_Solid_Small,2,0,1,26082833.0,26083106.0,273.0
141,choice,choice,40,5.0,Small,2.0,2.4253817909630015,fixation,-1,1,0,26083320.0,26083615.0,295.0
141,choice,choice,41,6.0,Sea,1.0,16.47480516601354,fixation,-1,1,0,26381521.0,26381694.0,173.0
141,choice,choice,41,6.0,Sea,1.0,16.47480516601354,Animal_Sea_Pattern_Large,0,0,1,26381967.0,26383200.0,1233.0
141,choice,choice,41,6.0,Sea,1.0,16.47480516601354,fixation,-1,1,0,26383785.0,26384083.0,298.0
141,choice,choice,41,6.0,Sea,1.0,16.47480516601354,Object_Land_Pattern_Small,1,0,0,26384354.0,26384702.0,348.0
141,choice,choice,41,6.0,Sea,1.0,16.47480516601354,Animal_Sea_Pattern_Small,2,0,1,26384727.0,26385056.0,329.0
141,choice,choice,41,6.0,Sea,1.0,16.47480516601354,Object_Land_Pattern_Small,1,0,0,26385095.0,26385697.0,602.0
141,choice,choice,41,6.0,Sea,1.0,16.47480516601354,Animal_Sea_Solid_Large,3,0,1,26385969.0,26386325.0,356.0
141,choice,choice,41,6.0,Sea,1.0,16.47480516601354,Animal_Sea_Pattern_Small,2,0,1,26386883.0,26386939.0,56.0
141,choice,choice,41,6.0,Sea,1.0,16.47480516601354,Object_Land_Solid_Large,4,0,0,26386948.0,26387568.0,620.0
141,choice,choice,41,6.0,Sea,1.0,16.47480516601354,Object_Land_Pattern_Small,1,0,0,26388100.0,26388141.0,41.0
141,choice,choice,41,6.0,Sea,1.0,16.47480516601354,fixation,-1,1,0,26388442.0,26388832.0,390.0
141,choice,choice,41,6.0,Sea,1.0,16.47480516601354,Object_Land_Solid_Large,4,0,0,26388855.0,26389482.0,627.0
141,choice,choice,41,6.0,Sea,1.0,16.47480516601354,Animal_Sea_Pattern_Small,2,0,1,26389769.0,26390286.0,517.0
141,choice,choice,41,6.0,Sea,1.0,16.47480516601354,Object_Land_Solid_Large,4,0,0,26390509.0,26390698.0,189.0
141,choice,choice,41,6.0,Sea,1.0,16.47480516601354,Animal_Sea_Solid_Large,3,0,1,26390721.0,26391389.0,668.0
141,choice,choice,41,6.0,Sea,1.0,16.47480516601354,Object_Land_Solid_Large,4,0,0,26391893.0,26393419.0,1526.0
141,choice,choice,41,6.0,Sea,1.0,16.47480516601354,Animal_Sea_Solid_Large,3,0,1,26394211.0,26394924.0,713.0
141,choice,choice,41,6.0,Sea,1.0,16.47480516601354,fixation,-1,1,0,26395208.0,26395548.0,340.0
141,choice,choice,41,6.0,Sea,1.0,16.47480516601354,Object_Land_Solid_Large,4,0,0,26395816.0,26396079.0,263.0
141,choice,choice,41,6.0,Sea,1.0,16.47480516601354,fixation,-1,1,0,26396362.0,26397230.0,868.0
141,choice,choice,42,6.0,Large,1.0,8.541128208045848,Object_Land_Solid_Small,5,0,0,26400517.0,26400915.0,398.0
141,choice,choice,42,6.0,Large,1.0,8.541128208045848,fixation,-1,1,0,26401191.0,26402598.0,1407.0
141,choice,choice,42,6.0,Large,1.0,8.541128208045848,Animal_Sea_Pattern_Large,0,0,1,26403481.0,26403783.0,302.0
141,choice,choice,42,6.0,Large,1.0,8.541128208045848,fixation,-1,1,0,26403804.0,26404759.0,955.0
141,choice,choice,42,6.0,Large,1.0,8.541128208045848,Animal_Sea_Pattern_Small,2,0,0,26405271.0,26405549.0,278.0
141,choice,choice,42,6.0,Large,1.0,8.541128208045848,Object_Land_Pattern_Small,1,0,0,26405575.0,26406155.0,580.0
141,choice,choice,42,6.0,Large,1.0,8.541128208045848,Animal_Sea_Pattern_Large,0,0,1,26406446.0,26407067.0,621.0
141,choice,choice,42,6.0,Large,1.0,8.541128208045848,fixation,-1,1,0,26407474.0,26407808.0,334.0
141,choice,choice,42,6.0,Large,1.0,8.541128208045848,Animal_Sea_Pattern_Large,0,0,1,26408079.0,26408703.0,624.0
141,choice,choice,42,6.0,Large,1.0,8.541128208045848,fixation,-1,1,0,26408750.0,26408845.0,95.0
141,choice,choice,43,6.0,Solid,1.0,13.724206582992338,Object_Land_Pattern_Small,1,0,0,26412175.0,26412555.0,380.0
141,choice,choice,43,6.0,Solid,1.0,13.724206582992338,Animal_Sea_Pattern_Large,0,0,0,26412864.0,26413054.0,190.0
141,choice,choice,43,6.0,Solid,1.0,13.724206582992338,Animal_Sea_Pattern_Small,2,0,0,26413116.0,26413843.0,727.0
141,choice,choice,43,6.0,Solid,1.0,13.724206582992338,Object_Land_Solid_Small,5,0,1,26414129.0,26414170.0,41.0
141,choice,choice,43,6.0,Solid,1.0,13.724206582992338,Object_Land_Solid_Large,4,0,1,26414192.0,26414761.0,569.0
141,choice,choice,43,6.0,Solid,1.0,13.724206582992338,Animal_Sea_Pattern_Small,2,0,0,26414778.0,26414911.0,133.0
141,choice,choice,43,6.0,Solid,1.0,13.724206582992338,Animal_Sea_Pattern_Large,0,0,0,26415236.0,26415943.0,707.0
141,choice,choice,43,6.0,Solid,1.0,13.724206582992338,Object_Land_Solid_Small,5,0,1,26416253.0,26416563.0,310.0
141,choice,choice,43,6.0,Solid,1.0,13.724206582992338,fixation,-1,1,0,26416598.0,26417501.0,903.0
141,choice,choice,43,6.0,Solid,1.0,13.724206582992338,Animal_Sea_Pattern_Large,0,0,0,26418079.0,26418582.0,503.0
141,choice,choice,43,6.0,Solid,1.0,13.724206582992338,Object_Land_Pattern_Small,1,0,0,26418619.0,26418885.0,266.0
141,choice,choice,43,6.0,Solid,1.0,13.724206582992338,Animal_Sea_Pattern_Large,0,0,0,26419161.0,26419694.0,533.0
141,choice,choice,43,6.0,Solid,1.0,13.724206582992338,fixation,-1,1,0,26419723.0,26420147.0,424.0
141,choice,choice,43,6.0,Solid,1.0,13.724206582992338,Object_Land_Solid_Small,5,0,1,26420421.0,26420458.0,37.0
141,choice,choice,43,6.0,Solid,1.0,13.724206582992338,Animal_Sea_Pattern_Large,0,0,0,26420467.0,26421012.0,545.0
141,choice,choice,43,6.0,Solid,1.0,13.724206582992338,Object_Land_Solid_Small,5,0,1,26421306.0,26422297.0,991.0
141,choice,choice,43,6.0,Solid,1.0,13.724206582992338,Object_Land_Pattern_Small,1,0,0,26422963.0,26423428.0,465.0
141,choice,choice,43,6.0,Solid,1.0,13.724206582992338,Animal_Sea_Pattern_Large,0,0,0,26423751.0,26424192.0,441.0
141,choice,choice,43,6.0,Solid,1.0,13.724206582992338,Animal_Sea_Solid_Large,3,0,1,26424235.0,26425043.0,808.0
141,choice,choice,43,6.0,Solid,1.0,13.724206582992338,Animal_Sea_Pattern_Large,0,0,0,26425569.0,26425600.0,31.0
141,choice,choice,43,6.0,Solid,1.0,13.724206582992338,Object_Land_Pattern_Small,1,0,0,26425607.0,26425622.0,15.0
141,choice,choice,44,6.0,Object,2.0,4.61408308299724,fixation,-1,1,0,26428188.0,26428724.0,536.0
141,choice,choice,44,6.0,Object,2.0,4.61408308299724,Object_Land_Solid_Large,4,0,1,26428982.0,26429463.0,481.0
141,choice,choice,44,6.0,Object,2.0,4.61408308299724,Animal_Sea_Pattern_Small,2,0,0,26429723.0,26429820.0,97.0
141,choice,choice,44,6.0,Object,2.0,4.61408308299724,fixation,-1,1,0,26429837.0,26429951.0,114.0
141,choice,choice,44,6.0,Object,2.0,4.61408308299724,Object_Land_Solid_Small,5,0,1,26429975.0,26430012.0,37.0
141,choice,choice,44,6.0,Object,2.0,4.61408308299724,Animal_Sea_Pattern_Large,0,0,0,26430028.0,26430476.0,448.0
141,choice,choice,44,6.0,Object,2.0,4.61408308299724,fixation,-1,1,0,26430814.0,26431237.0,423.0
141,choice,choice,44,6.0,Object,2.0,4.61408308299724,Animal_Sea_Pattern_Large,0,0,0,26431515.0,26431850.0,335.0
141,choice,choice,44,6.0,Object,2.0,4.61408308299724,Object_Land_Pattern_Small,1,0,1,26431871.0,26432086.0,215.0
141,choice,choice,44,6.0,Object,2.0,4.61408308299724,Animal_Sea_Pattern_Small,2,0,0,26432155.0,26432561.0,406.0
141,choice,choice,44,6.0,Object,2.0,4.61408308299724,Object_Land_Pattern_Small,1,0,1,26432591.0,26432791.0,200.0
141,choice,choice,45,6.0,Pattern,2.0,7.289650916005485,Animal_Sea_Solid_Large,3,0,0,26436132.0,26436523.0,391.0
141,choice,choice,45,6.0,Pattern,2.0,7.289650916005485,fixation,-1,1,0,26436540.0,26437775.0,1235.0
141,choice,choice,45,6.0,Pattern,2.0,7.289650916005485,Animal_Sea_Pattern_Large,0,0,1,26438363.0,26438880.0,517.0
141,choice,choice,45,6.0,Pattern,2.0,7.289650916005485,fixation,-1,1,0,26439221.0,26439423.0,202.0
141,choice,choice,45,6.0,Pattern,2.0,7.289650916005485,Animal_Sea_Pattern_Small,2,0,1,26439722.0,26439824.0,102.0
141,choice,choice,45,6.0,Pattern,2.0,7.289650916005485,fixation,-1,1,0,26439848.0,26439986.0,138.0
141,choice,choice,45,6.0,Pattern,2.0,7.289650916005485,Object_Land_Solid_Large,4,0,0,26440007.0,26440377.0,370.0
141,choice,choice,45,6.0,Pattern,2.0,7.289650916005485,Object_Land_Solid_Small,5,0,0,26440630.0,26440966.0,336.0
141,choice,choice,45,6.0,Pattern,2.0,7.289650916005485,Animal_Sea_Solid_Large,3,0,0,26441005.0,26441133.0,128.0
141,choice,choice,45,6.0,Pattern,2.0,7.289650916005485,Object_Land_Solid_Large,4,0,0,26441389.0,26441506.0,117.0
141,choice,choice,45,6.0,Pattern,2.0,7.289650916005485,Animal_Sea_Solid_Large,3,0,0,26441516.0,26441842.0,326.0
141,choice,choice,45,6.0,Pattern,2.0,7.289650916005485,Animal_Sea_Pattern_Large,0,0,1,26441859.0,26441988.0,129.0
141,choice,choice,45,6.0,Pattern,2.0,7.289650916005485,fixation,-1,1,0,26442266.0,26442876.0,610.0
141,choice,choice,45,6.0,Pattern,2.0,7.289650916005485,Animal_Sea_Pattern_Large,0,0,1,26442895.0,26443120.0,225.0
141,choice,choice,46,6.0,Animal,1.0,2.6561459579970688,Animal_Sea_Pattern_Small,2,0,1,26446275.0,26446371.0,96.0
141,choice,choice,46,6.0,Animal,1.0,2.6561459579970688,fixation,-1,1,0,26446387.0,26446879.0,492.0
141,choice,choice,46,6.0,Animal,1.0,2.6561459579970688,Object_Land_Solid_Small,5,0,0,26447130.0,26447334.0,204.0
141,choice,choice,46,6.0,Animal,1.0,2.6561459579970688,Object_Land_Solid_Large,4,0,0,26447359.0,26447752.0,393.0
141,choice,choice,46,6.0,Animal,1.0,2.6561459579970688,fixation,-1,1,0,26447767.0,26448557.0,790.0
141,choice,choice,47,6.0,Land,2.0,3.9138966250466183,fixation,-1,1,0,26451585.0,26452194.0,609.0
141,choice,choice,47,6.0,Land,2.0,3.9138966250466183,Object_Land_Solid_Large,4,0,1,26452485.0,26453057.0,572.0
141,choice,choice,47,6.0,Land,2.0,3.9138966250466183,Object_Land_Solid_Small,5,0,1,26453310.0,26453727.0,417.0
141,choice,choice,47,6.0,Land,2.0,3.9138966250466183,fixation,-1,1,0,26453750.0,26454226.0,476.0
141,choice,choice,47,6.0,Land,2.0,3.9138966250466183,Object_Land_Pattern_Small,1,0,1,26454509.0,26454858.0,349.0
141,choice,choice,47,6.0,Land,2.0,3.9138966250466183,Animal_Sea_Pattern_Small,2,0,0,26454883.0,26455310.0,427.0
141,choice,choice,48,6.0,Small,2.0,1.6702509999740869,Object_Land_Solid_Small,5,0,1,26458460.0,26458565.0,105.0
141,choice,choice,48,6.0,Small,2.0,1.6702509999740869,fixation,-1,1,0,26458583.0,26458918.0,335.0
141,choice,choice,48,6.0,Small,2.0,1.6702509999740869,Object_Land_Solid_Large,4,0,0,26458954.0,26459274.0,320.0
141,choice,choice,48,6.0,Small,2.0,1.6702509999740869,Object_Land_Pattern_Small,1,0,1,26459298.0,26459534.0,236.0
141,choice,choice,49,7.0,Sea,1.0,10.030755958054216,fixation,-1,1,0,26744002.0,26744556.0,554.0
141,choice,choice,49,7.0,Sea,1.0,10.030755958054216,Animal_Land_Pattern_Large,0,0,0,26744818.0,26745074.0,256.0
141,choice,choice,49,7.0,Sea,1.0,10.030755958054216,Object_Sea_Solid_Large,1,0,1,26745096.0,26745460.0,364.0
141,choice,choice,49,7.0,Sea,1.0,10.030755958054216,Animal_Land_Pattern_Small,2,0,0,26745737.0,26746309.0,572.0
141,choice,choice,49,7.0,Sea,1.0,10.030755958054216,Animal_Land_Solid_Small,3,0,0,26747194.0,26748131.0,937.0
141,choice,choice,49,7.0,Sea,1.0,10.030755958054216,Object_Sea_Pattern_Large,4,0,1,26748697.0,26748966.0,269.0
141,choice,choice,49,7.0,Sea,1.0,10.030755958054216,Animal_Land_Pattern_Large,0,0,0,26748984.0,26749364.0,380.0
141,choice,choice,49,7.0,Sea,1.0,10.030755958054216,Object_Sea_Solid_Small,5,0,1,26749607.0,26750213.0,606.0
141,choice,choice,49,7.0,Sea,1.0,10.030755958054216,Object_Sea_Solid_Large,1,0,1,26750494.0,26750836.0,342.0
141,choice,choice,49,7.0,Sea,1.0,10.030755958054216,Animal_Land_Pattern_Small,2,0,0,26750882.0,26751004.0,122.0
141,choice,choice,49,7.0,Sea,1.0,10.030755958054216,Object_Sea_Solid_Small,5,0,1,26751240.0,26751303.0,63.0
141,choice,choice,49,7.0,Sea,1.0,10.030755958054216,Object_Sea_Solid_Large,1,0,1,26751330.0,26751639.0,309.0
141,choice,choice,49,7.0,Sea,1.0,10.030755958054216,Animal_Land_Pattern_Small,2,0,0,26751664.0,26751726.0,62.0
141,choice,choice,49,7.0,Sea,1.0,10.030755958054216,Object_Sea_Solid_Small,5,0,1,26751997.0,26752359.0,362.0
141,choice,choice,49,7.0,Sea,1.0,10.030755958054216,Object_Sea_Solid_Large,1,0,1,26752380.0,26752781.0,401.0
141,choice,choice,49,7.0,Sea,1.0,10.030755958054216,Object_Sea_Solid_Small,5,0,1,26753036.0,26753098.0,62.0
141,choice,choice,49,7.0,Sea,1.0,10.030755958054216,fixation,-1,1,0,26753108.0,26753417.0,309.0
141,choice,choice,49,7.0,Sea,1.0,10.030755958054216,Object_Sea_Solid_Large,1,0,1,26753442.0,26753725.0,283.0
141,choice,choice,50,7.0,Small,2.0,9.514974042074757,fixation,-1,1,0,26757675.0,26760395.0,2720.0
141,choice,choice,50,7.0,Small,2.0,9.514974042074757,Animal_Land_Pattern_Large,0,0,0,26760958.0,26761209.0,251.0
141,choice,choice,50,7.0,Small,2.0,9.514974042074757,fixation,-1,1,0,26761224.0,26761994.0,770.0
141,choice,choice,50,7.0,Small,2.0,9.514974042074757,Animal_Land_Solid_Small,3,0,1,26762022.0,26762218.0,196.0
141,choice,choice,50,7.0,Small,2.0,9.514974042074757,fixation,-1,1,0,26762231.0,26762511.0,280.0
141,choice,choice,50,7.0,Small,2.0,9.514974042074757,Animal_Land_Solid_Small,3,0,1,26762533.0,26763135.0,602.0
141,choice,choice,50,7.0,Small,2.0,9.514974042074757,Object_Sea_Solid_Large,1,0,0,26763414.0,26763569.0,155.0
141,choice,choice,50,7.0,Small,2.0,9.514974042074757,fixation,-1,1,0,26763592.0,26764302.0,710.0
141,choice,choice,50,7.0,Small,2.0,9.514974042074757,Animal_Land_Solid_Small,3,0,1,26764587.0,26764672.0,85.0
141,choice,choice,50,7.0,Small,2.0,9.514974042074757,fixation,-1,1,0,26764919.0,26766018.0,1099.0
141,choice,choice,51,7.0,Pattern,2.0,6.811201125034131,fixation,-1,1,0,26769497.0,26770228.0,731.0
141,choice,choice,51,7.0,Pattern,2.0,6.811201125034131,Object_Sea_Solid_Large,1,0,0,26770540.0,26770676.0,136.0
141,choice,choice,51,7.0,Pattern,2.0,6.811201125034131,fixation,-1,1,0,26770968.0,26771319.0,351.0
141,choice,choice,51,7.0,Pattern,2.0,6.811201125034131,Object_Sea_Pattern_Large,4,0,1,26771592.0,26771758.0,166.0
141,choice,choice,51,7.0,Pattern,2.0,6.811201125034131,fixation,-1,1,0,26771788.0,26772232.0,444.0
141,choice,choice,51,7.0,Pattern,2.0,6.811201125034131,Object_Sea_Solid_Large,1,0,0,26772528.0,26772843.0,315.0
141,choice,choice,51,7.0,Pattern,2.0,6.811201125034131,Object_Sea_Pattern_Large,4,0,1,26772900.0,26773085.0,185.0
141,choice,choice,51,7.0,Pattern,2.0,6.811201125034131,Animal_Land_Solid_Small,3,0,0,26773361.0,26773664.0,303.0
141,choice,choice,51,7.0,Pattern,2.0,6.811201125034131,Object_Sea_Pattern_Large,4,0,1,26773686.0,26774096.0,410.0
141,choice,choice,51,7.0,Pattern,2.0,6.811201125034131,fixation,-1,1,0,26774110.0,26774605.0,495.0
141,choice,choice,51,7.0,Pattern,2.0,6.811201125034131,Object_Sea_Pattern_Large,4,0,1,26774897.0,26775133.0,236.0
141,choice,choice,51,7.0,Pattern,2.0,6.811201125034131,Animal_Land_Solid_Small,3,0,0,26775627.0,26775846.0,219.0
141,choice,choice,51,7.0,Pattern,2.0,6.811201125034131,fixation,-1,1,0,26775872.0,26776156.0,284.0
141,choice,choice,52,7.0,Solid,2.0,11.832757167052478,fixation,-1,1,0,26780084.0,26780417.0,333.0
141,choice,choice,52,7.0,Solid,2.0,11.832757167052478,Object_Sea_Pattern_Large,4,0,0,26780445.0,26780754.0,309.0
141,choice,choice,52,7.0,Solid,2.0,11.832757167052478,Animal_Land_Solid_Small,3,0,1,26781010.0,26781608.0,598.0
141,choice,choice,52,7.0,Solid,2.0,11.832757167052478,Object_Sea_Solid_Large,1,0,1,26781906.0,26782038.0,132.0
141,choice,choice,52,7.0,Solid,2.0,11.832757167052478,Animal_Land_Solid_Small,3,0,1,26782044.0,26782468.0,424.0
141,choice,choice,52,7.0,Solid,2.0,11.832757167052478,fixation,-1,1,0,26782533.0,26783985.0,1452.0
141,choice,choice,52,7.0,Solid,2.0,11.832757167052478,Animal_Land_Pattern_Large,0,0,0,26784803.0,26785194.0,391.0
141,choice,choice,52,7.0,Solid,2.0,11.832757167052478,fixation,-1,1,0,26785208.0,26785435.0,227.0
141,choice,choice,52,7.0,Solid,2.0,11.832757167052478,Animal_Land_Solid_Small,3,0,1,26785450.0,26785545.0,95.0
141,choice,choice,52,7.0,Solid,2.0,11.832757167052478,Object_Sea_Solid_Large,1,0,1,26785789.0,26786428.0,639.0
141,choice,choice,52,7.0,Solid,2.0,11.832757167052478,Animal_Land_Pattern_Small,2,0,0,26786737.0,26787237.0,500.0
141,choice,choice,52,7.0,Solid,2.0,11.832757167052478,fixation,-1,1,0,26787249.0,26787322.0,73.0
141,choice,choice,52,7.0,Solid,2.0,11.832757167052478,Object_Sea_Solid_Large,1,0,1,26787590.0,26788083.0,493.0
141,choice,choice,52,7.0,Solid,2.0,11.832757167052478,fixation,-1,1,0,26788103.0,26788374.0,271.0
141,choice,choice,52,7.0,Solid,2.0,11.832757167052478,Object_Sea_Solid_Large,1,0,1,26788639.0,26789017.0,378.0
141,choice,choice,52,7.0,Solid,2.0,11.832757167052478,fixation,-1,1,0,26789292.0,26791242.0,1950.0
141,choice,choice,53,7.0,Land,2.0,4.266608875012025,Animal_Land_Pattern_Small,2,0,1,26795687.0,26796186.0,499.0
141,choice,choice,53,7.0,Land,2.0,4.266608875012025,fixation,-1,1,0,26796443.0,26797005.0,562.0
141,choice,choice,53,7.0,Land,2.0,4.266608875012025,Object_Sea_Pattern_Large,4,0,0,26797290.0,26797648.0,358.0
141,choice,choice,53,7.0,Land,2.0,4.266608875012025,Object_Sea_Solid_Small,5,0,0,26797878.0,26798542.0,664.0
141,choice,choice,53,7.0,Land,2.0,4.266608875012025,Animal_Land_Pattern_Small,2,0,1,26798811.0,26799085.0,274.0
141,choice,choice,53,7.0,Land,2.0,4.266608875012025,fixation,-1,1,0,26799099.0,26799364.0,265.0
141,choice,choice,55,7.0,Object,2.0,1.8734107919735832,fixation,-1,1,0,26805543.0,26806177.0,634.0
141,choice,choice,55,7.0,Object,2.0,1.8734107919735832,Object_Sea_Pattern_Large,4,0,1,26806211.0,26806335.0,124.0
141,choice,choice,55,7.0,Object,2.0,1.8734107919735832,Animal_Land_Pattern_Small,2,0,0,26806593.0,26806796.0,203.0
141,choice,choice,55,7.0,Object,2.0,1.8734107919735832,Object_Sea_Solid_Large,1,0,1,26806833.0,26807137.0,304.0
141,choice,choice,56,7.0,Animal,1.0,3.8474857500987127,fixation,-1,1,0,26809887.0,26810489.0,602.0
141,choice,choice,56,7.0,Animal,1.0,3.8474857500987127,Animal_Land_Pattern_Small,2,0,1,26810737.0,26810903.0,166.0
141,choice,choice,56,7.0,Animal,1.0,3.8474857500987127,fixation,-1,1,0,26810918.0,26811429.0,511.0
141,choice,choice,56,7.0,Animal,1.0,3.8474857500987127,Object_Sea_Solid_Large,1,0,0,26811705.0,26811799.0,94.0
141,choice,choice,56,7.0,Animal,1.0,3.8474857500987127,Animal_Land_Solid_Small,3,0,1,26811808.0,26812071.0,263.0
141,choice,choice,56,7.0,Animal,1.0,3.8474857500987127,fixation,-1,1,0,26812091.0,26813280.0,1189.0
