thisRow.t,notes,phase,event,onset,offset,trial_number,game,image,outcome,choice,correct,rt,letter,match,response,option,true_value,true_position,recalled_position,
,,encoding,fixation,12.484956166648772,13.779523583332775,1,1,Object_Sea_Pattern_Large,-2,,,,,,,,,,,
,,encoding,image,13.779638124979101,14.839445583318593,1,1,Object_Sea_Pattern_Large,-2,,,,,,,,,,,
,,encoding,value,14.83958929165965,20.852226999995764,1,1,Object_Sea_Pattern_Large,-2,,,,,,,,,,,
,,encoding,attention,20.85232891663327,23.863343333330704,1,1,Object_Sea_Pattern_Large,-2,None,None,None,,,,,,,,
,,encoding,fixation,23.863522416650085,24.36749591663829,2,1,Animal_Land_Solid_Small,3,,,,,,,,,,,
,,encoding,image,24.367586416658014,25.37628829164896,2,1,Animal_Land_Solid_Small,3,,,,,,,,,,,
,,encoding,value,25.376479999977164,31.385952833341435,2,1,Animal_Land_Solid_Small,3,,,,,,,,,,,
,,encoding,attention,31.386114583321614,34.39557875000173,2,1,Animal_Land_Solid_Small,3,None,None,None,,,,,,,,
,,encoding,fixation,34.39569529163418,35.39929649999249,3,1,Animal_Land_Pattern_Small,-8,,,,,,,,,,,
,,encoding,image,35.39938124999753,36.40781858333503,3,1,Animal_Land_Pattern_Small,-8,,,,,,,,,,,
,,encoding,value,36.40792141665588,42.41713362498558,3,1,Animal_Land_Pattern_Small,-8,,,,,,,,,,,
,,encoding,attention,42.41727074998198,45.431068333331496,3,1,Animal_Land_Pattern_Small,-8,None,None,None,,,,,,,,
,,encoding,fixation,45.431183749984484,46.68491791663109,4,1,Object_Sea_Solid_Large,-2,,,,,,,,,,,
,,encoding,image,46.68503862500074,47.696593999979086,4,1,Object_Sea_Solid_Large,-2,,,,,,,,,,,
,,encoding,value,47.69668924997677,53.705559958325466,4,1,Object_Sea_Solid_Large,-2,,,,,,,,,,,
,,encoding,attention,53.70566679164767,56.715655916632386,4,1,Object_Sea_Solid_Large,-2,None,None,None,,,,,,,,
,,encoding,fixation,56.715772249997826,57.719580416654935,5,1,Animal_Sea_Solid_Large,3,,,,,,,,,,,
,,encoding,image,57.719690916652326,58.72983962498256,5,1,Animal_Sea_Solid_Large,3,,,,,,,,,,,
,,encoding,value,58.72994699998526,64.73896099999547,5,1,Animal_Sea_Solid_Large,3,,,,,,,,,,,
,,encoding,attention,64.73907108334242,67.74984641664196,5,1,Animal_Sea_Solid_Large,3,None,None,None,,,,,,,,
,,encoding,fixation,67.74995345831849,69.25366858334746,6,1,Object_Land_Pattern_Small,6,,,,,,,,,,,
,,encoding,image,69.25377683332772,70.26278941665078,6,1,Object_Land_Pattern_Small,6,,,,,,,,,,,
,,encoding,value,70.26290716664516,76.27277637500083,6,1,Object_Land_Pattern_Small,6,,,,,,,,,,,
,,encoding,attention,76.27291195833823,79.28325120834052,6,1,Object_Land_Pattern_Small,6,None,None,None,,,,,,,,
,,n-back,,,,1,1,,,,0,None,B,True,None,,,,,
,,n-back,,,,2,1,,,,1,None,C,False,None,,,,,
,,n-back,,,,3,1,,,,0,None,B,True,None,,,,,
,,n-back,,,,4,1,,,,1,None,Z,False,None,,,,,
,,n-back,,,,5,1,,,,0,None,B,True,None,,,,,
,,n-back,,,,6,1,,,,1,0.8724583750008605,Z,True,1,,,,,
,,n-back,,,,7,1,,,,1,None,C,False,None,,,,,
,,n-back,,,,8,1,,,,0,None,Z,True,None,,,,,
,,n-back,,,,9,1,,,,1,None,Z,False,None,,,,,
,,n-back,,,,10,1,,,,1,0.5538132500078063,Z,True,1,,,,,
,,n-back,,,,11,1,,,,1,None,X,False,None,,,,,
,,n-back,,,,12,1,,,,0,None,Z,True,None,,,,,
,,n-back,,,,13,1,,,,1,0.7263880833343137,X,True,1,,,,,
,,n-back,,,,14,1,,,,1,None,B,False,None,,,,,
,,n-back,,,,15,1,,,,1,None,C,False,None,,,,,
,,n-back,,,,16,1,,,,1,None,X,False,None,,,,,
,,n-back,,,,17,1,,,,1,None,V,False,None,,,,,
,,n-back,,,,18,1,,,,1,None,V,False,None,,,,,
,,n-back,,,,19,1,,,,1,None,X,False,None,,,,,
,,n-back,,,,20,1,,,,1,None,N,False,None,,,,,
,,n-back,,,,21,1,,,,1,None,Z,False,None,,,,,
,,n-back,,,,22,1,,,,1,None,C,False,None,,,,,
,,n-back,,,,23,1,,,,1,None,X,False,None,,,,,
,,n-back,,,,24,1,,,,1,None,N,False,None,,,,,
,,n-back,,,,25,1,,,,1,None,N,False,None,,,,,
,,n-back,,,,26,1,,,,1,None,V,False,None,,,,,
,,n-back,,,,27,1,,,,1,None,V,False,None,,,,,
,,n-back,,,,28,1,,,,1,0.7033364166854881,V,True,1,,,,,
,,n-back,,,,29,1,,,,1,None,N,False,None,,,,,
,,n-back,,,,30,1,,,,1,0.5762940833519679,V,True,1,,,,,
,,choice,fixation,159.44677308332757,160.45143904164433,1,1,,,,,,,,,Sea,,,,
,,choice,option,160.45800799998688,161.59121720833355,1,1,,,,,,,,,Sea,,,,
,,choice,choice,161.59132866663276,171.28935812498094,1,1,,,2,1,8.68846558331279,,,,Sea,,,,
,,choice,fixation,171.28947737498675,172.79320399998687,2,1,,,,,,,,,Small,,,,
,,choice,option,172.7992943749996,173.82413612498203,2,1,,,,,,,,,Small,,,,
,,choice,choice,173.8242368333449,182.58548662500107,2,1,,,1,1,7.751656291657127,,,,Small,,,,
,,choice,fixation,182.58562012499897,183.33891012499225,3,1,,,,,,,,,Animal,,,,
,,choice,option,183.34531987499213,184.36919024999952,3,1,,,,,,,,,Animal,,,,
,,choice,choice,184.3693654166418,188.60889725000015,3,1,,,2,1,3.232123333349591,,,,Animal,,,,
,,choice,fixation,188.60900516665424,189.86123016665806,4,1,,,,,,,,,Solid,,,,
,,choice,option,189.86781637498643,190.8924997083377,4,1,,,,,,,,,Solid,,,,
,,choice,choice,190.89259666664293,198.6575304166472,4,1,,,2,0,6.757133333332604,,,,Solid,,,,
,,choice,fixation,198.65768545833998,199.41206812497694,5,1,,,,,,,,,Land,,,,
,,choice,option,199.41812170832418,200.44183245833847,5,1,,,,,,,,,Land,,,,
,,choice,choice,200.44194279165822,207.28505020833109,5,1,,,1,1,5.835298999998486,,,,Land,,,,
,,choice,fixation,207.28517216665205,208.28866341663525,6,1,,,,,,,,,Pattern,,,,
,,choice,option,208.29480974999024,209.31901204164024,6,1,,,,,,,,,Pattern,,,,
,,choice,choice,209.31917370832525,212.29941683332436,6,1,,,1,0,1.9727392499917187,,,,Pattern,,,,
,,choice,fixation,212.29954208334675,213.55309016664978,7,1,,,,,,,,,Object,,,,
,,choice,option,213.55990683333948,214.58403754164465,7,1,,,,,,,,,Object,,,,
,,choice,choice,214.5841682916507,222.33393637498375,7,1,,,1,1,6.741386749985395,,,,Object,,,,
,,choice,fixation,222.33406879164977,223.08747312499327,8,1,,,,,,,,,Large,,,,
,,choice,option,223.0940935833205,224.1182138749864,8,1,,,,,,,,,Large,,,,
,,choice,choice,224.11833504165406,227.56353504164144,8,1,,,2,1,2.437032708345214,,,,Large,,,,
,,memory,free_recall,274.8460003333457,290.4462532500038,0,1,,,,,,,,,,,,,
,,memory,value_recall,331.74580362500274,338.1583717500034,1,1,Object_Sea_Pattern_Large,,,,6.4089077083044685,,,,,-2,,,
,,memory,value_recall,339.4487556666427,342.6694412083307,2,1,Animal_Sea_Solid_Large,,,,3.2171498750103638,,,,,3,,,
,,memory,value_recall,344.45949808333535,349.4813857083209,3,1,Object_Sea_Solid_Large,,,,5.018186833331129,,,,,-2,,,
,,memory,value_recall,351.0203724166495,353.7730431666423,4,1,Object_Land_Pattern_Small,,,,2.7488221249950584,,,,,6,,,
,,memory,value_recall,355.3123946249834,360.2694029583363,5,1,Animal_Land_Pattern_Small,,,,4.953471375018125,,,,,-8,,,
,,memory,value_recall,362.30925133332494,368.0529117916594,6,1,Animal_Land_Solid_Small,,,,5.739948458329309,,,,,3,,,
,,memory,spatial_recall,382.3491524999845,389.8464444166457,6,1,Object_Land_Pattern_Small,,,1,7.493780541670276,,,,,,"[329, 189]","[329, 189]",
,,memory,spatial_recall,390.9123672916321,394.8466746666527,6,1,Animal_Sea_Solid_Large,,,1,3.9322382083628327,,,,,,"[0, -380]","[0, -380]",
,,memory,spatial_recall,396.9135827916325,414.84622066665906,6,1,Animal_Land_Solid_Small,,,1,17.929011333355447,,,,,,"[-329, -190]","[-329, -190]",
,,memory,spatial_recall,416.16108316663303,419.7487239583279,6,1,Animal_Land_Pattern_Small,,,1,3.583855000004405,,,,,,"[329, -190]","[329, -190]",
,,memory,spatial_recall,421.3179932916537,423.56611766663264,6,1,Object_Sea_Solid_Large,,,1,2.2446029583225027,,,,,,"[0, 380]","[0, 380]",
,,memory,spatial_recall,424.8859914999921,427.7628631249827,6,1,Object_Sea_Pattern_Large,,,1,2.8733787499950267,,,,,,"[-329, 190]","[-329, 190]",
,,encoding,fixation,6.262443249986973,7.516428541654022,7,2,Object_Land_Pattern_Large,9,,,,,,,,,,,
,,encoding,image,7.516533083311515,8.526554041658528,7,2,Object_Land_Pattern_Large,9,,,,,,,,,,,
,,encoding,value,8.52664766664384,14.537598374998197,7,2,Object_Land_Pattern_Large,9,,,,,,,,,,,
,,encoding,attention,14.53772662501433,17.548361708322773,7,2,Object_Land_Pattern_Large,9,None,None,None,,,,,,,,
,,encoding,fixation,17.548479499993846,18.052398375002667,8,2,Object_Sea_Pattern_Small,-9,,,,,,,,,,,
,,encoding,image,18.052492916671326,19.060683749994496,8,2,Object_Sea_Pattern_Small,-9,,,,,,,,,,,
,,encoding,value,19.06084187500528,25.07026683332515,8,2,Object_Sea_Pattern_Small,-9,,,,,,,,,,,
,,encoding,attention,25.070387749990914,28.080057958315592,8,2,Object_Sea_Pattern_Small,-9,None,None,None,,,,,,,,
,,encoding,fixation,28.0801844583184,28.83399762501358,9,2,Object_Land_Solid_Large,-3,,,,,,,,,,,
,,encoding,image,28.8340982083173,29.841697583324276,9,2,Object_Land_Solid_Large,-3,,,,,,,,,,,
,,encoding,value,29.841791000013473,35.850174499995774,9,2,Object_Land_Solid_Large,-3,,,,,,,,,,,
,,encoding,attention,35.85029712499818,38.85990791665972,9,2,Object_Land_Solid_Large,-3,None,None,None,,,,,,,,
,,encoding,fixation,38.86002920829924,40.11364870832767,10,2,Animal_Land_Solid_Large,-1,,,,,,,,,,,
,,encoding,image,40.113764791662106,41.12326987501001,10,2,Animal_Land_Solid_Large,-1,,,,,,,,,,,
,,encoding,value,41.12335591664305,47.132620583317475,10,2,Animal_Land_Solid_Large,-1,,,,,,,,,,,
,,encoding,attention,47.13271258331952,50.14305129167042,10,2,Animal_Land_Solid_Large,-1,None,None,None,,,,,,,,
,,encoding,fixation,50.143187999987276,51.146837333304575,11,2,Animal_Sea_Pattern_Small,9,,,,,,,,,,,
,,encoding,image,51.14692775000003,52.157933541660896,11,2,Animal_Sea_Pattern_Small,9,,,,,,,,,,,
,,encoding,value,52.158050458325306,58.167063291650265,11,2,Animal_Sea_Pattern_Small,9,,,,,,,,,,,
,,encoding,attention,58.16717695831903,61.17725375000737,11,2,Animal_Sea_Pattern_Small,9,None,None,None,,,,,,,,
,,encoding,fixation,61.177368333301274,62.4309278333094,12,2,Animal_Sea_Solid_Small,6,,,,,,,,,,,
,,encoding,image,62.43101629166631,63.440055250015575,12,2,Animal_Sea_Solid_Small,6,,,,,,,,,,,
,,encoding,value,63.44017891664407,69.44935404165881,12,2,Animal_Sea_Solid_Small,6,,,,,,,,,,,
,,encoding,attention,69.4495162916719,72.45882262499072,12,2,Animal_Sea_Solid_Small,6,None,None,None,,,,,,,,
,,n-back,,,,31,2,,,,0,None,B,True,None,,,,,
,,n-back,,,,32,2,,,,1,None,N,False,None,,,,,
,,n-back,,,,33,2,,,,1,None,X,False,None,,,,,
,,n-back,,,,34,2,,,,1,None,C,False,None,,,,,
,,n-back,,,,35,2,,,,0,None,X,True,None,,,,,
,,n-back,,,,36,2,,,,1,None,V,False,None,,,,,
,,n-back,,,,37,2,,,,0,None,X,True,None,,,,,
,,n-back,,,,38,2,,,,0,None,V,True,None,,,,,
,,n-back,,,,39,2,,,,1,0.4956617083516903,X,True,1,,,,,
,,n-back,,,,40,2,,,,1,None,N,False,None,,,,,
,,n-back,,,,41,2,,,,1,1.1049139999959152,X,True,1,,,,,
,,n-back,,,,42,2,,,,1,0.8356621249986347,N,True,1,,,,,
,,n-back,,,,43,2,,,,1,0.7972109999973327,X,True,1,,,,,
,,n-back,,,,44,2,,,,1,None,V,False,None,,,,,
,,n-back,,,,45,2,,,,1,None,N,False,None,,,,,
,,n-back,,,,46,2,,,,1,None,B,False,None,,,,,
,,n-back,,,,47,2,,,,1,None,Z,False,None,,,,,
,,n-back,,,,48,2,,,,1,0.7340929166821297,B,True,1,,,,,
,,n-back,,,,49,2,,,,1,None,C,False,None,,,,,
,,n-back,,,,50,2,,,,1,None,V,False,None,,,,,
,,n-back,,,,51,2,,,,1,None,Z,False,None,,,,,
,,n-back,,,,52,2,,,,1,None,C,False,None,,,,,
,,n-back,,,,53,2,,,,1,None,V,False,None,,,,,
,,n-back,,,,54,2,,,,1,None,B,False,None,,,,,
,,n-back,,,,55,2,,,,1,None,C,False,None,,,,,
,,n-back,,,,56,2,,,,1,None,X,False,None,,,,,
,,n-back,,,,57,2,,,,1,None,B,False,None,,,,,
,,n-back,,,,58,2,,,,1,None,Z,False,None,,,,,
,,n-back,,,,59,2,,,,1,None,C,False,None,,,,,
,,n-back,,,,60,2,,,,1,0.603397416707594,Z,True,1,,,,,
,,choice,fixation,150.87661970831687,151.37845175000257,9,2,,,,,,,,,Large,,,,
,,choice,option,151.38443320832448,152.40780695830472,9,2,,,,,,,,,Large,,,,
,,choice,choice,152.40793287500856,157.1077210000076,9,2,,,2,0,3.690267041674815,,,,Large,,,,
,,choice,fixation,157.1078635416634,158.6115871249931,10,2,,,,,,,,,Small,,,,
,,choice,option,158.6181867083069,159.6416650833271,10,2,,,,,,,,,Small,,,,
,,choice,choice,159.6417558749963,170.6770112499944,10,2,,,1,1,10.02698870835593,,,,Small,,,,
,,choice,fixation,170.67711616665474,171.18071375001455,11,2,,,,,,,,,Object,,,,
,,choice,option,171.18705899998895,172.21121783330454,11,2,,,,,,,,,Object,,,,
,,choice,choice,172.21134458330926,178.42701945832232,11,2,,,2,1,5.207723666651873,,,,Object,,,,
,,choice,fixation,178.42712679164833,179.93044550000923,12,2,,,,,,,,,Pattern,,,,
,,choice,option,179.9365090833162,180.9611530416587,12,2,,,,,,,,,Pattern,,,,
,,choice,choice,180.96127120830351,185.62743445832166,12,2,,,1,1,3.658121291664429,,,,Pattern,,,,
,,choice,fixation,185.6275978333142,186.6310552083014,13,2,,,,,,,,,Animal,,,,
,,choice,option,186.63816162501462,187.66209970830823,13,2,,,,,,,,,Animal,,,,
,,choice,choice,187.6622012500011,191.3135248333274,13,2,,,1,1,2.6435860416968353,,,,Animal,,,,
,,choice,fixation,191.3136319583282,192.56701937501202,14,2,,,,,,,,,Solid,,,,
,,choice,option,192.57326233331696,193.5968145833176,14,2,,,,,,,,,Solid,,,,
,,choice,choice,193.5969121666567,198.1577531666553,14,2,,,2,0,3.550346666655969,,,,Solid,,,,
,,choice,fixation,198.15793183332426,199.6613324166683,15,2,,,,,,,,,Land,,,,
,,choice,option,199.66705662501045,200.69088237499818,15,2,,,,,,,,,Land,,,,
,,choice,choice,200.69097370831878,203.2646172916575,15,2,,,2,0,1.565888458309928,,,,Land,,,,
,,choice,fixation,203.26481320831226,204.7681486250076,16,2,,,,,,,,,Sea,,,,
,,choice,option,204.7745321666589,205.79847254164633,16,2,,,,,,,,,Sea,,,,
,,choice,choice,205.79856641666265,207.35447874999954,16,2,,,1,1,0.5485297083214391,,,,Sea,,,,
,,memory,free_recall,221.1988464583119,260.06287316666567,6,2,,,,,,,,,,,,,
,,memory,value_recall,264.25940020830603,278.1758997500001,7,2,Object_Land_Pattern_Large,,,,13.912933208339382,,,,,9,,,
,,memory,value_recall,280.2170095833135,285.19066333331284,8,2,Animal_Sea_Pattern_Small,,,,4.969979958346812,,,,,9,,,
,,memory,value_recall,287.2304609583225,292.7665520416631,9,2,Animal_Sea_Solid_Small,,,,5.53256229168619,,,,,6,,,
,,memory,value_recall,294.0636731249979,295.98320570832584,10,2,Object_Sea_Pattern_Small,,,,1.9160385833238252,,,,,-9,,,
,,memory,value_recall,297.2777255833207,299.66310508330935,11,2,Object_Land_Solid_Large,,,,2.3817331666941755,,,,,-3,,,
,,memory,value_recall,301.7023197916569,307.76648724998813,12,2,Animal_Land_Solid_Large,,,,6.058139958331594,,,,,-1,,,
,,memory,spatial_recall,312.7856455416477,318.12369199999375,12,2,Animal_Land_Solid_Large,,,1,5.333171208301792,,,,,,"[-329, -190]","[-329, -190]",
,,memory,spatial_recall,319.689666249993,324.5737505000143,12,2,Animal_Sea_Pattern_Small,,,0,4.880611416650936,,,,,,"[329, 189]","[-329, 190]",
,,memory,spatial_recall,325.8888286250003,328.7722600833222,12,2,Object_Land_Pattern_Large,,,1,2.880034833360696,,,,,,"[0, -380]","[0, -380]",
,,memory,spatial_recall,330.5855429166695,334.07492283330066,12,2,Animal_Sea_Solid_Small,,,1,3.484694833343383,,,,,,"[-329, 190]","[-329, 190]",
,,memory,spatial_recall,335.63918845832814,337.0410322083044,12,2,Object_Sea_Pattern_Small,,,1,1.3981700000003912,,,,,,"[0, 380]","[0, 380]",
,,memory,spatial_recall,338.3474166666565,340.50804933332256,12,2,Object_Land_Solid_Large,,,1,2.157110291707795,,,,,,"[329, -190]","[329, -190]",
,,encoding,fixation,6.9039284583122935,8.15867312499904,13,3,Object_Sea_Pattern_Large,-2,,,,,,,,,,,
,,encoding,image,8.158772958326153,9.170029208326014,13,3,Object_Sea_Pattern_Large,-2,,,,,,,,,,,
,,encoding,value,9.17018841666868,15.180352249997668,13,3,Object_Sea_Pattern_Large,-2,,,,,,,,,,,
,,encoding,attention,15.180459666647948,18.19092054167413,13,3,Object_Sea_Pattern_Large,-2,None,None,None,,,,,,,,
,,encoding,fixation,18.191030416666763,18.944756625016453,14,3,Animal_Sea_Pattern_Large,-3,,,,,,,,,,,
,,encoding,image,18.94487333332654,19.954812875017524,14,3,Animal_Sea_Pattern_Large,-3,,,,,,,,,,,
,,encoding,value,19.954917499999283,25.96357958333101,14,3,Animal_Sea_Pattern_Large,-3,,,,,,,,,,,
,,encoding,attention,25.963680375018157,28.97308795832214,14,3,Animal_Sea_Pattern_Large,-3,None,None,None,,,,,,,,
,,encoding,fixation,28.97320754165412,29.72684562500217,15,3,Object_Land_Solid_Small,-8,,,,,,,,,,,
,,encoding,image,29.72695745830424,30.735690750007052,15,3,Object_Land_Solid_Small,-8,,,,,,,,,,,
,,encoding,value,30.735831124999095,36.7447742499935,15,3,Object_Land_Solid_Small,-8,,,,,,,,,,,
,,encoding,attention,36.744937750016106,39.75494883331703,15,3,Object_Land_Solid_Small,-8,None,None,None,,,,,,,,
,,encoding,fixation,39.755057625006884,40.75878862501122,16,3,Animal_Land_Solid_Small,1,,,,,,,,,,,
,,encoding,image,40.758890958328266,41.76694050000515,16,3,Animal_Land_Solid_Small,1,,,,,,,,,,,
,,encoding,value,41.76704254167271,47.77621283332701,16,3,Animal_Land_Solid_Small,1,,,,,,,,,,,
,,encoding,attention,47.776328333304264,50.78591683332343,16,3,Animal_Land_Solid_Small,1,None,None,None,,,,,,,,
,,encoding,fixation,50.786081625003135,51.289682958304184,17,3,Animal_Land_Pattern_Large,3,,,,,,,,,,,
,,encoding,image,51.289779333310435,52.29826650000177,17,3,Animal_Land_Pattern_Large,3,,,,,,,,,,,
,,encoding,value,52.29836808331311,58.30666512501193,17,3,Animal_Land_Pattern_Large,3,,,,,,,,,,,
,,encoding,attention,58.306778124999255,61.316631916648475,17,3,Animal_Land_Pattern_Large,3,None,None,None,,,,,,,,
,,encoding,fixation,61.31675275001908,62.0722630416567,18,3,Object_Sea_Solid_Small,1,,,,,,,,,,,
,,encoding,image,62.07238200001302,63.08025662502041,18,3,Object_Sea_Solid_Small,1,,,,,,,,,,,
,,encoding,value,63.08038558330736,69.08951729166438,18,3,Object_Sea_Solid_Small,1,,,,,,,,,,,
,,encoding,attention,69.08963487501023,72.09971612499794,18,3,Object_Sea_Solid_Small,1,None,None,None,,,,,,,,
,,n-back,,,,61,3,,,,0,None,N,True,None,,,,,
,,n-back,,,,62,3,,,,1,None,X,False,None,,,,,
,,n-back,,,,63,3,,,,1,1.1757159583212342,N,True,1,,,,,
,,n-back,,,,64,3,,,,1,None,C,False,None,,,,,
,,n-back,,,,65,3,,,,1,None,C,False,None,,,,,
,,n-back,,,,66,3,,,,1,None,V,False,None,,,,,
,,n-back,,,,67,3,,,,1,0.7836930833582301,C,True,1,,,,,
,,n-back,,,,68,3,,,,1,None,X,False,None,,,,,
,,n-back,,,,69,3,,,,1,None,B,False,None,,,,,
,,n-back,,,,70,3,,,,1,None,N,False,None,,,,,
,,n-back,,,,71,3,,,,1,0.6208599166420754,B,True,1,,,,,
,,n-back,,,,72,3,,,,1,None,Z,False,None,,,,,
,,n-back,,,,73,3,,,,1,None,Z,False,None,,,,,
,,n-back,,,,74,3,,,,1,None,B,False,None,,,,,
,,n-back,,,,75,3,,,,1,None,X,False,None,,,,,
,,n-back,,,,76,3,,,,0,0.8336344583658502,Z,False,1,,,,,
,,n-back,,,,77,3,,,,0,None,X,True,None,,,,,
,,n-back,,,,78,3,,,,0,None,Z,True,None,,,,,
,,n-back,,,,79,3,,,,1,0.8481540833599865,X,True,1,,,,,
,,n-back,,,,80,3,,,,1,None,C,False,None,,,,,
,,n-back,,,,81,3,,,,1,None,Z,False,None,,,,,
,,n-back,,,,82,3,,,,1,None,Z,False,None,,,,,
,,n-back,,,,83,3,,,,1,None,X,False,None,,,,,
,,n-back,,,,84,3,,,,1,None,N,False,None,,,,,
,,n-back,,,,85,3,,,,1,None,Z,False,None,,,,,
,,n-back,,,,86,3,,,,1,None,C,False,None,,,,,
,,n-back,,,,87,3,,,,1,0.6331159166875295,Z,True,1,,,,,
,,n-back,,,,88,3,,,,0,None,C,True,None,,,,,
,,n-back,,,,89,3,,,,1,None,V,False,None,,,,,
,,n-back,,,,90,3,,,,1,0.43061887501971796,C,True,1,,,,,
,,choice,fixation,148.71107550000306,149.2130114166648,17,3,,,,,,,,,Large,,,,
,,choice,option,149.2189399166673,150.24213229166344,17,3,,,,,,,,,Large,,,,
,,choice,choice,150.24222483331687,158.44635866666795,17,3,,,2,1,7.196090208308306,,,,Large,,,,
,,choice,fixation,158.44654837501002,158.94989208332845,18,3,,,,,,,,,Sea,,,,
,,choice,option,158.95613195831538,159.98006791665102,18,3,,,,,,,,,Sea,,,,
,,choice,choice,159.9801624166721,163.9860080833314,18,3,,,2,1,2.997806416649837,,,,Sea,,,,
,,choice,fixation,163.98611954165972,164.48967854166403,19,3,,,,,,,,,Animal,,,,
,,choice,option,164.49633833332337,165.52178158331662,19,3,,,,,,,,,Animal,,,,
,,choice,choice,165.52187770832097,174.0512994583114,19,3,,,2,0,7.521428750013001,,,,Animal,,,,
,,choice,fixation,174.0514120000007,175.0546908333199,20,3,,,,,,,,,Pattern,,,,
,,choice,option,175.06071074999636,176.0847732500115,20,3,,,,,,,,,Pattern,,,,
,,choice,choice,176.08489362499677,178.46244479165762,20,3,,,2,1,1.3683848333603237,,,,Pattern,,,,
,,choice,fixation,178.46259658332565,179.21627279167296,21,3,,,,,,,,,Object,,,,
,,choice,option,179.22290104164858,180.24614400000428,21,3,,,,,,,,,Object,,,,
,,choice,choice,180.2462360833306,198.69742750001024,21,3,,,2,1,17.441453583334805,,,,Object,,,,
,,choice,fixation,198.6975427083089,199.95097183331382,22,3,,,,,,,,,Small,,,,
,,choice,option,199.95740854166797,200.98114291665843,22,3,,,,,,,,,Small,,,,
,,choice,choice,200.9812369166757,203.21229283331195,22,3,,,1,0,1.2235904583649244,,,,Small,,,,
,,choice,fixation,203.21241400000872,204.21587183332304,23,3,,,,,,,,,Solid,,,,
,,choice,option,204.22248799999943,205.2463477916608,23,3,,,,,,,,,Solid,,,,
,,choice,choice,205.24644387501758,211.97070216666907,23,3,,,2,1,5.715874291665386,,,,Solid,,,,
,,choice,fixation,211.9708606666536,213.22449600000982,24,3,,,,,,,,,Land,,,,
,,choice,option,213.23022641666466,214.25474470830522,24,3,,,,,,,,,Land,,,,
,,choice,choice,214.25485125000705,217.21167041666922,24,3,,,1,0,1.949342166655697,,,,Land,,,,
,,memory,free_recall,226.46324083331274,260.70435408331105,12,3,,,,,,,,,,,,,
,,memory,value_recall,263.69160870832275,280.4645491249976,13,3,Object_Sea_Pattern_Large,,,,16.769453083339613,,,,,-2,,,
,,memory,value_recall,282.50902066665003,286.17498608332244,14,3,Object_Sea_Solid_Small,,,,3.6623006666777655,,,,,1,,,
,,memory,value_recall,287.716559374996,291.2913424583094,15,3,Animal_Sea_Pattern_Large,,,,3.5691305000218563,,,,,-3,,,
,,memory,value_recall,292.5808356250054,303.4236252499977,16,3,Animal_Land_Pattern_Large,,,,10.839266791648697,,,,,3,,,
,,memory,value_recall,304.46370291666244,309.19010829165927,17,3,Animal_Land_Solid_Small,,,,4.724114208307583,,,,,1,,,
,,memory,value_recall,310.23183500001323,313.9039280000143,18,3,Object_Land_Solid_Small,,,,3.6693370833527297,,,,,-8,,,
,,memory,spatial_recall,319.2330990000046,324.23346462499467,18,3,Animal_Sea_Pattern_Large,,,1,4.995638208347373,,,,,,"[0, -380]","[0, -380]",
,,memory,spatial_recall,325.55415595832164,327.6724892083148,18,3,Object_Sea_Pattern_Large,,,1,2.1147971666650847,,,,,,"[-329, 190]","[-329, 190]",
,,memory,spatial_recall,329.52888412500033,331.0888049166533,18,3,Animal_Land_Pattern_Large,,,1,1.5561833749816287,,,,,,"[0, 380]","[0, 380]",
,,memory,spatial_recall,332.6552210416703,333.9068662500067,18,3,Object_Land_Solid_Small,,,1,1.2479642916587181,,,,,,"[329, 189]","[329, 189]",
,,memory,spatial_recall,335.7201554583153,336.94147420831723,18,3,Object_Sea_Solid_Small,,,1,1.217850124987308,,,,,,"[329, -190]","[329, -190]",
,,memory,spatial_recall,338.5109338333132,339.47590799999307,18,3,Animal_Land_Solid_Small,,,1,0.9613960416754708,,,,,,"[-329, -190]","[-329, -190]",
,,encoding,fixation,3.8529652082943358,5.1069228333071806,19,4,Animal_Land_Pattern_Small,-2,,,,,,,,,,,
,,encoding,image,5.1070138333016075,6.116581541660707,19,4,Animal_Land_Pattern_Small,-2,,,,,,,,,,,
,,encoding,value,6.11667324998416,12.126703291665763,19,4,Animal_Land_Pattern_Small,-2,,,,,,,,,,,
,,encoding,attention,12.126809999987017,15.140564333298244,19,4,Animal_Land_Pattern_Small,-2,-2,1,0.9013615416479297,,,,,,,,
,,encoding,fixation,15.140702333301306,15.644047000008868,20,4,Object_Land_Pattern_Small,9,,,,,,,,,,,
,,encoding,image,15.644159083312843,16.65354549998301,20,4,Object_Land_Pattern_Small,9,,,,,,,,,,,
,,encoding,value,16.65365170830046,22.665925749985036,20,4,Object_Land_Pattern_Small,9,,,,,,,,,,,
,,encoding,attention,22.66608529165387,25.679811000009067,20,4,Object_Land_Pattern_Small,9,+9,1,0.6100443750037812,,,,,,,,
,,encoding,fixation,25.67993720830418,26.1834359166387,21,4,Animal_Land_Solid_Small,-3,,,,,,,,,,,
,,encoding,image,26.183543874998577,27.192168458306696,21,4,Animal_Land_Solid_Small,-3,,,,,,,,,,,
,,encoding,value,27.192282000003615,33.20139574998757,21,4,Animal_Land_Solid_Small,-3,,,,,,,,,,,
,,encoding,attention,33.20154445830849,36.21647675000713,21,4,Animal_Land_Solid_Small,-3,-3,1,1.249650666693924,,,,,,,,
,,encoding,fixation,36.21660683330265,36.720188250008505,22,4,Animal_Sea_Solid_Large,3,,,,,,,,,,,
,,encoding,image,36.72035158329527,37.72927629164769,22,4,Animal_Sea_Solid_Large,3,,,,,,,,,,,
,,encoding,value,37.72938337500091,43.738322833320126,22,4,Animal_Sea_Solid_Large,3,,,,,,,,,,,
,,encoding,attention,43.7384121666546,46.7517935000069,22,4,Animal_Sea_Solid_Large,3,+3,1,0.6195211250160355,,,,,,,,
,,encoding,fixation,46.751993333309656,47.505527625005925,23,4,Object_Sea_Pattern_Large,-8,,,,,,,,,,,
,,encoding,image,47.505648541642586,48.51512537500821,23,4,Object_Sea_Pattern_Large,-8,,,,,,,,,,,
,,encoding,value,48.5152270833205,54.52420691665611,23,4,Object_Sea_Pattern_Large,-8,,,,,,,,,,,
,,encoding,attention,54.52430424999329,57.53815762500744,23,4,Object_Sea_Pattern_Large,-8,-8,1,0.9297603333252482,,,,,,,,
,,encoding,fixation,57.53828404165688,59.042191624990664,24,4,Object_Sea_Solid_Large,3,,,,,,,,,,,
,,encoding,image,59.04228270830936,60.051490791665856,24,4,Object_Sea_Solid_Large,3,,,,,,,,,,,
,,encoding,value,60.0515995832975,66.06112283331458,24,4,Object_Sea_Solid_Large,3,,,,,,,,,,,
,,encoding,attention,66.06123245830531,69.07522179165971,24,4,Object_Sea_Solid_Large,3,+3,1,0.7590252916852478,,,,,,,,
,,n-back,,,,91,4,,,,0,None,V,True,None,,,,,
,,n-back,,,,92,4,,,,0,None,C,True,None,,,,,
,,n-back,,,,93,4,,,,1,None,N,False,None,,,,,
,,n-back,,,,94,4,,,,1,0.41032466664910316,C,True,1,,,,,
,,n-back,,,,95,4,,,,0,None,N,True,None,,,,,
,,n-back,,,,96,4,,,,1,0.5804425416572485,C,True,1,,,,,
,,n-back,,,,97,4,,,,1,None,B,False,None,,,,,
,,n-back,,,,98,4,,,,1,None,Z,False,None,,,,,
,,n-back,,,,99,4,,,,1,None,V,False,None,,,,,
,,n-back,,,,100,4,,,,0,None,Z,True,None,,,,,
,,n-back,,,,101,4,,,,1,None,C,False,None,,,,,
,,n-back,,,,102,4,,,,1,1.175916625012178,Z,True,1,,,,,
,,n-back,,,,103,4,,,,1,None,B,False,None,,,,,
,,n-back,,,,104,4,,,,1,None,X,False,None,,,,,
,,n-back,,,,105,4,,,,1,0.5402239583490882,B,True,1,,,,,
,,n-back,,,,106,4,,,,1,None,B,False,None,,,,,
,,n-back,,,,107,4,,,,1,None,N,False,None,,,,,
,,n-back,,,,108,4,,,,1,1.0596339166513644,B,True,1,,,,,
,,n-back,,,,109,4,,,,1,None,B,False,None,,,,,
,,n-back,,,,110,4,,,,1,None,C,False,None,,,,,
,,n-back,,,,111,4,,,,1,None,N,False,None,,,,,
,,n-back,,,,112,4,,,,1,None,Z,False,None,,,,,
,,n-back,,,,113,4,,,,1,None,C,False,None,,,,,
,,n-back,,,,114,4,,,,1,None,N,False,None,,,,,
,,n-back,,,,115,4,,,,1,None,Z,False,None,,,,,
,,n-back,,,,116,4,,,,1,None,X,False,None,,,,,
,,n-back,,,,117,4,,,,1,None,X,False,None,,,,,
,,n-back,,,,118,4,,,,1,None,B,False,None,,,,,
,,n-back,,,,119,4,,,,1,0.8239354999968782,X,True,1,,,,,
,,n-back,,,,120,4,,,,1,None,V,False,None,,,,,
,,choice,fixation,147.6321993333113,148.63411762498436,25,4,,,,,,,,,Solid,,,,
,,choice,option,148.639628874982,149.6657134166453,25,4,,,,,,,,,Solid,,,,
,,choice,choice,149.6658234166389,179.51957941666478,25,4,,,2,0,28.845044124987908,,,,Solid,,,,
,,choice,fixation,179.5197032916476,180.7729125416372,26,4,,,,,,,,,Land,,,,
,,choice,option,180.7784495416563,181.8022122916591,26,4,,,,,,,,,Land,,,,
,,choice,choice,181.80235162499594,194.56317124998895,26,4,,,2,0,11.752322833315702,,,,Land,,,,
,,choice,fixation,194.56332291665603,195.06650937499944,27,4,,,,,,,,,Small,,,,
,,choice,option,195.072301041655,196.09701274998952,27,4,,,,,,,,,Small,,,,
,,choice,choice,196.09719316664268,202.45805170829408,27,4,,,1,1,5.352196458319668,,,,Small,,,,
,,choice,fixation,202.45815737498924,203.21147516663768,28,4,,,,,,,,,Object,,,,
,,choice,option,203.21771450000233,204.24187116665416,28,4,,,,,,,,,Object,,,,
,,choice,choice,204.24198912500287,210.7538589166652,28,4,,,2,0,5.504099833371583,,,,Object,,,,
,,choice,fixation,210.753973999992,211.50722924998263,29,4,,,,,,,,,Sea,,,,
,,choice,option,211.51285070829908,212.5362480833137,29,4,,,,,,,,,Sea,,,,
,,choice,choice,212.53639162500622,216.41020208329428,29,4,,,2,1,2.8661772916675545,,,,Sea,,,,
,,choice,fixation,216.41031679164735,217.16671483332175,30,4,,,,,,,,,Large,,,,
,,choice,option,217.17230299999937,218.19586483330932,30,4,,,,,,,,,Large,,,,
,,choice,choice,218.19601975000114,221.9689507499861,30,4,,,2,1,2.765643833350623,,,,Large,,,,
,,choice,fixation,221.9690630416444,222.97239300000365,31,4,,,,,,,,,Animal,,,,
,,choice,option,222.97831312500057,224.00229183331248,31,4,,,,,,,,,Animal,,,,
,,choice,choice,224.00239845830947,227.84188695831108,31,4,,,1,0,2.831933166657109,,,,Animal,,,,
,,choice,fixation,227.84202054166235,228.5956640416407,32,4,,,,,,,,,Pattern,,,,
,,choice,option,228.602135083318,229.6256866666372,32,4,,,,,,,,,Pattern,,,,
,,choice,choice,229.62586366664618,231.13218104164116,32,4,,,1,0,0.4974558749818243,,,,Pattern,,,,
,,memory,free_recall,242.48639570831438,261.3751182916458,18,4,,,,,,,,,,,,,
,,memory,value_recall,265.1197004999849,270.63119345830637,19,4,Animal_Sea_Solid_Large,,,,5.507748750009341,,,,,3,,,
,,memory,value_recall,272.4207689999894,275.1657272083103,20,4,Object_Land_Pattern_Small,,,,2.741530833300203,,,,,9,,,
,,memory,value_recall,276.9542969583126,280.56766691664234,21,4,Animal_Land_Pattern_Small,,,,3.6098818333121017,,,,,-2,,,
,,memory,value_recall,281.60571979163797,283.9733177916496,22,4,Animal_Land_Solid_Small,,,,2.3652295833162498,,,,,-3,,,
,,memory,value_recall,285.7614977916528,289.4050336666405,23,4,Object_Sea_Pattern_Large,,,,3.639382208348252,,,,,-8,,,
,,memory,value_recall,290.44369225000264,294.1011909166409,24,4,Object_Sea_Solid_Large,,,,3.65342320833588,,,,,3,,,
,,memory,spatial_recall,298.55220804165583,300.61679954166175,24,4,Object_Land_Pattern_Small,,,1,2.0611388749966864,,,,,,"[329, 189]","[329, 189]",
,,memory,spatial_recall,302.43272916664137,303.49980295830755,24,4,Object_Sea_Pattern_Large,,,1,1.063606791634811,,,,,,"[-329, 190]","[-329, 190]",
,,memory,spatial_recall,305.05631449999055,306.3110179583018,24,4,Animal_Land_Solid_Small,,,1,1.251218916644575,,,,,,"[-329, -190]","[-329, -190]",
,,memory,spatial_recall,307.61632762500085,308.99459374998696,24,4,Animal_Land_Pattern_Small,,,1,1.374947250005789,,,,,,"[329, -190]","[329, -190]",
,,memory,spatial_recall,310.04833016663906,310.84469912500936,24,4,Object_Sea_Solid_Large,,,1,0.7944825416489039,,,,,,"[0, 380]","[0, 380]",
,,memory,spatial_recall,312.1499251250061,313.2496127499908,24,4,Animal_Sea_Solid_Large,,,1,1.0962932083348278,,,,,,"[0, -380]","[0, -380]",
,,encoding,fixation,9.110513833351433,9.866051208344288,25,5,Animal_Land_Solid_Large,-1,,,,,,,,,,,
,,encoding,image,9.866152208356652,10.875311666692141,25,5,Animal_Land_Solid_Large,-1,,,,,,,,,,,
,,encoding,value,10.875414041685872,16.88540633334196,25,5,Animal_Land_Solid_Large,-1,,,,,,,,,,,
,,encoding,attention,16.885503375000553,19.899560874997405,25,5,Animal_Land_Solid_Large,-1,-1,1,0.8861933749867603,,,,,,,,
,,encoding,fixation,19.89970187502331,21.153337541705696,26,5,Object_Land_Solid_Large,4,,,,,,,,,,,
,,encoding,image,21.1534319583443,22.161371458350914,26,5,Object_Land_Solid_Large,4,,,,,,,,,,,
,,encoding,value,22.16146854168619,28.17000325000845,26,5,Object_Land_Solid_Large,4,,,,,,,,,,,
,,encoding,attention,28.170109291706467,31.18309133333969,26,5,Object_Land_Solid_Large,4,+4,1,1.1008602083020378,,,,,,,,
,,encoding,fixation,31.183240375015885,31.6866017083521,27,5,Object_Sea_Pattern_Small,-5,,,,,,,,,,,
,,encoding,image,31.686699541693088,32.6962860833446,27,5,Object_Sea_Pattern_Small,-5,,,,,,,,,,,
,,encoding,value,32.69645075002336,38.705624916707166,27,5,Object_Sea_Pattern_Small,-5,,,,,,,,,,,
,,encoding,attention,38.705739041703055,41.71942170834518,27,5,Object_Sea_Pattern_Small,-5,-5,1,1.165764791687252,,,,,,,,
,,encoding,fixation,41.71958429168444,43.22289029171225,28,5,Object_Land_Pattern_Large,-2,,,,,,,,,,,
,,encoding,image,43.22299125001882,44.23198762501124,28,5,Object_Land_Pattern_Large,-2,,,,,,,,,,,
,,encoding,value,44.23210470835329,50.24135179168661,28,5,Object_Land_Pattern_Large,-2,,,,,,,,,,,
,,encoding,attention,50.24145925001358,53.25529937501415,28,5,Object_Land_Pattern_Large,-2,-2,1,2.2271647500165273,,,,,,,,
,,encoding,fixation,53.255505666689714,54.75921850002487,29,5,Animal_Sea_Solid_Small,-2,,,,,,,,,,,
,,encoding,image,54.75940404168796,55.767963958351174,29,5,Animal_Sea_Solid_Small,-2,,,,,,,,,,,
,,encoding,value,55.768063958355924,61.7768358750036,29,5,Animal_Sea_Solid_Small,-2,,,,,,,,,,,
,,encoding,attention,61.776946166704874,64.79050900001312,29,5,Animal_Sea_Solid_Small,-2,-2,1,1.1622008749982342,,,,,,,,
,,encoding,fixation,64.7906417917111,65.79409508334356,30,5,Animal_Sea_Pattern_Small,6,,,,,,,,,,,
,,encoding,image,65.79423116668477,66.8030158750189,30,5,Animal_Sea_Pattern_Small,6,,,,,,,,,,,
,,encoding,value,66.8031354167033,72.81622666670592,30,5,Animal_Sea_Pattern_Small,6,,,,,,,,,,,
,,encoding,attention,72.81632841669489,75.83064554168959,30,5,Animal_Sea_Pattern_Small,6,+6,1,1.2278844583488535,,,,,,,,
,,n-back,,,,121,5,,,,1,None,C,False,None,,,,,
,,n-back,,,,122,5,,,,1,None,X,False,None,,,,,
,,n-back,,,,123,5,,,,1,None,V,False,None,,,,,
,,n-back,,,,124,5,,,,1,0.9708087499893736,X,True,1,,,,,
,,n-back,,,,125,5,,,,1,None,N,False,None,,,,,
,,n-back,,,,126,5,,,,1,None,Z,False,None,,,,,
,,n-back,,,,127,5,,,,1,0.7486248333298136,N,True,1,,,,,
,,n-back,,,,128,5,,,,1,None,C,False,None,,,,,
,,n-back,,,,129,5,,,,1,None,C,False,None,,,,,
,,n-back,,,,130,5,,,,1,None,N,False,None,,,,,
,,n-back,,,,131,5,,,,1,None,Z,False,None,,,,,
,,n-back,,,,132,5,,,,1,None,X,False,None,,,,,
,,n-back,,,,133,5,,,,0,None,Z,True,None,,,,,
,,n-back,,,,134,5,,,,0,0.8475596666685306,N,False,1,,,,,
,,n-back,,,,135,5,,,,1,None,X,False,None,,,,,
,,n-back,,,,136,5,,,,1,0.6482197500008624,N,True,1,,,,,
,,n-back,,,,137,5,,,,1,0.7565387083450332,X,True,1,,,,,
,,n-back,,,,138,5,,,,1,None,Z,False,None,,,,,
,,n-back,,,,139,5,,,,1,None,B,False,None,,,,,
,,n-back,,,,140,5,,,,1,0.6674472916929517,Z,True,1,,,,,
,,n-back,,,,141,5,,,,1,None,Z,False,None,,,,,
,,n-back,,,,142,5,,,,1,0.7379443333484232,Z,True,1,,,,,
,,n-back,,,,143,5,,,,1,None,V,False,None,,,,,
,,n-back,,,,144,5,,,,0,None,Z,True,None,,,,,
,,n-back,,,,145,5,,,,1,0.5834630833414849,V,True,1,,,,,
,,n-back,,,,146,5,,,,1,None,X,False,None,,,,,
,,n-back,,,,147,5,,,,1,None,X,False,None,,,,,
,,n-back,,,,148,5,,,,1,0.39369383332086727,X,True,1,,,,,
,,n-back,,,,149,5,,,,1,None,B,False,None,,,,,
,,n-back,,,,150,5,,,,1,None,C,False,None,,,,,
,,choice,fixation,144.80840216670185,145.56406054168474,33,5,,,,,,,,,Object,,,,
,,choice,option,145.57017237500986,146.59202525002183,33,5,,,,,,,,,Object,,,,
,,choice,choice,146.59211774999858,154.99374150001677,33,5,,,2,1,7.3938026249816176,,,,Object,,,,
,,choice,fixation,154.993856541696,155.74724254169269,34,5,,,,,,,,,Land,,,,
,,choice,option,155.75254450002103,156.7764048333629,34,5,,,,,,,,,Land,,,,
,,choice,choice,156.77650879169232,168.43459212500602,34,5,,,1,1,10.646854124992387,,,,Land,,,,
,,choice,fixation,168.4347060417058,169.6881623333611,35,5,,,,,,,,,Solid,,,,
,,choice,option,169.69433079170994,170.718538666697,35,5,,,,,,,,,Solid,,,,
,,choice,choice,170.71864812501008,179.15260962501634,35,5,,,1,1,7.426301166677149,,,,Solid,,,,
,,choice,fixation,179.15273195834015,179.9062298333447,36,5,,,,,,,,,Large,,,,
,,choice,option,179.9119528750016,180.93551104169455,36,5,,,,,,,,,Large,,,,
,,choice,choice,180.93560725002317,207.35061491670785,36,5,,,1,1,25.401892958325334,,,,Large,,,,
,,choice,fixation,207.35076895836391,208.853990625008,37,5,,,,,,,,,Animal,,,,
,,choice,option,208.86006175001967,209.8836766250024,37,5,,,,,,,,,Animal,,,,
,,choice,choice,209.88378216669662,214.94409225002164,37,5,,,1,1,4.052930375008145,,,,Animal,,,,
,,choice,fixation,214.94420450000325,216.19823287500185,38,5,,,,,,,,,Sea,,,,
,,choice,option,216.20377100000042,217.22798450000118,38,5,,,,,,,,,Sea,,,,
,,choice,choice,217.22807904169895,219.352401833341,38,5,,,2,1,1.1150785833597183,,,,Sea,,,,
,,choice,fixation,219.3525068750023,220.60575295836315,39,5,,,,,,,,,Small,,,,
,,choice,option,220.61152075001155,221.63534370835987,39,5,,,,,,,,,Small,,,,
,,choice,choice,221.63545808335766,223.79512116670958,39,5,,,1,0,1.151732083351817,,,,Small,,,,
,,choice,fixation,223.79525908335927,224.29791579168523,40,5,,,,,,,,,Pattern,,,,
,,choice,option,224.3043992916937,225.32806870836066,40,5,,,,,,,,,Pattern,,,,
,,choice,choice,225.32816600002116,226.4832317083492,40,5,,,1,0,0.14926754165207967,,,,Pattern,,,,
,,memory,free_recall,234.41482320835348,266.23791679169517,24,5,,,,,,,,,,,,,
,,memory,value_recall,268.7150475833623,270.6384087500046,25,5,Animal_Land_Solid_Large,,,,1.9212958750140388,,,,,-1,,,
,,memory,value_recall,272.4280448333593,279.98945083335275,26,5,Object_Land_Pattern_Large,,,,7.557372333307285,,,,,-2,,,
,,memory,value_recall,281.02868954170845,282.82287691670354,27,5,Object_Land_Solid_Large,,,,1.7913169166713487,,,,,4,,,
,,memory,value_recall,284.61199133336777,292.7088405000104,28,5,Animal_Sea_Solid_Small,,,,8.092811583337607,,,,,-2,,,
,,memory,value_recall,294.25116108334623,295.7675043333438,29,5,Animal_Sea_Pattern_Small,,,,1.512902958347695,,,,,6,,,
,,memory,value_recall,297.30510779170436,300.4177392083511,30,5,Object_Sea_Pattern_Small,,,,3.10925841666176,,,,,-5,,,
,,memory,spatial_recall,304.24834870835184,306.54919433334726,30,5,Object_Land_Solid_Large,,,1,2.297526166657917,,,,,,"[329, -190]","[329, -190]",
,,memory,spatial_recall,307.8638450833678,308.83423912501894,30,5,Animal_Land_Solid_Large,,,1,0.9670227917085867,,,,,,"[-329, -190]","[-329, -190]",
,,memory,spatial_recall,310.4023766250175,311.7984164583613,30,5,Object_Land_Pattern_Large,,,1,1.3926335416617803,,,,,,"[0, -380]","[0, -380]",
,,memory,spatial_recall,313.10105600001407,314.6654932500096,30,5,Animal_Sea_Solid_Small,,,1,1.5608407916442957,,,,,,"[-329, 190]","[-329, 190]",
,,memory,spatial_recall,316.2301228333672,318.01818191670463,30,5,Animal_Sea_Pattern_Small,,,1,1.7845566250034608,,,,,,"[329, 189]","[329, 189]",
,,memory,spatial_recall,319.33533504168736,320.0505587500229,30,5,Object_Sea_Pattern_Small,,,1,0.711824958329089,,,,,,"[0, 380]","[0, 380]",
,,encoding,fixation,3.047783166693989,4.551479375018971,31,6,Animal_Land_Pattern_Large,-4,,,,,,,,,,,
,,encoding,image,4.551587208348792,5.560513583361171,31,6,Animal_Land_Pattern_Large,-4,,,,,,,,,,,
,,encoding,value,5.560617958341027,11.570272875018418,31,6,Animal_Land_Pattern_Large,-4,,,,,,,,,,,
,,encoding,attention,11.570367208361859,14.584828000020934,31,6,Animal_Land_Pattern_Large,-4,-4,1,0.6581359166302718,,,,,,,,
,,encoding,fixation,14.584982416708954,15.336951166711515,32,6,Object_Sea_Pattern_Large,7,,,,,,,,,,,
,,encoding,image,15.337062000005972,16.34779187501408,32,6,Object_Sea_Pattern_Large,7,,,,,,,,,,,
,,encoding,value,16.34789100001217,22.35725200001616,32,6,Object_Sea_Pattern_Large,7,,,,,,,,,,,
,,encoding,attention,22.357359250017907,25.371274750010343,32,6,Object_Sea_Pattern_Large,7,+7,1,1.1676683750119992,,,,,,,,
,,encoding,fixation,25.371490291698137,26.374792000016896,33,6,Object_Sea_Solid_Small,-7,,,,,,,,,,,
,,encoding,image,26.374905416712863,27.383006666699657,33,6,Object_Sea_Solid_Small,-7,,,,,,,,,,,
,,encoding,value,27.38312241670792,33.39103420835454,33,6,Object_Sea_Solid_Small,-7,,,,,,,,,,,
,,encoding,attention,33.391190208349144,36.404247500002384,33,6,Object_Sea_Solid_Small,-7,-7,1,1.0171199582982808,,,,,,,,
,,encoding,fixation,36.40438166671083,37.65837508335244,34,6,Animal_Sea_Pattern_Large,-2,,,,,,,,,,,
,,encoding,image,37.65848445834126,38.666910583357094,34,6,Animal_Sea_Pattern_Large,-2,,,,,,,,,,,
,,encoding,value,38.66706995834829,44.67545720835915,34,6,Animal_Sea_Pattern_Large,-2,,,,,,,,,,,
,,encoding,attention,44.67556895836606,47.68858362501487,34,6,Animal_Sea_Pattern_Large,-2,-2,1,1.1540478333481587,,,,,,,,
,,encoding,fixation,47.6887250833679,48.94210208335426,35,6,Object_Land_Solid_Small,1,,,,,,,,,,,
,,encoding,image,48.94220983335981,49.95106129170745,35,6,Object_Land_Solid_Small,1,,,,,,,,,,,
,,encoding,value,49.95117591670714,55.95972741668811,35,6,Object_Land_Solid_Small,1,,,,,,,,,,,
,,encoding,attention,55.95984733334626,58.97309120834689,35,6,Object_Land_Solid_Small,1,+1,1,0.8961575833091047,,,,,,,,
,,encoding,fixation,58.97321604168974,60.47666608335567,36,6,Animal_Land_Solid_Small,4,,,,,,,,,,,
,,encoding,image,60.47677075001411,61.48580250001396,36,6,Animal_Land_Solid_Small,4,,,,,,,,,,,
,,encoding,value,61.48591266668518,67.49529679169063,36,6,Animal_Land_Solid_Small,4,,,,,,,,,,,
,,encoding,attention,67.49541625002166,70.50933362499927,36,6,Animal_Land_Solid_Small,4,+4,1,1.2078492083237506,,,,,,,,
,,n-back,,,,151,6,,,,1,None,C,False,None,,,,,
,,n-back,,,,152,6,,,,0,None,Z,True,None,,,,,
,,n-back,,,,153,6,,,,1,None,N,False,None,,,,,
,,n-back,,,,154,6,,,,1,None,V,False,None,,,,,
,,n-back,,,,155,6,,,,1,None,X,False,None,,,,,
,,n-back,,,,156,6,,,,0,None,V,True,None,,,,,
,,n-back,,,,157,6,,,,1,None,C,False,None,,,,,
,,n-back,,,,158,6,,,,1,0.6886502916458994,V,True,1,,,,,
,,n-back,,,,159,6,,,,1,0.7019953333656304,C,True,1,,,,,
,,n-back,,,,160,6,,,,1,None,B,False,None,,,,,
,,n-back,,,,161,6,,,,1,None,V,False,None,,,,,
,,n-back,,,,162,6,,,,1,1.1935041666729376,B,True,1,,,,,
,,n-back,,,,163,6,,,,1,None,X,False,None,,,,,
,,n-back,,,,164,6,,,,1,None,X,False,None,,,,,
,,n-back,,,,165,6,,,,1,0.6310926666774321,X,True,1,,,,,
,,n-back,,,,166,6,,,,1,None,C,False,None,,,,,
,,n-back,,,,167,6,,,,1,None,Z,False,None,,,,,
,,n-back,,,,168,6,,,,1,0.5962729583261535,C,True,1,,,,,
,,n-back,,,,169,6,,,,1,None,C,False,None,,,,,
,,n-back,,,,170,6,,,,1,None,N,False,None,,,,,
,,n-back,,,,171,6,,,,1,None,X,False,None,,,,,
,,n-back,,,,172,6,,,,1,None,V,False,None,,,,,
,,n-back,,,,173,6,,,,1,None,Z,False,None,,,,,
,,n-back,,,,174,6,,,,1,0.49647716668550856,V,True,1,,,,,
,,n-back,,,,175,6,,,,1,None,X,False,None,,,,,
,,n-back,,,,176,6,,,,1,None,N,False,None,,,,,
,,n-back,,,,177,6,,,,0,0.6456750833604019,V,False,1,,,,,
,,n-back,,,,178,6,,,,0,None,N,True,None,,,,,
,,n-back,,,,179,6,,,,1,0.8591960416815709,V,True,1,,,,,
,,n-back,,,,180,6,,,,1,None,Z,False,None,,,,,
,,choice,fixation,146.42921708335052,146.9309570833575,41,6,,,,,,,,,Small,,,,
,,choice,option,146.93667070835363,147.96041250001872,41,6,,,,,,,,,Small,,,,
,,choice,choice,147.96051716670627,170.20422266671085,41,6,,,1,0,21.234010749991285,,,,Small,,,,
,,choice,fixation,170.2043330000015,171.45762416670914,42,6,,,,,,,,,Object,,,,
,,choice,option,171.4635496250121,172.48723875000724,42,6,,,,,,,,,Object,,,,
,,choice,choice,172.48733337500016,186.82176762502058,42,6,,,2,0,13.325976333318977,,,,Object,,,,
,,choice,fixation,186.821880375006,187.32571233334602,43,6,,,,,,,,,Land,,,,
,,choice,option,187.33160741670872,188.3553715000162,43,6,,,,,,,,,Land,,,,
,,choice,choice,188.35547595834942,192.04306329169776,43,6,,,1,1,2.679895208304515,,,,Land,,,,
,,choice,fixation,192.04316345835105,192.5469981250062,44,6,,,,,,,,,Animal,,,,
,,choice,option,192.55318166670622,193.57661745834048,44,6,,,,,,,,,Animal,,,,
,,choice,choice,193.57672833334072,201.09111941669835,44,6,,,2,1,6.506127333326731,,,,Animal,,,,
,,choice,fixation,201.0912424167036,202.09493479170487,45,6,,,,,,,,,Sea,,,,
,,choice,option,202.10027341669775,203.12406633334467,45,6,,,,,,,,,Sea,,,,
,,choice,choice,203.1241717916855,210.44410570836044,45,6,,,2,1,6.312564958323492,,,,Sea,,,,
,,choice,fixation,210.44421504170168,211.69780187500874,46,6,,,,,,,,,Large,,,,
,,choice,option,211.70346358334064,212.7273314167105,46,6,,,,,,,,,Large,,,,
,,choice,choice,212.72742320835823,215.14689016671036,46,6,,,1,1,1.411602749984013,,,,Large,,,,
,,choice,fixation,215.14699945834582,216.65031600001385,47,6,,,,,,,,,Solid,,,,
,,choice,option,216.65631916670827,217.68051279170322,47,6,,,,,,,,,Solid,,,,
,,choice,choice,217.68061800001306,224.76784291668446,47,6,,,2,1,6.079520708299242,,,,Solid,,,,
,,choice,fixation,224.76797358336626,226.02123220835347,48,6,,,,,,,,,Pattern,,,,
,,choice,option,226.02694083334063,227.05030820835964,48,6,,,,,,,,,Pattern,,,,
,,choice,choice,227.05041133335908,228.107499500009,48,6,,,1,1,0.050241999997524545,,,,Pattern,,,,
,,memory,free_recall,235.00905200000852,300.29693412501365,30,6,,,,,,,,,,,,,
,,memory,value_recall,303.4065066250041,311.34590845834464,31,6,Object_Sea_Solid_Small,,,,7.935971583297942,,,,,-7,,,
,,memory,value_recall,312.38408741669264,317.9002946249966,32,6,Animal_Sea_Pattern_Large,,,,5.5141397083352786,,,,,-2,,,
,,memory,value_recall,318.93826650001574,322.7000694583403,33,6,Object_Sea_Pattern_Large,,,,3.7596489583374932,,,,,7,,,
,,memory,value_recall,324.2385215833492,327.1212487083685,34,6,Object_Land_Solid_Small,,,,2.8792617916769814,,,,,1,,,
,,memory,value_recall,328.15925912500825,333.4871421249991,35,6,Animal_Land_Pattern_Large,,,,5.325003583362559,,,,,-4,,,
,,memory,value_recall,334.77651645836886,340.54502420834615,36,6,Animal_Land_Solid_Small,,,,5.763235583319329,,,,,4,,,
,,memory,spatial_recall,343.22583612499875,345.1808245416905,36,6,Object_Sea_Solid_Small,,,1,1.949540750007145,,,,,,"[329, -190]","[329, -190]",
,,memory,spatial_recall,346.4962189583457,347.8307516667119,36,6,Object_Sea_Pattern_Large,,,1,1.3311347916314844,,,,,,"[-329, 190]","[-329, 190]",
,,memory,spatial_recall,349.8962432083499,351.4340679583547,36,6,Object_Land_Solid_Small,,,1,1.5345067917078268,,,,,,"[329, 189]","[329, 189]",
,,memory,spatial_recall,352.49618991671014,353.96561620835564,36,6,Animal_Land_Solid_Small,,,1,1.4674993749940768,,,,,,"[-329, -190]","[-329, -190]",
,,memory,spatial_recall,355.02436720835976,355.75053800002206,36,6,Animal_Land_Pattern_Large,,,1,0.7241837083420251,,,,,,"[0, 380]","[0, 380]",
,,memory,spatial_recall,357.81913129170425,359.1125089167035,36,6,Animal_Sea_Pattern_Large,,,1,1.289733708370477,,,,,,"[0, -380]","[0, -380]",
,,encoding,fixation,3.1283478749974165,4.632029750006041,37,7,Animal_Sea_Pattern_Small,7,,,,,,,,,,,
,,encoding,image,4.632134083338315,5.641418416664237,37,7,Animal_Sea_Pattern_Small,7,,,,,,,,,,,
,,encoding,value,5.641515333350981,11.65253724998911,37,7,Animal_Sea_Pattern_Small,7,,,,,,,,,,,
,,encoding,attention,11.652648374991259,14.667026791663375,37,7,Animal_Sea_Pattern_Small,7,+7,1,0.8653991250030231,,,,,,,,
,,encoding,fixation,14.667150958324783,15.170542749983724,38,7,Object_Land_Solid_Large,4,,,,,,,,,,,
,,encoding,image,15.170683291653404,16.17869533333578,38,7,Object_Land_Solid_Large,4,,,,,,,,,,,
,,encoding,value,16.178817000007257,22.18714733334491,38,7,Object_Land_Solid_Large,4,,,,,,,,,,,
,,encoding,attention,22.187241541658295,25.202537208329886,38,7,Object_Land_Solid_Large,4,+4,1,1.3546307083161082,,,,,,,,
,,encoding,fixation,25.20267737499671,26.709135249984683,39,7,Animal_Land_Solid_Large,1,,,,,,,,,,,
,,encoding,image,26.709245166654,27.717879791656742,39,7,Animal_Land_Solid_Large,1,,,,,,,,,,,
,,encoding,value,27.717975749983452,33.72674937499687,39,7,Animal_Land_Solid_Large,1,,,,,,,,,,,
,,encoding,attention,33.726906750001945,36.74110416666372,39,7,Animal_Land_Solid_Large,1,+1,1,0.583801458356902,,,,,,,,
,,encoding,fixation,36.74124208334251,37.24471670834464,40,7,Object_Land_Pattern_Large,-7,,,,,,,,,,,
,,encoding,image,37.24482533332775,38.254283916641725,40,7,Object_Land_Pattern_Large,-7,,,,,,,,,,,
,,encoding,value,38.2543843750027,44.26355404165224,40,7,Object_Land_Pattern_Large,-7,,,,,,,,,,,
,,encoding,attention,44.26369737499044,47.278162291651824,40,7,Object_Land_Pattern_Large,-7,-7,1,0.7083512083336245,,,,,,,,
,,encoding,fixation,47.278282291663345,48.28245220833924,41,7,Object_Sea_Pattern_Small,1,,,,,,,,,,,
,,encoding,image,48.282546625006944,49.290802500006976,41,7,Object_Sea_Pattern_Small,1,,,,,,,,,,,
,,encoding,value,49.29089541666326,55.299729833350284,41,7,Object_Sea_Pattern_Small,1,,,,,,,,,,,
,,encoding,attention,55.299846041656565,58.31305749999592,41,7,Object_Sea_Pattern_Small,1,+1,1,0.8827449583332054,,,,,,,,
,,encoding,fixation,58.31317716665217,59.56670779164415,42,7,Animal_Sea_Solid_Small,-9,,,,,,,,,,,
,,encoding,image,59.5668015833362,60.57549983332865,42,7,Animal_Sea_Solid_Small,-9,,,,,,,,,,,
,,encoding,value,60.57558762500412,66.58467720833141,42,7,Animal_Sea_Solid_Small,-9,,,,,,,,,,,
,,encoding,attention,66.58476879165391,69.59774979166104,42,7,Animal_Sea_Solid_Small,-9,-9,1,1.030143041658448,,,,,,,,
,,n-back,,,,181,7,,,,1,None,Z,False,None,,,,,
,,n-back,,,,182,7,,,,0,None,B,True,None,,,,,
,,n-back,,,,183,7,,,,1,None,N,False,None,,,,,
,,n-back,,,,184,7,,,,1,0.534173041669419,B,True,1,,,,,
,,n-back,,,,185,7,,,,1,None,Z,False,None,,,,,
,,n-back,,,,186,7,,,,1,None,V,False,None,,,,,
,,n-back,,,,187,7,,,,1,0.6637336249987129,Z,True,1,,,,,
,,n-back,,,,188,7,,,,1,None,C,False,None,,,,,
,,n-back,,,,189,7,,,,1,0.6213705833652057,Z,True,1,,,,,
,,n-back,,,,190,7,,,,1,None,N,False,None,,,,,
,,n-back,,,,191,7,,,,1,None,X,False,None,,,,,
,,n-back,,,,192,7,,,,1,None,Z,False,None,,,,,
,,n-back,,,,193,7,,,,1,None,B,False,None,,,,,
,,n-back,,,,194,7,,,,0,None,Z,True,None,,,,,
,,n-back,,,,195,7,,,,1,None,Z,False,None,,,,,
,,n-back,,,,196,7,,,,1,0.4873162916628644,Z,True,1,,,,,
,,n-back,,,,197,7,,,,1,None,N,False,None,,,,,
,,n-back,,,,198,7,,,,1,None,B,False,None,,,,,
,,n-back,,,,199,7,,,,1,None,B,False,None,,,,,
,,n-back,,,,200,7,,,,1,None,V,False,None,,,,,
,,n-back,,,,201,7,,,,1,None,N,False,None,,,,,
,,n-back,,,,202,7,,,,1,None,B,False,None,,,,,
,,n-back,,,,203,7,,,,0,None,N,True,None,,,,,
,,n-back,,,,204,7,,,,1,None,N,False,None,,,,,
,,n-back,,,,205,7,,,,1,0.6326304166868795,N,True,1,,,,,
,,n-back,,,,206,7,,,,0,None,N,True,None,,,,,
,,n-back,,,,207,7,,,,1,None,Z,False,None,,,,,
,,n-back,,,,208,7,,,,1,None,B,False,None,,,,,
,,n-back,,,,209,7,,,,1,0.4743225416750647,Z,True,1,,,,,
,,n-back,,,,210,7,,,,1,None,V,False,None,,,,,
,,choice,fixation,145.9116970000032,146.91363937500864,49,7,,,,,,,,,Solid,,,,
,,choice,option,146.91954241663916,147.94294999999693,49,7,,,,,,,,,Solid,,,,
,,choice,choice,147.94305929166148,159.79130087498925,49,7,,,2,1,10.837367416650523,,,,Solid,,,,
,,choice,fixation,159.79146004165523,160.29483462500502,50,7,,,,,,,,,Land,,,,
,,choice,option,160.3002726249979,161.32446512498427,50,7,,,,,,,,,Land,,,,
,,choice,choice,161.3245842916367,167.39559683334664,50,7,,,2,1,5.063653583347332,,,,Land,,,,
,,choice,fixation,167.3957159166457,167.89896004163893,51,7,,,,,,,,,Pattern,,,,
,,choice,option,167.90502670835122,168.9280086249928,51,7,,,,,,,,,Pattern,,,,
,,choice,choice,168.92815079164575,170.92721575000905,51,7,,,2,0,0.9916830416477751,,,,Pattern,,,,
,,choice,fixation,170.927318333328,172.43046570834122,52,7,,,,,,,,,Animal,,,,
,,choice,option,172.4365587499924,173.46039433334954,52,7,,,,,,,,,Animal,,,,
,,choice,choice,173.46050533335074,177.27696941664908,52,7,,,2,1,2.8092490833078045,,,,Animal,,,,
,,choice,fixation,177.2770764583256,178.28029279166367,53,7,,,,,,,,,Object,,,,
,,choice,option,178.2861927083286,179.31034645834006,53,7,,,,,,,,,Object,,,,
,,choice,choice,179.31044100000872,188.79538387499633,53,7,,,2,1,8.47711454165983,,,,Object,,,,
,,choice,fixation,188.79549250000855,189.5489140416612,54,7,,,,,,,,,Large,,,,
,,choice,option,189.55481008332572,190.57866979166283,54,7,,,,,,,,,Large,,,,
,,choice,choice,190.5787779999955,195.23498958334676,54,7,,,2,1,3.6484102500253357,,,,Large,,,,
,,choice,fixation,195.2350981250056,196.2412548333523,55,7,,,,,,,,,Sea,,,,
,,choice,option,196.24697687500156,197.27082158334088,55,7,,,,,,,,,Sea,,,,
,,choice,choice,197.27092229164555,201.8360890833428,55,7,,,2,1,3.5562408750120085,,,,Sea,,,,
,,choice,fixation,201.8362029166601,203.33986220834777,56,7,,,,,,,,,Small,,,,
,,choice,option,203.34575725000468,204.37024520835257,56,7,,,,,,,,,Small,,,,
,,choice,choice,204.3703400833474,208.66352545833797,56,7,,,2,1,3.2852867499750573,,,,Small,,,,
,,memory,free_recall,214.93647720833542,250.28884808334988,36,7,,,,,,,,,,,,,
,,memory,value_recall,252.3926091666508,272.76077658333816,37,7,Object_Sea_Pattern_Small,,,,20.365494333353126,,,,,1,,,
,,memory,value_recall,274.05125691666035,277.5029755833384,38,7,Animal_Sea_Pattern_Small,,,,3.444870749983238,,,,,7,,,
,,memory,value_recall,278.79183800000465,283.1573457083432,39,7,Animal_Land_Solid_Large,,,,4.3619900416524615,,,,,1,,,
,,memory,value_recall,284.9461602916417,286.53900987500674,40,7,Object_Land_Pattern_Large,,,,1.5892338333360385,,,,,-7,,,
,,memory,value_recall,288.077092749998,289.3682371666655,41,7,Animal_Sea_Solid_Small,,,,1.2872483333630953,,,,,-9,,,
,,memory,value_recall,291.1585449166596,292.4725250416377,42,7,Object_Land_Solid_Large,,,,1.3106666250096168,,,,,4,,,
,,memory,spatial_recall,297.69792062498163,302.07197004163754,42,7,Animal_Sea_Solid_Small,,,1,4.370591124985367,,,,,,"[-329, 190]","[-329, 190]",
,,memory,spatial_recall,303.38628216664074,304.6105022499978,42,7,Object_Sea_Pattern_Small,,,1,1.2204991666658316,,,,,,"[0, 380]","[0, 380]",
,,memory,spatial_recall,305.9247359583387,307.87271087500267,42,7,Animal_Sea_Pattern_Small,,,1,1.9445697916962672,,,,,,"[329, 189]","[329, 189]",
,,memory,spatial_recall,308.93924787500873,309.8083745833428,42,7,Animal_Land_Solid_Large,,,1,0.8655643750098534,,,,,,"[-329, -190]","[-329, -190]",
,,memory,spatial_recall,311.86889287500526,313.7588730833377,42,7,Object_Land_Solid_Large,,,1,1.8864365417102817,,,,,,"[329, -190]","[329, -190]",
,,memory,spatial_recall,315.07305620834813,316.90824620833155,42,7,Object_Land_Pattern_Large,,,1,1.831706666678656,,,,,,"[0, -380]","[0, -380]",
