phase,event,trial_number,eyetracker_onset,eyetracker_offset,fix_start,fix_end,fix_duration_full,fix_duration_bounded,fix_x,fix_y,roi_x,roi_y,roi_content,thisRow.t,notes,onset,offset,game,image,outcome,choice,correct,rt,letter,match,response,option,true_value,true_position,recalled_position,Unnamed: 20
encoding,fixation,1,25424228,25425523,25424529.0,25424874.0,346.0,346.0,1855.3,1108.2,1591.0,891.0,Object_Sea_Pattern_Large,,,12.484956166648772,13.779523583332775,1.0,Object_Sea_Pattern_Large,-2.0,,,,,,,,,,,
encoding,fixation,1,25424228,25425523,25425051.0,25425260.0,210.0,210.0,1924.4,1258.4,1920.0,700.0,Object_Sea_Solid_Large,,,12.484956166648772,13.779523583332775,1.0,Object_Sea_Pattern_Large,-2.0,,,,,,,,,,,
encoding,fixation,1,25424228,25425523,25425446.0,25425749.0,304.0,77.0,1878.3,1305.3,1920.0,700.0,Object_Sea_Solid_Large,,,12.484956166648772,13.779523583332775,1.0,Object_Sea_Pattern_Large,-2.0,,,,,,,,,,,
encoding,image,1,25425523,25426583,25425773.0,25426771.0,999.0,810.0,1623.6,1263.8,1591.0,891.0,Object_Sea_Pattern_Large,,,13.7796381249791,14.839445583318591,1.0,Object_Sea_Pattern_Large,-2.0,,,,,,,,,,,
encoding,value,1,25426583,25432596,25426785.0,25427067.0,283.0,283.0,1599.9,1190.9,1591.0,891.0,Object_Sea_Pattern_Large,,,14.83958929165965,20.852226999995764,1.0,Object_Sea_Pattern_Large,-2.0,,,,,,,,,,,
encoding,value,1,25426583,25432596,25427236.0,25428769.0,1534.0,1534.0,1608.3,1226.4,1591.0,891.0,Object_Sea_Pattern_Large,,,14.83958929165965,20.852226999995764,1.0,Object_Sea_Pattern_Large,-2.0,,,,,,,,,,,
encoding,value,1,25426583,25432596,25428781.0,25428991.0,211.0,211.0,1601.2,1188.4,1591.0,891.0,Object_Sea_Pattern_Large,,,14.83958929165965,20.852226999995764,1.0,Object_Sea_Pattern_Large,-2.0,,,,,,,,,,,
encoding,value,1,25426583,25432596,25429004.0,25429207.0,204.0,204.0,1602.6,1234.4,1591.0,891.0,Object_Sea_Pattern_Large,,,14.83958929165965,20.852226999995764,1.0,Object_Sea_Pattern_Large,-2.0,,,,,,,,,,,
encoding,value,1,25426583,25432596,25429358.0,25430449.0,1092.0,1092.0,1598.5,1182.3,1591.0,891.0,Object_Sea_Pattern_Large,,,14.83958929165965,20.852226999995764,1.0,Object_Sea_Pattern_Large,-2.0,,,,,,,,,,,
encoding,value,1,25426583,25432596,25430618.0,25431082.0,465.0,465.0,1618.6,1222.3,1591.0,891.0,Object_Sea_Pattern_Large,,,14.83958929165965,20.852226999995764,1.0,Object_Sea_Pattern_Large,-2.0,,,,,,,,,,,
encoding,value,1,25426583,25432596,25431095.0,25431516.0,422.0,422.0,1631.2,1269.8,1591.0,891.0,Object_Sea_Pattern_Large,,,14.83958929165965,20.852226999995764,1.0,Object_Sea_Pattern_Large,-2.0,,,,,,,,,,,
encoding,value,1,25426583,25432596,25431698.0,25431873.0,176.0,176.0,1753.9,1304.3,1591.0,891.0,Object_Sea_Pattern_Large,,,14.83958929165965,20.852226999995764,1.0,Object_Sea_Pattern_Large,-2.0,,,,,,,,,,,
encoding,value,1,25426583,25432596,25431890.0,25432803.0,914.0,706.0,1617.8,1267.4,1591.0,891.0,Object_Sea_Pattern_Large,,,14.83958929165965,20.852226999995764,1.0,Object_Sea_Pattern_Large,-2.0,,,,,,,,,,,
encoding,attention,1,25432596,25435607,25432817.0,25432977.0,161.0,161.0,1583.5,1187.8,1591.0,891.0,Object_Sea_Pattern_Large,,,20.85232891663327,23.863343333330704,1.0,Object_Sea_Pattern_Large,-2.0,,,,,,,,,,,
encoding,attention,1,25432596,25435607,25432986.0,25433368.0,383.0,383.0,1641.9,1174.2,1591.0,891.0,Object_Sea_Pattern_Large,,,20.85232891663327,23.863343333330704,1.0,Object_Sea_Pattern_Large,-2.0,,,,,,,,,,,
encoding,attention,1,25432596,25435607,25433382.0,25433594.0,213.0,213.0,1555.9,1166.2,1591.0,891.0,Object_Sea_Pattern_Large,,,20.85232891663327,23.863343333330704,1.0,Object_Sea_Pattern_Large,-2.0,,,,,,,,,,,
encoding,attention,1,25432596,25435607,25433787.0,25433828.0,42.0,42.0,1550.5,1214.4,1591.0,891.0,Object_Sea_Pattern_Large,,,20.85232891663327,23.863343333330704,1.0,Object_Sea_Pattern_Large,-2.0,,,,,,,,,,,
encoding,attention,1,25432596,25435607,25433835.0,25434644.0,810.0,810.0,1552.8,1195.4,1591.0,891.0,Object_Sea_Pattern_Large,,,20.85232891663327,23.863343333330704,1.0,Object_Sea_Pattern_Large,-2.0,,,,,,,,,,,
encoding,fixation,2,25435607,25436111,25435853.0,25436375.0,523.0,258.0,1896.8,1096.2,1920.0,1080.0,fixation,,,23.863522416650085,24.36749591663829,1.0,Animal_Land_Solid_Small,3.0,,,,,,,,,,,
encoding,image,2,25436111,25437120,25436403.0,25437296.0,894.0,717.0,1596.2,924.9000000000001,1591.0,1269.0,Animal_Land_Solid_Small,,,24.367586416658018,25.37628829164896,1.0,Animal_Land_Solid_Small,3.0,,,,,,,,,,,
encoding,value,2,25437120,25443130,25437313.0,25439315.0,2003.0,2003.0,1577.9,809.0999999999999,1591.0,1269.0,Animal_Land_Solid_Small,,,25.376479999977164,31.385952833341435,1.0,Animal_Land_Solid_Small,3.0,,,,,,,,,,,
encoding,value,2,25437120,25443130,25439331.0,25439702.0,372.0,372.0,1572.0,875.2,1591.0,1269.0,Animal_Land_Solid_Small,,,25.376479999977164,31.385952833341435,1.0,Animal_Land_Solid_Small,3.0,,,,,,,,,,,
encoding,value,2,25437120,25443130,25439904.0,25440590.0,687.0,687.0,1557.1,859.4000000000001,1591.0,1269.0,Animal_Land_Solid_Small,,,25.376479999977164,31.385952833341435,1.0,Animal_Land_Solid_Small,3.0,,,,,,,,,,,
encoding,value,2,25437120,25443130,25440599.0,25441646.0,1048.0,1048.0,1585.0,916.3,1591.0,1269.0,Animal_Land_Solid_Small,,,25.376479999977164,31.385952833341435,1.0,Animal_Land_Solid_Small,3.0,,,,,,,,,,,
encoding,value,2,25437120,25443130,25441665.0,25442361.0,697.0,697.0,1574.4,810.2,1591.0,1269.0,Animal_Land_Solid_Small,,,25.376479999977164,31.385952833341435,1.0,Animal_Land_Solid_Small,3.0,,,,,,,,,,,
encoding,value,2,25437120,25443130,25442380.0,25443012.0,633.0,633.0,1591.7,892.5999999999999,1591.0,1269.0,Animal_Land_Solid_Small,,,25.376479999977164,31.385952833341435,1.0,Animal_Land_Solid_Small,3.0,,,,,,,,,,,
encoding,value,2,25437120,25443130,25443026.0,25443451.0,426.0,104.0,1574.0,812.8,1591.0,1269.0,Animal_Land_Solid_Small,,,25.376479999977164,31.385952833341435,1.0,Animal_Land_Solid_Small,3.0,,,,,,,,,,,
encoding,attention,2,25443130,25446140,25443461.0,25443806.0,346.0,346.0,1524.8,787.3,1591.0,1269.0,Animal_Land_Solid_Small,,,31.386114583321618,34.39557875000173,1.0,Animal_Land_Solid_Small,3.0,,,,,,,,,,,
encoding,attention,2,25443130,25446140,25443818.0,25444575.0,758.0,758.0,1599.0,798.3,1591.0,1269.0,Animal_Land_Solid_Small,,,31.386114583321618,34.39557875000173,1.0,Animal_Land_Solid_Small,3.0,,,,,,,,,,,
encoding,attention,2,25443130,25446140,25444595.0,25445252.0,658.0,658.0,1595.2,905.8,1591.0,1269.0,Animal_Land_Solid_Small,,,31.386114583321618,34.39557875000173,1.0,Animal_Land_Solid_Small,3.0,,,,,,,,,,,
encoding,attention,2,25443130,25446140,25445269.0,25446037.0,769.0,769.0,1593.5,823.0999999999999,1591.0,1269.0,Animal_Land_Solid_Small,,,31.386114583321618,34.39557875000173,1.0,Animal_Land_Solid_Small,3.0,,,,,,,,,,,
encoding,fixation,3,25446140,25447143,25446376.0,25447214.0,839.0,767.0,2057.4,1191.3,2249.0,891.0,Object_Land_Pattern_Small,,,34.39569529163418,35.39929649999249,1.0,Animal_Land_Pattern_Small,-8.0,,,,,,,,,,,
encoding,image,3,25447143,25448152,25447435.0,25448329.0,895.0,717.0,2182.2,923.4000000000001,2249.0,1269.0,Animal_Land_Pattern_Small,,,35.39938124999753,36.40781858333503,1.0,Animal_Land_Pattern_Small,-8.0,,,,,,,,,,,
encoding,value,3,25448152,25454162,25448347.0,25449251.0,905.0,905.0,2210.4,811.4000000000001,2249.0,1269.0,Animal_Land_Pattern_Small,,,36.40792141665588,42.41713362498558,1.0,Animal_Land_Pattern_Small,-8.0,,,,,,,,,,,
encoding,value,3,25448152,25454162,25449266.0,25449679.0,414.0,414.0,2208.6,869.8,2249.0,1269.0,Animal_Land_Pattern_Small,,,36.40792141665588,42.41713362498558,1.0,Animal_Land_Pattern_Small,-8.0,,,,,,,,,,,
encoding,value,3,25448152,25454162,25449887.0,25451448.0,1562.0,1562.0,2201.8,806.8,2249.0,1269.0,Animal_Land_Pattern_Small,,,36.40792141665588,42.41713362498558,1.0,Animal_Land_Pattern_Small,-8.0,,,,,,,,,,,
encoding,value,3,25448152,25454162,25451465.0,25451871.0,407.0,407.0,2204.4,873.4000000000001,2249.0,1269.0,Animal_Land_Pattern_Small,,,36.40792141665588,42.41713362498558,1.0,Animal_Land_Pattern_Small,-8.0,,,,,,,,,,,
encoding,value,3,25448152,25454162,25451881.0,25452405.0,525.0,525.0,2206.5,910.8,2249.0,1269.0,Animal_Land_Pattern_Small,,,36.40792141665588,42.41713362498558,1.0,Animal_Land_Pattern_Small,-8.0,,,,,,,,,,,
encoding,value,3,25448152,25454162,25452651.0,25452787.0,137.0,137.0,1806.9,1022.0,1591.0,1269.0,Animal_Land_Solid_Small,,,36.40792141665588,42.41713362498558,1.0,Animal_Land_Pattern_Small,-8.0,,,,,,,,,,,
encoding,value,3,25448152,25454162,25452819.0,25453204.0,386.0,386.0,1405.2,1008.3,1591.0,1269.0,Animal_Land_Solid_Small,,,36.40792141665588,42.41713362498558,1.0,Animal_Land_Pattern_Small,-8.0,,,,,,,,,,,
encoding,value,3,25448152,25454162,25453269.0,25453589.0,321.0,321.0,2210.0,837.5,2249.0,1269.0,Animal_Land_Pattern_Small,,,36.40792141665588,42.41713362498558,1.0,Animal_Land_Pattern_Small,-8.0,,,,,,,,,,,
encoding,value,3,25448152,25454162,25453825.0,25454123.0,299.0,299.0,2398.0,315.0,,,none,,,36.40792141665588,42.41713362498558,1.0,Animal_Land_Pattern_Small,-8.0,,,,,,,,,,,
encoding,attention,3,25454162,25457176,25454194.0,25454456.0,263.0,263.0,2269.2,812.0,2249.0,1269.0,Animal_Land_Pattern_Small,,,42.41727074998198,45.431068333331496,1.0,Animal_Land_Pattern_Small,-8.0,,,,,,,,,,,
encoding,attention,3,25454162,25457176,25454474.0,25454892.0,419.0,419.0,2166.9,790.5,2249.0,1269.0,Animal_Land_Pattern_Small,,,42.41727074998198,45.431068333331496,1.0,Animal_Land_Pattern_Small,-8.0,,,,,,,,,,,
encoding,attention,3,25454162,25457176,25455130.0,25455288.0,159.0,159.0,2091.7,1099.0,2249.0,891.0,Object_Land_Pattern_Small,,,42.41727074998198,45.431068333331496,1.0,Animal_Land_Pattern_Small,-8.0,,,,,,,,,,,
encoding,fixation,4,25457176,25458429,25457429.0,25458665.0,1237.0,1000.0,1918.8,1078.5,1920.0,1080.0,fixation,,,45.43118374998448,46.68491791663109,1.0,Object_Sea_Solid_Large,-2.0,,,,,,,,,,,
encoding,image,4,25458430,25459441,25458703.0,25460147.0,1445.0,738.0,1933.2,1419.6,1920.0,700.0,Object_Sea_Solid_Large,,,46.68503862500074,47.696593999979086,1.0,Object_Sea_Solid_Large,-2.0,,,,,,,,,,,
encoding,value,4,25459441,25465450,25460159.0,25460675.0,517.0,517.0,1931.3,1357.4,1920.0,700.0,Object_Sea_Solid_Large,,,47.69668924997677,53.705559958325466,1.0,Object_Sea_Solid_Large,-2.0,,,,,,,,,,,
encoding,value,4,25459441,25465450,25460849.0,25462076.0,1228.0,1228.0,1912.1,1446.8,1920.0,700.0,Object_Sea_Solid_Large,,,47.69668924997677,53.705559958325466,1.0,Object_Sea_Solid_Large,-2.0,,,,,,,,,,,
encoding,value,4,25459441,25465450,25462327.0,25462434.0,108.0,108.0,1798.6,1356.3,1920.0,700.0,Object_Sea_Solid_Large,,,47.69668924997677,53.705559958325466,1.0,Object_Sea_Solid_Large,-2.0,,,,,,,,,,,
encoding,value,4,25459441,25465450,25462456.0,25463184.0,729.0,729.0,1923.7,1419.2,1920.0,700.0,Object_Sea_Solid_Large,,,47.69668924997677,53.705559958325466,1.0,Object_Sea_Solid_Large,-2.0,,,,,,,,,,,
encoding,value,4,25459441,25465450,25463193.0,25463838.0,646.0,646.0,1907.8,1437.7,1920.0,700.0,Object_Sea_Solid_Large,,,47.69668924997677,53.705559958325466,1.0,Object_Sea_Solid_Large,-2.0,,,,,,,,,,,
encoding,value,4,25459441,25465450,25464028.0,25464665.0,638.0,638.0,1926.9,1354.5,1920.0,700.0,Object_Sea_Solid_Large,,,47.69668924997677,53.705559958325466,1.0,Object_Sea_Solid_Large,-2.0,,,,,,,,,,,
encoding,value,4,25459441,25465450,25464686.0,25465212.0,527.0,527.0,1919.5,1443.6,1920.0,700.0,Object_Sea_Solid_Large,,,47.69668924997677,53.705559958325466,1.0,Object_Sea_Solid_Large,-2.0,,,,,,,,,,,
encoding,value,4,25459441,25465450,25465409.0,25465712.0,304.0,41.0,1904.5,1436.0,1920.0,700.0,Object_Sea_Solid_Large,,,47.69668924997677,53.705559958325466,1.0,Object_Sea_Solid_Large,-2.0,,,,,,,,,,,
encoding,attention,4,25465450,25468461,25465724.0,25465884.0,161.0,161.0,1928.1,1384.3,1920.0,700.0,Object_Sea_Solid_Large,,,53.70566679164767,56.715655916632386,1.0,Object_Sea_Solid_Large,-2.0,,,,,,,,,,,
encoding,attention,4,25465450,25468461,25465894.0,25466112.0,219.0,219.0,1882.0,1369.1,1920.0,700.0,Object_Sea_Solid_Large,,,53.70566679164767,56.715655916632386,1.0,Object_Sea_Solid_Large,-2.0,,,,,,,,,,,
encoding,attention,4,25465450,25468461,25466127.0,25466305.0,179.0,179.0,1967.6,1372.6,1920.0,700.0,Object_Sea_Solid_Large,,,53.70566679164767,56.715655916632386,1.0,Object_Sea_Solid_Large,-2.0,,,,,,,,,,,
encoding,attention,4,25465450,25468461,25466322.0,25466648.0,327.0,327.0,1920.1,1449.2,1920.0,700.0,Object_Sea_Solid_Large,,,53.70566679164767,56.715655916632386,1.0,Object_Sea_Solid_Large,-2.0,,,,,,,,,,,
encoding,attention,4,25465450,25468461,25466656.0,25467060.0,405.0,405.0,1925.3,1476.2,1920.0,700.0,Object_Sea_Solid_Large,,,53.70566679164767,56.715655916632386,1.0,Object_Sea_Solid_Large,-2.0,,,,,,,,,,,
encoding,attention,4,25465450,25468461,25467268.0,25467332.0,65.0,65.0,1937.3,1534.3,1920.0,700.0,Object_Sea_Solid_Large,,,53.70566679164767,56.715655916632386,1.0,Object_Sea_Solid_Large,-2.0,,,,,,,,,,,
encoding,attention,4,25465450,25468461,25467545.0,25467772.0,228.0,228.0,2309.0,723.2,2249.0,1269.0,Animal_Land_Pattern_Small,,,53.70566679164767,56.715655916632386,1.0,Object_Sea_Solid_Large,-2.0,,,,,,,,,,,
encoding,fixation,5,25468461,25469465,25468968.0,25469666.0,699.0,497.0,2274.8,938.9000000000001,2249.0,1269.0,Animal_Land_Pattern_Small,,,56.715772249997826,57.719580416654935,1.0,Animal_Sea_Solid_Large,3.0,,,,,,,,,,,
encoding,image,5,25469465,25470475,25469711.0,25470952.0,1242.0,764.0,1876.4,730.9000000000001,1920.0,1460.0,Animal_Sea_Solid_Large,,,57.719690916652326,58.72983962498256,1.0,Animal_Sea_Solid_Large,3.0,,,,,,,,,,,
encoding,value,5,25470475,25476484,25470968.0,25472135.0,1168.0,1168.0,1891.3,639.5,1920.0,1460.0,Animal_Sea_Solid_Large,,,58.72994699998526,64.73896099999547,1.0,Animal_Sea_Solid_Large,3.0,,,,,,,,,,,
encoding,value,5,25470475,25476484,25472353.0,25472976.0,624.0,624.0,1855.6,687.0,1920.0,1460.0,Animal_Sea_Solid_Large,,,58.72994699998526,64.73896099999547,1.0,Animal_Sea_Solid_Large,3.0,,,,,,,,,,,
encoding,value,5,25470475,25476484,25472989.0,25473340.0,352.0,352.0,1912.2,638.0,1920.0,1460.0,Animal_Sea_Solid_Large,,,58.72994699998526,64.73896099999547,1.0,Animal_Sea_Solid_Large,3.0,,,,,,,,,,,
encoding,value,5,25470475,25476484,25473365.0,25473662.0,298.0,298.0,2093.5,761.3,1920.0,1460.0,Animal_Sea_Solid_Large,,,58.72994699998526,64.73896099999547,1.0,Animal_Sea_Solid_Large,3.0,,,,,,,,,,,
encoding,value,5,25470475,25476484,25473684.0,25474524.0,841.0,841.0,1858.5,695.3,1920.0,1460.0,Animal_Sea_Solid_Large,,,58.72994699998526,64.73896099999547,1.0,Animal_Sea_Solid_Large,3.0,,,,,,,,,,,
encoding,value,5,25470475,25476484,25474537.0,25474901.0,365.0,365.0,1895.7,647.9000000000001,1920.0,1460.0,Animal_Sea_Solid_Large,,,58.72994699998526,64.73896099999547,1.0,Animal_Sea_Solid_Large,3.0,,,,,,,,,,,
encoding,value,5,25470475,25476484,25474914.0,25475645.0,732.0,732.0,1874.5,714.4000000000001,1920.0,1460.0,Animal_Sea_Solid_Large,,,58.72994699998526,64.73896099999547,1.0,Animal_Sea_Solid_Large,3.0,,,,,,,,,,,
encoding,value,5,25470475,25476484,25475874.0,25476147.0,274.0,274.0,1849.8,750.8,1920.0,1460.0,Animal_Sea_Solid_Large,,,58.72994699998526,64.73896099999547,1.0,Animal_Sea_Solid_Large,3.0,,,,,,,,,,,
encoding,value,5,25470475,25476484,25476155.0,25476690.0,536.0,329.0,1878.4,768.7,1920.0,1460.0,Animal_Sea_Solid_Large,,,58.72994699998526,64.73896099999547,1.0,Animal_Sea_Solid_Large,3.0,,,,,,,,,,,
encoding,attention,5,25476484,25479495,25476708.0,25476904.0,197.0,197.0,1866.1,683.9000000000001,1920.0,1460.0,Animal_Sea_Solid_Large,,,64.73907108334242,67.74984641664196,1.0,Animal_Sea_Solid_Large,3.0,,,,,,,,,,,
encoding,attention,5,25476484,25479495,25476914.0,25477148.0,235.0,235.0,1918.1,651.2,1920.0,1460.0,Animal_Sea_Solid_Large,,,64.73907108334242,67.74984641664196,1.0,Animal_Sea_Solid_Large,3.0,,,,,,,,,,,
encoding,attention,5,25476484,25479495,25477170.0,25477834.0,665.0,665.0,1865.4,759.4000000000001,1920.0,1460.0,Animal_Sea_Solid_Large,,,64.73907108334242,67.74984641664196,1.0,Animal_Sea_Solid_Large,3.0,,,,,,,,,,,
encoding,attention,5,25476484,25479495,25477853.0,25478013.0,161.0,161.0,1916.3,652.5999999999999,1920.0,1460.0,Animal_Sea_Solid_Large,,,64.73907108334242,67.74984641664196,1.0,Animal_Sea_Solid_Large,3.0,,,,,,,,,,,
encoding,attention,5,25476484,25479495,25478027.0,25478729.0,703.0,703.0,1831.5,627.5,1920.0,1460.0,Animal_Sea_Solid_Large,,,64.73907108334242,67.74984641664196,1.0,Animal_Sea_Solid_Large,3.0,,,,,,,,,,,
encoding,attention,5,25476484,25479495,25478737.0,25478939.0,203.0,203.0,1878.1,644.4000000000001,1920.0,1460.0,Animal_Sea_Solid_Large,,,64.73907108334242,67.74984641664196,1.0,Animal_Sea_Solid_Large,3.0,,,,,,,,,,,
encoding,attention,5,25476484,25479495,25478956.0,25479196.0,241.0,241.0,1859.1,739.9000000000001,1920.0,1460.0,Animal_Sea_Solid_Large,,,64.73907108334242,67.74984641664196,1.0,Animal_Sea_Solid_Large,3.0,,,,,,,,,,,
encoding,fixation,6,25479495,25480999,25479510.0,25479811.0,302.0,302.0,1866.9,753.9000000000001,1920.0,1460.0,Animal_Sea_Solid_Large,,,67.74995345831849,69.25366858334746,1.0,Object_Land_Pattern_Small,6.0,,,,,,,,,,,
encoding,fixation,6,25479495,25480999,25479853.0,25479985.0,133.0,133.0,1881.0,1030.6,1920.0,1080.0,fixation,,,67.74995345831849,69.25366858334746,1.0,Object_Land_Pattern_Small,6.0,,,,,,,,,,,
encoding,fixation,6,25479495,25480999,25480000.0,25481116.0,1117.0,999.0,1893.1,1096.0,1920.0,1080.0,fixation,,,67.74995345831849,69.25366858334746,1.0,Object_Land_Pattern_Small,6.0,,,,,,,,,,,
encoding,image,6,25480999,25482008,25481138.0,25481240.0,103.0,103.0,2029.0,1183.3,2249.0,891.0,Object_Land_Pattern_Small,,,69.25377683332772,70.26278941665078,1.0,Object_Land_Pattern_Small,6.0,,,,,,,,,,,
encoding,image,6,25480999,25482008,25481265.0,25481606.0,342.0,342.0,2212.9,1285.4,2249.0,891.0,Object_Land_Pattern_Small,,,69.25377683332772,70.26278941665078,1.0,Object_Land_Pattern_Small,6.0,,,,,,,,,,,
encoding,image,6,25480999,25482008,25481616.0,25482170.0,555.0,392.0,2249.3,1247.7,2249.0,891.0,Object_Land_Pattern_Small,,,69.25377683332772,70.26278941665078,1.0,Object_Land_Pattern_Small,6.0,,,,,,,,,,,
encoding,value,6,25482008,25488019,25482181.0,25483314.0,1134.0,1134.0,2242.8,1201.2,2249.0,891.0,Object_Land_Pattern_Small,,,70.26290716664516,76.27277637500083,1.0,Object_Land_Pattern_Small,6.0,,,,,,,,,,,
encoding,value,6,25482008,25488019,25483329.0,25483716.0,388.0,388.0,2237.4,1258.0,2249.0,891.0,Object_Land_Pattern_Small,,,70.26290716664516,76.27277637500083,1.0,Object_Land_Pattern_Small,6.0,,,,,,,,,,,
encoding,value,6,25482008,25488019,25483875.0,25484456.0,582.0,582.0,2251.2,1288.6,2249.0,891.0,Object_Land_Pattern_Small,,,70.26290716664516,76.27277637500083,1.0,Object_Land_Pattern_Small,6.0,,,,,,,,,,,
encoding,value,6,25482008,25488019,25484471.0,25484657.0,187.0,187.0,2224.5,1224.6,2249.0,891.0,Object_Land_Pattern_Small,,,70.26290716664516,76.27277637500083,1.0,Object_Land_Pattern_Small,6.0,,,,,,,,,,,
encoding,value,6,25482008,25488019,25484670.0,25484883.0,214.0,214.0,2245.9,1270.2,2249.0,891.0,Object_Land_Pattern_Small,,,70.26290716664516,76.27277637500083,1.0,Object_Land_Pattern_Small,6.0,,,,,,,,,,,
encoding,value,6,25482008,25488019,25484890.0,25485355.0,466.0,466.0,2240.6,1305.6,2249.0,891.0,Object_Land_Pattern_Small,,,70.26290716664516,76.27277637500083,1.0,Object_Land_Pattern_Small,6.0,,,,,,,,,,,
encoding,value,6,25482008,25488019,25485523.0,25486036.0,514.0,514.0,2244.6,1324.4,2249.0,891.0,Object_Land_Pattern_Small,,,70.26290716664516,76.27277637500083,1.0,Object_Land_Pattern_Small,6.0,,,,,,,,,,,
encoding,value,6,25482008,25488019,25486056.0,25486987.0,932.0,932.0,2234.9,1226.2,2249.0,891.0,Object_Land_Pattern_Small,,,70.26290716664516,76.27277637500083,1.0,Object_Land_Pattern_Small,6.0,,,,,,,,,,,
encoding,value,6,25482008,25488019,25487171.0,25487969.0,799.0,799.0,2218.5,1262.4,2249.0,891.0,Object_Land_Pattern_Small,,,70.26290716664516,76.27277637500083,1.0,Object_Land_Pattern_Small,6.0,,,,,,,,,,,
encoding,value,6,25482008,25488019,25487995.0,25488209.0,215.0,24.0,1949.4,1144.8,1920.0,700.0,Object_Sea_Solid_Large,,,70.26290716664516,76.27277637500083,1.0,Object_Land_Pattern_Small,6.0,,,,,,,,,,,
encoding,attention,6,25488019,25491029,25488242.0,25488414.0,173.0,173.0,2226.2,1172.5,2249.0,891.0,Object_Land_Pattern_Small,,,76.27291195833823,79.28325120834052,1.0,Object_Land_Pattern_Small,6.0,,,,,,,,,,,
encoding,attention,6,25488019,25491029,25488424.0,25488642.0,219.0,219.0,2281.7,1177.8,2249.0,891.0,Object_Land_Pattern_Small,,,76.27291195833823,79.28325120834052,1.0,Object_Land_Pattern_Small,6.0,,,,,,,,,,,
encoding,attention,6,25488019,25491029,25488660.0,25488867.0,208.0,208.0,2205.2,1278.6,2249.0,891.0,Object_Land_Pattern_Small,,,76.27291195833823,79.28325120834052,1.0,Object_Land_Pattern_Small,6.0,,,,,,,,,,,
encoding,attention,6,25488019,25491029,25489088.0,25489324.0,237.0,237.0,2227.5,1408.5,2249.0,891.0,Object_Land_Pattern_Small,,,76.27291195833823,79.28325120834052,1.0,Object_Land_Pattern_Small,6.0,,,,,,,,,,,
encoding,attention,6,25488019,25491029,25489339.0,25489577.0,239.0,239.0,2237.3,1343.2,2249.0,891.0,Object_Land_Pattern_Small,,,76.27291195833823,79.28325120834052,1.0,Object_Land_Pattern_Small,6.0,,,,,,,,,,,
encoding,attention,6,25488019,25491029,25489599.0,25489830.0,232.0,232.0,2227.4,1219.4,2249.0,891.0,Object_Land_Pattern_Small,,,76.27291195833823,79.28325120834052,1.0,Object_Land_Pattern_Small,6.0,,,,,,,,,,,
encoding,fixation,7,25867897,25869151,25868140.0,25868352.0,213.0,213.0,1899.7,1090.9,1920.0,1080.0,fixation,,,6.262443249986973,7.516428541654022,2.0,Object_Land_Pattern_Large,9.0,,,,,,,,,,,
encoding,fixation,7,25867897,25869151,25868563.0,25869139.0,577.0,577.0,1895.7,1103.3,1920.0,1080.0,fixation,,,6.262443249986973,7.516428541654022,2.0,Object_Land_Pattern_Large,9.0,,,,,,,,,,,
encoding,image,7,25869151,25870161,25869178.0,25869343.0,166.0,166.0,1908.8,1301.6,1920.0,700.0,Object_Sea_Pattern_Small,,,7.516533083311515,8.526554041658528,2.0,Object_Land_Pattern_Large,9.0,,,,,,,,,,,
encoding,image,7,25869151,25870161,25869382.0,25869408.0,27.0,27.0,1868.8,853.3,1920.0,1460.0,Object_Land_Pattern_Large,,,7.516533083311515,8.526554041658528,2.0,Object_Land_Pattern_Large,9.0,,,,,,,,,,,
encoding,image,7,25869151,25870161,25869414.0,25869525.0,112.0,112.0,1868.3,778.0,1920.0,1460.0,Object_Land_Pattern_Large,,,7.516533083311515,8.526554041658528,2.0,Object_Land_Pattern_Large,9.0,,,,,,,,,,,
encoding,image,7,25869151,25870161,25869543.0,25870365.0,823.0,618.0,1889.8,711.4000000000001,1920.0,1460.0,Object_Land_Pattern_Large,,,7.516533083311515,8.526554041658528,2.0,Object_Land_Pattern_Large,9.0,,,,,,,,,,,
encoding,value,7,25870161,25876173,25870383.0,25871375.0,993.0,993.0,1907.5,630.0999999999999,1920.0,1460.0,Object_Land_Pattern_Large,,,8.52664766664384,14.537598374998195,2.0,Object_Land_Pattern_Large,9.0,,,,,,,,,,,
encoding,value,7,25870161,25876173,25871393.0,25873067.0,1675.0,1675.0,1888.8,697.2,1920.0,1460.0,Object_Land_Pattern_Large,,,8.52664766664384,14.537598374998195,2.0,Object_Land_Pattern_Large,9.0,,,,,,,,,,,
encoding,value,7,25870161,25876173,25873170.0,25874178.0,1009.0,1009.0,1885.7,714.0,1920.0,1460.0,Object_Land_Pattern_Large,,,8.52664766664384,14.537598374998195,2.0,Object_Land_Pattern_Large,9.0,,,,,,,,,,,
encoding,value,7,25870161,25876173,25874196.0,25874649.0,454.0,454.0,1900.6,638.4000000000001,1920.0,1460.0,Object_Land_Pattern_Large,,,8.52664766664384,14.537598374998195,2.0,Object_Land_Pattern_Large,9.0,,,,,,,,,,,
encoding,value,7,25870161,25876173,25874845.0,25876432.0,1588.0,1328.0,1876.1,703.2,1920.0,1460.0,Object_Land_Pattern_Large,,,8.52664766664384,14.537598374998195,2.0,Object_Land_Pattern_Large,9.0,,,,,,,,,,,
encoding,attention,7,25876173,25879183,25876443.0,25876598.0,156.0,156.0,1883.9,648.8,1920.0,1460.0,Object_Land_Pattern_Large,,,14.53772662501433,17.548361708322773,2.0,Object_Land_Pattern_Large,9.0,,,,,,,,,,,
encoding,attention,7,25876173,25879183,25876607.0,25876924.0,318.0,318.0,1922.9,629.8,1920.0,1460.0,Object_Land_Pattern_Large,,,14.53772662501433,17.548361708322773,2.0,Object_Land_Pattern_Large,9.0,,,,,,,,,,,
encoding,attention,7,25876173,25879183,25877154.0,25877353.0,200.0,200.0,2003.9,1461.0,1920.0,700.0,Object_Sea_Pattern_Small,,,14.53772662501433,17.548361708322773,2.0,Object_Land_Pattern_Large,9.0,,,,,,,,,,,
encoding,attention,7,25876173,25879183,25877738.0,25877789.0,52.0,52.0,3270.0,2743.0,,,none,,,14.53772662501433,17.548361708322773,2.0,Object_Land_Pattern_Large,9.0,,,,,,,,,,,
encoding,attention,7,25876173,25879183,25878412.0,25878971.0,560.0,560.0,1929.5,1407.1,1920.0,700.0,Object_Sea_Pattern_Small,,,14.53772662501433,17.548361708322773,2.0,Object_Land_Pattern_Large,9.0,,,,,,,,,,,
encoding,fixation,8,25879184,25879688,25879458.0,25879855.0,398.0,230.0,1877.8,1122.6,1920.0,1080.0,fixation,,,17.548479499993846,18.052398375002667,2.0,Object_Sea_Pattern_Small,-9.0,,,,,,,,,,,
encoding,image,8,25879688,25880696,25880002.0,25880974.0,973.0,694.0,1930.9,1476.5,1920.0,700.0,Object_Sea_Pattern_Small,,,18.052492916671326,19.060683749994496,2.0,Object_Sea_Pattern_Small,-9.0,,,,,,,,,,,
encoding,value,8,25880696,25886706,25880989.0,25881421.0,433.0,433.0,1938.7,1411.9,1920.0,700.0,Object_Sea_Pattern_Small,,,19.06084187500528,25.07026683332515,2.0,Object_Sea_Pattern_Small,-9.0,,,,,,,,,,,
encoding,value,8,25880696,25886706,25881591.0,25881681.0,91.0,91.0,1929.2,1408.2,1920.0,700.0,Object_Sea_Pattern_Small,,,19.06084187500528,25.07026683332515,2.0,Object_Sea_Pattern_Small,-9.0,,,,,,,,,,,
encoding,value,8,25880696,25886706,25881890.0,25882439.0,550.0,550.0,1928.2,1391.0,1920.0,700.0,Object_Sea_Pattern_Small,,,19.06084187500528,25.07026683332515,2.0,Object_Sea_Pattern_Small,-9.0,,,,,,,,,,,
encoding,value,8,25880696,25886706,25882459.0,25882862.0,404.0,404.0,1928.4,1448.2,1920.0,700.0,Object_Sea_Pattern_Small,,,19.06084187500528,25.07026683332515,2.0,Object_Sea_Pattern_Small,-9.0,,,,,,,,,,,
encoding,value,8,25880696,25886706,25883062.0,25883687.0,626.0,626.0,1929.9,1400.3,1920.0,700.0,Object_Sea_Pattern_Small,,,19.06084187500528,25.07026683332515,2.0,Object_Sea_Pattern_Small,-9.0,,,,,,,,,,,
encoding,value,8,25880696,25886706,25883890.0,25884026.0,137.0,137.0,1905.5,1377.7,1920.0,700.0,Object_Sea_Pattern_Small,,,19.06084187500528,25.07026683332515,2.0,Object_Sea_Pattern_Small,-9.0,,,,,,,,,,,
encoding,value,8,25880696,25886706,25884043.0,25884905.0,863.0,863.0,1925.4,1441.4,1920.0,700.0,Object_Sea_Pattern_Small,,,19.06084187500528,25.07026683332515,2.0,Object_Sea_Pattern_Small,-9.0,,,,,,,,,,,
encoding,value,8,25880696,25886706,25884918.0,25885218.0,301.0,301.0,1925.9,1383.6,1920.0,700.0,Object_Sea_Pattern_Small,,,19.06084187500528,25.07026683332515,2.0,Object_Sea_Pattern_Small,-9.0,,,,,,,,,,,
encoding,value,8,25880696,25886706,25885377.0,25886148.0,772.0,772.0,1920.9,1428.9,1920.0,700.0,Object_Sea_Pattern_Small,,,19.06084187500528,25.07026683332515,2.0,Object_Sea_Pattern_Small,-9.0,,,,,,,,,,,
encoding,value,8,25880696,25886706,25886156.0,25886553.0,398.0,398.0,1928.9,1455.5,1920.0,700.0,Object_Sea_Pattern_Small,,,19.06084187500528,25.07026683332515,2.0,Object_Sea_Pattern_Small,-9.0,,,,,,,,,,,
encoding,value,8,25880696,25886706,25886618.0,25886935.0,318.0,88.0,1868.8,940.2,1920.0,1460.0,Object_Land_Pattern_Large,,,19.06084187500528,25.07026683332515,2.0,Object_Sea_Pattern_Small,-9.0,,,,,,,,,,,
encoding,attention,8,25886706,25889716,25886990.0,25887292.0,303.0,303.0,1936.7,1354.8,1920.0,700.0,Object_Sea_Pattern_Small,,,25.07038774999091,28.080057958315592,2.0,Object_Sea_Pattern_Small,-9.0,,,,,,,,,,,
encoding,attention,8,25886706,25889716,25887561.0,25887636.0,76.0,76.0,1913.4,1476.7,1920.0,700.0,Object_Sea_Pattern_Small,,,25.07038774999091,28.080057958315592,2.0,Object_Sea_Pattern_Small,-9.0,,,,,,,,,,,
encoding,attention,8,25886706,25889716,25887923.0,25888029.0,107.0,107.0,1938.6,481.5999999999999,,,none,,,25.07038774999091,28.080057958315592,2.0,Object_Sea_Pattern_Small,-9.0,,,,,,,,,,,
encoding,attention,8,25886706,25889716,25888053.0,25888241.0,189.0,189.0,2255.0,323.5999999999999,,,none,,,25.07038774999091,28.080057958315592,2.0,Object_Sea_Pattern_Small,-9.0,,,,,,,,,,,
encoding,attention,8,25886706,25889716,25888348.0,25888444.0,97.0,97.0,1846.3,973.2,1591.0,1269.0,Animal_Land_Solid_Large,,,25.07038774999091,28.080057958315592,2.0,Object_Sea_Pattern_Small,-9.0,,,,,,,,,,,
encoding,attention,8,25886706,25889716,25888491.0,25888743.0,253.0,253.0,1896.4,1332.6,1920.0,700.0,Object_Sea_Pattern_Small,,,25.07038774999091,28.080057958315592,2.0,Object_Sea_Pattern_Small,-9.0,,,,,,,,,,,
encoding,attention,8,25886706,25889716,25888763.0,25889013.0,251.0,251.0,1924.9,1449.3,1920.0,700.0,Object_Sea_Pattern_Small,,,25.07038774999091,28.080057958315592,2.0,Object_Sea_Pattern_Small,-9.0,,,,,,,,,,,
encoding,attention,8,25886706,25889716,25889201.0,25889323.0,123.0,123.0,1915.6,1441.1,1920.0,700.0,Object_Sea_Pattern_Small,,,25.07038774999091,28.080057958315592,2.0,Object_Sea_Pattern_Small,-9.0,,,,,,,,,,,
encoding,fixation,9,25889716,25890470,25889972.0,25890659.0,688.0,498.0,1893.3,1153.6,1920.0,700.0,Object_Sea_Pattern_Small,,,28.0801844583184,28.83399762501358,2.0,Object_Land_Solid_Large,-3.0,,,,,,,,,,,
encoding,image,9,25890470,25891477,25890701.0,25891112.0,412.0,412.0,2185.7,918.7,2249.0,1269.0,Object_Land_Solid_Large,,,28.8340982083173,29.841697583324276,2.0,Object_Land_Solid_Large,-3.0,,,,,,,,,,,
encoding,image,9,25890470,25891477,25891315.0,25892072.0,758.0,162.0,2193.3,895.7,2249.0,1269.0,Object_Land_Solid_Large,,,28.8340982083173,29.841697583324276,2.0,Object_Land_Solid_Large,-3.0,,,,,,,,,,,
encoding,value,9,25891477,25897486,25892275.0,25892696.0,422.0,422.0,2187.3,913.8,2249.0,1269.0,Object_Land_Solid_Large,,,29.841791000013473,35.850174499995774,2.0,Object_Land_Solid_Large,-3.0,,,,,,,,,,,
encoding,value,9,25891477,25897486,25892721.0,25892990.0,270.0,270.0,1942.4,965.8,1920.0,1460.0,Object_Land_Pattern_Large,,,29.841791000013473,35.850174499995774,2.0,Object_Land_Solid_Large,-3.0,,,,,,,,,,,
encoding,value,9,25891477,25897486,25893186.0,25893439.0,254.0,254.0,2226.1,889.0,2249.0,1269.0,Object_Land_Solid_Large,,,29.841791000013473,35.850174499995774,2.0,Object_Land_Solid_Large,-3.0,,,,,,,,,,,
encoding,value,9,25891477,25897486,25893456.0,25893938.0,483.0,483.0,2195.0,815.9000000000001,2249.0,1269.0,Object_Land_Solid_Large,,,29.841791000013473,35.850174499995774,2.0,Object_Land_Solid_Large,-3.0,,,,,,,,,,,
encoding,value,9,25891477,25897486,25893952.0,25894057.0,106.0,106.0,2197.7,868.0,2249.0,1269.0,Object_Land_Solid_Large,,,29.841791000013473,35.850174499995774,2.0,Object_Land_Solid_Large,-3.0,,,,,,,,,,,
encoding,value,9,25891477,25897486,25894302.0,25895407.0,1106.0,1106.0,2160.7,888.8,2249.0,1269.0,Object_Land_Solid_Large,,,29.841791000013473,35.850174499995774,2.0,Object_Land_Solid_Large,-3.0,,,,,,,,,,,
encoding,value,9,25891477,25897486,25895435.0,25895627.0,193.0,193.0,2059.9,1114.1,2249.0,891.0,Animal_Sea_Pattern_Small,,,29.841791000013473,35.850174499995774,2.0,Object_Land_Solid_Large,-3.0,,,,,,,,,,,
encoding,value,9,25891477,25897486,25895645.0,25895930.0,286.0,286.0,1916.9,1115.1,1920.0,1080.0,fixation,,,29.841791000013473,35.850174499995774,2.0,Object_Land_Solid_Large,-3.0,,,,,,,,,,,
encoding,value,9,25891477,25897486,25895974.0,25896710.0,737.0,737.0,2191.2,890.0999999999999,2249.0,1269.0,Object_Land_Solid_Large,,,29.841791000013473,35.850174499995774,2.0,Object_Land_Solid_Large,-3.0,,,,,,,,,,,
encoding,value,9,25891477,25897486,25896733.0,25897044.0,312.0,312.0,1954.7,840.5,1920.0,1460.0,Object_Land_Pattern_Large,,,29.841791000013473,35.850174499995774,2.0,Object_Land_Solid_Large,-3.0,,,,,,,,,,,
encoding,value,9,25891477,25897486,25897069.0,25897170.0,102.0,102.0,2192.3,859.0999999999999,2249.0,1269.0,Object_Land_Solid_Large,,,29.841791000013473,35.850174499995774,2.0,Object_Land_Solid_Large,-3.0,,,,,,,,,,,
encoding,value,9,25891477,25897486,25897396.0,25897885.0,490.0,90.0,2162.6,881.2,2249.0,1269.0,Object_Land_Solid_Large,,,29.841791000013473,35.850174499995774,2.0,Object_Land_Solid_Large,-3.0,,,,,,,,,,,
encoding,attention,9,25897486,25900496,25897897.0,25898140.0,244.0,244.0,2144.7,837.8,2249.0,1269.0,Object_Land_Solid_Large,,,35.85029712499818,38.85990791665972,2.0,Object_Land_Solid_Large,-3.0,,,,,,,,,,,
encoding,attention,9,25897486,25900496,25898155.0,25898369.0,215.0,215.0,2235.8,811.4000000000001,2249.0,1269.0,Object_Land_Solid_Large,,,35.85029712499818,38.85990791665972,2.0,Object_Land_Solid_Large,-3.0,,,,,,,,,,,
encoding,attention,9,25897486,25900496,25898386.0,25898550.0,165.0,165.0,2196.7,917.7,2249.0,1269.0,Object_Land_Solid_Large,,,35.85029712499818,38.85990791665972,2.0,Object_Land_Solid_Large,-3.0,,,,,,,,,,,
encoding,attention,9,25897486,25900496,25898765.0,25899031.0,267.0,267.0,2192.9,950.5999999999999,2249.0,1269.0,Object_Land_Solid_Large,,,35.85029712499818,38.85990791665972,2.0,Object_Land_Solid_Large,-3.0,,,,,,,,,,,
encoding,attention,9,25897486,25900496,25899302.0,25900273.0,972.0,972.0,2176.2,907.3,2249.0,1269.0,Object_Land_Solid_Large,,,35.85029712499818,38.85990791665972,2.0,Object_Land_Solid_Large,-3.0,,,,,,,,,,,
encoding,fixation,10,25900496,25901750,25900740.0,25901164.0,425.0,425.0,1912.0,1097.8,1920.0,1080.0,fixation,,,38.86002920829924,40.11364870832767,2.0,Animal_Land_Solid_Large,-1.0,,,,,,,,,,,
encoding,fixation,10,25900496,25901750,25901189.0,25901534.0,346.0,346.0,1597.3,1139.3,1591.0,891.0,Animal_Sea_Solid_Small,,,38.86002920829924,40.11364870832767,2.0,Animal_Land_Solid_Large,-1.0,,,,,,,,,,,
encoding,fixation,10,25900496,25901750,25901570.0,25901943.0,374.0,180.0,1912.0,1119.8,1920.0,1080.0,fixation,,,38.86002920829924,40.11364870832767,2.0,Animal_Land_Solid_Large,-1.0,,,,,,,,,,,
encoding,image,10,25901750,25902759,25901986.0,25902605.0,620.0,620.0,1577.1,904.7,1591.0,1269.0,Animal_Land_Solid_Large,,,40.113764791662106,41.12326987501001,2.0,Animal_Land_Solid_Large,-1.0,,,,,,,,,,,
encoding,image,10,25901750,25902759,25902632.0,25902798.0,167.0,127.0,1820.4,1056.7,1591.0,1269.0,Animal_Land_Solid_Large,,,40.113764791662106,41.12326987501001,2.0,Animal_Land_Solid_Large,-1.0,,,,,,,,,,,
encoding,value,10,25902759,25908769,25902815.0,25903281.0,467.0,467.0,1934.7,1089.8,1920.0,1080.0,fixation,,,41.12335591664305,47.132620583317475,2.0,Animal_Land_Solid_Large,-1.0,,,,,,,,,,,
encoding,value,10,25902759,25908769,25903326.0,25903462.0,137.0,137.0,1585.3,851.8,1591.0,1269.0,Animal_Land_Solid_Large,,,41.12335591664305,47.132620583317475,2.0,Animal_Land_Solid_Large,-1.0,,,,,,,,,,,
encoding,value,10,25902759,25908769,25903481.0,25903881.0,401.0,401.0,1571.0,806.5999999999999,1591.0,1269.0,Animal_Land_Solid_Large,,,41.12335591664305,47.132620583317475,2.0,Animal_Land_Solid_Large,-1.0,,,,,,,,,,,
encoding,value,10,25902759,25908769,25903900.0,25904055.0,156.0,156.0,1584.9,895.5999999999999,1591.0,1269.0,Animal_Land_Solid_Large,,,41.12335591664305,47.132620583317475,2.0,Animal_Land_Solid_Large,-1.0,,,,,,,,,,,
encoding,value,10,25902759,25908769,25904239.0,25904621.0,383.0,383.0,1754.7,1019.5999999999999,1591.0,1269.0,Animal_Land_Solid_Large,,,41.12335591664305,47.132620583317475,2.0,Animal_Land_Solid_Large,-1.0,,,,,,,,,,,
encoding,value,10,25902759,25908769,25904642.0,25906118.0,1477.0,1477.0,1919.6,1060.0,1920.0,1080.0,fixation,,,41.12335591664305,47.132620583317475,2.0,Animal_Land_Solid_Large,-1.0,,,,,,,,,,,
encoding,value,10,25902759,25908769,25906157.0,25906875.0,719.0,719.0,2213.3,946.5999999999999,2249.0,1269.0,Object_Land_Solid_Large,,,41.12335591664305,47.132620583317475,2.0,Animal_Land_Solid_Large,-1.0,,,,,,,,,,,
encoding,value,10,25902759,25908769,25906920.0,25907131.0,212.0,212.0,1598.0,859.2,1591.0,1269.0,Animal_Land_Solid_Large,,,41.12335591664305,47.132620583317475,2.0,Animal_Land_Solid_Large,-1.0,,,,,,,,,,,
encoding,value,10,25902759,25908769,25907149.0,25907323.0,175.0,175.0,1546.7,808.8,1591.0,1269.0,Animal_Land_Solid_Large,,,41.12335591664305,47.132620583317475,2.0,Animal_Land_Solid_Large,-1.0,,,,,,,,,,,
encoding,value,10,25902759,25908769,25907330.0,25907637.0,308.0,308.0,1576.2,802.7,1591.0,1269.0,Animal_Land_Solid_Large,,,41.12335591664305,47.132620583317475,2.0,Animal_Land_Solid_Large,-1.0,,,,,,,,,,,
encoding,value,10,25902759,25908769,25907655.0,25909016.0,1362.0,1114.0,1595.4,909.8,1591.0,1269.0,Animal_Land_Solid_Large,,,41.12335591664305,47.132620583317475,2.0,Animal_Land_Solid_Large,-1.0,,,,,,,,,,,
encoding,attention,10,25908769,25911780,25909034.0,25909301.0,268.0,268.0,1569.0,825.5999999999999,1591.0,1269.0,Animal_Land_Solid_Large,,,47.13271258331952,50.14305129167042,2.0,Animal_Land_Solid_Large,-1.0,,,,,,,,,,,
encoding,attention,10,25908769,25911780,25909313.0,25909637.0,325.0,325.0,1526.0,799.0,1591.0,1269.0,Animal_Land_Solid_Large,,,47.13271258331952,50.14305129167042,2.0,Animal_Land_Solid_Large,-1.0,,,,,,,,,,,
encoding,attention,10,25908769,25911780,25909937.0,25910225.0,289.0,289.0,2558.1,1311.5,,,none,,,47.13271258331952,50.14305129167042,2.0,Animal_Land_Solid_Large,-1.0,,,,,,,,,,,
encoding,attention,10,25908769,25911780,25910288.0,25910526.0,239.0,239.0,1769.9,1086.1,1591.0,891.0,Animal_Sea_Solid_Small,,,47.13271258331952,50.14305129167042,2.0,Animal_Land_Solid_Large,-1.0,,,,,,,,,,,
encoding,fixation,11,25911780,25912783,,,,,,,,,none,,,50.14318799998728,51.146837333304575,2.0,Animal_Sea_Pattern_Small,9.0,,,,,,,,,,,
encoding,image,11,25912783,25913795,25912881.0,25913021.0,141.0,141.0,2160.8,1230.5,2249.0,891.0,Animal_Sea_Pattern_Small,,,51.14692775000003,52.157933541660896,2.0,Animal_Sea_Pattern_Small,9.0,,,,,,,,,,,
encoding,image,11,25912783,25913795,25913039.0,25914109.0,1071.0,756.0,2251.2,1279.0,2249.0,891.0,Animal_Sea_Pattern_Small,,,51.14692775000003,52.157933541660896,2.0,Animal_Sea_Pattern_Small,9.0,,,,,,,,,,,
encoding,value,11,25913795,25919804,25914471.0,25915449.0,979.0,979.0,2242.6,1192.1,2249.0,891.0,Animal_Sea_Pattern_Small,,,52.158050458325306,58.167063291650265,2.0,Animal_Sea_Pattern_Small,9.0,,,,,,,,,,,
encoding,value,11,25913795,25919804,25915465.0,25915746.0,282.0,282.0,2253.7,1265.9,2249.0,891.0,Animal_Sea_Pattern_Small,,,52.158050458325306,58.167063291650265,2.0,Animal_Sea_Pattern_Small,9.0,,,,,,,,,,,
encoding,value,11,25913795,25919804,25915938.0,25916708.0,771.0,771.0,2166.2,1275.8,2249.0,891.0,Animal_Sea_Pattern_Small,,,52.158050458325306,58.167063291650265,2.0,Animal_Sea_Pattern_Small,9.0,,,,,,,,,,,
encoding,value,11,25913795,25919804,25916724.0,25917075.0,352.0,352.0,2218.8,1211.6,2249.0,891.0,Animal_Sea_Pattern_Small,,,52.158050458325306,58.167063291650265,2.0,Animal_Sea_Pattern_Small,9.0,,,,,,,,,,,
encoding,value,11,25913795,25919804,25917085.0,25917491.0,407.0,407.0,2251.5,1190.5,2249.0,891.0,Animal_Sea_Pattern_Small,,,52.158050458325306,58.167063291650265,2.0,Animal_Sea_Pattern_Small,9.0,,,,,,,,,,,
encoding,value,11,25913795,25919804,25917683.0,25918052.0,370.0,370.0,2233.0,1296.3,2249.0,891.0,Animal_Sea_Pattern_Small,,,52.158050458325306,58.167063291650265,2.0,Animal_Sea_Pattern_Small,9.0,,,,,,,,,,,
encoding,value,11,25913795,25919804,25918073.0,25918514.0,442.0,442.0,2249.1,1198.6,2249.0,891.0,Animal_Sea_Pattern_Small,,,52.158050458325306,58.167063291650265,2.0,Animal_Sea_Pattern_Small,9.0,,,,,,,,,,,
encoding,value,11,25913795,25919804,25918531.0,25919326.0,796.0,796.0,2257.0,1276.0,2249.0,891.0,Animal_Sea_Pattern_Small,,,52.158050458325306,58.167063291650265,2.0,Animal_Sea_Pattern_Small,9.0,,,,,,,,,,,
encoding,value,11,25913795,25919804,25919491.0,25919652.0,162.0,162.0,2041.8,1208.0,2249.0,891.0,Animal_Sea_Pattern_Small,,,52.158050458325306,58.167063291650265,2.0,Animal_Sea_Pattern_Small,9.0,,,,,,,,,,,
encoding,value,11,25913795,25919804,25919673.0,25920028.0,356.0,131.0,1915.3,1099.8,1920.0,1080.0,fixation,,,52.158050458325306,58.167063291650265,2.0,Animal_Sea_Pattern_Small,9.0,,,,,,,,,,,
encoding,attention,11,25919804,25922814,25920067.0,25920227.0,161.0,161.0,2242.7,1164.1,2249.0,891.0,Animal_Sea_Pattern_Small,,,58.16717695831903,61.17725375000737,2.0,Animal_Sea_Pattern_Small,9.0,,,,,,,,,,,
encoding,attention,11,25919804,25922814,25920234.0,25920451.0,218.0,218.0,2250.1,1184.0,2249.0,891.0,Animal_Sea_Pattern_Small,,,58.16717695831903,61.17725375000737,2.0,Animal_Sea_Pattern_Small,9.0,,,,,,,,,,,
encoding,attention,11,25919804,25922814,25920694.0,25920899.0,206.0,206.0,1969.7,683.0,1920.0,1460.0,Object_Land_Pattern_Large,,,58.16717695831903,61.17725375000737,2.0,Animal_Sea_Pattern_Small,9.0,,,,,,,,,,,
encoding,attention,11,25919804,25922814,25920944.0,25921147.0,204.0,204.0,2201.8,917.2,2249.0,1269.0,Object_Land_Solid_Large,,,58.16717695831903,61.17725375000737,2.0,Animal_Sea_Pattern_Small,9.0,,,,,,,,,,,
encoding,attention,11,25919804,25922814,25921179.0,25921763.0,585.0,585.0,2255.7,1199.7,2249.0,891.0,Animal_Sea_Pattern_Small,,,58.16717695831903,61.17725375000737,2.0,Animal_Sea_Pattern_Small,9.0,,,,,,,,,,,
encoding,attention,11,25919804,25922814,25921788.0,25921943.0,156.0,156.0,2040.9,1292.3,1920.0,700.0,Object_Sea_Pattern_Small,,,58.16717695831903,61.17725375000737,2.0,Animal_Sea_Pattern_Small,9.0,,,,,,,,,,,
encoding,attention,11,25919804,25922814,25922161.0,25922380.0,220.0,220.0,2081.8,1201.2,2249.0,891.0,Animal_Sea_Pattern_Small,,,58.16717695831903,61.17725375000737,2.0,Animal_Sea_Pattern_Small,9.0,,,,,,,,,,,
encoding,attention,11,25919804,25922814,25922400.0,25922728.0,329.0,329.0,2235.1,1149.1,2249.0,891.0,Animal_Sea_Pattern_Small,,,58.16717695831903,61.17725375000737,2.0,Animal_Sea_Pattern_Small,9.0,,,,,,,,,,,
encoding,fixation,12,25922814,25924068,25923105.0,25923444.0,340.0,340.0,1828.2,1055.9,1591.0,1269.0,Animal_Land_Solid_Large,,,61.177368333301274,62.4309278333094,2.0,Animal_Sea_Solid_Small,6.0,,,,,,,,,,,
encoding,fixation,12,25922814,25924068,25923466.0,25924258.0,793.0,602.0,1679.8,1201.4,1591.0,891.0,Animal_Sea_Solid_Small,,,61.177368333301274,62.4309278333094,2.0,Animal_Sea_Solid_Small,6.0,,,,,,,,,,,
encoding,image,12,25924068,25925077,25924272.0,25924684.0,413.0,413.0,1605.4,1236.1,1591.0,891.0,Animal_Sea_Solid_Small,,,62.43101629166631,63.440055250015575,2.0,Animal_Sea_Solid_Small,6.0,,,,,,,,,,,
encoding,image,12,25924068,25925077,25924876.0,25925233.0,358.0,201.0,1592.4,1220.3,1591.0,891.0,Animal_Sea_Solid_Small,,,62.43101629166631,63.440055250015575,2.0,Animal_Sea_Solid_Small,6.0,,,,,,,,,,,
encoding,value,12,25925077,25931087,25925248.0,25926092.0,845.0,845.0,1596.3,1163.8,1591.0,891.0,Animal_Sea_Solid_Small,,,63.44017891664407,69.44935404165881,2.0,Animal_Sea_Solid_Small,6.0,,,,,,,,,,,
encoding,value,12,25925077,25931087,25926138.0,25926474.0,337.0,337.0,2039.5,1194.2,2249.0,891.0,Animal_Sea_Pattern_Small,,,63.44017891664407,69.44935404165881,2.0,Animal_Sea_Solid_Small,6.0,,,,,,,,,,,
encoding,value,12,25925077,25931087,25926663.0,25927039.0,377.0,377.0,1549.2,1170.4,1591.0,891.0,Animal_Sea_Solid_Small,,,63.44017891664407,69.44935404165881,2.0,Animal_Sea_Solid_Small,6.0,,,,,,,,,,,
encoding,value,12,25925077,25931087,25927047.0,25927707.0,661.0,661.0,1587.4,1151.6,1591.0,891.0,Animal_Sea_Solid_Small,,,63.44017891664407,69.44935404165881,2.0,Animal_Sea_Solid_Small,6.0,,,,,,,,,,,
encoding,value,12,25925077,25931087,25927931.0,25928258.0,328.0,328.0,1614.2,1148.2,1591.0,891.0,Animal_Sea_Solid_Small,,,63.44017891664407,69.44935404165881,2.0,Animal_Sea_Solid_Small,6.0,,,,,,,,,,,
encoding,value,12,25925077,25931087,25928292.0,25928560.0,269.0,269.0,1868.7,1131.5,1591.0,891.0,Animal_Sea_Solid_Small,,,63.44017891664407,69.44935404165881,2.0,Animal_Sea_Solid_Small,6.0,,,,,,,,,,,
encoding,value,12,25925077,25931087,25928582.0,25928768.0,187.0,187.0,1879.1,1048.3,1920.0,1080.0,fixation,,,63.44017891664407,69.44935404165881,2.0,Animal_Sea_Solid_Small,6.0,,,,,,,,,,,
encoding,value,12,25925077,25931087,25928794.0,25928986.0,193.0,193.0,1573.3,1161.7,1591.0,891.0,Animal_Sea_Solid_Small,,,63.44017891664407,69.44935404165881,2.0,Animal_Sea_Solid_Small,6.0,,,,,,,,,,,
encoding,value,12,25925077,25931087,25928994.0,25929308.0,315.0,315.0,1601.1,1172.3,1591.0,891.0,Animal_Sea_Solid_Small,,,63.44017891664407,69.44935404165881,2.0,Animal_Sea_Solid_Small,6.0,,,,,,,,,,,
encoding,value,12,25925077,25931087,25929514.0,25929899.0,386.0,386.0,1626.6,1254.8,1591.0,891.0,Animal_Sea_Solid_Small,,,63.44017891664407,69.44935404165881,2.0,Animal_Sea_Solid_Small,6.0,,,,,,,,,,,
encoding,value,12,25925077,25931087,25929923.0,25930391.0,469.0,469.0,1862.5,1313.0,1920.0,700.0,Object_Sea_Pattern_Small,,,63.44017891664407,69.44935404165881,2.0,Animal_Sea_Solid_Small,6.0,,,,,,,,,,,
encoding,value,12,25925077,25931087,25930592.0,25930689.0,98.0,98.0,1991.1,1196.0,2249.0,891.0,Animal_Sea_Pattern_Small,,,63.44017891664407,69.44935404165881,2.0,Animal_Sea_Solid_Small,6.0,,,,,,,,,,,
encoding,value,12,25925077,25931087,25930716.0,25931084.0,369.0,369.0,1604.0,1209.6,1591.0,891.0,Animal_Sea_Solid_Small,,,63.44017891664407,69.44935404165881,2.0,Animal_Sea_Solid_Small,6.0,,,,,,,,,,,
encoding,attention,12,25931087,25934096,25931143.0,25931409.0,267.0,267.0,2044.7,994.7,2249.0,1269.0,Object_Land_Solid_Large,,,69.4495162916719,72.45882262499072,2.0,Animal_Sea_Solid_Small,6.0,,,,,,,,,,,
encoding,attention,12,25931087,25934096,25931432.0,25931945.0,514.0,514.0,2221.5,901.0999999999999,2249.0,1269.0,Object_Land_Solid_Large,,,69.4495162916719,72.45882262499072,2.0,Animal_Sea_Solid_Small,6.0,,,,,,,,,,,
encoding,attention,12,25931087,25934096,25932162.0,25932508.0,347.0,347.0,1641.1,1187.6,1591.0,891.0,Animal_Sea_Solid_Small,,,69.4495162916719,72.45882262499072,2.0,Animal_Sea_Solid_Small,6.0,,,,,,,,,,,
encoding,attention,12,25931087,25934096,25932524.0,25932718.0,195.0,195.0,1549.9,1169.6,1591.0,891.0,Animal_Sea_Solid_Small,,,69.4495162916719,72.45882262499072,2.0,Animal_Sea_Solid_Small,6.0,,,,,,,,,,,
encoding,attention,12,25931087,25934096,25933084.0,25933216.0,133.0,133.0,1504.4,1108.0,1591.0,891.0,Animal_Sea_Solid_Small,,,69.4495162916719,72.45882262499072,2.0,Animal_Sea_Solid_Small,6.0,,,,,,,,,,,
encoding,attention,12,25931087,25934096,25933231.0,25933347.0,117.0,117.0,1537.5,1169.8,1591.0,891.0,Animal_Sea_Solid_Small,,,69.4495162916719,72.45882262499072,2.0,Animal_Sea_Solid_Small,6.0,,,,,,,,,,,
encoding,fixation,13,26223273,26224527,26223497.0,26223724.0,228.0,228.0,1915.3,1099.6,1920.0,1080.0,fixation,,,6.9039284583122935,8.15867312499904,3.0,Object_Sea_Pattern_Large,-2.0,,,,,,,,,,,
encoding,fixation,13,26223273,26224527,26223927.0,26223994.0,68.0,68.0,1965.4,1230.7,1920.0,700.0,Animal_Land_Pattern_Large,,,6.9039284583122935,8.15867312499904,3.0,Object_Sea_Pattern_Large,-2.0,,,,,,,,,,,
encoding,fixation,13,26223273,26224527,26224242.0,26224509.0,268.0,268.0,1877.7,1165.1,1920.0,700.0,Animal_Land_Pattern_Large,,,6.9039284583122935,8.15867312499904,3.0,Object_Sea_Pattern_Large,-2.0,,,,,,,,,,,
encoding,image,13,26224527,26225539,26224750.0,26224871.0,122.0,122.0,1998.0,1235.8,1920.0,700.0,Animal_Land_Pattern_Large,,,8.158772958326153,9.170029208326014,3.0,Object_Sea_Pattern_Large,-2.0,,,,,,,,,,,
encoding,image,13,26224527,26225539,26224899.0,26225526.0,628.0,628.0,1629.1,1271.3,1591.0,891.0,Object_Sea_Pattern_Large,,,8.158772958326153,9.170029208326014,3.0,Object_Sea_Pattern_Large,-2.0,,,,,,,,,,,
encoding,value,13,26225539,26231549,26225700.0,26225873.0,174.0,174.0,1609.8,1246.8,1591.0,891.0,Object_Sea_Pattern_Large,,,9.17018841666868,15.180352249997668,3.0,Object_Sea_Pattern_Large,-2.0,,,,,,,,,,,
encoding,value,13,26225539,26231549,26225890.0,26226279.0,390.0,390.0,1596.0,1189.0,1591.0,891.0,Object_Sea_Pattern_Large,,,9.17018841666868,15.180352249997668,3.0,Object_Sea_Pattern_Large,-2.0,,,,,,,,,,,
encoding,value,13,26225539,26231549,26226295.0,26226619.0,325.0,325.0,1609.2,1238.6,1591.0,891.0,Object_Sea_Pattern_Large,,,9.17018841666868,15.180352249997668,3.0,Object_Sea_Pattern_Large,-2.0,,,,,,,,,,,
encoding,value,13,26225539,26231549,26226804.0,26227565.0,762.0,762.0,1608.6,1201.2,1591.0,891.0,Object_Sea_Pattern_Large,,,9.17018841666868,15.180352249997668,3.0,Object_Sea_Pattern_Large,-2.0,,,,,,,,,,,
encoding,value,13,26225539,26231549,26227576.0,26227934.0,359.0,359.0,1617.1,1233.4,1591.0,891.0,Object_Sea_Pattern_Large,,,9.17018841666868,15.180352249997668,3.0,Object_Sea_Pattern_Large,-2.0,,,,,,,,,,,
encoding,value,13,26225539,26231549,26227949.0,26228158.0,210.0,210.0,1603.5,1183.3,1591.0,891.0,Object_Sea_Pattern_Large,,,9.17018841666868,15.180352249997668,3.0,Object_Sea_Pattern_Large,-2.0,,,,,,,,,,,
encoding,value,13,26225539,26231549,26228343.0,26228662.0,320.0,320.0,1599.4,1234.4,1591.0,891.0,Object_Sea_Pattern_Large,,,9.17018841666868,15.180352249997668,3.0,Object_Sea_Pattern_Large,-2.0,,,,,,,,,,,
encoding,value,13,26225539,26231549,26228671.0,26229161.0,491.0,491.0,1629.8,1254.5,1591.0,891.0,Object_Sea_Pattern_Large,,,9.17018841666868,15.180352249997668,3.0,Object_Sea_Pattern_Large,-2.0,,,,,,,,,,,
encoding,value,13,26225539,26231549,26229179.0,26229403.0,225.0,225.0,1592.7,1202.0,1591.0,891.0,Object_Sea_Pattern_Large,,,9.17018841666868,15.180352249997668,3.0,Object_Sea_Pattern_Large,-2.0,,,,,,,,,,,
encoding,value,13,26225539,26231549,26229417.0,26230407.0,991.0,991.0,1601.5,1231.5,1591.0,891.0,Object_Sea_Pattern_Large,,,9.17018841666868,15.180352249997668,3.0,Object_Sea_Pattern_Large,-2.0,,,,,,,,,,,
encoding,value,13,26225539,26231549,26230604.0,26230646.0,43.0,43.0,1588.1,1227.1,1591.0,891.0,Object_Sea_Pattern_Large,,,9.17018841666868,15.180352249997668,3.0,Object_Sea_Pattern_Large,-2.0,,,,,,,,,,,
encoding,value,13,26225539,26231549,26230652.0,26231645.0,994.0,897.0,1592.7,1218.4,1591.0,891.0,Object_Sea_Pattern_Large,,,9.17018841666868,15.180352249997668,3.0,Object_Sea_Pattern_Large,-2.0,,,,,,,,,,,
encoding,attention,13,26231549,26234560,26231835.0,26231883.0,49.0,49.0,1587.6,1218.1,1591.0,891.0,Object_Sea_Pattern_Large,,,15.180459666647948,18.19092054167413,3.0,Object_Sea_Pattern_Large,-2.0,,,,,,,,,,,
encoding,attention,13,26231549,26234560,26231891.0,26232141.0,251.0,251.0,1611.6,1191.8,1591.0,891.0,Object_Sea_Pattern_Large,,,15.180459666647948,18.19092054167413,3.0,Object_Sea_Pattern_Large,-2.0,,,,,,,,,,,
encoding,attention,13,26231549,26234560,26232470.0,26232653.0,184.0,184.0,2660.8,916.0999999999999,,,none,,,15.180459666647948,18.19092054167413,3.0,Object_Sea_Pattern_Large,-2.0,,,,,,,,,,,
encoding,attention,13,26231549,26234560,26232887.0,26232923.0,37.0,37.0,1556.0,1246.0,1591.0,891.0,Object_Sea_Pattern_Large,,,15.180459666647948,18.19092054167413,3.0,Object_Sea_Pattern_Large,-2.0,,,,,,,,,,,
encoding,attention,13,26231549,26234560,26232929.0,26233049.0,121.0,121.0,1552.1,1214.9,1591.0,891.0,Object_Sea_Pattern_Large,,,15.180459666647948,18.19092054167413,3.0,Object_Sea_Pattern_Large,-2.0,,,,,,,,,,,
encoding,attention,13,26231549,26234560,26233355.0,26233404.0,50.0,50.0,1576.3,1277.6,1591.0,891.0,Object_Sea_Pattern_Large,,,15.180459666647948,18.19092054167413,3.0,Object_Sea_Pattern_Large,-2.0,,,,,,,,,,,
encoding,attention,13,26231549,26234560,26233412.0,26233713.0,302.0,302.0,1573.2,1242.8,1591.0,891.0,Object_Sea_Pattern_Large,,,15.180459666647948,18.19092054167413,3.0,Object_Sea_Pattern_Large,-2.0,,,,,,,,,,,
encoding,attention,13,26231549,26234560,26233726.0,26234371.0,646.0,646.0,1625.6,1256.9,1591.0,891.0,Object_Sea_Pattern_Large,,,15.180459666647948,18.19092054167413,3.0,Object_Sea_Pattern_Large,-2.0,,,,,,,,,,,
encoding,fixation,14,26234560,26235314,26234843.0,26235510.0,668.0,471.0,1892.4,1158.2,1920.0,700.0,Animal_Land_Pattern_Large,,,18.191030416666763,18.944756625016453,3.0,Animal_Sea_Pattern_Large,-3.0,,,,,,,,,,,
encoding,image,14,26235314,26236324,26235561.0,26235737.0,177.0,177.0,1872.8,762.7,1920.0,1460.0,Animal_Sea_Pattern_Large,,,18.94487333332654,19.954812875017524,3.0,Animal_Sea_Pattern_Large,-3.0,,,,,,,,,,,
encoding,image,14,26235314,26236324,26235746.0,26236319.0,574.0,574.0,1838.3,731.0,1920.0,1460.0,Animal_Sea_Pattern_Large,,,18.94487333332654,19.954812875017524,3.0,Animal_Sea_Pattern_Large,-3.0,,,,,,,,,,,
encoding,value,14,26236324,26242333,26236541.0,26236639.0,99.0,99.0,1838.5,737.0999999999999,1920.0,1460.0,Animal_Sea_Pattern_Large,,,19.954917499999283,25.96357958333101,3.0,Animal_Sea_Pattern_Large,-3.0,,,,,,,,,,,
encoding,value,14,26236324,26242333,26236658.0,26237102.0,445.0,445.0,1882.9,654.5,1920.0,1460.0,Animal_Sea_Pattern_Large,,,19.954917499999283,25.96357958333101,3.0,Animal_Sea_Pattern_Large,-3.0,,,,,,,,,,,
encoding,value,14,26236324,26242333,26237115.0,26238219.0,1105.0,1105.0,1865.2,711.5999999999999,1920.0,1460.0,Animal_Sea_Pattern_Large,,,19.954917499999283,25.96357958333101,3.0,Animal_Sea_Pattern_Large,-3.0,,,,,,,,,,,
encoding,value,14,26236324,26242333,26238234.0,26239021.0,788.0,788.0,1886.2,646.0,1920.0,1460.0,Animal_Sea_Pattern_Large,,,19.954917499999283,25.96357958333101,3.0,Animal_Sea_Pattern_Large,-3.0,,,,,,,,,,,
encoding,value,14,26236324,26242333,26239036.0,26239444.0,409.0,409.0,1840.9,714.2,1920.0,1460.0,Animal_Sea_Pattern_Large,,,19.954917499999283,25.96357958333101,3.0,Animal_Sea_Pattern_Large,-3.0,,,,,,,,,,,
encoding,value,14,26236324,26242333,26239663.0,26239902.0,240.0,240.0,1831.9,758.2,1920.0,1460.0,Animal_Sea_Pattern_Large,,,19.954917499999283,25.96357958333101,3.0,Animal_Sea_Pattern_Large,-3.0,,,,,,,,,,,
encoding,value,14,26236324,26242333,26239925.0,26240383.0,459.0,459.0,1878.4,658.0,1920.0,1460.0,Animal_Sea_Pattern_Large,,,19.954917499999283,25.96357958333101,3.0,Animal_Sea_Pattern_Large,-3.0,,,,,,,,,,,
encoding,value,14,26236324,26242333,26240396.0,26240849.0,454.0,454.0,1872.8,718.0999999999999,1920.0,1460.0,Animal_Sea_Pattern_Large,,,19.954917499999283,25.96357958333101,3.0,Animal_Sea_Pattern_Large,-3.0,,,,,,,,,,,
encoding,value,14,26236324,26242333,26240861.0,26241598.0,738.0,738.0,1871.1,693.7,1920.0,1460.0,Animal_Sea_Pattern_Large,,,19.954917499999283,25.96357958333101,3.0,Animal_Sea_Pattern_Large,-3.0,,,,,,,,,,,
encoding,value,14,26236324,26242333,26241610.0,26242071.0,462.0,462.0,1860.8,740.0,1920.0,1460.0,Animal_Sea_Pattern_Large,,,19.954917499999283,25.96357958333101,3.0,Animal_Sea_Pattern_Large,-3.0,,,,,,,,,,,
encoding,attention,14,26242333,26245343,26242356.0,26242577.0,222.0,222.0,1826.9,767.8,1920.0,1460.0,Animal_Sea_Pattern_Large,,,25.963680375018157,28.97308795832214,3.0,Animal_Sea_Pattern_Large,-3.0,,,,,,,,,,,
encoding,attention,14,26242333,26245343,26242599.0,26242745.0,147.0,147.0,1876.0,657.5,1920.0,1460.0,Animal_Sea_Pattern_Large,,,25.963680375018157,28.97308795832214,3.0,Animal_Sea_Pattern_Large,-3.0,,,,,,,,,,,
encoding,attention,14,26242333,26245343,26242754.0,26242997.0,244.0,244.0,1837.5,644.5999999999999,1920.0,1460.0,Animal_Sea_Pattern_Large,,,25.963680375018157,28.97308795832214,3.0,Animal_Sea_Pattern_Large,-3.0,,,,,,,,,,,
encoding,attention,14,26242333,26245343,26243017.0,26243160.0,144.0,144.0,1836.3,783.5999999999999,1920.0,1460.0,Animal_Sea_Pattern_Large,,,25.963680375018157,28.97308795832214,3.0,Animal_Sea_Pattern_Large,-3.0,,,,,,,,,,,
encoding,attention,14,26242333,26245343,26243416.0,26243660.0,245.0,245.0,1721.5,1298.9,1591.0,891.0,Object_Sea_Pattern_Large,,,25.963680375018157,28.97308795832214,3.0,Animal_Sea_Pattern_Large,-3.0,,,,,,,,,,,
encoding,attention,14,26242333,26245343,26243668.0,26243689.0,22.0,22.0,1714.2,1330.4,1591.0,891.0,Object_Sea_Pattern_Large,,,25.963680375018157,28.97308795832214,3.0,Animal_Sea_Pattern_Large,-3.0,,,,,,,,,,,
encoding,attention,14,26242333,26245343,26243707.0,26244087.0,381.0,381.0,1868.8,1070.2,1920.0,1080.0,fixation,,,25.963680375018157,28.97308795832214,3.0,Animal_Sea_Pattern_Large,-3.0,,,,,,,,,,,
encoding,fixation,15,26245343,26246097,26245702.0,26245897.0,196.0,196.0,1866.1,1171.9,1591.0,891.0,Object_Sea_Pattern_Large,,,28.97320754165412,29.72684562500217,3.0,Object_Land_Solid_Small,-8.0,,,,,,,,,,,
encoding,fixation,15,26245343,26246097,26246090.0,26246277.0,188.0,7.0,1911.9,1297.7,1920.0,700.0,Animal_Land_Pattern_Large,,,28.97320754165412,29.72684562500217,3.0,Object_Land_Solid_Small,-8.0,,,,,,,,,,,
encoding,image,15,26246097,26247105,26246316.0,26247364.0,1049.0,789.0,2238.3,1310.7,2249.0,891.0,Object_Land_Solid_Small,,,29.72695745830424,30.735690750007052,3.0,Object_Land_Solid_Small,-8.0,,,,,,,,,,,
encoding,value,15,26247106,26253115,26247375.0,26247616.0,242.0,242.0,2246.2,1258.1,2249.0,891.0,Object_Land_Solid_Small,,,30.735831124999095,36.7447742499935,3.0,Object_Land_Solid_Small,-8.0,,,,,,,,,,,
encoding,value,15,26247106,26253115,26247628.0,26248338.0,711.0,711.0,2244.9,1208.2,2249.0,891.0,Object_Land_Solid_Small,,,30.735831124999095,36.7447742499935,3.0,Object_Land_Solid_Small,-8.0,,,,,,,,,,,
encoding,value,15,26247106,26253115,26248573.0,26248770.0,198.0,198.0,2185.1,1242.2,2249.0,891.0,Object_Land_Solid_Small,,,30.735831124999095,36.7447742499935,3.0,Object_Land_Solid_Small,-8.0,,,,,,,,,,,
encoding,value,15,26247106,26253115,26248785.0,26250617.0,1833.0,1833.0,2232.2,1193.7,2249.0,891.0,Object_Land_Solid_Small,,,30.735831124999095,36.7447742499935,3.0,Object_Land_Solid_Small,-8.0,,,,,,,,,,,
encoding,value,15,26247106,26253115,26250810.0,26251730.0,921.0,921.0,1946.3,1223.7,1920.0,700.0,Animal_Land_Pattern_Large,,,30.735831124999095,36.7447742499935,3.0,Object_Land_Solid_Small,-8.0,,,,,,,,,,,
encoding,value,15,26247106,26253115,26251751.0,26251961.0,211.0,211.0,1985.2,1059.8,1920.0,1080.0,fixation,,,30.735831124999095,36.7447742499935,3.0,Object_Land_Solid_Small,-8.0,,,,,,,,,,,
encoding,value,15,26247106,26253115,26251985.0,26252192.0,208.0,208.0,1717.5,1057.8,1591.0,1269.0,Animal_Land_Solid_Small,,,30.735831124999095,36.7447742499935,3.0,Object_Land_Solid_Small,-8.0,,,,,,,,,,,
encoding,value,15,26247106,26253115,26252232.0,26252484.0,253.0,253.0,2213.6,1202.8,2249.0,891.0,Object_Land_Solid_Small,,,30.735831124999095,36.7447742499935,3.0,Object_Land_Solid_Small,-8.0,,,,,,,,,,,
encoding,value,15,26247106,26253115,26252504.0,26252959.0,456.0,456.0,2262.4,1208.6,2249.0,891.0,Object_Land_Solid_Small,,,30.735831124999095,36.7447742499935,3.0,Object_Land_Solid_Small,-8.0,,,,,,,,,,,
encoding,value,15,26247106,26253115,26252971.0,26253383.0,413.0,144.0,2254.2,1258.5,2249.0,891.0,Object_Land_Solid_Small,,,30.735831124999095,36.7447742499935,3.0,Object_Land_Solid_Small,-8.0,,,,,,,,,,,
encoding,attention,15,26253115,26256125,26253392.0,26253666.0,275.0,275.0,2245.3,1229.2,2249.0,891.0,Object_Land_Solid_Small,,,36.744937750016106,39.75494883331703,3.0,Object_Land_Solid_Small,-8.0,,,,,,,,,,,
encoding,attention,15,26253115,26256125,26253688.0,26253882.0,195.0,195.0,2271.9,1338.4,2249.0,891.0,Object_Land_Solid_Small,,,36.744937750016106,39.75494883331703,3.0,Object_Land_Solid_Small,-8.0,,,,,,,,,,,
encoding,attention,15,26253115,26256125,26254072.0,26255128.0,1057.0,1057.0,2256.9,1351.3,2249.0,891.0,Object_Land_Solid_Small,,,36.744937750016106,39.75494883331703,3.0,Object_Land_Solid_Small,-8.0,,,,,,,,,,,
encoding,attention,15,26253115,26256125,26255151.0,26255474.0,324.0,324.0,2010.0,1302.9,1920.0,700.0,Animal_Land_Pattern_Large,,,36.744937750016106,39.75494883331703,3.0,Object_Land_Solid_Small,-8.0,,,,,,,,,,,
encoding,attention,15,26253115,26256125,26255499.0,26255917.0,419.0,419.0,1758.0,1274.8,1591.0,891.0,Object_Sea_Pattern_Large,,,36.744937750016106,39.75494883331703,3.0,Object_Land_Solid_Small,-8.0,,,,,,,,,,,
encoding,fixation,16,26256125,26257129,26256172.0,26256717.0,546.0,546.0,1868.6,1019.2,1591.0,1269.0,Animal_Land_Solid_Small,,,39.75505762500688,40.75878862501122,3.0,Animal_Land_Solid_Small,1.0,,,,,,,,,,,
encoding,fixation,16,26256125,26257129,26256741.0,26256985.0,245.0,245.0,1947.7,1170.1,1920.0,700.0,Animal_Land_Pattern_Large,,,39.75505762500688,40.75878862501122,3.0,Animal_Land_Solid_Small,1.0,,,,,,,,,,,
encoding,fixation,16,26256125,26257129,26257010.0,26257376.0,367.0,119.0,1954.5,1336.8,1920.0,700.0,Animal_Land_Pattern_Large,,,39.75505762500688,40.75878862501122,3.0,Animal_Land_Solid_Small,1.0,,,,,,,,,,,
encoding,image,16,26257129,26258137,26257419.0,26257662.0,244.0,244.0,1614.4,975.9000000000001,1591.0,1269.0,Animal_Land_Solid_Small,,,40.758890958328266,41.76694050000515,3.0,Animal_Land_Solid_Small,1.0,,,,,,,,,,,
encoding,image,16,26257129,26258137,26257681.0,26258422.0,742.0,456.0,1588.7,909.5999999999999,1591.0,1269.0,Animal_Land_Solid_Small,,,40.758890958328266,41.76694050000515,3.0,Animal_Land_Solid_Small,1.0,,,,,,,,,,,
encoding,value,16,26258137,26264147,26258439.0,26259248.0,810.0,810.0,1582.1,823.0999999999999,1591.0,1269.0,Animal_Land_Solid_Small,,,41.76704254167271,47.77621283332701,3.0,Animal_Land_Solid_Small,1.0,,,,,,,,,,,
encoding,value,16,26258137,26264147,26259260.0,26259508.0,249.0,249.0,1582.8,879.9000000000001,1591.0,1269.0,Animal_Land_Solid_Small,,,41.76704254167271,47.77621283332701,3.0,Animal_Land_Solid_Small,1.0,,,,,,,,,,,
encoding,value,16,26258137,26264147,26259776.0,26260990.0,1215.0,1215.0,1586.2,912.4000000000001,1591.0,1269.0,Animal_Land_Solid_Small,,,41.76704254167271,47.77621283332701,3.0,Animal_Land_Solid_Small,1.0,,,,,,,,,,,
encoding,value,16,26258137,26264147,26261004.0,26261563.0,560.0,560.0,1543.2,883.0999999999999,1591.0,1269.0,Animal_Land_Solid_Small,,,41.76704254167271,47.77621283332701,3.0,Animal_Land_Solid_Small,1.0,,,,,,,,,,,
encoding,value,16,26258137,26264147,26261576.0,26262123.0,548.0,548.0,1575.4,818.7,1591.0,1269.0,Animal_Land_Solid_Small,,,41.76704254167271,47.77621283332701,3.0,Animal_Land_Solid_Small,1.0,,,,,,,,,,,
encoding,value,16,26258137,26264147,26262136.0,26262381.0,246.0,246.0,1577.1,895.2,1591.0,1269.0,Animal_Land_Solid_Small,,,41.76704254167271,47.77621283332701,3.0,Animal_Land_Solid_Small,1.0,,,,,,,,,,,
encoding,value,16,26258137,26264147,26262390.0,26263651.0,1262.0,1262.0,1613.8,920.4000000000001,1591.0,1269.0,Animal_Land_Solid_Small,,,41.76704254167271,47.77621283332701,3.0,Animal_Land_Solid_Small,1.0,,,,,,,,,,,
encoding,value,16,26258137,26264147,26263693.0,26264126.0,434.0,434.0,2084.3,1172.9,2249.0,891.0,Object_Land_Solid_Small,,,41.76704254167271,47.77621283332701,3.0,Animal_Land_Solid_Small,1.0,,,,,,,,,,,
encoding,attention,16,26264147,26267157,26264150.0,26264372.0,223.0,223.0,1845.0,1053.9,1591.0,1269.0,Animal_Land_Solid_Small,,,47.776328333304264,50.78591683332343,3.0,Animal_Land_Solid_Small,1.0,,,,,,,,,,,
encoding,attention,16,26264147,26267157,26264412.0,26264599.0,188.0,188.0,1574.6,822.7,1591.0,1269.0,Animal_Land_Solid_Small,,,47.776328333304264,50.78591683332343,3.0,Animal_Land_Solid_Small,1.0,,,,,,,,,,,
encoding,attention,16,26264147,26267157,26264608.0,26264761.0,154.0,154.0,1533.2,810.0,1591.0,1269.0,Animal_Land_Solid_Small,,,47.776328333304264,50.78591683332343,3.0,Animal_Land_Solid_Small,1.0,,,,,,,,,,,
encoding,attention,16,26264147,26267157,26265067.0,26265159.0,93.0,93.0,1813.5,1196.5,1591.0,891.0,Object_Sea_Pattern_Large,,,47.776328333304264,50.78591683332343,3.0,Animal_Land_Solid_Small,1.0,,,,,,,,,,,
encoding,attention,16,26264147,26267157,26265194.0,26266177.0,984.0,984.0,2206.4,1221.8,2249.0,891.0,Object_Land_Solid_Small,,,47.776328333304264,50.78591683332343,3.0,Animal_Land_Solid_Small,1.0,,,,,,,,,,,
encoding,attention,16,26264147,26267157,26266190.0,26266477.0,288.0,288.0,2278.0,1264.7,2249.0,891.0,Object_Land_Solid_Small,,,47.776328333304264,50.78591683332343,3.0,Animal_Land_Solid_Small,1.0,,,,,,,,,,,
encoding,fixation,17,26267157,26267660,26267230.0,26267832.0,603.0,430.0,2226.5,1265.3,2249.0,891.0,Object_Land_Solid_Small,,,50.786081625003135,51.289682958304184,3.0,Animal_Land_Pattern_Large,3.0,,,,,,,,,,,
encoding,image,17,26267660,26268669,26267862.0,26268383.0,522.0,522.0,1960.4,1455.8,1920.0,700.0,Animal_Land_Pattern_Large,,,51.289779333310435,52.29826650000177,3.0,Animal_Land_Pattern_Large,3.0,,,,,,,,,,,
encoding,image,17,26267660,26268669,26268400.0,26269314.0,915.0,269.0,1937.7,1375.1,1920.0,700.0,Animal_Land_Pattern_Large,,,51.289779333310435,52.29826650000177,3.0,Animal_Land_Pattern_Large,3.0,,,,,,,,,,,
encoding,value,17,26268669,26274678,26269516.0,26270144.0,629.0,629.0,1951.3,1400.8,1920.0,700.0,Animal_Land_Pattern_Large,,,52.29836808331311,58.30666512501193,3.0,Animal_Land_Pattern_Large,3.0,,,,,,,,,,,
encoding,value,17,26268669,26274678,26270168.0,26270533.0,366.0,366.0,1760.5,1276.1,1591.0,891.0,Object_Sea_Pattern_Large,,,52.29836808331311,58.30666512501193,3.0,Animal_Land_Pattern_Large,3.0,,,,,,,,,,,
encoding,value,17,26268669,26274678,26270772.0,26271439.0,668.0,668.0,1916.8,1382.9,1920.0,700.0,Animal_Land_Pattern_Large,,,52.29836808331311,58.30666512501193,3.0,Animal_Land_Pattern_Large,3.0,,,,,,,,,,,
encoding,value,17,26268669,26274678,26271466.0,26271805.0,340.0,340.0,1605.5,1293.5,1591.0,891.0,Object_Sea_Pattern_Large,,,52.29836808331311,58.30666512501193,3.0,Animal_Land_Pattern_Large,3.0,,,,,,,,,,,
encoding,value,17,26268669,26274678,26272068.0,26272162.0,95.0,95.0,1894.2,1395.3,1920.0,700.0,Animal_Land_Pattern_Large,,,52.29836808331311,58.30666512501193,3.0,Animal_Land_Pattern_Large,3.0,,,,,,,,,,,
encoding,value,17,26268669,26274678,26272172.0,26272320.0,149.0,149.0,1934.5,1397.6,1920.0,700.0,Animal_Land_Pattern_Large,,,52.29836808331311,58.30666512501193,3.0,Animal_Land_Pattern_Large,3.0,,,,,,,,,,,
encoding,value,17,26268669,26274678,26272544.0,26272849.0,306.0,306.0,1928.4,1442.7,1920.0,700.0,Animal_Land_Pattern_Large,,,52.29836808331311,58.30666512501193,3.0,Animal_Land_Pattern_Large,3.0,,,,,,,,,,,
encoding,value,17,26268669,26274678,26272858.0,26273617.0,760.0,760.0,1910.3,1472.1,1920.0,700.0,Animal_Land_Pattern_Large,,,52.29836808331311,58.30666512501193,3.0,Animal_Land_Pattern_Large,3.0,,,,,,,,,,,
encoding,value,17,26268669,26274678,26273636.0,26274065.0,430.0,430.0,1937.0,1395.5,1920.0,700.0,Animal_Land_Pattern_Large,,,52.29836808331311,58.30666512501193,3.0,Animal_Land_Pattern_Large,3.0,,,,,,,,,,,
encoding,value,17,26268669,26274678,26274268.0,26274728.0,461.0,410.0,1935.1,1467.7,1920.0,700.0,Animal_Land_Pattern_Large,,,52.29836808331311,58.30666512501193,3.0,Animal_Land_Pattern_Large,3.0,,,,,,,,,,,
encoding,attention,17,26274678,26277688,26274748.0,26275405.0,658.0,658.0,1911.8,1398.2,1920.0,700.0,Animal_Land_Pattern_Large,,,58.306778124999255,61.316631916648475,3.0,Animal_Land_Pattern_Large,3.0,,,,,,,,,,,
encoding,attention,17,26274678,26277688,26275618.0,26275741.0,124.0,124.0,1922.0,1404.5,1920.0,700.0,Animal_Land_Pattern_Large,,,58.306778124999255,61.316631916648475,3.0,Animal_Land_Pattern_Large,3.0,,,,,,,,,,,
encoding,attention,17,26274678,26277688,26275752.0,26275997.0,246.0,246.0,1878.5,1389.8,1920.0,700.0,Animal_Land_Pattern_Large,,,58.306778124999255,61.316631916648475,3.0,Animal_Land_Pattern_Large,3.0,,,,,,,,,,,
encoding,attention,17,26274678,26277688,26276042.0,26276691.0,650.0,650.0,1556.8,1153.3,1591.0,891.0,Object_Sea_Pattern_Large,,,58.306778124999255,61.316631916648475,3.0,Animal_Land_Pattern_Large,3.0,,,,,,,,,,,
encoding,attention,17,26274678,26277688,26276705.0,26276939.0,235.0,235.0,1487.4,1186.6,1591.0,891.0,Object_Sea_Pattern_Large,,,58.306778124999255,61.316631916648475,3.0,Animal_Land_Pattern_Large,3.0,,,,,,,,,,,
encoding,fixation,18,26277688,26278443,26277753.0,26277979.0,227.0,227.0,1950.8,1268.5,1920.0,700.0,Animal_Land_Pattern_Large,,,61.31675275001908,62.0722630416567,3.0,Object_Sea_Solid_Small,1.0,,,,,,,,,,,
encoding,fixation,18,26277688,26278443,26278003.0,26278402.0,400.0,400.0,1945.2,1101.5,1920.0,1080.0,fixation,,,61.31675275001908,62.0722630416567,3.0,Object_Sea_Solid_Small,1.0,,,,,,,,,,,
encoding,fixation,18,26277688,26278443,26278417.0,26278616.0,200.0,26.0,2037.7,1023.8,2249.0,1269.0,Object_Sea_Solid_Small,,,61.31675275001908,62.0722630416567,3.0,Object_Sea_Solid_Small,1.0,,,,,,,,,,,
encoding,image,18,26278443,26279451,26278638.0,26279651.0,1014.0,813.0,2220.0,917.8,2249.0,1269.0,Object_Sea_Solid_Small,,,62.07238200001302,63.08025662502041,3.0,Object_Sea_Solid_Small,1.0,,,,,,,,,,,
encoding,value,18,26279451,26285461,26279669.0,26280013.0,345.0,345.0,2208.7,836.4000000000001,2249.0,1269.0,Object_Sea_Solid_Small,,,63.08038558330736,69.08951729166438,3.0,Object_Sea_Solid_Small,1.0,,,,,,,,,,,
encoding,value,18,26279451,26285461,26280020.0,26280517.0,498.0,498.0,2215.3,798.8,2249.0,1269.0,Object_Sea_Solid_Small,,,63.08038558330736,69.08951729166438,3.0,Object_Sea_Solid_Small,1.0,,,,,,,,,,,
encoding,value,18,26279451,26285461,26280750.0,26281017.0,268.0,268.0,2105.7,948.2,2249.0,1269.0,Object_Sea_Solid_Small,,,63.08038558330736,69.08951729166438,3.0,Object_Sea_Solid_Small,1.0,,,,,,,,,,,
encoding,value,18,26279451,26285461,26281042.0,26281481.0,440.0,440.0,1884.1,800.3,1920.0,1460.0,Animal_Sea_Pattern_Large,,,63.08038558330736,69.08951729166438,3.0,Object_Sea_Solid_Small,1.0,,,,,,,,,,,
encoding,value,18,26279451,26285461,26281519.0,26282004.0,486.0,486.0,2174.3,789.5,2249.0,1269.0,Object_Sea_Solid_Small,,,63.08038558330736,69.08951729166438,3.0,Object_Sea_Solid_Small,1.0,,,,,,,,,,,
encoding,value,18,26279451,26285461,26282016.0,26282143.0,128.0,128.0,2171.6,832.5999999999999,2249.0,1269.0,Object_Sea_Solid_Small,,,63.08038558330736,69.08951729166438,3.0,Object_Sea_Solid_Small,1.0,,,,,,,,,,,
encoding,value,18,26279451,26285461,26282182.0,26282542.0,361.0,361.0,1891.6,1049.9,1920.0,1080.0,fixation,,,63.08038558330736,69.08951729166438,3.0,Object_Sea_Solid_Small,1.0,,,,,,,,,,,
encoding,value,18,26279451,26285461,26282583.0,26283692.0,1110.0,1110.0,2182.0,878.7,2249.0,1269.0,Object_Sea_Solid_Small,,,63.08038558330736,69.08951729166438,3.0,Object_Sea_Solid_Small,1.0,,,,,,,,,,,
encoding,value,18,26279451,26285461,26283914.0,26284051.0,138.0,138.0,1838.2,1232.5,1920.0,700.0,Animal_Land_Pattern_Large,,,63.08038558330736,69.08951729166438,3.0,Object_Sea_Solid_Small,1.0,,,,,,,,,,,
encoding,value,18,26279451,26285461,26284098.0,26285127.0,1030.0,1030.0,2185.2,894.5999999999999,2249.0,1269.0,Object_Sea_Solid_Small,,,63.08038558330736,69.08951729166438,3.0,Object_Sea_Solid_Small,1.0,,,,,,,,,,,
encoding,value,18,26279451,26285461,26285344.0,26285734.0,391.0,117.0,2178.4,885.4000000000001,2249.0,1269.0,Object_Sea_Solid_Small,,,63.08038558330736,69.08951729166438,3.0,Object_Sea_Solid_Small,1.0,,,,,,,,,,,
encoding,attention,18,26285461,26288471,26285747.0,26285878.0,132.0,132.0,2206.3,825.8,2249.0,1269.0,Object_Sea_Solid_Small,,,69.08963487501023,72.09971612499794,3.0,Object_Sea_Solid_Small,1.0,,,,,,,,,,,
encoding,attention,18,26285461,26288471,26285891.0,26286047.0,157.0,157.0,2143.3,805.8,2249.0,1269.0,Object_Sea_Solid_Small,,,69.08963487501023,72.09971612499794,3.0,Object_Sea_Solid_Small,1.0,,,,,,,,,,,
encoding,attention,18,26285461,26288471,26286332.0,26286462.0,131.0,131.0,2063.3,1189.2,2249.0,891.0,Object_Land_Solid_Small,,,69.08963487501023,72.09971612499794,3.0,Object_Sea_Solid_Small,1.0,,,,,,,,,,,
encoding,attention,18,26285461,26288471,26286506.0,26286985.0,480.0,480.0,2196.0,924.8,2249.0,1269.0,Object_Sea_Solid_Small,,,69.08963487501023,72.09971612499794,3.0,Object_Sea_Solid_Small,1.0,,,,,,,,,,,
encoding,attention,18,26285461,26288471,26287003.0,26287182.0,180.0,180.0,2136.7,829.0999999999999,2249.0,1269.0,Object_Sea_Solid_Small,,,69.08963487501023,72.09971612499794,3.0,Object_Sea_Solid_Small,1.0,,,,,,,,,,,
encoding,attention,18,26285461,26288471,26287219.0,26287802.0,584.0,584.0,2207.8,1178.3,2249.0,891.0,Object_Land_Solid_Small,,,69.08963487501023,72.09971612499794,3.0,Object_Sea_Solid_Small,1.0,,,,,,,,,,,
encoding,attention,18,26285461,26288471,26287826.0,26288281.0,456.0,456.0,2098.3,1344.0,2249.0,891.0,Object_Land_Solid_Small,,,69.08963487501023,72.09971612499794,3.0,Object_Sea_Solid_Small,1.0,,,,,,,,,,,
encoding,fixation,19,26597711,26598965,26597993.0,26598169.0,177.0,177.0,1913.3,1095.1,1920.0,1080.0,fixation,,,3.852965208294336,5.1069228333071806,4.0,Animal_Land_Pattern_Small,-2.0,,,,,,,,,,,
encoding,fixation,19,26597711,26598965,26598362.0,26598478.0,117.0,117.0,1894.0,1240.8,1920.0,700.0,Object_Sea_Solid_Large,,,3.852965208294336,5.1069228333071806,4.0,Animal_Land_Pattern_Small,-2.0,,,,,,,,,,,
encoding,fixation,19,26597711,26598965,26598665.0,26599095.0,431.0,300.0,1886.9,1304.4,1920.0,700.0,Object_Sea_Solid_Large,,,3.852965208294336,5.1069228333071806,4.0,Animal_Land_Pattern_Small,-2.0,,,,,,,,,,,
encoding,image,19,26598965,26599975,26599153.0,26599225.0,73.0,73.0,2004.3,932.8,1920.0,1460.0,Animal_Sea_Solid_Large,,,5.1070138333016075,6.116581541660707,4.0,Animal_Land_Pattern_Small,-2.0,,,,,,,,,,,
encoding,image,19,26598965,26599975,26599247.0,26599562.0,316.0,316.0,2162.6,913.5999999999999,2249.0,1269.0,Animal_Land_Pattern_Small,,,5.1070138333016075,6.116581541660707,4.0,Animal_Land_Pattern_Small,-2.0,,,,,,,,,,,
encoding,image,19,26598965,26599975,26599586.0,26600165.0,580.0,389.0,2168.7,848.8,2249.0,1269.0,Animal_Land_Pattern_Small,,,5.1070138333016075,6.116581541660707,4.0,Animal_Land_Pattern_Small,-2.0,,,,,,,,,,,
encoding,value,19,26599975,26605985,26600177.0,26601737.0,1561.0,1561.0,2209.9,822.4000000000001,2249.0,1269.0,Animal_Land_Pattern_Small,,,6.11667324998416,12.126703291665764,4.0,Animal_Land_Pattern_Small,-2.0,,,,,,,,,,,
encoding,value,19,26599975,26605985,26601898.0,26602658.0,761.0,761.0,2211.0,873.7,2249.0,1269.0,Animal_Land_Pattern_Small,,,6.11667324998416,12.126703291665764,4.0,Animal_Land_Pattern_Small,-2.0,,,,,,,,,,,
encoding,value,19,26599975,26605985,26602669.0,26603158.0,490.0,490.0,2205.7,828.7,2249.0,1269.0,Animal_Land_Pattern_Small,,,6.11667324998416,12.126703291665764,4.0,Animal_Land_Pattern_Small,-2.0,,,,,,,,,,,
encoding,value,19,26599975,26605985,26603175.0,26603437.0,263.0,263.0,2212.4,889.8,2249.0,1269.0,Animal_Land_Pattern_Small,,,6.11667324998416,12.126703291665764,4.0,Animal_Land_Pattern_Small,-2.0,,,,,,,,,,,
encoding,value,19,26599975,26605985,26603608.0,26604106.0,499.0,499.0,2191.2,924.7,2249.0,1269.0,Animal_Land_Pattern_Small,,,6.11667324998416,12.126703291665764,4.0,Animal_Land_Pattern_Small,-2.0,,,,,,,,,,,
encoding,value,19,26599975,26605985,26604123.0,26605835.0,1713.0,1713.0,2201.3,826.5,2249.0,1269.0,Animal_Land_Pattern_Small,,,6.11667324998416,12.126703291665764,4.0,Animal_Land_Pattern_Small,-2.0,,,,,,,,,,,
encoding,attention,19,26605985,26608999,26606005.0,26606428.0,424.0,424.0,2185.8,832.9000000000001,2249.0,1269.0,Animal_Land_Pattern_Small,,,12.126809999987016,15.140564333298244,4.0,Animal_Land_Pattern_Small,-2.0,-2.0,1.0,0.9013615416479296,,,,,,,,
encoding,attention,19,26605985,26608999,26606440.0,26607985.0,1546.0,1546.0,2253.9,817.0999999999999,2249.0,1269.0,Animal_Land_Pattern_Small,,,12.126809999987016,15.140564333298244,4.0,Animal_Land_Pattern_Small,-2.0,-2.0,1.0,0.9013615416479296,,,,,,,,
encoding,fixation,20,26608999,26609503,26609242.0,26609465.0,224.0,224.0,1948.3,1067.7,1920.0,1080.0,fixation,,,15.140702333301306,15.644047000008868,4.0,Object_Land_Pattern_Small,9.0,,,,,,,,,,,
encoding,image,20,26609503,26610512,26609692.0,26609841.0,150.0,150.0,1894.1,1164.9,1920.0,700.0,Object_Sea_Solid_Large,,,15.644159083312845,16.65354549998301,4.0,Object_Land_Pattern_Small,9.0,,,,,,,,,,,
encoding,image,20,26609503,26610512,26609881.0,26610466.0,586.0,586.0,2218.8,1284.8,2249.0,891.0,Object_Land_Pattern_Small,,,15.644159083312845,16.65354549998301,4.0,Object_Land_Pattern_Small,9.0,,,,,,,,,,,
encoding,image,20,26609503,26610512,26610492.0,26610686.0,195.0,20.0,1961.7,1161.8,1920.0,700.0,Object_Sea_Solid_Large,,,15.644159083312845,16.65354549998301,4.0,Object_Land_Pattern_Small,9.0,,,,,,,,,,,
encoding,value,20,26610512,26616525,26610712.0,26611139.0,428.0,428.0,2240.4,1199.6,2249.0,891.0,Object_Land_Pattern_Small,,,16.65365170830046,22.665925749985036,4.0,Object_Land_Pattern_Small,9.0,,,,,,,,,,,
encoding,value,20,26610512,26616525,26611146.0,26611664.0,519.0,519.0,2261.4,1209.2,2249.0,891.0,Object_Land_Pattern_Small,,,16.65365170830046,22.665925749985036,4.0,Object_Land_Pattern_Small,9.0,,,,,,,,,,,
encoding,value,20,26610512,26616525,26611840.0,26612613.0,774.0,774.0,2245.8,1224.7,2249.0,891.0,Object_Land_Pattern_Small,,,16.65365170830046,22.665925749985036,4.0,Object_Land_Pattern_Small,9.0,,,,,,,,,,,
encoding,value,20,26610512,26616525,26612627.0,26613848.0,1222.0,1222.0,2253.0,1260.9,2249.0,891.0,Object_Land_Pattern_Small,,,16.65365170830046,22.665925749985036,4.0,Object_Land_Pattern_Small,9.0,,,,,,,,,,,
encoding,value,20,26610512,26616525,26613861.0,26614823.0,963.0,963.0,2251.7,1206.1,2249.0,891.0,Object_Land_Pattern_Small,,,16.65365170830046,22.665925749985036,4.0,Object_Land_Pattern_Small,9.0,,,,,,,,,,,
encoding,value,20,26610512,26616525,26614836.0,26615436.0,601.0,601.0,2252.8,1256.5,2249.0,891.0,Object_Land_Pattern_Small,,,16.65365170830046,22.665925749985036,4.0,Object_Land_Pattern_Small,9.0,,,,,,,,,,,
encoding,value,20,26610512,26616525,26615444.0,26616806.0,1363.0,1081.0,2242.8,1198.1,2249.0,891.0,Object_Land_Pattern_Small,,,16.65365170830046,22.665925749985036,4.0,Object_Land_Pattern_Small,9.0,,,,,,,,,,,
encoding,attention,20,26616525,26619539,26616815.0,26617882.0,1068.0,1068.0,2286.3,1194.2,2249.0,891.0,Object_Land_Pattern_Small,,,22.66608529165387,25.679811000009067,4.0,Object_Land_Pattern_Small,9.0,9.0,1.0,0.6100443750037812,,,,,,,,
encoding,attention,20,26616525,26619539,26617906.0,26618201.0,296.0,296.0,2063.4,1300.4,2249.0,891.0,Object_Land_Pattern_Small,,,22.66608529165387,25.679811000009067,4.0,Object_Land_Pattern_Small,9.0,9.0,1.0,0.6100443750037812,,,,,,,,
encoding,attention,20,26616525,26619539,26618225.0,26619280.0,1056.0,1056.0,2282.3,1226.8,2249.0,891.0,Object_Land_Pattern_Small,,,22.66608529165387,25.679811000009067,4.0,Object_Land_Pattern_Small,9.0,9.0,1.0,0.6100443750037812,,,,,,,,
encoding,fixation,21,26619539,26620043,26619806.0,26620010.0,205.0,205.0,2004.8,1196.8,2249.0,891.0,Object_Land_Pattern_Small,,,25.67993720830418,26.1834359166387,4.0,Animal_Land_Solid_Small,-3.0,,,,,,,,,,,
encoding,fixation,21,26619539,26620043,26620027.0,26620238.0,212.0,16.0,1911.1,1123.3,1920.0,1080.0,fixation,,,25.67993720830418,26.1834359166387,4.0,Animal_Land_Solid_Small,-3.0,,,,,,,,,,,
encoding,image,21,26620043,26621051,26620264.0,26620974.0,711.0,711.0,1617.3,903.0999999999999,1591.0,1269.0,Animal_Land_Solid_Small,,,26.183543874998577,27.192168458306696,4.0,Animal_Land_Solid_Small,-3.0,,,,,,,,,,,
encoding,image,21,26620043,26621051,26620987.0,26621244.0,258.0,64.0,1557.9,871.0,1591.0,1269.0,Animal_Land_Solid_Small,,,26.183543874998577,27.192168458306696,4.0,Animal_Land_Solid_Small,-3.0,,,,,,,,,,,
encoding,value,21,26621051,26627061,26621258.0,26621930.0,673.0,673.0,1581.8,808.4000000000001,1591.0,1269.0,Animal_Land_Solid_Small,,,27.192282000003615,33.20139574998757,4.0,Animal_Land_Solid_Small,-3.0,,,,,,,,,,,
encoding,value,21,26621051,26627061,26622149.0,26622488.0,340.0,340.0,1571.2,871.0,1591.0,1269.0,Animal_Land_Solid_Small,,,27.192282000003615,33.20139574998757,4.0,Animal_Land_Solid_Small,-3.0,,,,,,,,,,,
encoding,value,21,26621051,26627061,26622500.0,26623458.0,959.0,959.0,1596.9,815.2,1591.0,1269.0,Animal_Land_Solid_Small,,,27.192282000003615,33.20139574998757,4.0,Animal_Land_Solid_Small,-3.0,,,,,,,,,,,
encoding,value,21,26621051,26627061,26623476.0,26623857.0,382.0,382.0,1599.2,885.2,1591.0,1269.0,Animal_Land_Solid_Small,,,27.192282000003615,33.20139574998757,4.0,Animal_Land_Solid_Small,-3.0,,,,,,,,,,,
encoding,value,21,26621051,26627061,26623874.0,26624125.0,252.0,252.0,1583.5,809.0999999999999,1591.0,1269.0,Animal_Land_Solid_Small,,,27.192282000003615,33.20139574998757,4.0,Animal_Land_Solid_Small,-3.0,,,,,,,,,,,
encoding,value,21,26621051,26627061,26624138.0,26625085.0,948.0,948.0,1585.9,859.8,1591.0,1269.0,Animal_Land_Solid_Small,,,27.192282000003615,33.20139574998757,4.0,Animal_Land_Solid_Small,-3.0,,,,,,,,,,,
encoding,value,21,26621051,26627061,26625096.0,26626084.0,989.0,989.0,1598.8,807.7,1591.0,1269.0,Animal_Land_Solid_Small,,,27.192282000003615,33.20139574998757,4.0,Animal_Land_Solid_Small,-3.0,,,,,,,,,,,
encoding,value,21,26621051,26627061,26626343.0,26627116.0,774.0,718.0,1574.7,813.7,1591.0,1269.0,Animal_Land_Solid_Small,,,27.192282000003615,33.20139574998757,4.0,Animal_Land_Solid_Small,-3.0,,,,,,,,,,,
encoding,attention,21,26627061,26630076,26627132.0,26627464.0,333.0,333.0,1589.2,882.2,1591.0,1269.0,Animal_Land_Solid_Small,,,33.20154445830849,36.21647675000713,4.0,Animal_Land_Solid_Small,-3.0,-3.0,1.0,1.249650666693924,,,,,,,,
encoding,attention,21,26627061,26630076,26627480.0,26627715.0,236.0,236.0,1559.8,833.4000000000001,1591.0,1269.0,Animal_Land_Solid_Small,,,33.20154445830849,36.21647675000713,4.0,Animal_Land_Solid_Small,-3.0,-3.0,1.0,1.249650666693924,,,,,,,,
encoding,attention,21,26627061,26630076,26627727.0,26628681.0,955.0,955.0,1625.8,803.0,1591.0,1269.0,Animal_Land_Solid_Small,,,33.20154445830849,36.21647675000713,4.0,Animal_Land_Solid_Small,-3.0,-3.0,1.0,1.249650666693924,,,,,,,,
encoding,fixation,22,26630076,26630580,26630352.0,26630546.0,195.0,195.0,1869.8,1095.3,1920.0,1080.0,fixation,,,36.21660683330265,36.720188250008505,4.0,Animal_Sea_Solid_Large,3.0,,,,,,,,,,,
encoding,fixation,22,26630076,26630580,26630559.0,26630845.0,287.0,21.0,1932.1,1117.7,1920.0,1080.0,fixation,,,36.21660683330265,36.720188250008505,4.0,Animal_Sea_Solid_Large,3.0,,,,,,,,,,,
encoding,image,22,26630580,26631589,26630872.0,26631462.0,591.0,591.0,1881.9,762.2,1920.0,1460.0,Animal_Sea_Solid_Large,,,36.72035158329527,37.72927629164769,4.0,Animal_Sea_Solid_Large,3.0,,,,,,,,,,,
encoding,image,22,26630580,26631589,26631471.0,26631758.0,288.0,118.0,1905.7,723.9000000000001,1920.0,1460.0,Animal_Sea_Solid_Large,,,36.72035158329527,37.72927629164769,4.0,Animal_Sea_Solid_Large,3.0,,,,,,,,,,,
encoding,value,22,26631589,26637598,26631777.0,26632400.0,624.0,624.0,1909.5,640.9000000000001,1920.0,1460.0,Animal_Sea_Solid_Large,,,37.72938337500091,43.738322833320126,4.0,Animal_Sea_Solid_Large,3.0,,,,,,,,,,,
encoding,value,22,26631589,26637598,26632619.0,26632868.0,250.0,250.0,1871.3,728.5999999999999,1920.0,1460.0,Animal_Sea_Solid_Large,,,37.72938337500091,43.738322833320126,4.0,Animal_Sea_Solid_Large,3.0,,,,,,,,,,,
encoding,value,22,26631589,26637598,26632886.0,26638063.0,5178.0,4712.0,1901.4,638.5999999999999,1920.0,1460.0,Animal_Sea_Solid_Large,,,37.72938337500091,43.738322833320126,4.0,Animal_Sea_Solid_Large,3.0,,,,,,,,,,,
encoding,attention,22,26637598,26640612,26638074.0,26638707.0,634.0,634.0,1925.6,625.8,1920.0,1460.0,Animal_Sea_Solid_Large,,,43.7384121666546,46.7517935000069,4.0,Animal_Sea_Solid_Large,3.0,3.0,1.0,0.6195211250160355,,,,,,,,
encoding,attention,22,26637598,26640612,26638726.0,26639314.0,589.0,589.0,1893.1,733.0,1920.0,1460.0,Animal_Sea_Solid_Large,,,43.7384121666546,46.7517935000069,4.0,Animal_Sea_Solid_Large,3.0,3.0,1.0,0.6195211250160355,,,,,,,,
encoding,attention,22,26637598,26640612,26639523.0,26640549.0,1027.0,1027.0,1947.5,1323.6,1920.0,700.0,Object_Sea_Solid_Large,,,43.7384121666546,46.7517935000069,4.0,Animal_Sea_Solid_Large,3.0,3.0,1.0,0.6195211250160355,,,,,,,,
encoding,fixation,23,26640612,26641366,26640623.0,26640820.0,198.0,198.0,1916.3,771.3,1920.0,1460.0,Animal_Sea_Solid_Large,,,46.751993333309656,47.505527625005925,4.0,Object_Sea_Pattern_Large,-8.0,,,,,,,,,,,
encoding,fixation,23,26640612,26641366,26640864.0,26641590.0,727.0,502.0,1918.7,1106.7,1920.0,1080.0,fixation,,,46.751993333309656,47.505527625005925,4.0,Object_Sea_Pattern_Large,-8.0,,,,,,,,,,,
encoding,image,23,26641366,26642375,26641618.0,26641797.0,180.0,180.0,1643.0,1288.3,1591.0,891.0,Object_Sea_Pattern_Large,,,47.505648541642586,48.51512537500821,4.0,Object_Sea_Pattern_Large,-8.0,,,,,,,,,,,
encoding,image,23,26641366,26642375,26642017.0,26642513.0,497.0,358.0,1608.8,1254.5,1591.0,891.0,Object_Sea_Pattern_Large,,,47.505648541642586,48.51512537500821,4.0,Object_Sea_Pattern_Large,-8.0,,,,,,,,,,,
encoding,value,23,26642375,26648385,26642530.0,26643864.0,1335.0,1335.0,1608.1,1167.2,1591.0,891.0,Object_Sea_Pattern_Large,,,48.5152270833205,54.52420691665611,4.0,Object_Sea_Pattern_Large,-8.0,,,,,,,,,,,
encoding,value,23,26642375,26648385,26643884.0,26644466.0,583.0,583.0,1602.7,1249.1,1591.0,891.0,Object_Sea_Pattern_Large,,,48.5152270833205,54.52420691665611,4.0,Object_Sea_Pattern_Large,-8.0,,,,,,,,,,,
encoding,value,23,26642375,26648385,26644639.0,26645014.0,376.0,376.0,1595.6,1232.3,1591.0,891.0,Object_Sea_Pattern_Large,,,48.5152270833205,54.52420691665611,4.0,Object_Sea_Pattern_Large,-8.0,,,,,,,,,,,
encoding,value,23,26642375,26648385,26645025.0,26646034.0,1010.0,1010.0,1601.2,1178.7,1591.0,891.0,Object_Sea_Pattern_Large,,,48.5152270833205,54.52420691665611,4.0,Object_Sea_Pattern_Large,-8.0,,,,,,,,,,,
encoding,value,23,26642375,26648385,26646233.0,26647639.0,1407.0,1407.0,1606.7,1174.7,1591.0,891.0,Object_Sea_Pattern_Large,,,48.5152270833205,54.52420691665611,4.0,Object_Sea_Pattern_Large,-8.0,,,,,,,,,,,
encoding,value,23,26642375,26648385,26647647.0,26648079.0,433.0,433.0,1624.4,1200.4,1591.0,891.0,Object_Sea_Pattern_Large,,,48.5152270833205,54.52420691665611,4.0,Object_Sea_Pattern_Large,-8.0,,,,,,,,,,,
encoding,value,23,26642375,26648385,26648092.0,26648486.0,395.0,293.0,1625.7,1246.4,1591.0,891.0,Object_Sea_Pattern_Large,,,48.5152270833205,54.52420691665611,4.0,Object_Sea_Pattern_Large,-8.0,,,,,,,,,,,
encoding,attention,23,26648385,26651399,26648499.0,26648879.0,381.0,381.0,1634.1,1185.3,1591.0,891.0,Object_Sea_Pattern_Large,,,54.52430424999329,57.53815762500744,4.0,Object_Sea_Pattern_Large,-8.0,-8.0,1.0,0.9297603333252482,,,,,,,,
encoding,attention,23,26648385,26651399,26648892.0,26649806.0,915.0,915.0,1564.1,1161.0,1591.0,891.0,Object_Sea_Pattern_Large,,,54.52430424999329,57.53815762500744,4.0,Object_Sea_Pattern_Large,-8.0,-8.0,1.0,0.9297603333252482,,,,,,,,
encoding,attention,23,26648385,26651399,26650006.0,26650617.0,612.0,612.0,1848.7,1353.8,1920.0,700.0,Object_Sea_Solid_Large,,,54.52430424999329,57.53815762500744,4.0,Object_Sea_Pattern_Large,-8.0,-8.0,1.0,0.9297603333252482,,,,,,,,
encoding,attention,23,26648385,26651399,26650640.0,26651234.0,595.0,595.0,1623.9,1253.9,1591.0,891.0,Object_Sea_Pattern_Large,,,54.52430424999329,57.53815762500744,4.0,Object_Sea_Pattern_Large,-8.0,-8.0,1.0,0.9297603333252482,,,,,,,,
encoding,fixation,24,26651399,26652903,26651595.0,26651741.0,147.0,147.0,1892.5,1155.7,1920.0,700.0,Object_Sea_Solid_Large,,,57.53828404165688,59.042191624990664,4.0,Object_Sea_Solid_Large,3.0,,,,,,,,,,,
encoding,fixation,24,26651399,26652903,26651750.0,26651943.0,194.0,194.0,1929.2,1127.2,1920.0,1080.0,fixation,,,57.53828404165688,59.042191624990664,4.0,Object_Sea_Solid_Large,3.0,,,,,,,,,,,
encoding,fixation,24,26651399,26652903,26651973.0,26652462.0,490.0,490.0,2050.9,1392.5,1920.0,700.0,Object_Sea_Solid_Large,,,57.53828404165688,59.042191624990664,4.0,Object_Sea_Solid_Large,3.0,,,,,,,,,,,
encoding,fixation,24,26651399,26652903,26652680.0,26653162.0,483.0,223.0,1960.2,1359.4,1920.0,700.0,Object_Sea_Solid_Large,,,57.53828404165688,59.042191624990664,4.0,Object_Sea_Solid_Large,3.0,,,,,,,,,,,
encoding,image,24,26652903,26653912,26653187.0,26654109.0,923.0,725.0,1950.9,1493.3,1920.0,700.0,Object_Sea_Solid_Large,,,59.04228270830936,60.051490791665856,4.0,Object_Sea_Solid_Large,3.0,,,,,,,,,,,
encoding,value,24,26653912,26659922,26654130.0,26654473.0,344.0,344.0,1948.2,1405.1,1920.0,700.0,Object_Sea_Solid_Large,,,60.0515995832975,66.06112283331458,4.0,Object_Sea_Solid_Large,3.0,,,,,,,,,,,
encoding,value,24,26653912,26659922,26654680.0,26655693.0,1014.0,1014.0,1949.2,1408.5,1920.0,700.0,Object_Sea_Solid_Large,,,60.0515995832975,66.06112283331458,4.0,Object_Sea_Solid_Large,3.0,,,,,,,,,,,
encoding,value,24,26653912,26659922,26655705.0,26656164.0,460.0,460.0,1940.1,1458.0,1920.0,700.0,Object_Sea_Solid_Large,,,60.0515995832975,66.06112283331458,4.0,Object_Sea_Solid_Large,3.0,,,,,,,,,,,
encoding,value,24,26653912,26659922,26656175.0,26657028.0,854.0,854.0,1951.1,1397.0,1920.0,700.0,Object_Sea_Solid_Large,,,60.0515995832975,66.06112283331458,4.0,Object_Sea_Solid_Large,3.0,,,,,,,,,,,
encoding,value,24,26653912,26659922,26657229.0,26657929.0,701.0,701.0,1952.9,1397.1,1920.0,700.0,Object_Sea_Solid_Large,,,60.0515995832975,66.06112283331458,4.0,Object_Sea_Solid_Large,3.0,,,,,,,,,,,
encoding,value,24,26653912,26659922,26657941.0,26658345.0,405.0,405.0,1943.9,1425.2,1920.0,700.0,Object_Sea_Solid_Large,,,60.0515995832975,66.06112283331458,4.0,Object_Sea_Solid_Large,3.0,,,,,,,,,,,
encoding,value,24,26653912,26659922,26658358.0,26658876.0,519.0,519.0,1938.5,1465.4,1920.0,700.0,Object_Sea_Solid_Large,,,60.0515995832975,66.06112283331458,4.0,Object_Sea_Solid_Large,3.0,,,,,,,,,,,
encoding,value,24,26653912,26659922,26658895.0,26659484.0,590.0,590.0,1927.4,1389.6,1920.0,700.0,Object_Sea_Solid_Large,,,60.0515995832975,66.06112283331458,4.0,Object_Sea_Solid_Large,3.0,,,,,,,,,,,
encoding,value,24,26653912,26659922,26659497.0,26660189.0,693.0,425.0,1941.1,1446.8,1920.0,700.0,Object_Sea_Solid_Large,,,60.0515995832975,66.06112283331458,4.0,Object_Sea_Solid_Large,3.0,,,,,,,,,,,
encoding,attention,24,26659922,26662936,26660202.0,26660333.0,132.0,132.0,1916.8,1402.4,1920.0,700.0,Object_Sea_Solid_Large,,,66.06123245830531,69.07522179165971,4.0,Object_Sea_Solid_Large,3.0,3.0,1.0,0.7590252916852478,,,,,,,,
encoding,attention,24,26659922,26662936,26660346.0,26660949.0,604.0,604.0,1972.8,1373.4,1920.0,700.0,Object_Sea_Solid_Large,,,66.06123245830531,69.07522179165971,4.0,Object_Sea_Solid_Large,3.0,3.0,1.0,0.7590252916852478,,,,,,,,
encoding,attention,24,26659922,26662936,26661178.0,26662101.0,924.0,924.0,1928.6,1478.7,1920.0,700.0,Object_Sea_Solid_Large,,,66.06123245830531,69.07522179165971,4.0,Object_Sea_Solid_Large,3.0,3.0,1.0,0.7590252916852478,,,,,,,,
encoding,attention,24,26659922,26662936,26662119.0,26662641.0,523.0,523.0,1988.9,1394.5,1920.0,700.0,Object_Sea_Solid_Large,,,66.06123245830531,69.07522179165971,4.0,Object_Sea_Solid_Large,3.0,3.0,1.0,0.7590252916852478,,,,,,,,
encoding,fixation,25,26945984,26946740,26946376.0,26946504.0,129.0,129.0,1872.0,1206.7,1920.0,700.0,Object_Sea_Pattern_Small,,,9.110513833351432,9.866051208344288,5.0,Animal_Land_Solid_Large,-1.0,,,,,,,,,,,
encoding,image,25,26946740,26947749,26946760.0,26946913.0,154.0,154.0,1818.5,1421.4,1920.0,700.0,Object_Sea_Pattern_Small,,,9.866152208356652,10.87531166669214,5.0,Animal_Land_Solid_Large,-1.0,,,,,,,,,,,
encoding,image,25,26946740,26947749,26946975.0,26947557.0,583.0,583.0,1585.9,917.9000000000001,1591.0,1269.0,Animal_Land_Solid_Large,,,9.866152208356652,10.87531166669214,5.0,Animal_Land_Solid_Large,-1.0,,,,,,,,,,,
encoding,image,25,26946740,26947749,26947573.0,26947698.0,126.0,126.0,1550.1,821.4000000000001,1591.0,1269.0,Animal_Land_Solid_Large,,,9.866152208356652,10.87531166669214,5.0,Animal_Land_Solid_Large,-1.0,,,,,,,,,,,
encoding,value,25,26947749,26953759,26947948.0,26948016.0,69.0,69.0,1547.6,875.5999999999999,1591.0,1269.0,Animal_Land_Solid_Large,,,10.875414041685872,16.88540633334196,5.0,Animal_Land_Solid_Large,-1.0,,,,,,,,,,,
encoding,value,25,26947749,26953759,26948034.0,26948432.0,399.0,399.0,1559.5,810.0,1591.0,1269.0,Animal_Land_Solid_Large,,,10.875414041685872,16.88540633334196,5.0,Animal_Land_Solid_Large,-1.0,,,,,,,,,,,
encoding,value,25,26947749,26953759,26948683.0,26949106.0,424.0,424.0,1539.6,868.7,1591.0,1269.0,Animal_Land_Solid_Large,,,10.875414041685872,16.88540633334196,5.0,Animal_Land_Solid_Large,-1.0,,,,,,,,,,,
encoding,value,25,26947749,26953759,26949120.0,26949869.0,750.0,750.0,1549.5,799.5999999999999,1591.0,1269.0,Animal_Land_Solid_Large,,,10.875414041685872,16.88540633334196,5.0,Animal_Land_Solid_Large,-1.0,,,,,,,,,,,
encoding,value,25,26947749,26953759,26949886.0,26950511.0,626.0,626.0,1546.3,863.9000000000001,1591.0,1269.0,Animal_Land_Solid_Large,,,10.875414041685872,16.88540633334196,5.0,Animal_Land_Solid_Large,-1.0,,,,,,,,,,,
encoding,value,25,26947749,26953759,26950526.0,26953081.0,2556.0,2556.0,1557.5,793.5,1591.0,1269.0,Animal_Land_Solid_Large,,,10.875414041685872,16.88540633334196,5.0,Animal_Land_Solid_Large,-1.0,,,,,,,,,,,
encoding,value,25,26947749,26953759,26953315.0,26954262.0,948.0,444.0,1560.7,799.0999999999999,1591.0,1269.0,Animal_Land_Solid_Large,,,10.875414041685872,16.88540633334196,5.0,Animal_Land_Solid_Large,-1.0,,,,,,,,,,,
encoding,attention,25,26953759,26956774,26954274.0,26955158.0,885.0,885.0,1614.3,782.3,1591.0,1269.0,Animal_Land_Solid_Large,,,16.885503375000553,19.899560874997405,5.0,Animal_Land_Solid_Large,-1.0,-1.0,1.0,0.8861933749867603,,,,,,,,
encoding,attention,25,26953759,26956774,26955177.0,26955864.0,688.0,688.0,1594.5,887.9000000000001,1591.0,1269.0,Animal_Land_Solid_Large,,,16.885503375000553,19.899560874997405,5.0,Animal_Land_Solid_Large,-1.0,-1.0,1.0,0.8861933749867603,,,,,,,,
encoding,attention,25,26953759,26956774,26956162.0,26956244.0,83.0,83.0,1596.8,1060.7,1591.0,1269.0,Animal_Land_Solid_Large,,,16.885503375000553,19.899560874997405,5.0,Animal_Land_Solid_Large,-1.0,-1.0,1.0,0.8861933749867603,,,,,,,,
encoding,attention,25,26953759,26956774,26956262.0,26956355.0,94.0,94.0,1566.3,937.7,1591.0,1269.0,Animal_Land_Solid_Large,,,16.885503375000553,19.899560874997405,5.0,Animal_Land_Solid_Large,-1.0,-1.0,1.0,0.8861933749867603,,,,,,,,
encoding,fixation,26,26956774,26958027,26957053.0,26957306.0,254.0,254.0,1867.6,1095.9,1920.0,1080.0,fixation,,,19.89970187502331,21.153337541705696,5.0,Object_Land_Solid_Large,4.0,,,,,,,,,,,
encoding,fixation,26,26956774,26958027,26957328.0,26957517.0,190.0,190.0,1956.5,1185.0,1920.0,700.0,Object_Sea_Pattern_Small,,,19.89970187502331,21.153337541705696,5.0,Object_Land_Solid_Large,4.0,,,,,,,,,,,
encoding,fixation,26,26956774,26958027,26957723.0,26958143.0,421.0,304.0,1942.7,1342.7,1920.0,700.0,Object_Sea_Pattern_Small,,,19.89970187502331,21.153337541705696,5.0,Object_Land_Solid_Large,4.0,,,,,,,,,,,
encoding,image,26,26958028,26959036,26958164.0,26958339.0,176.0,176.0,2065.1,1301.1,2249.0,891.0,Animal_Sea_Pattern_Small,,,21.1534319583443,22.161371458350914,5.0,Object_Land_Solid_Large,4.0,,,,,,,,,,,
encoding,image,26,26958028,26959036,26958385.0,26959035.0,651.0,651.0,2172.5,923.8,2249.0,1269.0,Object_Land_Solid_Large,,,21.1534319583443,22.161371458350914,5.0,Object_Land_Solid_Large,4.0,,,,,,,,,,,
encoding,value,26,26959036,26965044,26959232.0,26959568.0,337.0,337.0,2138.3,983.5,2249.0,1269.0,Object_Land_Solid_Large,,,22.16146854168619,28.17000325000845,5.0,Object_Land_Solid_Large,4.0,,,,,,,,,,,
encoding,value,26,26959036,26965044,26959590.0,26959765.0,176.0,176.0,2192.1,835.3,2249.0,1269.0,Object_Land_Solid_Large,,,22.16146854168619,28.17000325000845,5.0,Object_Land_Solid_Large,4.0,,,,,,,,,,,
encoding,value,26,26959036,26965044,26959778.0,26960507.0,730.0,730.0,2198.2,788.4000000000001,2249.0,1269.0,Object_Land_Solid_Large,,,22.16146854168619,28.17000325000845,5.0,Object_Land_Solid_Large,4.0,,,,,,,,,,,
encoding,value,26,26959036,26965044,26960697.0,26961511.0,815.0,815.0,2189.0,880.0,2249.0,1269.0,Object_Land_Solid_Large,,,22.16146854168619,28.17000325000845,5.0,Object_Land_Solid_Large,4.0,,,,,,,,,,,
encoding,value,26,26959036,26965044,26961526.0,26962429.0,904.0,904.0,2191.9,795.5,2249.0,1269.0,Object_Land_Solid_Large,,,22.16146854168619,28.17000325000845,5.0,Object_Land_Solid_Large,4.0,,,,,,,,,,,
encoding,value,26,26959036,26965044,26962442.0,26962638.0,197.0,197.0,2200.9,856.0,2249.0,1269.0,Object_Land_Solid_Large,,,22.16146854168619,28.17000325000845,5.0,Object_Land_Solid_Large,4.0,,,,,,,,,,,
encoding,value,26,26959036,26965044,26962839.0,26963377.0,539.0,539.0,2187.1,911.3,2249.0,1269.0,Object_Land_Solid_Large,,,22.16146854168619,28.17000325000845,5.0,Object_Land_Solid_Large,4.0,,,,,,,,,,,
encoding,value,26,26959036,26965044,26963395.0,26964437.0,1043.0,1043.0,2196.4,801.5999999999999,2249.0,1269.0,Object_Land_Solid_Large,,,22.16146854168619,28.17000325000845,5.0,Object_Land_Solid_Large,4.0,,,,,,,,,,,
encoding,value,26,26959036,26965044,26964453.0,26964677.0,225.0,225.0,2188.5,871.0999999999999,2249.0,1269.0,Object_Land_Solid_Large,,,22.16146854168619,28.17000325000845,5.0,Object_Land_Solid_Large,4.0,,,,,,,,,,,
encoding,value,26,26959036,26965044,26964914.0,26965311.0,398.0,130.0,2146.2,924.3,2249.0,1269.0,Object_Land_Solid_Large,,,22.16146854168619,28.17000325000845,5.0,Object_Land_Solid_Large,4.0,,,,,,,,,,,
encoding,attention,26,26965044,26968058,26965333.0,26965578.0,246.0,246.0,2194.7,810.8,2249.0,1269.0,Object_Land_Solid_Large,,,28.170109291706467,31.18309133333969,5.0,Object_Land_Solid_Large,4.0,4.0,1.0,1.1008602083020378,,,,,,,,
encoding,attention,26,26965044,26968058,26965588.0,26966736.0,1149.0,1149.0,2133.4,789.4000000000001,2249.0,1269.0,Object_Land_Solid_Large,,,28.170109291706467,31.18309133333969,5.0,Object_Land_Solid_Large,4.0,4.0,1.0,1.1008602083020378,,,,,,,,
encoding,attention,26,26965044,26968058,26966757.0,26967034.0,278.0,278.0,2193.0,917.8,2249.0,1269.0,Object_Land_Solid_Large,,,28.170109291706467,31.18309133333969,5.0,Object_Land_Solid_Large,4.0,4.0,1.0,1.1008602083020378,,,,,,,,
encoding,attention,26,26965044,26968058,26967277.0,26967449.0,173.0,173.0,1686.9,993.2,1591.0,1269.0,Animal_Land_Solid_Large,,,28.170109291706467,31.18309133333969,5.0,Object_Land_Solid_Large,4.0,4.0,1.0,1.1008602083020378,,,,,,,,
encoding,attention,26,26965044,26968058,26967495.0,26967982.0,488.0,488.0,2188.5,869.4000000000001,2249.0,1269.0,Object_Land_Solid_Large,,,28.170109291706467,31.18309133333969,5.0,Object_Land_Solid_Large,4.0,4.0,1.0,1.1008602083020378,,,,,,,,
encoding,fixation,27,26968058,26968561,26968338.0,26968736.0,399.0,223.0,1617.8,967.7,1591.0,1269.0,Animal_Land_Solid_Large,,,31.183240375015885,31.6866017083521,5.0,Object_Sea_Pattern_Small,-5.0,,,,,,,,,,,
encoding,image,27,26968561,26969571,26968773.0,26968957.0,185.0,185.0,1891.6,1350.4,1920.0,700.0,Object_Sea_Pattern_Small,,,31.686699541693088,32.6962860833446,5.0,Object_Sea_Pattern_Small,-5.0,,,,,,,,,,,
encoding,image,27,26968561,26969571,26968975.0,26969169.0,195.0,195.0,1917.0,1443.2,1920.0,700.0,Object_Sea_Pattern_Small,,,31.686699541693088,32.6962860833446,5.0,Object_Sea_Pattern_Small,-5.0,,,,,,,,,,,
encoding,image,27,26968561,26969571,26969404.0,26969752.0,349.0,167.0,1914.1,1422.7,1920.0,700.0,Object_Sea_Pattern_Small,,,31.686699541693088,32.6962860833446,5.0,Object_Sea_Pattern_Small,-5.0,,,,,,,,,,,
encoding,value,27,26969571,26975581,26969763.0,26970432.0,670.0,670.0,1916.6,1379.2,1920.0,700.0,Object_Sea_Pattern_Small,,,32.69645075002336,38.705624916707166,5.0,Object_Sea_Pattern_Small,-5.0,,,,,,,,,,,
encoding,value,27,26969571,26975581,26970696.0,26971171.0,476.0,476.0,1921.9,1394.8,1920.0,700.0,Object_Sea_Pattern_Small,,,32.69645075002336,38.705624916707166,5.0,Object_Sea_Pattern_Small,-5.0,,,,,,,,,,,
encoding,value,27,26969571,26975581,26971412.0,26971746.0,335.0,335.0,1906.6,1393.7,1920.0,700.0,Object_Sea_Pattern_Small,,,32.69645075002336,38.705624916707166,5.0,Object_Sea_Pattern_Small,-5.0,,,,,,,,,,,
encoding,value,27,26969571,26975581,26971755.0,26971916.0,162.0,162.0,1913.1,1379.6,1920.0,700.0,Object_Sea_Pattern_Small,,,32.69645075002336,38.705624916707166,5.0,Object_Sea_Pattern_Small,-5.0,,,,,,,,,,,
encoding,value,27,26969571,26975581,26972159.0,26972478.0,320.0,320.0,1914.0,1439.1,1920.0,700.0,Object_Sea_Pattern_Small,,,32.69645075002336,38.705624916707166,5.0,Object_Sea_Pattern_Small,-5.0,,,,,,,,,,,
encoding,value,27,26969571,26975581,26972492.0,26972788.0,297.0,297.0,1925.1,1392.1,1920.0,700.0,Object_Sea_Pattern_Small,,,32.69645075002336,38.705624916707166,5.0,Object_Sea_Pattern_Small,-5.0,,,,,,,,,,,
encoding,value,27,26969571,26975581,26972825.0,26973024.0,200.0,200.0,2013.2,1234.4,2249.0,891.0,Animal_Sea_Pattern_Small,,,32.69645075002336,38.705624916707166,5.0,Object_Sea_Pattern_Small,-5.0,,,,,,,,,,,
encoding,value,27,26969571,26975581,26973043.0,26973228.0,186.0,186.0,1885.0,1176.2,1920.0,700.0,Object_Sea_Pattern_Small,,,32.69645075002336,38.705624916707166,5.0,Object_Sea_Pattern_Small,-5.0,,,,,,,,,,,
encoding,value,27,26969571,26975581,26973265.0,26973702.0,438.0,438.0,1913.8,1387.1,1920.0,700.0,Object_Sea_Pattern_Small,,,32.69645075002336,38.705624916707166,5.0,Object_Sea_Pattern_Small,-5.0,,,,,,,,,,,
encoding,value,27,26969571,26975581,26973714.0,26973935.0,222.0,222.0,1918.9,1423.8,1920.0,700.0,Object_Sea_Pattern_Small,,,32.69645075002336,38.705624916707166,5.0,Object_Sea_Pattern_Small,-5.0,,,,,,,,,,,
encoding,value,27,26969571,26975581,26973952.0,26974146.0,195.0,195.0,1916.5,1364.5,1920.0,700.0,Object_Sea_Pattern_Small,,,32.69645075002336,38.705624916707166,5.0,Object_Sea_Pattern_Small,-5.0,,,,,,,,,,,
